[{"success":true,"trial_type":"fullscreen","trial_index":0,"time_elapsed":1510685,"internal_node_id":"0.0-0.0","subject_id":"5f3db8e8785f8b1dd1c70f50","study_id":"60edd13110225f80f9f3709b","session_id":"6196c6ff582aeb9266bb5fb3","condition":"contingent","relevant_dimensions":["wings","pattern"],"bee_group":{"antennae":"X","wings":"1","pattern":"S","legs":"X"},"bonus":0.520000000000001},{"success":true,"timeout":false,"failed_images":[],"failed_audio":[],"failed_video":[],"trial_type":"preload","trial_index":1,"time_elapsed":1512614,"internal_node_id":"0.0-1.0","subject_id":"5f3db8e8785f8b1dd1c70f50","study_id":"60edd13110225f80f9f3709b","session_id":"6196c6ff582aeb9266bb5fb3","condition":"contingent","relevant_dimensions":["wings","pattern"],"bee_group":{"antennae":"X","wings":"1","pattern":"S","legs":"X"},"bonus":0.520000000000001},{"rt":2091.100000000093,"stimulus":"Welcome! Press any key to begin.","response":" ","trial_type":"html-keyboard-response","trial_index":2,"time_elapsed":1514706,"internal_node_id":"0.0-2.0","subject_id":"5f3db8e8785f8b1dd1c70f50","study_id":"60edd13110225f80f9f3709b","session_id":"6196c6ff582aeb9266bb5fb3","condition":"contingent","relevant_dimensions":["wings","pattern"],"bee_group":{"antennae":"X","wings":"1","pattern":"S","legs":"X"},"bonus":0.520000000000001},{"view_history":[{"page_index":0,"viewing_time":3078.9000000001397},{"page_index":1,"viewing_time":26225.799999999814},{"page_index":2,"viewing_time":17292.100000000093},{"page_index":3,"viewing_time":24210},{"page_index":4,"viewing_time":9488},{"page_index":5,"viewing_time":9908.300000000047},{"page_index":6,"viewing_time":14151.800000000047},{"page_index":7,"viewing_time":3311.399999999907},{"page_index":8,"viewing_time":3861.5},{"page_index":9,"viewing_time":4236.5},{"page_index":10,"viewing_time":3426.399999999907},{"page_index":11,"viewing_time":15519.90000000014},{"page_index":12,"viewing_time":14108.699999999953},{"page_index":13,"viewing_time":210280.2000000002},{"page_index":14,"viewing_time":9822.099999999627}],"rt":368922.19999999995,"trial_type":"instructions","trial_index":3,"time_elapsed":1883629,"internal_node_id":"0.0-3.0-0.0","subject_id":"5f3db8e8785f8b1dd1c70f50","study_id":"60edd13110225f80f9f3709b","session_id":"6196c6ff582aeb9266bb5fb3","condition":"contingent","relevant_dimensions":["wings","pattern"],"bee_group":{"antennae":"X","wings":"1","pattern":"S","legs":"X"},"bonus":0.520000000000001},{"rt":13637.5,"response":{"Q0":["Two or six legs","Single or double wings","Antennae or no antennae"]},"question_order":[0],"trial_type":"survey-multi-select","trial_index":4,"time_elapsed":1897271,"internal_node_id":"0.0-3.0-1.0","subject_id":"5f3db8e8785f8b1dd1c70f50","study_id":"60edd13110225f80f9f3709b","session_id":"6196c6ff582aeb9266bb5fb3","condition":"contingent","relevant_dimensions":["wings","pattern"],"bee_group":{"antennae":"X","wings":"1","pattern":"S","legs":"X"},"correct":false,"bonus":0.520000000000001},{"rt":13671.100000000093,"response":{"Q1":"Yes.","Q2":"Based on the order in which you see the bees.","Q3":"You do not learn if it was friendly or dangerous, and do not alter your bonus."},"question_order":[0,1,2],"trial_type":"survey-multi-choice","trial_index":5,"time_elapsed":1910943,"internal_node_id":"0.0-3.0-2.0","subject_id":"5f3db8e8785f8b1dd1c70f50","study_id":"60edd13110225f80f9f3709b","session_id":"6196c6ff582aeb9266bb5fb3","condition":"contingent","relevant_dimensions":["wings","pattern"],"bee_group":{"antennae":"X","wings":"1","pattern":"S","legs":"X"},"correct":false,"bonus":0.520000000000001},{"rt":2649,"stimulus":"<p>You did not answer all comprehension questions correctly.<br>Press <b>continue</b> to review the instructions again.</p>","response":0,"trial_type":"html-button-response","trial_index":6,"time_elapsed":1913594,"internal_node_id":"0.0-3.0-3.0","subject_id":"5f3db8e8785f8b1dd1c70f50","study_id":"60edd13110225f80f9f3709b","session_id":"6196c6ff582aeb9266bb5fb3","condition":"contingent","relevant_dimensions":["wings","pattern"],"bee_group":{"antennae":"X","wings":"1","pattern":"S","legs":"X"},"bonus":0.520000000000001},{"view_history":[{"page_index":0,"viewing_time":1305.9000000003725},{"page_index":1,"viewing_time":2368.2999999998137},{"page_index":2,"viewing_time":1622.2999999998137},{"page_index":3,"viewing_time":1270.1000000000931},{"page_index":4,"viewing_time":1721.1000000000931},{"page_index":5,"viewing_time":5795.899999999907},{"page_index":6,"viewing_time":3690.3000000002794},{"page_index":7,"viewing_time":1972.5999999996275},{"page_index":8,"viewing_time":1475.9000000003725},{"page_index":9,"viewing_time":1655.1999999997206},{"page_index":10,"viewing_time":1261.1000000000931},{"page_index":11,"viewing_time":2664.7000000001863},{"page_index":12,"viewing_time":1100.7999999998137},{"page_index":13,"viewing_time":833.1000000000931},{"page_index":14,"viewing_time":654.1999999997206}],"rt":29391.900000000373,"trial_type":"instructions","trial_index":7,"time_elapsed":1942986,"internal_node_id":"0.0-3.0-4.0-0.0","subject_id":"5f3db8e8785f8b1dd1c70f50","study_id":"60edd13110225f80f9f3709b","session_id":"6196c6ff582aeb9266bb5fb3","condition":"contingent","relevant_dimensions":["wings","pattern"],"bee_group":{"antennae":"X","wings":"1","pattern":"S","legs":"X"},"bonus":0.520000000000001},{"rt":6981.5,"response":{"Q0":["Two or six legs","Stripes or spots on body","Single or double wings","Antennae or no antennae"]},"question_order":[0],"trial_type":"survey-multi-select","trial_index":8,"time_elapsed":1949970,"internal_node_id":"0.0-3.0-4.0-1.0","subject_id":"5f3db8e8785f8b1dd1c70f50","study_id":"60edd13110225f80f9f3709b","session_id":"6196c6ff582aeb9266bb5fb3","condition":"contingent","relevant_dimensions":["wings","pattern"],"bee_group":{"antennae":"X","wings":"1","pattern":"S","legs":"X"},"correct":true,"bonus":0.520000000000001},{"rt":11821.200000000186,"response":{"Q1":"No.","Q2":"Based on the four features of the bee.","Q3":"You do not learn if it was friendly or dangerous, and do not alter your bonus."},"question_order":[0,1,2],"trial_type":"survey-multi-choice","trial_index":9,"time_elapsed":1961793,"internal_node_id":"0.0-3.0-4.0-2.0","subject_id":"5f3db8e8785f8b1dd1c70f50","study_id":"60edd13110225f80f9f3709b","session_id":"6196c6ff582aeb9266bb5fb3","condition":"contingent","relevant_dimensions":["wings","pattern"],"bee_group":{"antennae":"X","wings":"1","pattern":"S","legs":"X"},"correct":true,"bonus":0.520000000000001},{"rt":2692.1999999997206,"stimulus":"<p>Congrats, you got everything right<br>When you're ready, click the button below to continue to the experiment.</p>","response":0,"trial_type":"html-button-response","trial_index":10,"time_elapsed":1964486,"internal_node_id":"0.0-3.0-4.0-3.0","subject_id":"5f3db8e8785f8b1dd1c70f50","study_id":"60edd13110225f80f9f3709b","session_id":"6196c6ff582aeb9266bb5fb3","condition":"contingent","relevant_dimensions":["wings","pattern"],"bee_group":{"antennae":"X","wings":"1","pattern":"S","legs":"X"},"bonus":0.520000000000001},{"rt":3997.7000000001863,"stimulus":"bees-with-color/bee-B2SF.svg","response":0,"trial_type":"image-button-response","trial_index":11,"time_elapsed":1968486,"internal_node_id":"0.0-4.0-0.0","subject_id":"5f3db8e8785f8b1dd1c70f50","study_id":"60edd13110225f80f9f3709b","session_id":"6196c6ff582aeb9266bb5fb3","condition":"contingent","relevant_dimensions":["wings","pattern"],"bee_group":{"antennae":"X","wings":"1","pattern":"S","legs":"X"},"action":"harvest","summary":"good-harvest","bonus":0.520000000000001},{"rt":5332.700000000186,"stimulus":"\n                    <p><b>Action: <em>harvest</em></b></p>\n                    <p>This is the bee that you just saw.</p>\n                    <img src=\"bees-with-color/bee-B2SF.svg\" width=\"200\">\n                    <p><span class=\"greenText\"><b>Successful harvest!</b></span><br>Your pay has increased by $0.02. Your bonus pay is now $0.56.</p>\n            ","response":0,"trial_type":"html-button-response","trial_index":12,"time_elapsed":1973820,"internal_node_id":"0.0-4.0-1.0","subject_id":"5f3db8e8785f8b1dd1c70f50","study_id":"60edd13110225f80f9f3709b","session_id":"6196c6ff582aeb9266bb5fb3","condition":"contingent","relevant_dimensions":["wings","pattern"],"bee_group":{"antennae":"X","wings":"1","pattern":"S","legs":"X"},"bonus":0.520000000000001},{"rt":2297.6999999997206,"stimulus":"bees-with-color/bee-A1DF.svg","response":1,"trial_type":"image-button-response","trial_index":13,"time_elapsed":1976119,"internal_node_id":"0.0-4.0-0.1","subject_id":"5f3db8e8785f8b1dd1c70f50","study_id":"60edd13110225f80f9f3709b","session_id":"6196c6ff582aeb9266bb5fb3","condition":"contingent","relevant_dimensions":["wings","pattern"],"bee_group":{"antennae":"X","wings":"1","pattern":"S","legs":"X"},"action":"avoid","summary":"bad-avoid","bonus":0.520000000000001},{"rt":7408.899999999907,"stimulus":"\n                    <p><b>Action: <em>avoid</em></b></p>\n                    <p>This is the bee that you just saw.</p>\n                    <img src=\"bees-with-color/bee-A1DF.svg\" width=\"200\">\n                    <p><br>Your bonus pay is unchanged, and remains at $0.56.</p>\n            ","response":0,"trial_type":"html-button-response","trial_index":14,"time_elapsed":1983529,"internal_node_id":"0.0-4.0-1.1","subject_id":"5f3db8e8785f8b1dd1c70f50","study_id":"60edd13110225f80f9f3709b","session_id":"6196c6ff582aeb9266bb5fb3","condition":"contingent","relevant_dimensions":["wings","pattern"],"bee_group":{"antennae":"X","wings":"1","pattern":"S","legs":"X"},"bonus":0.520000000000001},{"rt":5166.199999999721,"stimulus":"bees-with-color/bee-B2DM.svg","response":0,"trial_type":"image-button-response","trial_index":15,"time_elapsed":1988697,"internal_node_id":"0.0-4.0-0.2","subject_id":"5f3db8e8785f8b1dd1c70f50","study_id":"60edd13110225f80f9f3709b","session_id":"6196c6ff582aeb9266bb5fb3","condition":"contingent","relevant_dimensions":["wings","pattern"],"bee_group":{"antennae":"X","wings":"1","pattern":"S","legs":"X"},"action":"harvest","summary":"good-harvest","bonus":0.520000000000001},{"rt":2005.8000000002794,"stimulus":"\n                    <p><b>Action: <em>harvest</em></b></p>\n                    <p>This is the bee that you just saw.</p>\n                    <img src=\"bees-with-color/bee-B2DM.svg\" width=\"200\">\n                    <p><span class=\"greenText\"><b>Successful harvest!</b></span><br>Your pay has increased by $0.02. Your bonus pay is now $0.58.</p>\n            ","response":0,"trial_type":"html-button-response","trial_index":16,"time_elapsed":1990704,"internal_node_id":"0.0-4.0-1.2","subject_id":"5f3db8e8785f8b1dd1c70f50","study_id":"60edd13110225f80f9f3709b","session_id":"6196c6ff582aeb9266bb5fb3","condition":"contingent","relevant_dimensions":["wings","pattern"],"bee_group":{"antennae":"X","wings":"1","pattern":"S","legs":"X"},"bonus":0.520000000000001},{"rt":3953.3000000002794,"stimulus":"bees-with-color/bee-A2DM.svg","response":0,"trial_type":"image-button-response","trial_index":17,"time_elapsed":1994658,"internal_node_id":"0.0-4.0-0.3","subject_id":"5f3db8e8785f8b1dd1c70f50","study_id":"60edd13110225f80f9f3709b","session_id":"6196c6ff582aeb9266bb5fb3","condition":"contingent","relevant_dimensions":["wings","pattern"],"bee_group":{"antennae":"X","wings":"1","pattern":"S","legs":"X"},"action":"harvest","summary":"good-harvest","bonus":0.520000000000001},{"rt":1352,"stimulus":"\n                    <p><b>Action: <em>harvest</em></b></p>\n                    <p>This is the bee that you just saw.</p>\n                    <img src=\"bees-with-color/bee-A2DM.svg\" width=\"200\">\n                    <p><span class=\"greenText\"><b>Successful harvest!</b></span><br>Your pay has increased by $0.02. Your bonus pay is now $0.60.</p>\n            ","response":0,"trial_type":"html-button-response","trial_index":18,"time_elapsed":1996012,"internal_node_id":"0.0-4.0-1.3","subject_id":"5f3db8e8785f8b1dd1c70f50","study_id":"60edd13110225f80f9f3709b","session_id":"6196c6ff582aeb9266bb5fb3","condition":"contingent","relevant_dimensions":["wings","pattern"],"bee_group":{"antennae":"X","wings":"1","pattern":"S","legs":"X"},"bonus":0.520000000000001},{"rt":2817.100000000093,"stimulus":"bees-with-color/bee-B1SM.svg","response":0,"trial_type":"image-button-response","trial_index":19,"time_elapsed":1998830,"internal_node_id":"0.0-4.0-0.4","subject_id":"5f3db8e8785f8b1dd1c70f50","study_id":"60edd13110225f80f9f3709b","session_id":"6196c6ff582aeb9266bb5fb3","condition":"contingent","relevant_dimensions":["wings","pattern"],"bee_group":{"antennae":"X","wings":"1","pattern":"S","legs":"X"},"action":"harvest","summary":"bad-harvest","bonus":0.520000000000001},{"rt":9044.900000000373,"stimulus":"\n                    <p><b>Action: <em>harvest</em></b></p>\n                    <p>This is the bee that you just saw.</p>\n                    <img src=\"bees-with-color/bee-B1SM.svg\" width=\"200\">\n                    <p><span class=\"redText\">Bad choice, the bee was angry.</span><br><b>You have been stung!</b><br>Your pay has been decreased by $0.10. Your bonus pay is now $0.50.</p>\n            ","response":0,"trial_type":"html-button-response","trial_index":20,"time_elapsed":2007876,"internal_node_id":"0.0-4.0-1.4","subject_id":"5f3db8e8785f8b1dd1c70f50","study_id":"60edd13110225f80f9f3709b","session_id":"6196c6ff582aeb9266bb5fb3","condition":"contingent","relevant_dimensions":["wings","pattern"],"bee_group":{"antennae":"X","wings":"1","pattern":"S","legs":"X"},"bonus":0.520000000000001},{"rt":3399.100000000093,"stimulus":"bees-with-color/bee-B1DF.svg","response":0,"trial_type":"image-button-response","trial_index":21,"time_elapsed":2011276,"internal_node_id":"0.0-4.0-0.5","subject_id":"5f3db8e8785f8b1dd1c70f50","study_id":"60edd13110225f80f9f3709b","session_id":"6196c6ff582aeb9266bb5fb3","condition":"contingent","relevant_dimensions":["wings","pattern"],"bee_group":{"antennae":"X","wings":"1","pattern":"S","legs":"X"},"action":"harvest","summary":"good-harvest","bonus":0.520000000000001},{"rt":2666.2000000001863,"stimulus":"\n                    <p><b>Action: <em>harvest</em></b></p>\n                    <p>This is the bee that you just saw.</p>\n                    <img src=\"bees-with-color/bee-B1DF.svg\" width=\"200\">\n                    <p><span class=\"greenText\"><b>Successful harvest!</b></span><br>Your pay has increased by $0.02. Your bonus pay is now $0.52.</p>\n            ","response":0,"trial_type":"html-button-response","trial_index":22,"time_elapsed":2013944,"internal_node_id":"0.0-4.0-1.5","subject_id":"5f3db8e8785f8b1dd1c70f50","study_id":"60edd13110225f80f9f3709b","session_id":"6196c6ff582aeb9266bb5fb3","condition":"contingent","relevant_dimensions":["wings","pattern"],"bee_group":{"antennae":"X","wings":"1","pattern":"S","legs":"X"},"bonus":0.520000000000001},{"rt":1735.8999999999069,"stimulus":"bees-with-color/bee-B2DF.svg","response":0,"trial_type":"image-button-response","trial_index":23,"time_elapsed":2015681,"internal_node_id":"0.0-4.0-0.6","subject_id":"5f3db8e8785f8b1dd1c70f50","study_id":"60edd13110225f80f9f3709b","session_id":"6196c6ff582aeb9266bb5fb3","condition":"contingent","relevant_dimensions":["wings","pattern"],"bee_group":{"antennae":"X","wings":"1","pattern":"S","legs":"X"},"action":"harvest","summary":"good-harvest","bonus":0.520000000000001},{"rt":1188.5,"stimulus":"\n                    <p><b>Action: <em>harvest</em></b></p>\n                    <p>This is the bee that you just saw.</p>\n                    <img src=\"bees-with-color/bee-B2DF.svg\" width=\"200\">\n                    <p><span class=\"greenText\"><b>Successful harvest!</b></span><br>Your pay has increased by $0.02. Your bonus pay is now $0.54.</p>\n            ","response":0,"trial_type":"html-button-response","trial_index":24,"time_elapsed":2016871,"internal_node_id":"0.0-4.0-1.6","subject_id":"5f3db8e8785f8b1dd1c70f50","study_id":"60edd13110225f80f9f3709b","session_id":"6196c6ff582aeb9266bb5fb3","condition":"contingent","relevant_dimensions":["wings","pattern"],"bee_group":{"antennae":"X","wings":"1","pattern":"S","legs":"X"},"bonus":0.520000000000001},{"rt":2734.399999999907,"stimulus":"bees-with-color/bee-A1SF.svg","response":0,"trial_type":"image-button-response","trial_index":25,"time_elapsed":2019606,"internal_node_id":"0.0-4.0-0.7","subject_id":"5f3db8e8785f8b1dd1c70f50","study_id":"60edd13110225f80f9f3709b","session_id":"6196c6ff582aeb9266bb5fb3","condition":"contingent","relevant_dimensions":["wings","pattern"],"bee_group":{"antennae":"X","wings":"1","pattern":"S","legs":"X"},"action":"harvest","summary":"bad-harvest","bonus":0.520000000000001},{"rt":2721.3000000002794,"stimulus":"\n                    <p><b>Action: <em>harvest</em></b></p>\n                    <p>This is the bee that you just saw.</p>\n                    <img src=\"bees-with-color/bee-A1SF.svg\" width=\"200\">\n                    <p><span class=\"redText\">Bad choice, the bee was angry.</span><br><b>You have been stung!</b><br>Your pay has been decreased by $0.10. Your bonus pay is now $0.44.</p>\n            ","response":0,"trial_type":"html-button-response","trial_index":26,"time_elapsed":2022329,"internal_node_id":"0.0-4.0-1.7","subject_id":"5f3db8e8785f8b1dd1c70f50","study_id":"60edd13110225f80f9f3709b","session_id":"6196c6ff582aeb9266bb5fb3","condition":"contingent","relevant_dimensions":["wings","pattern"],"bee_group":{"antennae":"X","wings":"1","pattern":"S","legs":"X"},"bonus":0.520000000000001},{"rt":1668.7000000001863,"stimulus":"bees-with-color/bee-A2DF.svg","response":0,"trial_type":"image-button-response","trial_index":27,"time_elapsed":2023999,"internal_node_id":"0.0-4.0-0.8","subject_id":"5f3db8e8785f8b1dd1c70f50","study_id":"60edd13110225f80f9f3709b","session_id":"6196c6ff582aeb9266bb5fb3","condition":"contingent","relevant_dimensions":["wings","pattern"],"bee_group":{"antennae":"X","wings":"1","pattern":"S","legs":"X"},"action":"harvest","summary":"good-harvest","bonus":0.520000000000001},{"rt":797.8999999999069,"stimulus":"\n                    <p><b>Action: <em>harvest</em></b></p>\n                    <p>This is the bee that you just saw.</p>\n                    <img src=\"bees-with-color/bee-A2DF.svg\" width=\"200\">\n                    <p><span class=\"greenText\"><b>Successful harvest!</b></span><br>Your pay has increased by $0.02. Your bonus pay is now $0.46.</p>\n            ","response":0,"trial_type":"html-button-response","trial_index":28,"time_elapsed":2024798,"internal_node_id":"0.0-4.0-1.8","subject_id":"5f3db8e8785f8b1dd1c70f50","study_id":"60edd13110225f80f9f3709b","session_id":"6196c6ff582aeb9266bb5fb3","condition":"contingent","relevant_dimensions":["wings","pattern"],"bee_group":{"antennae":"X","wings":"1","pattern":"S","legs":"X"},"bonus":0.520000000000001},{"rt":1283.1000000000931,"stimulus":"bees-with-color/bee-A2SM.svg","response":0,"trial_type":"image-button-response","trial_index":29,"time_elapsed":2026082,"internal_node_id":"0.0-4.0-0.9","subject_id":"5f3db8e8785f8b1dd1c70f50","study_id":"60edd13110225f80f9f3709b","session_id":"6196c6ff582aeb9266bb5fb3","condition":"contingent","relevant_dimensions":["wings","pattern"],"bee_group":{"antennae":"X","wings":"1","pattern":"S","legs":"X"},"action":"harvest","summary":"good-harvest","bonus":0.520000000000001},{"rt":747.8999999999069,"stimulus":"\n                    <p><b>Action: <em>harvest</em></b></p>\n                    <p>This is the bee that you just saw.</p>\n                    <img src=\"bees-with-color/bee-A2SM.svg\" width=\"200\">\n                    <p><span class=\"greenText\"><b>Successful harvest!</b></span><br>Your pay has increased by $0.02. Your bonus pay is now $0.48.</p>\n            ","response":0,"trial_type":"html-button-response","trial_index":30,"time_elapsed":2026831,"internal_node_id":"0.0-4.0-1.9","subject_id":"5f3db8e8785f8b1dd1c70f50","study_id":"60edd13110225f80f9f3709b","session_id":"6196c6ff582aeb9266bb5fb3","condition":"contingent","relevant_dimensions":["wings","pattern"],"bee_group":{"antennae":"X","wings":"1","pattern":"S","legs":"X"},"bonus":0.520000000000001},{"rt":1419,"stimulus":"bees-with-color/bee-A1SM.svg","response":1,"trial_type":"image-button-response","trial_index":31,"time_elapsed":2028251,"internal_node_id":"0.0-4.0-0.10","subject_id":"5f3db8e8785f8b1dd1c70f50","study_id":"60edd13110225f80f9f3709b","session_id":"6196c6ff582aeb9266bb5fb3","condition":"contingent","relevant_dimensions":["wings","pattern"],"bee_group":{"antennae":"X","wings":"1","pattern":"S","legs":"X"},"action":"avoid","summary":"good-avoid","bonus":0.520000000000001},{"rt":1556.8999999999069,"stimulus":"\n                    <p><b>Action: <em>avoid</em></b></p>\n                    <p>This is the bee that you just saw.</p>\n                    <img src=\"bees-with-color/bee-A1SM.svg\" width=\"200\">\n                    <p><br>Your bonus pay is unchanged, and remains at $0.48.</p>\n            ","response":0,"trial_type":"html-button-response","trial_index":32,"time_elapsed":2029810,"internal_node_id":"0.0-4.0-1.10","subject_id":"5f3db8e8785f8b1dd1c70f50","study_id":"60edd13110225f80f9f3709b","session_id":"6196c6ff582aeb9266bb5fb3","condition":"contingent","relevant_dimensions":["wings","pattern"],"bee_group":{"antennae":"X","wings":"1","pattern":"S","legs":"X"},"bonus":0.520000000000001},{"rt":1094.1000000000931,"stimulus":"bees-with-color/bee-B1DM.svg","response":0,"trial_type":"image-button-response","trial_index":33,"time_elapsed":2030905,"internal_node_id":"0.0-4.0-0.11","subject_id":"5f3db8e8785f8b1dd1c70f50","study_id":"60edd13110225f80f9f3709b","session_id":"6196c6ff582aeb9266bb5fb3","condition":"contingent","relevant_dimensions":["wings","pattern"],"bee_group":{"antennae":"X","wings":"1","pattern":"S","legs":"X"},"action":"harvest","summary":"good-harvest","bonus":0.520000000000001},{"rt":718,"stimulus":"\n                    <p><b>Action: <em>harvest</em></b></p>\n                    <p>This is the bee that you just saw.</p>\n                    <img src=\"bees-with-color/bee-B1DM.svg\" width=\"200\">\n                    <p><span class=\"greenText\"><b>Successful harvest!</b></span><br>Your pay has increased by $0.02. Your bonus pay is now $0.50.</p>\n            ","response":0,"trial_type":"html-button-response","trial_index":34,"time_elapsed":2031624,"internal_node_id":"0.0-4.0-1.11","subject_id":"5f3db8e8785f8b1dd1c70f50","study_id":"60edd13110225f80f9f3709b","session_id":"6196c6ff582aeb9266bb5fb3","condition":"contingent","relevant_dimensions":["wings","pattern"],"bee_group":{"antennae":"X","wings":"1","pattern":"S","legs":"X"},"bonus":0.520000000000001},{"rt":2271.399999999907,"stimulus":"bees-with-color/bee-A1DM.svg","response":1,"trial_type":"image-button-response","trial_index":35,"time_elapsed":2033896,"internal_node_id":"0.0-4.0-0.12","subject_id":"5f3db8e8785f8b1dd1c70f50","study_id":"60edd13110225f80f9f3709b","session_id":"6196c6ff582aeb9266bb5fb3","condition":"contingent","relevant_dimensions":["wings","pattern"],"bee_group":{"antennae":"X","wings":"1","pattern":"S","legs":"X"},"action":"avoid","summary":"bad-avoid","bonus":0.520000000000001},{"rt":967.2999999998137,"stimulus":"\n                    <p><b>Action: <em>avoid</em></b></p>\n                    <p>This is the bee that you just saw.</p>\n                    <img src=\"bees-with-color/bee-A1DM.svg\" width=\"200\">\n                    <p><br>Your bonus pay is unchanged, and remains at $0.50.</p>\n            ","response":0,"trial_type":"html-button-response","trial_index":36,"time_elapsed":2034864,"internal_node_id":"0.0-4.0-1.12","subject_id":"5f3db8e8785f8b1dd1c70f50","study_id":"60edd13110225f80f9f3709b","session_id":"6196c6ff582aeb9266bb5fb3","condition":"contingent","relevant_dimensions":["wings","pattern"],"bee_group":{"antennae":"X","wings":"1","pattern":"S","legs":"X"},"bonus":0.520000000000001},{"rt":1655.7999999998137,"stimulus":"bees-with-color/bee-B1SF.svg","response":1,"trial_type":"image-button-response","trial_index":37,"time_elapsed":2036521,"internal_node_id":"0.0-4.0-0.13","subject_id":"5f3db8e8785f8b1dd1c70f50","study_id":"60edd13110225f80f9f3709b","session_id":"6196c6ff582aeb9266bb5fb3","condition":"contingent","relevant_dimensions":["wings","pattern"],"bee_group":{"antennae":"X","wings":"1","pattern":"S","legs":"X"},"action":"avoid","summary":"good-avoid","bonus":0.520000000000001},{"rt":619,"stimulus":"\n                    <p><b>Action: <em>avoid</em></b></p>\n                    <p>This is the bee that you just saw.</p>\n                    <img src=\"bees-with-color/bee-B1SF.svg\" width=\"200\">\n                    <p><br>Your bonus pay is unchanged, and remains at $0.50.</p>\n            ","response":0,"trial_type":"html-button-response","trial_index":38,"time_elapsed":2037142,"internal_node_id":"0.0-4.0-1.13","subject_id":"5f3db8e8785f8b1dd1c70f50","study_id":"60edd13110225f80f9f3709b","session_id":"6196c6ff582aeb9266bb5fb3","condition":"contingent","relevant_dimensions":["wings","pattern"],"bee_group":{"antennae":"X","wings":"1","pattern":"S","legs":"X"},"bonus":0.520000000000001},{"rt":837.1000000000931,"stimulus":"bees-with-color/bee-B2SM.svg","response":0,"trial_type":"image-button-response","trial_index":39,"time_elapsed":2037980,"internal_node_id":"0.0-4.0-0.14","subject_id":"5f3db8e8785f8b1dd1c70f50","study_id":"60edd13110225f80f9f3709b","session_id":"6196c6ff582aeb9266bb5fb3","condition":"contingent","relevant_dimensions":["wings","pattern"],"bee_group":{"antennae":"X","wings":"1","pattern":"S","legs":"X"},"action":"harvest","summary":"good-harvest","bonus":0.520000000000001},{"rt":701,"stimulus":"\n                    <p><b>Action: <em>harvest</em></b></p>\n                    <p>This is the bee that you just saw.</p>\n                    <img src=\"bees-with-color/bee-B2SM.svg\" width=\"200\">\n                    <p><span class=\"greenText\"><b>Successful harvest!</b></span><br>Your pay has increased by $0.02. Your bonus pay is now $0.52.</p>\n            ","response":0,"trial_type":"html-button-response","trial_index":40,"time_elapsed":2038682,"internal_node_id":"0.0-4.0-1.14","subject_id":"5f3db8e8785f8b1dd1c70f50","study_id":"60edd13110225f80f9f3709b","session_id":"6196c6ff582aeb9266bb5fb3","condition":"contingent","relevant_dimensions":["wings","pattern"],"bee_group":{"antennae":"X","wings":"1","pattern":"S","legs":"X"},"bonus":0.520000000000001},{"rt":1384.1000000000931,"stimulus":"bees-with-color/bee-A2SF.svg","response":0,"trial_type":"image-button-response","trial_index":41,"time_elapsed":2040067,"internal_node_id":"0.0-4.0-0.15","subject_id":"5f3db8e8785f8b1dd1c70f50","study_id":"60edd13110225f80f9f3709b","session_id":"6196c6ff582aeb9266bb5fb3","condition":"contingent","relevant_dimensions":["wings","pattern"],"bee_group":{"antennae":"X","wings":"1","pattern":"S","legs":"X"},"action":"harvest","summary":"good-harvest","bonus":0.520000000000001},{"rt":725.1000000000931,"stimulus":"\n                    <p><b>Action: <em>harvest</em></b></p>\n                    <p>This is the bee that you just saw.</p>\n                    <img src=\"bees-with-color/bee-A2SF.svg\" width=\"200\">\n                    <p><span class=\"greenText\"><b>Successful harvest!</b></span><br>Your pay has increased by $0.02. Your bonus pay is now $0.54.</p>\n            ","response":0,"trial_type":"html-button-response","trial_index":42,"time_elapsed":2040793,"internal_node_id":"0.0-4.0-1.15","subject_id":"5f3db8e8785f8b1dd1c70f50","study_id":"60edd13110225f80f9f3709b","session_id":"6196c6ff582aeb9266bb5fb3","condition":"contingent","relevant_dimensions":["wings","pattern"],"bee_group":{"antennae":"X","wings":"1","pattern":"S","legs":"X"},"bonus":0.520000000000001},{"rt":1066.1000000000931,"stimulus":"bees-with-color/bee-B2SM.svg","response":0,"trial_type":"image-button-response","trial_index":43,"time_elapsed":2041860,"internal_node_id":"0.0-4.0-0.16","subject_id":"5f3db8e8785f8b1dd1c70f50","study_id":"60edd13110225f80f9f3709b","session_id":"6196c6ff582aeb9266bb5fb3","condition":"contingent","relevant_dimensions":["wings","pattern"],"bee_group":{"antennae":"X","wings":"1","pattern":"S","legs":"X"},"action":"harvest","summary":"good-harvest","bonus":0.520000000000001},{"rt":568.8999999999069,"stimulus":"\n                    <p><b>Action: <em>harvest</em></b></p>\n                    <p>This is the bee that you just saw.</p>\n                    <img src=\"bees-with-color/bee-B2SM.svg\" width=\"200\">\n                    <p><span class=\"greenText\"><b>Successful harvest!</b></span><br>Your pay has increased by $0.02. Your bonus pay is now $0.56.</p>\n            ","response":0,"trial_type":"html-button-response","trial_index":44,"time_elapsed":2042430,"internal_node_id":"0.0-4.0-1.16","subject_id":"5f3db8e8785f8b1dd1c70f50","study_id":"60edd13110225f80f9f3709b","session_id":"6196c6ff582aeb9266bb5fb3","condition":"contingent","relevant_dimensions":["wings","pattern"],"bee_group":{"antennae":"X","wings":"1","pattern":"S","legs":"X"},"bonus":0.520000000000001},{"rt":1548.7999999998137,"stimulus":"bees-with-color/bee-A2DM.svg","response":0,"trial_type":"image-button-response","trial_index":45,"time_elapsed":2043980,"internal_node_id":"0.0-4.0-0.17","subject_id":"5f3db8e8785f8b1dd1c70f50","study_id":"60edd13110225f80f9f3709b","session_id":"6196c6ff582aeb9266bb5fb3","condition":"contingent","relevant_dimensions":["wings","pattern"],"bee_group":{"antennae":"X","wings":"1","pattern":"S","legs":"X"},"action":"harvest","summary":"good-harvest","bonus":0.520000000000001},{"rt":582.8999999999069,"stimulus":"\n                    <p><b>Action: <em>harvest</em></b></p>\n                    <p>This is the bee that you just saw.</p>\n                    <img src=\"bees-with-color/bee-A2DM.svg\" width=\"200\">\n                    <p><span class=\"greenText\"><b>Successful harvest!</b></span><br>Your pay has increased by $0.02. Your bonus pay is now $0.58.</p>\n            ","response":0,"trial_type":"html-button-response","trial_index":46,"time_elapsed":2044565,"internal_node_id":"0.0-4.0-1.17","subject_id":"5f3db8e8785f8b1dd1c70f50","study_id":"60edd13110225f80f9f3709b","session_id":"6196c6ff582aeb9266bb5fb3","condition":"contingent","relevant_dimensions":["wings","pattern"],"bee_group":{"antennae":"X","wings":"1","pattern":"S","legs":"X"},"bonus":0.520000000000001},{"rt":1097.1000000000931,"stimulus":"bees-with-color/bee-B2DF.svg","response":1,"trial_type":"image-button-response","trial_index":47,"time_elapsed":2045663,"internal_node_id":"0.0-4.0-0.18","subject_id":"5f3db8e8785f8b1dd1c70f50","study_id":"60edd13110225f80f9f3709b","session_id":"6196c6ff582aeb9266bb5fb3","condition":"contingent","relevant_dimensions":["wings","pattern"],"bee_group":{"antennae":"X","wings":"1","pattern":"S","legs":"X"},"action":"avoid","summary":"bad-avoid","bonus":0.520000000000001},{"rt":611,"stimulus":"\n                    <p><b>Action: <em>avoid</em></b></p>\n                    <p>This is the bee that you just saw.</p>\n                    <img src=\"bees-with-color/bee-B2DF.svg\" width=\"200\">\n                    <p><br>Your bonus pay is unchanged, and remains at $0.58.</p>\n            ","response":0,"trial_type":"html-button-response","trial_index":48,"time_elapsed":2046275,"internal_node_id":"0.0-4.0-1.18","subject_id":"5f3db8e8785f8b1dd1c70f50","study_id":"60edd13110225f80f9f3709b","session_id":"6196c6ff582aeb9266bb5fb3","condition":"contingent","relevant_dimensions":["wings","pattern"],"bee_group":{"antennae":"X","wings":"1","pattern":"S","legs":"X"},"bonus":0.520000000000001},{"rt":1273,"stimulus":"bees-with-color/bee-A2DF.svg","response":1,"trial_type":"image-button-response","trial_index":49,"time_elapsed":2047549,"internal_node_id":"0.0-4.0-0.19","subject_id":"5f3db8e8785f8b1dd1c70f50","study_id":"60edd13110225f80f9f3709b","session_id":"6196c6ff582aeb9266bb5fb3","condition":"contingent","relevant_dimensions":["wings","pattern"],"bee_group":{"antennae":"X","wings":"1","pattern":"S","legs":"X"},"action":"avoid","summary":"bad-avoid","bonus":0.520000000000001},{"rt":479.8000000002794,"stimulus":"\n                    <p><b>Action: <em>avoid</em></b></p>\n                    <p>This is the bee that you just saw.</p>\n                    <img src=\"bees-with-color/bee-A2DF.svg\" width=\"200\">\n                    <p><br>Your bonus pay is unchanged, and remains at $0.58.</p>\n            ","response":0,"trial_type":"html-button-response","trial_index":50,"time_elapsed":2048030,"internal_node_id":"0.0-4.0-1.19","subject_id":"5f3db8e8785f8b1dd1c70f50","study_id":"60edd13110225f80f9f3709b","session_id":"6196c6ff582aeb9266bb5fb3","condition":"contingent","relevant_dimensions":["wings","pattern"],"bee_group":{"antennae":"X","wings":"1","pattern":"S","legs":"X"},"bonus":0.520000000000001},{"rt":1297,"stimulus":"bees-with-color/bee-B1SM.svg","response":1,"trial_type":"image-button-response","trial_index":51,"time_elapsed":2049328,"internal_node_id":"0.0-4.0-0.20","subject_id":"5f3db8e8785f8b1dd1c70f50","study_id":"60edd13110225f80f9f3709b","session_id":"6196c6ff582aeb9266bb5fb3","condition":"contingent","relevant_dimensions":["wings","pattern"],"bee_group":{"antennae":"X","wings":"1","pattern":"S","legs":"X"},"action":"avoid","summary":"good-avoid","bonus":0.520000000000001},{"rt":450.60000000009313,"stimulus":"\n                    <p><b>Action: <em>avoid</em></b></p>\n                    <p>This is the bee that you just saw.</p>\n                    <img src=\"bees-with-color/bee-B1SM.svg\" width=\"200\">\n                    <p><br>Your bonus pay is unchanged, and remains at $0.58.</p>\n            ","response":0,"trial_type":"html-button-response","trial_index":52,"time_elapsed":2049780,"internal_node_id":"0.0-4.0-1.20","subject_id":"5f3db8e8785f8b1dd1c70f50","study_id":"60edd13110225f80f9f3709b","session_id":"6196c6ff582aeb9266bb5fb3","condition":"contingent","relevant_dimensions":["wings","pattern"],"bee_group":{"antennae":"X","wings":"1","pattern":"S","legs":"X"},"bonus":0.520000000000001},{"rt":1271.3000000002794,"stimulus":"bees-with-color/bee-A1SF.svg","response":0,"trial_type":"image-button-response","trial_index":53,"time_elapsed":2051052,"internal_node_id":"0.0-4.0-0.21","subject_id":"5f3db8e8785f8b1dd1c70f50","study_id":"60edd13110225f80f9f3709b","session_id":"6196c6ff582aeb9266bb5fb3","condition":"contingent","relevant_dimensions":["wings","pattern"],"bee_group":{"antennae":"X","wings":"1","pattern":"S","legs":"X"},"action":"harvest","summary":"bad-harvest","bonus":0.520000000000001},{"rt":643.1999999997206,"stimulus":"\n                    <p><b>Action: <em>harvest</em></b></p>\n                    <p>This is the bee that you just saw.</p>\n                    <img src=\"bees-with-color/bee-A1SF.svg\" width=\"200\">\n                    <p><span class=\"redText\">Bad choice, the bee was angry.</span><br><b>You have been stung!</b><br>Your pay has been decreased by $0.10. Your bonus pay is now $0.48.</p>\n            ","response":0,"trial_type":"html-button-response","trial_index":54,"time_elapsed":2051696,"internal_node_id":"0.0-4.0-1.21","subject_id":"5f3db8e8785f8b1dd1c70f50","study_id":"60edd13110225f80f9f3709b","session_id":"6196c6ff582aeb9266bb5fb3","condition":"contingent","relevant_dimensions":["wings","pattern"],"bee_group":{"antennae":"X","wings":"1","pattern":"S","legs":"X"},"bonus":0.520000000000001},{"rt":2366.5,"stimulus":"bees-with-color/bee-A1DF.svg","response":1,"trial_type":"image-button-response","trial_index":55,"time_elapsed":2054064,"internal_node_id":"0.0-4.0-0.22","subject_id":"5f3db8e8785f8b1dd1c70f50","study_id":"60edd13110225f80f9f3709b","session_id":"6196c6ff582aeb9266bb5fb3","condition":"contingent","relevant_dimensions":["wings","pattern"],"bee_group":{"antennae":"X","wings":"1","pattern":"S","legs":"X"},"action":"avoid","summary":"bad-avoid","bonus":0.520000000000001},{"rt":794.8000000002794,"stimulus":"\n                    <p><b>Action: <em>avoid</em></b></p>\n                    <p>This is the bee that you just saw.</p>\n                    <img src=\"bees-with-color/bee-A1DF.svg\" width=\"200\">\n                    <p><br>Your bonus pay is unchanged, and remains at $0.48.</p>\n            ","response":0,"trial_type":"html-button-response","trial_index":56,"time_elapsed":2054860,"internal_node_id":"0.0-4.0-1.22","subject_id":"5f3db8e8785f8b1dd1c70f50","study_id":"60edd13110225f80f9f3709b","session_id":"6196c6ff582aeb9266bb5fb3","condition":"contingent","relevant_dimensions":["wings","pattern"],"bee_group":{"antennae":"X","wings":"1","pattern":"S","legs":"X"},"bonus":0.520000000000001},{"rt":905.1999999997206,"stimulus":"bees-with-color/bee-A1DM.svg","response":0,"trial_type":"image-button-response","trial_index":57,"time_elapsed":2055767,"internal_node_id":"0.0-4.0-0.23","subject_id":"5f3db8e8785f8b1dd1c70f50","study_id":"60edd13110225f80f9f3709b","session_id":"6196c6ff582aeb9266bb5fb3","condition":"contingent","relevant_dimensions":["wings","pattern"],"bee_group":{"antennae":"X","wings":"1","pattern":"S","legs":"X"},"action":"harvest","summary":"good-harvest","bonus":0.520000000000001},{"rt":632,"stimulus":"\n                    <p><b>Action: <em>harvest</em></b></p>\n                    <p>This is the bee that you just saw.</p>\n                    <img src=\"bees-with-color/bee-A1DM.svg\" width=\"200\">\n                    <p><span class=\"greenText\"><b>Successful harvest!</b></span><br>Your pay has increased by $0.02. Your bonus pay is now $0.50.</p>\n            ","response":0,"trial_type":"html-button-response","trial_index":58,"time_elapsed":2056400,"internal_node_id":"0.0-4.0-1.23","subject_id":"5f3db8e8785f8b1dd1c70f50","study_id":"60edd13110225f80f9f3709b","session_id":"6196c6ff582aeb9266bb5fb3","condition":"contingent","relevant_dimensions":["wings","pattern"],"bee_group":{"antennae":"X","wings":"1","pattern":"S","legs":"X"},"bonus":0.520000000000001},{"rt":1002.2000000001863,"stimulus":"bees-with-color/bee-A2SM.svg","response":0,"trial_type":"image-button-response","trial_index":59,"time_elapsed":2057403,"internal_node_id":"0.0-4.0-0.24","subject_id":"5f3db8e8785f8b1dd1c70f50","study_id":"60edd13110225f80f9f3709b","session_id":"6196c6ff582aeb9266bb5fb3","condition":"contingent","relevant_dimensions":["wings","pattern"],"bee_group":{"antennae":"X","wings":"1","pattern":"S","legs":"X"},"action":"harvest","summary":"good-harvest","bonus":0.520000000000001},{"rt":644.6000000000931,"stimulus":"\n                    <p><b>Action: <em>harvest</em></b></p>\n                    <p>This is the bee that you just saw.</p>\n                    <img src=\"bees-with-color/bee-A2SM.svg\" width=\"200\">\n                    <p><span class=\"greenText\"><b>Successful harvest!</b></span><br>Your pay has increased by $0.02. Your bonus pay is now $0.52.</p>\n            ","response":0,"trial_type":"html-button-response","trial_index":60,"time_elapsed":2058049,"internal_node_id":"0.0-4.0-1.24","subject_id":"5f3db8e8785f8b1dd1c70f50","study_id":"60edd13110225f80f9f3709b","session_id":"6196c6ff582aeb9266bb5fb3","condition":"contingent","relevant_dimensions":["wings","pattern"],"bee_group":{"antennae":"X","wings":"1","pattern":"S","legs":"X"},"bonus":0.520000000000001},{"rt":993.1000000000931,"stimulus":"bees-with-color/bee-B2SF.svg","response":0,"trial_type":"image-button-response","trial_index":61,"time_elapsed":2059043,"internal_node_id":"0.0-4.0-0.25","subject_id":"5f3db8e8785f8b1dd1c70f50","study_id":"60edd13110225f80f9f3709b","session_id":"6196c6ff582aeb9266bb5fb3","condition":"contingent","relevant_dimensions":["wings","pattern"],"bee_group":{"antennae":"X","wings":"1","pattern":"S","legs":"X"},"action":"harvest","summary":"good-harvest","bonus":0.520000000000001},{"rt":563.1999999997206,"stimulus":"\n                    <p><b>Action: <em>harvest</em></b></p>\n                    <p>This is the bee that you just saw.</p>\n                    <img src=\"bees-with-color/bee-B2SF.svg\" width=\"200\">\n                    <p><span class=\"greenText\"><b>Successful harvest!</b></span><br>Your pay has increased by $0.02. Your bonus pay is now $0.54.</p>\n            ","response":0,"trial_type":"html-button-response","trial_index":62,"time_elapsed":2059607,"internal_node_id":"0.0-4.0-1.25","subject_id":"5f3db8e8785f8b1dd1c70f50","study_id":"60edd13110225f80f9f3709b","session_id":"6196c6ff582aeb9266bb5fb3","condition":"contingent","relevant_dimensions":["wings","pattern"],"bee_group":{"antennae":"X","wings":"1","pattern":"S","legs":"X"},"bonus":0.520000000000001},{"rt":923,"stimulus":"bees-with-color/bee-B2DM.svg","response":0,"trial_type":"image-button-response","trial_index":63,"time_elapsed":2060531,"internal_node_id":"0.0-4.0-0.26","subject_id":"5f3db8e8785f8b1dd1c70f50","study_id":"60edd13110225f80f9f3709b","session_id":"6196c6ff582aeb9266bb5fb3","condition":"contingent","relevant_dimensions":["wings","pattern"],"bee_group":{"antennae":"X","wings":"1","pattern":"S","legs":"X"},"action":"harvest","summary":"good-harvest","bonus":0.520000000000001},{"rt":658,"stimulus":"\n                    <p><b>Action: <em>harvest</em></b></p>\n                    <p>This is the bee that you just saw.</p>\n                    <img src=\"bees-with-color/bee-B2DM.svg\" width=\"200\">\n                    <p><span class=\"greenText\"><b>Successful harvest!</b></span><br>Your pay has increased by $0.02. Your bonus pay is now $0.56.</p>\n            ","response":0,"trial_type":"html-button-response","trial_index":64,"time_elapsed":2061190,"internal_node_id":"0.0-4.0-1.26","subject_id":"5f3db8e8785f8b1dd1c70f50","study_id":"60edd13110225f80f9f3709b","session_id":"6196c6ff582aeb9266bb5fb3","condition":"contingent","relevant_dimensions":["wings","pattern"],"bee_group":{"antennae":"X","wings":"1","pattern":"S","legs":"X"},"bonus":0.520000000000001},{"rt":1109.3000000002794,"stimulus":"bees-with-color/bee-B1SF.svg","response":1,"trial_type":"image-button-response","trial_index":65,"time_elapsed":2062300,"internal_node_id":"0.0-4.0-0.27","subject_id":"5f3db8e8785f8b1dd1c70f50","study_id":"60edd13110225f80f9f3709b","session_id":"6196c6ff582aeb9266bb5fb3","condition":"contingent","relevant_dimensions":["wings","pattern"],"bee_group":{"antennae":"X","wings":"1","pattern":"S","legs":"X"},"action":"avoid","summary":"good-avoid","bonus":0.520000000000001},{"rt":731,"stimulus":"\n                    <p><b>Action: <em>avoid</em></b></p>\n                    <p>This is the bee that you just saw.</p>\n                    <img src=\"bees-with-color/bee-B1SF.svg\" width=\"200\">\n                    <p><br>Your bonus pay is unchanged, and remains at $0.56.</p>\n            ","response":0,"trial_type":"html-button-response","trial_index":66,"time_elapsed":2063032,"internal_node_id":"0.0-4.0-1.27","subject_id":"5f3db8e8785f8b1dd1c70f50","study_id":"60edd13110225f80f9f3709b","session_id":"6196c6ff582aeb9266bb5fb3","condition":"contingent","relevant_dimensions":["wings","pattern"],"bee_group":{"antennae":"X","wings":"1","pattern":"S","legs":"X"},"bonus":0.520000000000001},{"rt":1249.0999999996275,"stimulus":"bees-with-color/bee-A1SM.svg","response":1,"trial_type":"image-button-response","trial_index":67,"time_elapsed":2064283,"internal_node_id":"0.0-4.0-0.28","subject_id":"5f3db8e8785f8b1dd1c70f50","study_id":"60edd13110225f80f9f3709b","session_id":"6196c6ff582aeb9266bb5fb3","condition":"contingent","relevant_dimensions":["wings","pattern"],"bee_group":{"antennae":"X","wings":"1","pattern":"S","legs":"X"},"action":"avoid","summary":"good-avoid","bonus":0.520000000000001},{"rt":431,"stimulus":"\n                    <p><b>Action: <em>avoid</em></b></p>\n                    <p>This is the bee that you just saw.</p>\n                    <img src=\"bees-with-color/bee-A1SM.svg\" width=\"200\">\n                    <p><br>Your bonus pay is unchanged, and remains at $0.56.</p>\n            ","response":0,"trial_type":"html-button-response","trial_index":68,"time_elapsed":2064715,"internal_node_id":"0.0-4.0-1.28","subject_id":"5f3db8e8785f8b1dd1c70f50","study_id":"60edd13110225f80f9f3709b","session_id":"6196c6ff582aeb9266bb5fb3","condition":"contingent","relevant_dimensions":["wings","pattern"],"bee_group":{"antennae":"X","wings":"1","pattern":"S","legs":"X"},"bonus":0.520000000000001},{"rt":1017.8999999999069,"stimulus":"bees-with-color/bee-B1DF.svg","response":1,"trial_type":"image-button-response","trial_index":69,"time_elapsed":2065734,"internal_node_id":"0.0-4.0-0.29","subject_id":"5f3db8e8785f8b1dd1c70f50","study_id":"60edd13110225f80f9f3709b","session_id":"6196c6ff582aeb9266bb5fb3","condition":"contingent","relevant_dimensions":["wings","pattern"],"bee_group":{"antennae":"X","wings":"1","pattern":"S","legs":"X"},"action":"avoid","summary":"bad-avoid","bonus":0.520000000000001},{"rt":396,"stimulus":"\n                    <p><b>Action: <em>avoid</em></b></p>\n                    <p>This is the bee that you just saw.</p>\n                    <img src=\"bees-with-color/bee-B1DF.svg\" width=\"200\">\n                    <p><br>Your bonus pay is unchanged, and remains at $0.56.</p>\n            ","response":0,"trial_type":"html-button-response","trial_index":70,"time_elapsed":2066131,"internal_node_id":"0.0-4.0-1.29","subject_id":"5f3db8e8785f8b1dd1c70f50","study_id":"60edd13110225f80f9f3709b","session_id":"6196c6ff582aeb9266bb5fb3","condition":"contingent","relevant_dimensions":["wings","pattern"],"bee_group":{"antennae":"X","wings":"1","pattern":"S","legs":"X"},"bonus":0.520000000000001},{"rt":1010.8999999999069,"stimulus":"bees-with-color/bee-B1DM.svg","response":0,"trial_type":"image-button-response","trial_index":71,"time_elapsed":2067143,"internal_node_id":"0.0-4.0-0.30","subject_id":"5f3db8e8785f8b1dd1c70f50","study_id":"60edd13110225f80f9f3709b","session_id":"6196c6ff582aeb9266bb5fb3","condition":"contingent","relevant_dimensions":["wings","pattern"],"bee_group":{"antennae":"X","wings":"1","pattern":"S","legs":"X"},"action":"harvest","summary":"good-harvest","bonus":0.520000000000001},{"rt":711.2000000001863,"stimulus":"\n                    <p><b>Action: <em>harvest</em></b></p>\n                    <p>This is the bee that you just saw.</p>\n                    <img src=\"bees-with-color/bee-B1DM.svg\" width=\"200\">\n                    <p><span class=\"greenText\"><b>Successful harvest!</b></span><br>Your pay has increased by $0.02. Your bonus pay is now $0.58.</p>\n            ","response":0,"trial_type":"html-button-response","trial_index":72,"time_elapsed":2067855,"internal_node_id":"0.0-4.0-1.30","subject_id":"5f3db8e8785f8b1dd1c70f50","study_id":"60edd13110225f80f9f3709b","session_id":"6196c6ff582aeb9266bb5fb3","condition":"contingent","relevant_dimensions":["wings","pattern"],"bee_group":{"antennae":"X","wings":"1","pattern":"S","legs":"X"},"bonus":0.520000000000001},{"rt":1078.6999999997206,"stimulus":"bees-with-color/bee-A2SF.svg","response":0,"trial_type":"image-button-response","trial_index":73,"time_elapsed":2068935,"internal_node_id":"0.0-4.0-0.31","subject_id":"5f3db8e8785f8b1dd1c70f50","study_id":"60edd13110225f80f9f3709b","session_id":"6196c6ff582aeb9266bb5fb3","condition":"contingent","relevant_dimensions":["wings","pattern"],"bee_group":{"antennae":"X","wings":"1","pattern":"S","legs":"X"},"action":"harvest","summary":"good-harvest","bonus":0.520000000000001},{"rt":631,"stimulus":"\n                    <p><b>Action: <em>harvest</em></b></p>\n                    <p>This is the bee that you just saw.</p>\n                    <img src=\"bees-with-color/bee-A2SF.svg\" width=\"200\">\n                    <p><span class=\"greenText\"><b>Successful harvest!</b></span><br>Your pay has increased by $0.02. Your bonus pay is now $0.60.</p>\n            ","response":0,"trial_type":"html-button-response","trial_index":74,"time_elapsed":2069567,"internal_node_id":"0.0-4.0-1.31","subject_id":"5f3db8e8785f8b1dd1c70f50","study_id":"60edd13110225f80f9f3709b","session_id":"6196c6ff582aeb9266bb5fb3","condition":"contingent","relevant_dimensions":["wings","pattern"],"bee_group":{"antennae":"X","wings":"1","pattern":"S","legs":"X"},"bonus":0.520000000000001},{"rt":1994.1000000000931,"stimulus":"bees-with-color/bee-B1DF.svg","response":1,"trial_type":"image-button-response","trial_index":75,"time_elapsed":2071562,"internal_node_id":"0.0-4.0-0.32","subject_id":"5f3db8e8785f8b1dd1c70f50","study_id":"60edd13110225f80f9f3709b","session_id":"6196c6ff582aeb9266bb5fb3","condition":"contingent","relevant_dimensions":["wings","pattern"],"bee_group":{"antennae":"X","wings":"1","pattern":"S","legs":"X"},"action":"avoid","summary":"bad-avoid","bonus":0.520000000000001},{"rt":820,"stimulus":"\n                    <p><b>Action: <em>avoid</em></b></p>\n                    <p>This is the bee that you just saw.</p>\n                    <img src=\"bees-with-color/bee-B1DF.svg\" width=\"200\">\n                    <p><br>Your bonus pay is unchanged, and remains at $0.60.</p>\n            ","response":0,"trial_type":"html-button-response","trial_index":76,"time_elapsed":2072383,"internal_node_id":"0.0-4.0-1.32","subject_id":"5f3db8e8785f8b1dd1c70f50","study_id":"60edd13110225f80f9f3709b","session_id":"6196c6ff582aeb9266bb5fb3","condition":"contingent","relevant_dimensions":["wings","pattern"],"bee_group":{"antennae":"X","wings":"1","pattern":"S","legs":"X"},"bonus":0.520000000000001},{"rt":881.5,"stimulus":"bees-with-color/bee-A1DM.svg","response":0,"trial_type":"image-button-response","trial_index":77,"time_elapsed":2073266,"internal_node_id":"0.0-4.0-0.33","subject_id":"5f3db8e8785f8b1dd1c70f50","study_id":"60edd13110225f80f9f3709b","session_id":"6196c6ff582aeb9266bb5fb3","condition":"contingent","relevant_dimensions":["wings","pattern"],"bee_group":{"antennae":"X","wings":"1","pattern":"S","legs":"X"},"action":"harvest","summary":"good-harvest","bonus":0.520000000000001},{"rt":621.5,"stimulus":"\n                    <p><b>Action: <em>harvest</em></b></p>\n                    <p>This is the bee that you just saw.</p>\n                    <img src=\"bees-with-color/bee-A1DM.svg\" width=\"200\">\n                    <p><span class=\"greenText\"><b>Successful harvest!</b></span><br>Your pay has increased by $0.02. Your bonus pay is now $0.62.</p>\n            ","response":0,"trial_type":"html-button-response","trial_index":78,"time_elapsed":2073889,"internal_node_id":"0.0-4.0-1.33","subject_id":"5f3db8e8785f8b1dd1c70f50","study_id":"60edd13110225f80f9f3709b","session_id":"6196c6ff582aeb9266bb5fb3","condition":"contingent","relevant_dimensions":["wings","pattern"],"bee_group":{"antennae":"X","wings":"1","pattern":"S","legs":"X"},"bonus":0.520000000000001},{"rt":996.2000000001863,"stimulus":"bees-with-color/bee-A1DF.svg","response":1,"trial_type":"image-button-response","trial_index":79,"time_elapsed":2074886,"internal_node_id":"0.0-4.0-0.34","subject_id":"5f3db8e8785f8b1dd1c70f50","study_id":"60edd13110225f80f9f3709b","session_id":"6196c6ff582aeb9266bb5fb3","condition":"contingent","relevant_dimensions":["wings","pattern"],"bee_group":{"antennae":"X","wings":"1","pattern":"S","legs":"X"},"action":"avoid","summary":"bad-avoid","bonus":0.520000000000001},{"rt":502.10000000009313,"stimulus":"\n                    <p><b>Action: <em>avoid</em></b></p>\n                    <p>This is the bee that you just saw.</p>\n                    <img src=\"bees-with-color/bee-A1DF.svg\" width=\"200\">\n                    <p><br>Your bonus pay is unchanged, and remains at $0.62.</p>\n            ","response":0,"trial_type":"html-button-response","trial_index":80,"time_elapsed":2075389,"internal_node_id":"0.0-4.0-1.34","subject_id":"5f3db8e8785f8b1dd1c70f50","study_id":"60edd13110225f80f9f3709b","session_id":"6196c6ff582aeb9266bb5fb3","condition":"contingent","relevant_dimensions":["wings","pattern"],"bee_group":{"antennae":"X","wings":"1","pattern":"S","legs":"X"},"bonus":0.520000000000001},{"rt":1273.0999999996275,"stimulus":"bees-with-color/bee-A2SF.svg","response":0,"trial_type":"image-button-response","trial_index":81,"time_elapsed":2076663,"internal_node_id":"0.0-4.0-0.35","subject_id":"5f3db8e8785f8b1dd1c70f50","study_id":"60edd13110225f80f9f3709b","session_id":"6196c6ff582aeb9266bb5fb3","condition":"contingent","relevant_dimensions":["wings","pattern"],"bee_group":{"antennae":"X","wings":"1","pattern":"S","legs":"X"},"action":"harvest","summary":"good-harvest","bonus":0.520000000000001},{"rt":843,"stimulus":"\n                    <p><b>Action: <em>harvest</em></b></p>\n                    <p>This is the bee that you just saw.</p>\n                    <img src=\"bees-with-color/bee-A2SF.svg\" width=\"200\">\n                    <p><span class=\"greenText\"><b>Successful harvest!</b></span><br>Your pay has increased by $0.02. Your bonus pay is now $0.64.</p>\n            ","response":0,"trial_type":"html-button-response","trial_index":82,"time_elapsed":2077507,"internal_node_id":"0.0-4.0-1.35","subject_id":"5f3db8e8785f8b1dd1c70f50","study_id":"60edd13110225f80f9f3709b","session_id":"6196c6ff582aeb9266bb5fb3","condition":"contingent","relevant_dimensions":["wings","pattern"],"bee_group":{"antennae":"X","wings":"1","pattern":"S","legs":"X"},"bonus":0.520000000000001},{"rt":1904.4000000003725,"stimulus":"bees-with-color/bee-B2SM.svg","response":0,"trial_type":"image-button-response","trial_index":83,"time_elapsed":2079412,"internal_node_id":"0.0-4.0-0.36","subject_id":"5f3db8e8785f8b1dd1c70f50","study_id":"60edd13110225f80f9f3709b","session_id":"6196c6ff582aeb9266bb5fb3","condition":"contingent","relevant_dimensions":["wings","pattern"],"bee_group":{"antennae":"X","wings":"1","pattern":"S","legs":"X"},"action":"harvest","summary":"good-harvest","bonus":0.520000000000001},{"rt":873.0999999996275,"stimulus":"\n                    <p><b>Action: <em>harvest</em></b></p>\n                    <p>This is the bee that you just saw.</p>\n                    <img src=\"bees-with-color/bee-B2SM.svg\" width=\"200\">\n                    <p><span class=\"greenText\"><b>Successful harvest!</b></span><br>Your pay has increased by $0.02. Your bonus pay is now $0.66.</p>\n            ","response":0,"trial_type":"html-button-response","trial_index":84,"time_elapsed":2080286,"internal_node_id":"0.0-4.0-1.36","subject_id":"5f3db8e8785f8b1dd1c70f50","study_id":"60edd13110225f80f9f3709b","session_id":"6196c6ff582aeb9266bb5fb3","condition":"contingent","relevant_dimensions":["wings","pattern"],"bee_group":{"antennae":"X","wings":"1","pattern":"S","legs":"X"},"bonus":0.520000000000001},{"rt":848.7999999998137,"stimulus":"bees-with-color/bee-A1SF.svg","response":1,"trial_type":"image-button-response","trial_index":85,"time_elapsed":2081137,"internal_node_id":"0.0-4.0-0.37","subject_id":"5f3db8e8785f8b1dd1c70f50","study_id":"60edd13110225f80f9f3709b","session_id":"6196c6ff582aeb9266bb5fb3","condition":"contingent","relevant_dimensions":["wings","pattern"],"bee_group":{"antennae":"X","wings":"1","pattern":"S","legs":"X"},"action":"avoid","summary":"good-avoid","bonus":0.520000000000001},{"rt":488,"stimulus":"\n                    <p><b>Action: <em>avoid</em></b></p>\n                    <p>This is the bee that you just saw.</p>\n                    <img src=\"bees-with-color/bee-A1SF.svg\" width=\"200\">\n                    <p><br>Your bonus pay is unchanged, and remains at $0.66.</p>\n            ","response":0,"trial_type":"html-button-response","trial_index":86,"time_elapsed":2081626,"internal_node_id":"0.0-4.0-1.37","subject_id":"5f3db8e8785f8b1dd1c70f50","study_id":"60edd13110225f80f9f3709b","session_id":"6196c6ff582aeb9266bb5fb3","condition":"contingent","relevant_dimensions":["wings","pattern"],"bee_group":{"antennae":"X","wings":"1","pattern":"S","legs":"X"},"bonus":0.520000000000001},{"rt":1411.3000000002794,"stimulus":"bees-with-color/bee-A2DF.svg","response":1,"trial_type":"image-button-response","trial_index":87,"time_elapsed":2083038,"internal_node_id":"0.0-4.0-0.38","subject_id":"5f3db8e8785f8b1dd1c70f50","study_id":"60edd13110225f80f9f3709b","session_id":"6196c6ff582aeb9266bb5fb3","condition":"contingent","relevant_dimensions":["wings","pattern"],"bee_group":{"antennae":"X","wings":"1","pattern":"S","legs":"X"},"action":"avoid","summary":"bad-avoid","bonus":0.520000000000001},{"rt":479.8000000002794,"stimulus":"\n                    <p><b>Action: <em>avoid</em></b></p>\n                    <p>This is the bee that you just saw.</p>\n                    <img src=\"bees-with-color/bee-A2DF.svg\" width=\"200\">\n                    <p><br>Your bonus pay is unchanged, and remains at $0.66.</p>\n            ","response":0,"trial_type":"html-button-response","trial_index":88,"time_elapsed":2083519,"internal_node_id":"0.0-4.0-1.38","subject_id":"5f3db8e8785f8b1dd1c70f50","study_id":"60edd13110225f80f9f3709b","session_id":"6196c6ff582aeb9266bb5fb3","condition":"contingent","relevant_dimensions":["wings","pattern"],"bee_group":{"antennae":"X","wings":"1","pattern":"S","legs":"X"},"bonus":0.520000000000001},{"rt":1136.0999999996275,"stimulus":"bees-with-color/bee-B1SF.svg","response":0,"trial_type":"image-button-response","trial_index":89,"time_elapsed":2084656,"internal_node_id":"0.0-4.0-0.39","subject_id":"5f3db8e8785f8b1dd1c70f50","study_id":"60edd13110225f80f9f3709b","session_id":"6196c6ff582aeb9266bb5fb3","condition":"contingent","relevant_dimensions":["wings","pattern"],"bee_group":{"antennae":"X","wings":"1","pattern":"S","legs":"X"},"action":"harvest","summary":"bad-harvest","bonus":0.520000000000001},{"rt":1062,"stimulus":"\n                    <p><b>Action: <em>harvest</em></b></p>\n                    <p>This is the bee that you just saw.</p>\n                    <img src=\"bees-with-color/bee-B1SF.svg\" width=\"200\">\n                    <p><span class=\"redText\">Bad choice, the bee was angry.</span><br><b>You have been stung!</b><br>Your pay has been decreased by $0.10. Your bonus pay is now $0.56.</p>\n            ","response":0,"trial_type":"html-button-response","trial_index":90,"time_elapsed":2085719,"internal_node_id":"0.0-4.0-1.39","subject_id":"5f3db8e8785f8b1dd1c70f50","study_id":"60edd13110225f80f9f3709b","session_id":"6196c6ff582aeb9266bb5fb3","condition":"contingent","relevant_dimensions":["wings","pattern"],"bee_group":{"antennae":"X","wings":"1","pattern":"S","legs":"X"},"bonus":0.520000000000001},{"rt":1568.2000000001863,"stimulus":"bees-with-color/bee-A2SM.svg","response":0,"trial_type":"image-button-response","trial_index":91,"time_elapsed":2087288,"internal_node_id":"0.0-4.0-0.40","subject_id":"5f3db8e8785f8b1dd1c70f50","study_id":"60edd13110225f80f9f3709b","session_id":"6196c6ff582aeb9266bb5fb3","condition":"contingent","relevant_dimensions":["wings","pattern"],"bee_group":{"antennae":"X","wings":"1","pattern":"S","legs":"X"},"action":"harvest","summary":"good-harvest","bonus":0.520000000000001},{"rt":557.9000000003725,"stimulus":"\n                    <p><b>Action: <em>harvest</em></b></p>\n                    <p>This is the bee that you just saw.</p>\n                    <img src=\"bees-with-color/bee-A2SM.svg\" width=\"200\">\n                    <p><span class=\"greenText\"><b>Successful harvest!</b></span><br>Your pay has increased by $0.02. Your bonus pay is now $0.58.</p>\n            ","response":0,"trial_type":"html-button-response","trial_index":92,"time_elapsed":2087847,"internal_node_id":"0.0-4.0-1.40","subject_id":"5f3db8e8785f8b1dd1c70f50","study_id":"60edd13110225f80f9f3709b","session_id":"6196c6ff582aeb9266bb5fb3","condition":"contingent","relevant_dimensions":["wings","pattern"],"bee_group":{"antennae":"X","wings":"1","pattern":"S","legs":"X"},"bonus":0.520000000000001},{"rt":830,"stimulus":"bees-with-color/bee-B2DM.svg","response":0,"trial_type":"image-button-response","trial_index":93,"time_elapsed":2088679,"internal_node_id":"0.0-4.0-0.41","subject_id":"5f3db8e8785f8b1dd1c70f50","study_id":"60edd13110225f80f9f3709b","session_id":"6196c6ff582aeb9266bb5fb3","condition":"contingent","relevant_dimensions":["wings","pattern"],"bee_group":{"antennae":"X","wings":"1","pattern":"S","legs":"X"},"action":"harvest","summary":"good-harvest","bonus":0.520000000000001},{"rt":555.8999999999069,"stimulus":"\n                    <p><b>Action: <em>harvest</em></b></p>\n                    <p>This is the bee that you just saw.</p>\n                    <img src=\"bees-with-color/bee-B2DM.svg\" width=\"200\">\n                    <p><span class=\"greenText\"><b>Successful harvest!</b></span><br>Your pay has increased by $0.02. Your bonus pay is now $0.60.</p>\n            ","response":0,"trial_type":"html-button-response","trial_index":94,"time_elapsed":2089236,"internal_node_id":"0.0-4.0-1.41","subject_id":"5f3db8e8785f8b1dd1c70f50","study_id":"60edd13110225f80f9f3709b","session_id":"6196c6ff582aeb9266bb5fb3","condition":"contingent","relevant_dimensions":["wings","pattern"],"bee_group":{"antennae":"X","wings":"1","pattern":"S","legs":"X"},"bonus":0.520000000000001},{"rt":905.2000000001863,"stimulus":"bees-with-color/bee-B1DM.svg","response":0,"trial_type":"image-button-response","trial_index":95,"time_elapsed":2090142,"internal_node_id":"0.0-4.0-0.42","subject_id":"5f3db8e8785f8b1dd1c70f50","study_id":"60edd13110225f80f9f3709b","session_id":"6196c6ff582aeb9266bb5fb3","condition":"contingent","relevant_dimensions":["wings","pattern"],"bee_group":{"antennae":"X","wings":"1","pattern":"S","legs":"X"},"action":"harvest","summary":"good-harvest","bonus":0.520000000000001},{"rt":473,"stimulus":"\n                    <p><b>Action: <em>harvest</em></b></p>\n                    <p>This is the bee that you just saw.</p>\n                    <img src=\"bees-with-color/bee-B1DM.svg\" width=\"200\">\n                    <p><span class=\"greenText\"><b>Successful harvest!</b></span><br>Your pay has increased by $0.02. Your bonus pay is now $0.62.</p>\n            ","response":0,"trial_type":"html-button-response","trial_index":96,"time_elapsed":2090616,"internal_node_id":"0.0-4.0-1.42","subject_id":"5f3db8e8785f8b1dd1c70f50","study_id":"60edd13110225f80f9f3709b","session_id":"6196c6ff582aeb9266bb5fb3","condition":"contingent","relevant_dimensions":["wings","pattern"],"bee_group":{"antennae":"X","wings":"1","pattern":"S","legs":"X"},"bonus":0.520000000000001},{"rt":890.1999999997206,"stimulus":"bees-with-color/bee-B2SF.svg","response":1,"trial_type":"image-button-response","trial_index":97,"time_elapsed":2091507,"internal_node_id":"0.0-4.0-0.43","subject_id":"5f3db8e8785f8b1dd1c70f50","study_id":"60edd13110225f80f9f3709b","session_id":"6196c6ff582aeb9266bb5fb3","condition":"contingent","relevant_dimensions":["wings","pattern"],"bee_group":{"antennae":"X","wings":"1","pattern":"S","legs":"X"},"action":"avoid","summary":"bad-avoid","bonus":0.520000000000001},{"rt":410.8000000002794,"stimulus":"\n                    <p><b>Action: <em>avoid</em></b></p>\n                    <p>This is the bee that you just saw.</p>\n                    <img src=\"bees-with-color/bee-B2SF.svg\" width=\"200\">\n                    <p><br>Your bonus pay is unchanged, and remains at $0.62.</p>\n            ","response":0,"trial_type":"html-button-response","trial_index":98,"time_elapsed":2091919,"internal_node_id":"0.0-4.0-1.43","subject_id":"5f3db8e8785f8b1dd1c70f50","study_id":"60edd13110225f80f9f3709b","session_id":"6196c6ff582aeb9266bb5fb3","condition":"contingent","relevant_dimensions":["wings","pattern"],"bee_group":{"antennae":"X","wings":"1","pattern":"S","legs":"X"},"bonus":0.520000000000001},{"rt":1484.2999999998137,"stimulus":"bees-with-color/bee-B1SM.svg","response":0,"trial_type":"image-button-response","trial_index":99,"time_elapsed":2093404,"internal_node_id":"0.0-4.0-0.44","subject_id":"5f3db8e8785f8b1dd1c70f50","study_id":"60edd13110225f80f9f3709b","session_id":"6196c6ff582aeb9266bb5fb3","condition":"contingent","relevant_dimensions":["wings","pattern"],"bee_group":{"antennae":"X","wings":"1","pattern":"S","legs":"X"},"action":"harvest","summary":"bad-harvest","bonus":0.520000000000001},{"rt":853.1999999999534,"stimulus":"\n                    <p><b>Action: <em>harvest</em></b></p>\n                    <p>This is the bee that you just saw.</p>\n                    <img src=\"bees-with-color/bee-B1SM.svg\" width=\"200\">\n                    <p><span class=\"redText\">Bad choice, the bee was angry.</span><br><b>You have been stung!</b><br>Your pay has been decreased by $0.10. Your bonus pay is now $0.52.</p>\n            ","response":0,"trial_type":"html-button-response","trial_index":100,"time_elapsed":2094258,"internal_node_id":"0.0-4.0-1.44","subject_id":"5f3db8e8785f8b1dd1c70f50","study_id":"60edd13110225f80f9f3709b","session_id":"6196c6ff582aeb9266bb5fb3","condition":"contingent","relevant_dimensions":["wings","pattern"],"bee_group":{"antennae":"X","wings":"1","pattern":"S","legs":"X"},"bonus":0.520000000000001},{"rt":1075.7000000001863,"stimulus":"bees-with-color/bee-A1SM.svg","response":0,"trial_type":"image-button-response","trial_index":101,"time_elapsed":2095335,"internal_node_id":"0.0-4.0-0.45","subject_id":"5f3db8e8785f8b1dd1c70f50","study_id":"60edd13110225f80f9f3709b","session_id":"6196c6ff582aeb9266bb5fb3","condition":"contingent","relevant_dimensions":["wings","pattern"],"bee_group":{"antennae":"X","wings":"1","pattern":"S","legs":"X"},"action":"harvest","summary":"bad-harvest","bonus":0.520000000000001},{"rt":614.1999999997206,"stimulus":"\n                    <p><b>Action: <em>harvest</em></b></p>\n                    <p>This is the bee that you just saw.</p>\n                    <img src=\"bees-with-color/bee-A1SM.svg\" width=\"200\">\n                    <p><span class=\"redText\">Bad choice, the bee was angry.</span><br><b>You have been stung!</b><br>Your pay has been decreased by $0.10. Your bonus pay is now $0.42.</p>\n            ","response":0,"trial_type":"html-button-response","trial_index":102,"time_elapsed":2095950,"internal_node_id":"0.0-4.0-1.45","subject_id":"5f3db8e8785f8b1dd1c70f50","study_id":"60edd13110225f80f9f3709b","session_id":"6196c6ff582aeb9266bb5fb3","condition":"contingent","relevant_dimensions":["wings","pattern"],"bee_group":{"antennae":"X","wings":"1","pattern":"S","legs":"X"},"bonus":0.520000000000001},{"rt":851.0999999996275,"stimulus":"bees-with-color/bee-A2DM.svg","response":0,"trial_type":"image-button-response","trial_index":103,"time_elapsed":2096803,"internal_node_id":"0.0-4.0-0.46","subject_id":"5f3db8e8785f8b1dd1c70f50","study_id":"60edd13110225f80f9f3709b","session_id":"6196c6ff582aeb9266bb5fb3","condition":"contingent","relevant_dimensions":["wings","pattern"],"bee_group":{"antennae":"X","wings":"1","pattern":"S","legs":"X"},"action":"harvest","summary":"good-harvest","bonus":0.520000000000001},{"rt":481.10000000009313,"stimulus":"\n                    <p><b>Action: <em>harvest</em></b></p>\n                    <p>This is the bee that you just saw.</p>\n                    <img src=\"bees-with-color/bee-A2DM.svg\" width=\"200\">\n                    <p><span class=\"greenText\"><b>Successful harvest!</b></span><br>Your pay has increased by $0.02. Your bonus pay is now $0.44.</p>\n            ","response":0,"trial_type":"html-button-response","trial_index":104,"time_elapsed":2097285,"internal_node_id":"0.0-4.0-1.46","subject_id":"5f3db8e8785f8b1dd1c70f50","study_id":"60edd13110225f80f9f3709b","session_id":"6196c6ff582aeb9266bb5fb3","condition":"contingent","relevant_dimensions":["wings","pattern"],"bee_group":{"antennae":"X","wings":"1","pattern":"S","legs":"X"},"bonus":0.520000000000001},{"rt":1213.3000000002794,"stimulus":"bees-with-color/bee-B2DF.svg","response":1,"trial_type":"image-button-response","trial_index":105,"time_elapsed":2098499,"internal_node_id":"0.0-4.0-0.47","subject_id":"5f3db8e8785f8b1dd1c70f50","study_id":"60edd13110225f80f9f3709b","session_id":"6196c6ff582aeb9266bb5fb3","condition":"contingent","relevant_dimensions":["wings","pattern"],"bee_group":{"antennae":"X","wings":"1","pattern":"S","legs":"X"},"action":"avoid","summary":"bad-avoid","bonus":0.520000000000001},{"rt":564.7000000001863,"stimulus":"\n                    <p><b>Action: <em>avoid</em></b></p>\n                    <p>This is the bee that you just saw.</p>\n                    <img src=\"bees-with-color/bee-B2DF.svg\" width=\"200\">\n                    <p><br>Your bonus pay is unchanged, and remains at $0.44.</p>\n            ","response":0,"trial_type":"html-button-response","trial_index":106,"time_elapsed":2099065,"internal_node_id":"0.0-4.0-1.47","subject_id":"5f3db8e8785f8b1dd1c70f50","study_id":"60edd13110225f80f9f3709b","session_id":"6196c6ff582aeb9266bb5fb3","condition":"contingent","relevant_dimensions":["wings","pattern"],"bee_group":{"antennae":"X","wings":"1","pattern":"S","legs":"X"},"bonus":0.520000000000001},{"rt":1183.1999999997206,"stimulus":"bees-with-color/bee-B1DM.svg","response":1,"trial_type":"image-button-response","trial_index":107,"time_elapsed":2100249,"internal_node_id":"0.0-4.0-0.48","subject_id":"5f3db8e8785f8b1dd1c70f50","study_id":"60edd13110225f80f9f3709b","session_id":"6196c6ff582aeb9266bb5fb3","condition":"contingent","relevant_dimensions":["wings","pattern"],"bee_group":{"antennae":"X","wings":"1","pattern":"S","legs":"X"},"action":"avoid","summary":"bad-avoid","bonus":0.520000000000001},{"rt":457.79999999981374,"stimulus":"\n                    <p><b>Action: <em>avoid</em></b></p>\n                    <p>This is the bee that you just saw.</p>\n                    <img src=\"bees-with-color/bee-B1DM.svg\" width=\"200\">\n                    <p><br>Your bonus pay is unchanged, and remains at $0.44.</p>\n            ","response":0,"trial_type":"html-button-response","trial_index":108,"time_elapsed":2100708,"internal_node_id":"0.0-4.0-1.48","subject_id":"5f3db8e8785f8b1dd1c70f50","study_id":"60edd13110225f80f9f3709b","session_id":"6196c6ff582aeb9266bb5fb3","condition":"contingent","relevant_dimensions":["wings","pattern"],"bee_group":{"antennae":"X","wings":"1","pattern":"S","legs":"X"},"bonus":0.520000000000001},{"rt":670.1999999997206,"stimulus":"bees-with-color/bee-A2DF.svg","response":0,"trial_type":"image-button-response","trial_index":109,"time_elapsed":2101379,"internal_node_id":"0.0-4.0-0.49","subject_id":"5f3db8e8785f8b1dd1c70f50","study_id":"60edd13110225f80f9f3709b","session_id":"6196c6ff582aeb9266bb5fb3","condition":"contingent","relevant_dimensions":["wings","pattern"],"bee_group":{"antennae":"X","wings":"1","pattern":"S","legs":"X"},"action":"harvest","summary":"good-harvest","bonus":0.520000000000001},{"rt":589,"stimulus":"\n                    <p><b>Action: <em>harvest</em></b></p>\n                    <p>This is the bee that you just saw.</p>\n                    <img src=\"bees-with-color/bee-A2DF.svg\" width=\"200\">\n                    <p><span class=\"greenText\"><b>Successful harvest!</b></span><br>Your pay has increased by $0.02. Your bonus pay is now $0.46.</p>\n            ","response":0,"trial_type":"html-button-response","trial_index":110,"time_elapsed":2101969,"internal_node_id":"0.0-4.0-1.49","subject_id":"5f3db8e8785f8b1dd1c70f50","study_id":"60edd13110225f80f9f3709b","session_id":"6196c6ff582aeb9266bb5fb3","condition":"contingent","relevant_dimensions":["wings","pattern"],"bee_group":{"antennae":"X","wings":"1","pattern":"S","legs":"X"},"bonus":0.520000000000001},{"rt":982.2000000001863,"stimulus":"bees-with-color/bee-B2SF.svg","response":1,"trial_type":"image-button-response","trial_index":111,"time_elapsed":2102952,"internal_node_id":"0.0-4.0-0.50","subject_id":"5f3db8e8785f8b1dd1c70f50","study_id":"60edd13110225f80f9f3709b","session_id":"6196c6ff582aeb9266bb5fb3","condition":"contingent","relevant_dimensions":["wings","pattern"],"bee_group":{"antennae":"X","wings":"1","pattern":"S","legs":"X"},"action":"avoid","summary":"bad-avoid","bonus":0.520000000000001},{"rt":520,"stimulus":"\n                    <p><b>Action: <em>avoid</em></b></p>\n                    <p>This is the bee that you just saw.</p>\n                    <img src=\"bees-with-color/bee-B2SF.svg\" width=\"200\">\n                    <p><br>Your bonus pay is unchanged, and remains at $0.46.</p>\n            ","response":0,"trial_type":"html-button-response","trial_index":112,"time_elapsed":2103473,"internal_node_id":"0.0-4.0-1.50","subject_id":"5f3db8e8785f8b1dd1c70f50","study_id":"60edd13110225f80f9f3709b","session_id":"6196c6ff582aeb9266bb5fb3","condition":"contingent","relevant_dimensions":["wings","pattern"],"bee_group":{"antennae":"X","wings":"1","pattern":"S","legs":"X"},"bonus":0.520000000000001},{"rt":1491.1999999997206,"stimulus":"bees-with-color/bee-B2DF.svg","response":0,"trial_type":"image-button-response","trial_index":113,"time_elapsed":2104966,"internal_node_id":"0.0-4.0-0.51","subject_id":"5f3db8e8785f8b1dd1c70f50","study_id":"60edd13110225f80f9f3709b","session_id":"6196c6ff582aeb9266bb5fb3","condition":"contingent","relevant_dimensions":["wings","pattern"],"bee_group":{"antennae":"X","wings":"1","pattern":"S","legs":"X"},"action":"harvest","summary":"good-harvest","bonus":0.520000000000001},{"rt":519,"stimulus":"\n                    <p><b>Action: <em>harvest</em></b></p>\n                    <p>This is the bee that you just saw.</p>\n                    <img src=\"bees-with-color/bee-B2DF.svg\" width=\"200\">\n                    <p><span class=\"greenText\"><b>Successful harvest!</b></span><br>Your pay has increased by $0.02. Your bonus pay is now $0.48.</p>\n            ","response":0,"trial_type":"html-button-response","trial_index":114,"time_elapsed":2105487,"internal_node_id":"0.0-4.0-1.51","subject_id":"5f3db8e8785f8b1dd1c70f50","study_id":"60edd13110225f80f9f3709b","session_id":"6196c6ff582aeb9266bb5fb3","condition":"contingent","relevant_dimensions":["wings","pattern"],"bee_group":{"antennae":"X","wings":"1","pattern":"S","legs":"X"},"bonus":0.520000000000001},{"rt":994.1000000000931,"stimulus":"bees-with-color/bee-B1SF.svg","response":1,"trial_type":"image-button-response","trial_index":115,"time_elapsed":2106482,"internal_node_id":"0.0-4.0-0.52","subject_id":"5f3db8e8785f8b1dd1c70f50","study_id":"60edd13110225f80f9f3709b","session_id":"6196c6ff582aeb9266bb5fb3","condition":"contingent","relevant_dimensions":["wings","pattern"],"bee_group":{"antennae":"X","wings":"1","pattern":"S","legs":"X"},"action":"avoid","summary":"good-avoid","bonus":0.520000000000001},{"rt":645,"stimulus":"\n                    <p><b>Action: <em>avoid</em></b></p>\n                    <p>This is the bee that you just saw.</p>\n                    <img src=\"bees-with-color/bee-B1SF.svg\" width=\"200\">\n                    <p><br>Your bonus pay is unchanged, and remains at $0.48.</p>\n            ","response":0,"trial_type":"html-button-response","trial_index":116,"time_elapsed":2107128,"internal_node_id":"0.0-4.0-1.52","subject_id":"5f3db8e8785f8b1dd1c70f50","study_id":"60edd13110225f80f9f3709b","session_id":"6196c6ff582aeb9266bb5fb3","condition":"contingent","relevant_dimensions":["wings","pattern"],"bee_group":{"antennae":"X","wings":"1","pattern":"S","legs":"X"},"bonus":0.520000000000001},{"rt":1087.1000000000931,"stimulus":"bees-with-color/bee-B1SM.svg","response":0,"trial_type":"image-button-response","trial_index":117,"time_elapsed":2108216,"internal_node_id":"0.0-4.0-0.53","subject_id":"5f3db8e8785f8b1dd1c70f50","study_id":"60edd13110225f80f9f3709b","session_id":"6196c6ff582aeb9266bb5fb3","condition":"contingent","relevant_dimensions":["wings","pattern"],"bee_group":{"antennae":"X","wings":"1","pattern":"S","legs":"X"},"action":"harvest","summary":"bad-harvest","bonus":0.520000000000001},{"rt":738.5,"stimulus":"\n                    <p><b>Action: <em>harvest</em></b></p>\n                    <p>This is the bee that you just saw.</p>\n                    <img src=\"bees-with-color/bee-B1SM.svg\" width=\"200\">\n                    <p><span class=\"redText\">Bad choice, the bee was angry.</span><br><b>You have been stung!</b><br>Your pay has been decreased by $0.10. Your bonus pay is now $0.38.</p>\n            ","response":0,"trial_type":"html-button-response","trial_index":118,"time_elapsed":2108956,"internal_node_id":"0.0-4.0-1.53","subject_id":"5f3db8e8785f8b1dd1c70f50","study_id":"60edd13110225f80f9f3709b","session_id":"6196c6ff582aeb9266bb5fb3","condition":"contingent","relevant_dimensions":["wings","pattern"],"bee_group":{"antennae":"X","wings":"1","pattern":"S","legs":"X"},"bonus":0.520000000000001},{"rt":1690.2000000001863,"stimulus":"bees-with-color/bee-B2SM.svg","response":0,"trial_type":"image-button-response","trial_index":119,"time_elapsed":2110647,"internal_node_id":"0.0-4.0-0.54","subject_id":"5f3db8e8785f8b1dd1c70f50","study_id":"60edd13110225f80f9f3709b","session_id":"6196c6ff582aeb9266bb5fb3","condition":"contingent","relevant_dimensions":["wings","pattern"],"bee_group":{"antennae":"X","wings":"1","pattern":"S","legs":"X"},"action":"harvest","summary":"good-harvest","bonus":0.520000000000001},{"rt":537.1000000000931,"stimulus":"\n                    <p><b>Action: <em>harvest</em></b></p>\n                    <p>This is the bee that you just saw.</p>\n                    <img src=\"bees-with-color/bee-B2SM.svg\" width=\"200\">\n                    <p><span class=\"greenText\"><b>Successful harvest!</b></span><br>Your pay has increased by $0.02. Your bonus pay is now $0.40.</p>\n            ","response":0,"trial_type":"html-button-response","trial_index":120,"time_elapsed":2111185,"internal_node_id":"0.0-4.0-1.54","subject_id":"5f3db8e8785f8b1dd1c70f50","study_id":"60edd13110225f80f9f3709b","session_id":"6196c6ff582aeb9266bb5fb3","condition":"contingent","relevant_dimensions":["wings","pattern"],"bee_group":{"antennae":"X","wings":"1","pattern":"S","legs":"X"},"bonus":0.520000000000001},{"rt":898.1000000000931,"stimulus":"bees-with-color/bee-A2SM.svg","response":0,"trial_type":"image-button-response","trial_index":121,"time_elapsed":2112084,"internal_node_id":"0.0-4.0-0.55","subject_id":"5f3db8e8785f8b1dd1c70f50","study_id":"60edd13110225f80f9f3709b","session_id":"6196c6ff582aeb9266bb5fb3","condition":"contingent","relevant_dimensions":["wings","pattern"],"bee_group":{"antennae":"X","wings":"1","pattern":"S","legs":"X"},"action":"harvest","summary":"good-harvest","bonus":0.520000000000001},{"rt":470.09999999962747,"stimulus":"\n                    <p><b>Action: <em>harvest</em></b></p>\n                    <p>This is the bee that you just saw.</p>\n                    <img src=\"bees-with-color/bee-A2SM.svg\" width=\"200\">\n                    <p><span class=\"greenText\"><b>Successful harvest!</b></span><br>Your pay has increased by $0.02. Your bonus pay is now $0.42.</p>\n            ","response":0,"trial_type":"html-button-response","trial_index":122,"time_elapsed":2112555,"internal_node_id":"0.0-4.0-1.55","subject_id":"5f3db8e8785f8b1dd1c70f50","study_id":"60edd13110225f80f9f3709b","session_id":"6196c6ff582aeb9266bb5fb3","condition":"contingent","relevant_dimensions":["wings","pattern"],"bee_group":{"antennae":"X","wings":"1","pattern":"S","legs":"X"},"bonus":0.520000000000001},{"rt":722.1999999997206,"stimulus":"bees-with-color/bee-A2DM.svg","response":0,"trial_type":"image-button-response","trial_index":123,"time_elapsed":2113279,"internal_node_id":"0.0-4.0-0.56","subject_id":"5f3db8e8785f8b1dd1c70f50","study_id":"60edd13110225f80f9f3709b","session_id":"6196c6ff582aeb9266bb5fb3","condition":"contingent","relevant_dimensions":["wings","pattern"],"bee_group":{"antennae":"X","wings":"1","pattern":"S","legs":"X"},"action":"harvest","summary":"good-harvest","bonus":0.520000000000001},{"rt":429,"stimulus":"\n                    <p><b>Action: <em>harvest</em></b></p>\n                    <p>This is the bee that you just saw.</p>\n                    <img src=\"bees-with-color/bee-A2DM.svg\" width=\"200\">\n                    <p><span class=\"greenText\"><b>Successful harvest!</b></span><br>Your pay has increased by $0.02. Your bonus pay is now $0.44.</p>\n            ","response":0,"trial_type":"html-button-response","trial_index":124,"time_elapsed":2113709,"internal_node_id":"0.0-4.0-1.56","subject_id":"5f3db8e8785f8b1dd1c70f50","study_id":"60edd13110225f80f9f3709b","session_id":"6196c6ff582aeb9266bb5fb3","condition":"contingent","relevant_dimensions":["wings","pattern"],"bee_group":{"antennae":"X","wings":"1","pattern":"S","legs":"X"},"bonus":0.520000000000001},{"rt":795.1000000000931,"stimulus":"bees-with-color/bee-A2SF.svg","response":0,"trial_type":"image-button-response","trial_index":125,"time_elapsed":2114505,"internal_node_id":"0.0-4.0-0.57","subject_id":"5f3db8e8785f8b1dd1c70f50","study_id":"60edd13110225f80f9f3709b","session_id":"6196c6ff582aeb9266bb5fb3","condition":"contingent","relevant_dimensions":["wings","pattern"],"bee_group":{"antennae":"X","wings":"1","pattern":"S","legs":"X"},"action":"harvest","summary":"good-harvest","bonus":0.520000000000001},{"rt":437.89999999990687,"stimulus":"\n                    <p><b>Action: <em>harvest</em></b></p>\n                    <p>This is the bee that you just saw.</p>\n                    <img src=\"bees-with-color/bee-A2SF.svg\" width=\"200\">\n                    <p><span class=\"greenText\"><b>Successful harvest!</b></span><br>Your pay has increased by $0.02. Your bonus pay is now $0.46.</p>\n            ","response":0,"trial_type":"html-button-response","trial_index":126,"time_elapsed":2114944,"internal_node_id":"0.0-4.0-1.57","subject_id":"5f3db8e8785f8b1dd1c70f50","study_id":"60edd13110225f80f9f3709b","session_id":"6196c6ff582aeb9266bb5fb3","condition":"contingent","relevant_dimensions":["wings","pattern"],"bee_group":{"antennae":"X","wings":"1","pattern":"S","legs":"X"},"bonus":0.520000000000001},{"rt":780.4000000003725,"stimulus":"bees-with-color/bee-A1DM.svg","response":0,"trial_type":"image-button-response","trial_index":127,"time_elapsed":2115725,"internal_node_id":"0.0-4.0-0.58","subject_id":"5f3db8e8785f8b1dd1c70f50","study_id":"60edd13110225f80f9f3709b","session_id":"6196c6ff582aeb9266bb5fb3","condition":"contingent","relevant_dimensions":["wings","pattern"],"bee_group":{"antennae":"X","wings":"1","pattern":"S","legs":"X"},"action":"harvest","summary":"good-harvest","bonus":0.520000000000001},{"rt":605.0999999996275,"stimulus":"\n                    <p><b>Action: <em>harvest</em></b></p>\n                    <p>This is the bee that you just saw.</p>\n                    <img src=\"bees-with-color/bee-A1DM.svg\" width=\"200\">\n                    <p><span class=\"greenText\"><b>Successful harvest!</b></span><br>Your pay has increased by $0.02. Your bonus pay is now $0.48.</p>\n            ","response":0,"trial_type":"html-button-response","trial_index":128,"time_elapsed":2116331,"internal_node_id":"0.0-4.0-1.58","subject_id":"5f3db8e8785f8b1dd1c70f50","study_id":"60edd13110225f80f9f3709b","session_id":"6196c6ff582aeb9266bb5fb3","condition":"contingent","relevant_dimensions":["wings","pattern"],"bee_group":{"antennae":"X","wings":"1","pattern":"S","legs":"X"},"bonus":0.520000000000001},{"rt":1016.1000000000931,"stimulus":"bees-with-color/bee-B1DF.svg","response":1,"trial_type":"image-button-response","trial_index":129,"time_elapsed":2117348,"internal_node_id":"0.0-4.0-0.59","subject_id":"5f3db8e8785f8b1dd1c70f50","study_id":"60edd13110225f80f9f3709b","session_id":"6196c6ff582aeb9266bb5fb3","condition":"contingent","relevant_dimensions":["wings","pattern"],"bee_group":{"antennae":"X","wings":"1","pattern":"S","legs":"X"},"action":"avoid","summary":"bad-avoid","bonus":0.520000000000001},{"rt":495.70000000018626,"stimulus":"\n                    <p><b>Action: <em>avoid</em></b></p>\n                    <p>This is the bee that you just saw.</p>\n                    <img src=\"bees-with-color/bee-B1DF.svg\" width=\"200\">\n                    <p><br>Your bonus pay is unchanged, and remains at $0.48.</p>\n            ","response":0,"trial_type":"html-button-response","trial_index":130,"time_elapsed":2117845,"internal_node_id":"0.0-4.0-1.59","subject_id":"5f3db8e8785f8b1dd1c70f50","study_id":"60edd13110225f80f9f3709b","session_id":"6196c6ff582aeb9266bb5fb3","condition":"contingent","relevant_dimensions":["wings","pattern"],"bee_group":{"antennae":"X","wings":"1","pattern":"S","legs":"X"},"bonus":0.520000000000001},{"rt":915.1000000000931,"stimulus":"bees-with-color/bee-B2DM.svg","response":0,"trial_type":"image-button-response","trial_index":131,"time_elapsed":2118761,"internal_node_id":"0.0-4.0-0.60","subject_id":"5f3db8e8785f8b1dd1c70f50","study_id":"60edd13110225f80f9f3709b","session_id":"6196c6ff582aeb9266bb5fb3","condition":"contingent","relevant_dimensions":["wings","pattern"],"bee_group":{"antennae":"X","wings":"1","pattern":"S","legs":"X"},"action":"harvest","summary":"good-harvest","bonus":0.520000000000001},{"rt":461,"stimulus":"\n                    <p><b>Action: <em>harvest</em></b></p>\n                    <p>This is the bee that you just saw.</p>\n                    <img src=\"bees-with-color/bee-B2DM.svg\" width=\"200\">\n                    <p><span class=\"greenText\"><b>Successful harvest!</b></span><br>Your pay has increased by $0.02. Your bonus pay is now $0.50.</p>\n            ","response":0,"trial_type":"html-button-response","trial_index":132,"time_elapsed":2119223,"internal_node_id":"0.0-4.0-1.60","subject_id":"5f3db8e8785f8b1dd1c70f50","study_id":"60edd13110225f80f9f3709b","session_id":"6196c6ff582aeb9266bb5fb3","condition":"contingent","relevant_dimensions":["wings","pattern"],"bee_group":{"antennae":"X","wings":"1","pattern":"S","legs":"X"},"bonus":0.520000000000001},{"rt":1232.2000000001863,"stimulus":"bees-with-color/bee-A1DF.svg","response":1,"trial_type":"image-button-response","trial_index":133,"time_elapsed":2120457,"internal_node_id":"0.0-4.0-0.61","subject_id":"5f3db8e8785f8b1dd1c70f50","study_id":"60edd13110225f80f9f3709b","session_id":"6196c6ff582aeb9266bb5fb3","condition":"contingent","relevant_dimensions":["wings","pattern"],"bee_group":{"antennae":"X","wings":"1","pattern":"S","legs":"X"},"action":"avoid","summary":"bad-avoid","bonus":0.520000000000001},{"rt":376,"stimulus":"\n                    <p><b>Action: <em>avoid</em></b></p>\n                    <p>This is the bee that you just saw.</p>\n                    <img src=\"bees-with-color/bee-A1DF.svg\" width=\"200\">\n                    <p><br>Your bonus pay is unchanged, and remains at $0.50.</p>\n            ","response":0,"trial_type":"html-button-response","trial_index":134,"time_elapsed":2120834,"internal_node_id":"0.0-4.0-1.61","subject_id":"5f3db8e8785f8b1dd1c70f50","study_id":"60edd13110225f80f9f3709b","session_id":"6196c6ff582aeb9266bb5fb3","condition":"contingent","relevant_dimensions":["wings","pattern"],"bee_group":{"antennae":"X","wings":"1","pattern":"S","legs":"X"},"bonus":0.520000000000001},{"rt":1039.1000000000931,"stimulus":"bees-with-color/bee-A1SM.svg","response":0,"trial_type":"image-button-response","trial_index":135,"time_elapsed":2121874,"internal_node_id":"0.0-4.0-0.62","subject_id":"5f3db8e8785f8b1dd1c70f50","study_id":"60edd13110225f80f9f3709b","session_id":"6196c6ff582aeb9266bb5fb3","condition":"contingent","relevant_dimensions":["wings","pattern"],"bee_group":{"antennae":"X","wings":"1","pattern":"S","legs":"X"},"action":"harvest","summary":"bad-harvest","bonus":0.520000000000001},{"rt":1006,"stimulus":"\n                    <p><b>Action: <em>harvest</em></b></p>\n                    <p>This is the bee that you just saw.</p>\n                    <img src=\"bees-with-color/bee-A1SM.svg\" width=\"200\">\n                    <p><span class=\"redText\">Bad choice, the bee was angry.</span><br><b>You have been stung!</b><br>Your pay has been decreased by $0.10. Your bonus pay is now $0.40.</p>\n            ","response":0,"trial_type":"html-button-response","trial_index":136,"time_elapsed":2122881,"internal_node_id":"0.0-4.0-1.62","subject_id":"5f3db8e8785f8b1dd1c70f50","study_id":"60edd13110225f80f9f3709b","session_id":"6196c6ff582aeb9266bb5fb3","condition":"contingent","relevant_dimensions":["wings","pattern"],"bee_group":{"antennae":"X","wings":"1","pattern":"S","legs":"X"},"bonus":0.520000000000001},{"rt":972.8999999999069,"stimulus":"bees-with-color/bee-A1SF.svg","response":0,"trial_type":"image-button-response","trial_index":137,"time_elapsed":2123855,"internal_node_id":"0.0-4.0-0.63","subject_id":"5f3db8e8785f8b1dd1c70f50","study_id":"60edd13110225f80f9f3709b","session_id":"6196c6ff582aeb9266bb5fb3","condition":"contingent","relevant_dimensions":["wings","pattern"],"bee_group":{"antennae":"X","wings":"1","pattern":"S","legs":"X"},"action":"harvest","summary":"bad-harvest","bonus":0.520000000000001},{"rt":587,"stimulus":"\n                    <p><b>Action: <em>harvest</em></b></p>\n                    <p>This is the bee that you just saw.</p>\n                    <img src=\"bees-with-color/bee-A1SF.svg\" width=\"200\">\n                    <p><span class=\"redText\">Bad choice, the bee was angry.</span><br><b>You have been stung!</b><br>Your pay has been decreased by $0.10. Your bonus pay is now $0.30.</p>\n            ","response":0,"trial_type":"html-button-response","trial_index":138,"time_elapsed":2124443,"internal_node_id":"0.0-4.0-1.63","subject_id":"5f3db8e8785f8b1dd1c70f50","study_id":"60edd13110225f80f9f3709b","session_id":"6196c6ff582aeb9266bb5fb3","condition":"contingent","relevant_dimensions":["wings","pattern"],"bee_group":{"antennae":"X","wings":"1","pattern":"S","legs":"X"},"bonus":0.520000000000001},{"rt":5323.600000000093,"stimulus":"You have completed the first part of this experiment.<br><br>You will now begin a shorter second part, in which you will receive no feedback.<br>The same rules regarding bonus pay apply.<br><br>Press any key to begin.","response":" ","trial_type":"html-keyboard-response","trial_index":139,"time_elapsed":2129768,"internal_node_id":"0.0-5.0","subject_id":"5f3db8e8785f8b1dd1c70f50","study_id":"60edd13110225f80f9f3709b","session_id":"6196c6ff582aeb9266bb5fb3","condition":"contingent","relevant_dimensions":["wings","pattern"],"bee_group":{"antennae":"X","wings":"1","pattern":"S","legs":"X"},"bonus":0.520000000000001},{"rt":2232.1999999997206,"stimulus":"bees-with-color/bee-A1SF.svg","response":1,"trial_type":"image-button-response","trial_index":140,"time_elapsed":2132006,"internal_node_id":"0.0-6.0-0.0","subject_id":"5f3db8e8785f8b1dd1c70f50","study_id":"60edd13110225f80f9f3709b","session_id":"6196c6ff582aeb9266bb5fb3","condition":"contingent","relevant_dimensions":["wings","pattern"],"bee_group":{"antennae":"X","wings":"1","pattern":"S","legs":"X"},"bonus":0.520000000000001},{"rt":1958.7999999998137,"stimulus":"bees-with-color/bee-A1SM.svg","response":1,"trial_type":"image-button-response","trial_index":141,"time_elapsed":2133966,"internal_node_id":"0.0-6.0-0.1","subject_id":"5f3db8e8785f8b1dd1c70f50","study_id":"60edd13110225f80f9f3709b","session_id":"6196c6ff582aeb9266bb5fb3","condition":"contingent","relevant_dimensions":["wings","pattern"],"bee_group":{"antennae":"X","wings":"1","pattern":"S","legs":"X"},"bonus":0.520000000000001},{"rt":913.5,"stimulus":"bees-with-color/bee-B1DF.svg","response":1,"trial_type":"image-button-response","trial_index":142,"time_elapsed":2134881,"internal_node_id":"0.0-6.0-0.2","subject_id":"5f3db8e8785f8b1dd1c70f50","study_id":"60edd13110225f80f9f3709b","session_id":"6196c6ff582aeb9266bb5fb3","condition":"contingent","relevant_dimensions":["wings","pattern"],"bee_group":{"antennae":"X","wings":"1","pattern":"S","legs":"X"},"bonus":0.520000000000001},{"rt":1106.6000000000931,"stimulus":"bees-with-color/bee-A1DM.svg","response":0,"trial_type":"image-button-response","trial_index":143,"time_elapsed":2135990,"internal_node_id":"0.0-6.0-0.3","subject_id":"5f3db8e8785f8b1dd1c70f50","study_id":"60edd13110225f80f9f3709b","session_id":"6196c6ff582aeb9266bb5fb3","condition":"contingent","relevant_dimensions":["wings","pattern"],"bee_group":{"antennae":"X","wings":"1","pattern":"S","legs":"X"},"bonus":0.520000000000001},{"rt":1142.5999999996275,"stimulus":"bees-with-color/bee-B2SF.svg","response":1,"trial_type":"image-button-response","trial_index":144,"time_elapsed":2137134,"internal_node_id":"0.0-6.0-0.4","subject_id":"5f3db8e8785f8b1dd1c70f50","study_id":"60edd13110225f80f9f3709b","session_id":"6196c6ff582aeb9266bb5fb3","condition":"contingent","relevant_dimensions":["wings","pattern"],"bee_group":{"antennae":"X","wings":"1","pattern":"S","legs":"X"},"bonus":0.520000000000001},{"rt":1033.8999999999069,"stimulus":"bees-with-color/bee-A1DF.svg","response":1,"trial_type":"image-button-response","trial_index":145,"time_elapsed":2138169,"internal_node_id":"0.0-6.0-0.5","subject_id":"5f3db8e8785f8b1dd1c70f50","study_id":"60edd13110225f80f9f3709b","session_id":"6196c6ff582aeb9266bb5fb3","condition":"contingent","relevant_dimensions":["wings","pattern"],"bee_group":{"antennae":"X","wings":"1","pattern":"S","legs":"X"},"bonus":0.520000000000001},{"rt":878.7000000001863,"stimulus":"bees-with-color/bee-A2DF.svg","response":0,"trial_type":"image-button-response","trial_index":146,"time_elapsed":2139049,"internal_node_id":"0.0-6.0-0.6","subject_id":"5f3db8e8785f8b1dd1c70f50","study_id":"60edd13110225f80f9f3709b","session_id":"6196c6ff582aeb9266bb5fb3","condition":"contingent","relevant_dimensions":["wings","pattern"],"bee_group":{"antennae":"X","wings":"1","pattern":"S","legs":"X"},"bonus":0.520000000000001},{"rt":989.2000000001863,"stimulus":"bees-with-color/bee-B2SM.svg","response":0,"trial_type":"image-button-response","trial_index":147,"time_elapsed":2140040,"internal_node_id":"0.0-6.0-0.7","subject_id":"5f3db8e8785f8b1dd1c70f50","study_id":"60edd13110225f80f9f3709b","session_id":"6196c6ff582aeb9266bb5fb3","condition":"contingent","relevant_dimensions":["wings","pattern"],"bee_group":{"antennae":"X","wings":"1","pattern":"S","legs":"X"},"bonus":0.520000000000001},{"rt":1123.1000000000931,"stimulus":"bees-with-color/bee-B2DM.svg","response":0,"trial_type":"image-button-response","trial_index":148,"time_elapsed":2141164,"internal_node_id":"0.0-6.0-0.8","subject_id":"5f3db8e8785f8b1dd1c70f50","study_id":"60edd13110225f80f9f3709b","session_id":"6196c6ff582aeb9266bb5fb3","condition":"contingent","relevant_dimensions":["wings","pattern"],"bee_group":{"antennae":"X","wings":"1","pattern":"S","legs":"X"},"bonus":0.520000000000001},{"rt":1421.3999999999069,"stimulus":"bees-with-color/bee-A2SF.svg","response":1,"trial_type":"image-button-response","trial_index":149,"time_elapsed":2142587,"internal_node_id":"0.0-6.0-0.9","subject_id":"5f3db8e8785f8b1dd1c70f50","study_id":"60edd13110225f80f9f3709b","session_id":"6196c6ff582aeb9266bb5fb3","condition":"contingent","relevant_dimensions":["wings","pattern"],"bee_group":{"antennae":"X","wings":"1","pattern":"S","legs":"X"},"bonus":0.520000000000001},{"rt":1413.8000000002794,"stimulus":"bees-with-color/bee-B1SM.svg","response":1,"trial_type":"image-button-response","trial_index":150,"time_elapsed":2144003,"internal_node_id":"0.0-6.0-0.10","subject_id":"5f3db8e8785f8b1dd1c70f50","study_id":"60edd13110225f80f9f3709b","session_id":"6196c6ff582aeb9266bb5fb3","condition":"contingent","relevant_dimensions":["wings","pattern"],"bee_group":{"antennae":"X","wings":"1","pattern":"S","legs":"X"},"bonus":0.520000000000001},{"rt":1661.7999999998137,"stimulus":"bees-with-color/bee-B1SF.svg","response":1,"trial_type":"image-button-response","trial_index":151,"time_elapsed":2145666,"internal_node_id":"0.0-6.0-0.11","subject_id":"5f3db8e8785f8b1dd1c70f50","study_id":"60edd13110225f80f9f3709b","session_id":"6196c6ff582aeb9266bb5fb3","condition":"contingent","relevant_dimensions":["wings","pattern"],"bee_group":{"antennae":"X","wings":"1","pattern":"S","legs":"X"},"bonus":0.520000000000001},{"rt":920.6000000000931,"stimulus":"bees-with-color/bee-A2DM.svg","response":0,"trial_type":"image-button-response","trial_index":152,"time_elapsed":2146588,"internal_node_id":"0.0-6.0-0.12","subject_id":"5f3db8e8785f8b1dd1c70f50","study_id":"60edd13110225f80f9f3709b","session_id":"6196c6ff582aeb9266bb5fb3","condition":"contingent","relevant_dimensions":["wings","pattern"],"bee_group":{"antennae":"X","wings":"1","pattern":"S","legs":"X"},"bonus":0.520000000000001},{"rt":1399.7000000001863,"stimulus":"bees-with-color/bee-A2SM.svg","response":0,"trial_type":"image-button-response","trial_index":153,"time_elapsed":2147989,"internal_node_id":"0.0-6.0-0.13","subject_id":"5f3db8e8785f8b1dd1c70f50","study_id":"60edd13110225f80f9f3709b","session_id":"6196c6ff582aeb9266bb5fb3","condition":"contingent","relevant_dimensions":["wings","pattern"],"bee_group":{"antennae":"X","wings":"1","pattern":"S","legs":"X"},"bonus":0.520000000000001},{"rt":919.5999999996275,"stimulus":"bees-with-color/bee-B2DF.svg","response":1,"trial_type":"image-button-response","trial_index":154,"time_elapsed":2148910,"internal_node_id":"0.0-6.0-0.14","subject_id":"5f3db8e8785f8b1dd1c70f50","study_id":"60edd13110225f80f9f3709b","session_id":"6196c6ff582aeb9266bb5fb3","condition":"contingent","relevant_dimensions":["wings","pattern"],"bee_group":{"antennae":"X","wings":"1","pattern":"S","legs":"X"},"bonus":0.520000000000001},{"rt":1813.8999999999069,"stimulus":"bees-with-color/bee-B1DM.svg","response":0,"trial_type":"image-button-response","trial_index":155,"time_elapsed":2150725,"internal_node_id":"0.0-6.0-0.15","subject_id":"5f3db8e8785f8b1dd1c70f50","study_id":"60edd13110225f80f9f3709b","session_id":"6196c6ff582aeb9266bb5fb3","condition":"contingent","relevant_dimensions":["wings","pattern"],"bee_group":{"antennae":"X","wings":"1","pattern":"S","legs":"X"},"bonus":0.520000000000001},{"rt":1194.8000000002794,"stimulus":"bees-with-color/bee-A1DF.svg","response":1,"trial_type":"image-button-response","trial_index":156,"time_elapsed":2151921,"internal_node_id":"0.0-6.0-0.16","subject_id":"5f3db8e8785f8b1dd1c70f50","study_id":"60edd13110225f80f9f3709b","session_id":"6196c6ff582aeb9266bb5fb3","condition":"contingent","relevant_dimensions":["wings","pattern"],"bee_group":{"antennae":"X","wings":"1","pattern":"S","legs":"X"},"bonus":0.520000000000001},{"rt":1190.8999999999069,"stimulus":"bees-with-color/bee-A2SM.svg","response":0,"trial_type":"image-button-response","trial_index":157,"time_elapsed":2153114,"internal_node_id":"0.0-6.0-0.17","subject_id":"5f3db8e8785f8b1dd1c70f50","study_id":"60edd13110225f80f9f3709b","session_id":"6196c6ff582aeb9266bb5fb3","condition":"contingent","relevant_dimensions":["wings","pattern"],"bee_group":{"antennae":"X","wings":"1","pattern":"S","legs":"X"},"bonus":0.520000000000001},{"rt":908.8999999999069,"stimulus":"bees-with-color/bee-B1DM.svg","response":1,"trial_type":"image-button-response","trial_index":158,"time_elapsed":2154024,"internal_node_id":"0.0-6.0-0.18","subject_id":"5f3db8e8785f8b1dd1c70f50","study_id":"60edd13110225f80f9f3709b","session_id":"6196c6ff582aeb9266bb5fb3","condition":"contingent","relevant_dimensions":["wings","pattern"],"bee_group":{"antennae":"X","wings":"1","pattern":"S","legs":"X"},"bonus":0.520000000000001},{"rt":1005.5,"stimulus":"bees-with-color/bee-A1SM.svg","response":1,"trial_type":"image-button-response","trial_index":159,"time_elapsed":2155031,"internal_node_id":"0.0-6.0-0.19","subject_id":"5f3db8e8785f8b1dd1c70f50","study_id":"60edd13110225f80f9f3709b","session_id":"6196c6ff582aeb9266bb5fb3","condition":"contingent","relevant_dimensions":["wings","pattern"],"bee_group":{"antennae":"X","wings":"1","pattern":"S","legs":"X"},"bonus":0.520000000000001},{"rt":1242.2000000001863,"stimulus":"bees-with-color/bee-B2SM.svg","response":1,"trial_type":"image-button-response","trial_index":160,"time_elapsed":2156274,"internal_node_id":"0.0-6.0-0.20","subject_id":"5f3db8e8785f8b1dd1c70f50","study_id":"60edd13110225f80f9f3709b","session_i