[{"success":true,"trial_type":"fullscreen","trial_index":0,"time_elapsed":18263,"internal_node_id":"0.0-0.0","subject_id":"6112c9590c46a0832e294382","study_id":"6197b3f67c2b5cd3b6d9596a","session_id":"6197b9e86f4346a089a4153a","condition":"contingent","relevant_dimensions":["pattern","legs"],"bee_group":{"antennae":"X","wings":"X","pattern":"S","legs":"F"},"bonus":0.1600000000000002},{"success":true,"timeout":false,"failed_images":[],"failed_audio":[],"failed_video":[],"trial_type":"preload","trial_index":1,"time_elapsed":25560,"internal_node_id":"0.0-1.0","subject_id":"6112c9590c46a0832e294382","study_id":"6197b3f67c2b5cd3b6d9596a","session_id":"6197b9e86f4346a089a4153a","condition":"contingent","relevant_dimensions":["pattern","legs"],"bee_group":{"antennae":"X","wings":"X","pattern":"S","legs":"F"},"bonus":0.1600000000000002},{"rt":3311.600000023842,"stimulus":"Welcome! Press any key to begin.","response":" ","trial_type":"html-keyboard-response","trial_index":2,"time_elapsed":28873,"internal_node_id":"0.0-2.0","subject_id":"6112c9590c46a0832e294382","study_id":"6197b3f67c2b5cd3b6d9596a","session_id":"6197b9e86f4346a089a4153a","condition":"contingent","relevant_dimensions":["pattern","legs"],"bee_group":{"antennae":"X","wings":"X","pattern":"S","legs":"F"},"bonus":0.1600000000000002},{"view_history":[{"page_index":0,"viewing_time":11301.600000023842},{"page_index":1,"viewing_time":77358.80000007153},{"page_index":2,"viewing_time":23139.199999928474},{"page_index":3,"viewing_time":28554.700000047684},{"page_index":4,"viewing_time":56776.10000002384},{"page_index":5,"viewing_time":10737.199999928474},{"page_index":6,"viewing_time":16815.200000047684},{"page_index":7,"viewing_time":11361.799999952316},{"page_index":8,"viewing_time":9820.899999976158},{"page_index":9,"viewing_time":4887.600000023842},{"page_index":10,"viewing_time":6220.200000047684},{"page_index":11,"viewing_time":15865.600000023842},{"page_index":12,"viewing_time":20577.599999904633},{"page_index":13,"viewing_time":5805.5},{"page_index":14,"viewing_time":4803.700000047684}],"rt":304026.8000000715,"trial_type":"instructions","trial_index":3,"time_elapsed":332894,"internal_node_id":"0.0-3.0-0.0","subject_id":"6112c9590c46a0832e294382","study_id":"6197b3f67c2b5cd3b6d9596a","session_id":"6197b9e86f4346a089a4153a","condition":"contingent","relevant_dimensions":["pattern","legs"],"bee_group":{"antennae":"X","wings":"X","pattern":"S","legs":"F"},"bonus":0.1600000000000002},{"rt":16016.300000071526,"response":{"Q0":["Two or six legs","Stripes or spots on body","Single or double wings","Antennae or no antennae"]},"question_order":[0],"trial_type":"survey-multi-select","trial_index":4,"time_elapsed":348917,"internal_node_id":"0.0-3.0-1.0","subject_id":"6112c9590c46a0832e294382","study_id":"6197b3f67c2b5cd3b6d9596a","session_id":"6197b9e86f4346a089a4153a","condition":"contingent","relevant_dimensions":["pattern","legs"],"bee_group":{"antennae":"X","wings":"X","pattern":"S","legs":"F"},"correct":true,"bonus":0.1600000000000002},{"rt":27017.799999952316,"response":{"Q1":"No.","Q2":"Based on the four features of the bee.","Q3":"You do not learn if it was friendly or dangerous, and do not alter your bonus."},"question_order":[0,1,2],"trial_type":"survey-multi-choice","trial_index":5,"time_elapsed":375938,"internal_node_id":"0.0-3.0-2.0","subject_id":"6112c9590c46a0832e294382","study_id":"6197b3f67c2b5cd3b6d9596a","session_id":"6197b9e86f4346a089a4153a","condition":"contingent","relevant_dimensions":["pattern","legs"],"bee_group":{"antennae":"X","wings":"X","pattern":"S","legs":"F"},"correct":true,"bonus":0.1600000000000002},{"rt":7780.799999952316,"stimulus":"<p>Congrats, you got everything right<br>When you're ready, click the button below to continue to the experiment.</p>","response":0,"trial_type":"html-button-response","trial_index":6,"time_elapsed":383721,"internal_node_id":"0.0-3.0-3.0","subject_id":"6112c9590c46a0832e294382","study_id":"6197b3f67c2b5cd3b6d9596a","session_id":"6197b9e86f4346a089a4153a","condition":"contingent","relevant_dimensions":["pattern","legs"],"bee_group":{"antennae":"X","wings":"X","pattern":"S","legs":"F"},"bonus":0.1600000000000002},{"rt":4601.299999952316,"stimulus":"bees-with-color/bee-B2DM.svg","response":0,"trial_type":"image-button-response","trial_index":7,"time_elapsed":388326,"internal_node_id":"0.0-4.0-0.0","subject_id":"6112c9590c46a0832e294382","study_id":"6197b3f67c2b5cd3b6d9596a","session_id":"6197b9e86f4346a089a4153a","condition":"contingent","relevant_dimensions":["pattern","legs"],"bee_group":{"antennae":"X","wings":"X","pattern":"S","legs":"F"},"action":"harvest","summary":"good-harvest","bonus":0.1600000000000002},{"rt":14712,"stimulus":"\n                    <p><b>Action: <em>harvest</em></b></p>\n                    <p>This is the bee that you just saw.</p>\n                    <img src=\"bees-with-color/bee-B2DM.svg\" width=\"200\">\n                    <p><span class=\"greenText\"><b>Successful harvest!</b></span><br>Your pay has increased by $0.02. Your bonus pay is now $0.56.</p>\n            ","response":0,"trial_type":"html-button-response","trial_index":8,"time_elapsed":403041,"internal_node_id":"0.0-4.0-1.0","subject_id":"6112c9590c46a0832e294382","study_id":"6197b3f67c2b5cd3b6d9596a","session_id":"6197b9e86f4346a089a4153a","condition":"contingent","relevant_dimensions":["pattern","legs"],"bee_group":{"antennae":"X","wings":"X","pattern":"S","legs":"F"},"bonus":0.1600000000000002},{"rt":4444,"stimulus":"bees-with-color/bee-A1DM.svg","response":1,"trial_type":"image-button-response","trial_index":9,"time_elapsed":407489,"internal_node_id":"0.0-4.0-0.1","subject_id":"6112c9590c46a0832e294382","study_id":"6197b3f67c2b5cd3b6d9596a","session_id":"6197b9e86f4346a089a4153a","condition":"contingent","relevant_dimensions":["pattern","legs"],"bee_group":{"antennae":"X","wings":"X","pattern":"S","legs":"F"},"action":"avoid","summary":"bad-avoid","bonus":0.1600000000000002},{"rt":11780,"stimulus":"\n                    <p><b>Action: <em>avoid</em></b></p>\n                    <p>This is the bee that you just saw.</p>\n                    <img src=\"bees-with-color/bee-A1DM.svg\" width=\"200\">\n                    <p><br>Your bonus pay is unchanged, and remains at $0.56.</p>\n            ","response":0,"trial_type":"html-button-response","trial_index":10,"time_elapsed":419271,"internal_node_id":"0.0-4.0-1.1","subject_id":"6112c9590c46a0832e294382","study_id":"6197b3f67c2b5cd3b6d9596a","session_id":"6197b9e86f4346a089a4153a","condition":"contingent","relevant_dimensions":["pattern","legs"],"bee_group":{"antennae":"X","wings":"X","pattern":"S","legs":"F"},"bonus":0.1600000000000002},{"rt":6453.5,"stimulus":"bees-with-color/bee-A1SF.svg","response":0,"trial_type":"image-button-response","trial_index":11,"time_elapsed":425727,"internal_node_id":"0.0-4.0-0.2","subject_id":"6112c9590c46a0832e294382","study_id":"6197b3f67c2b5cd3b6d9596a","session_id":"6197b9e86f4346a089a4153a","condition":"contingent","relevant_dimensions":["pattern","legs"],"bee_group":{"antennae":"X","wings":"X","pattern":"S","legs":"F"},"action":"harvest","summary":"bad-harvest","bonus":0.1600000000000002},{"rt":7853.100000023842,"stimulus":"\n                    <p><b>Action: <em>harvest</em></b></p>\n                    <p>This is the bee that you just saw.</p>\n                    <img src=\"bees-with-color/bee-A1SF.svg\" width=\"200\">\n                    <p><span class=\"redText\">Bad choice, the bee was angry.</span><br><b>You have been stung!</b><br>Your pay has been decreased by $0.10. Your bonus pay is now $0.46.</p>\n            ","response":0,"trial_type":"html-button-response","trial_index":12,"time_elapsed":433583,"internal_node_id":"0.0-4.0-1.2","subject_id":"6112c9590c46a0832e294382","study_id":"6197b3f67c2b5cd3b6d9596a","session_id":"6197b9e86f4346a089a4153a","condition":"contingent","relevant_dimensions":["pattern","legs"],"bee_group":{"antennae":"X","wings":"X","pattern":"S","legs":"F"},"bonus":0.1600000000000002},{"rt":9131.100000023842,"stimulus":"bees-with-color/bee-B2SM.svg","response":0,"trial_type":"image-button-response","trial_index":13,"time_elapsed":442717,"internal_node_id":"0.0-4.0-0.3","subject_id":"6112c9590c46a0832e294382","study_id":"6197b3f67c2b5cd3b6d9596a","session_id":"6197b9e86f4346a089a4153a","condition":"contingent","relevant_dimensions":["pattern","legs"],"bee_group":{"antennae":"X","wings":"X","pattern":"S","legs":"F"},"action":"harvest","summary":"good-harvest","bonus":0.1600000000000002},{"rt":7279.699999928474,"stimulus":"\n                    <p><b>Action: <em>harvest</em></b></p>\n                    <p>This is the bee that you just saw.</p>\n                    <img src=\"bees-with-color/bee-B2SM.svg\" width=\"200\">\n                    <p><span class=\"greenText\"><b>Successful harvest!</b></span><br>Your pay has increased by $0.02. Your bonus pay is now $0.48.</p>\n            ","response":0,"trial_type":"html-button-response","trial_index":14,"time_elapsed":450000,"internal_node_id":"0.0-4.0-1.3","subject_id":"6112c9590c46a0832e294382","study_id":"6197b3f67c2b5cd3b6d9596a","session_id":"6197b9e86f4346a089a4153a","condition":"contingent","relevant_dimensions":["pattern","legs"],"bee_group":{"antennae":"X","wings":"X","pattern":"S","legs":"F"},"bonus":0.1600000000000002},{"rt":5422.399999976158,"stimulus":"bees-with-color/bee-A2SF.svg","response":1,"trial_type":"image-button-response","trial_index":15,"time_elapsed":455428,"internal_node_id":"0.0-4.0-0.4","subject_id":"6112c9590c46a0832e294382","study_id":"6197b3f67c2b5cd3b6d9596a","session_id":"6197b9e86f4346a089a4153a","condition":"contingent","relevant_dimensions":["pattern","legs"],"bee_group":{"antennae":"X","wings":"X","pattern":"S","legs":"F"},"action":"avoid","summary":"good-avoid","bonus":0.1600000000000002},{"rt":6655.600000023842,"stimulus":"\n                    <p><b>Action: <em>avoid</em></b></p>\n                    <p>This is the bee that you just saw.</p>\n                    <img src=\"bees-with-color/bee-A2SF.svg\" width=\"200\">\n                    <p><br>Your bonus pay is unchanged, and remains at $0.48.</p>\n            ","response":0,"trial_type":"html-button-response","trial_index":16,"time_elapsed":462085,"internal_node_id":"0.0-4.0-1.4","subject_id":"6112c9590c46a0832e294382","study_id":"6197b3f67c2b5cd3b6d9596a","session_id":"6197b9e86f4346a089a4153a","condition":"contingent","relevant_dimensions":["pattern","legs"],"bee_group":{"antennae":"X","wings":"X","pattern":"S","legs":"F"},"bonus":0.1600000000000002},{"rt":3579.7999999523163,"stimulus":"bees-with-color/bee-B1DF.svg","response":0,"trial_type":"image-button-response","trial_index":17,"time_elapsed":465669,"internal_node_id":"0.0-4.0-0.5","subject_id":"6112c9590c46a0832e294382","study_id":"6197b3f67c2b5cd3b6d9596a","session_id":"6197b9e86f4346a089a4153a","condition":"contingent","relevant_dimensions":["pattern","legs"],"bee_group":{"antennae":"X","wings":"X","pattern":"S","legs":"F"},"action":"harvest","summary":"good-harvest","bonus":0.1600000000000002},{"rt":8693.899999976158,"stimulus":"\n                    <p><b>Action: <em>harvest</em></b></p>\n                    <p>This is the bee that you just saw.</p>\n                    <img src=\"bees-with-color/bee-B1DF.svg\" width=\"200\">\n                    <p><span class=\"greenText\"><b>Successful harvest!</b></span><br>Your pay has increased by $0.02. Your bonus pay is now $0.50.</p>\n            ","response":0,"trial_type":"html-button-response","trial_index":18,"time_elapsed":474365,"internal_node_id":"0.0-4.0-1.5","subject_id":"6112c9590c46a0832e294382","study_id":"6197b3f67c2b5cd3b6d9596a","session_id":"6197b9e86f4346a089a4153a","condition":"contingent","relevant_dimensions":["pattern","legs"],"bee_group":{"antennae":"X","wings":"X","pattern":"S","legs":"F"},"bonus":0.1600000000000002},{"rt":3427.899999976158,"stimulus":"bees-with-color/bee-A1DF.svg","response":1,"trial_type":"image-button-response","trial_index":19,"time_elapsed":477795,"internal_node_id":"0.0-4.0-0.6","subject_id":"6112c9590c46a0832e294382","study_id":"6197b3f67c2b5cd3b6d9596a","session_id":"6197b9e86f4346a089a4153a","condition":"contingent","relevant_dimensions":["pattern","legs"],"bee_group":{"antennae":"X","wings":"X","pattern":"S","legs":"F"},"action":"avoid","summary":"bad-avoid","bonus":0.1600000000000002},{"rt":6637.399999976158,"stimulus":"\n                    <p><b>Action: <em>avoid</em></b></p>\n                    <p>This is the bee that you just saw.</p>\n                    <img src=\"bees-with-color/bee-A1DF.svg\" width=\"200\">\n                    <p><br>Your bonus pay is unchanged, and remains at $0.50.</p>\n            ","response":0,"trial_type":"html-button-response","trial_index":20,"time_elapsed":484435,"internal_node_id":"0.0-4.0-1.6","subject_id":"6112c9590c46a0832e294382","study_id":"6197b3f67c2b5cd3b6d9596a","session_id":"6197b9e86f4346a089a4153a","condition":"contingent","relevant_dimensions":["pattern","legs"],"bee_group":{"antennae":"X","wings":"X","pattern":"S","legs":"F"},"bonus":0.1600000000000002},{"rt":2547.100000023842,"stimulus":"bees-with-color/bee-B1SM.svg","response":0,"trial_type":"image-button-response","trial_index":21,"time_elapsed":486984,"internal_node_id":"0.0-4.0-0.7","subject_id":"6112c9590c46a0832e294382","study_id":"6197b3f67c2b5cd3b6d9596a","session_id":"6197b9e86f4346a089a4153a","condition":"contingent","relevant_dimensions":["pattern","legs"],"bee_group":{"antennae":"X","wings":"X","pattern":"S","legs":"F"},"action":"harvest","summary":"good-harvest","bonus":0.1600000000000002},{"rt":5190.899999976158,"stimulus":"\n                    <p><b>Action: <em>harvest</em></b></p>\n                    <p>This is the bee that you just saw.</p>\n                    <img src=\"bees-with-color/bee-B1SM.svg\" width=\"200\">\n                    <p><span class=\"greenText\"><b>Successful harvest!</b></span><br>Your pay has increased by $0.02. Your bonus pay is now $0.52.</p>\n            ","response":0,"trial_type":"html-button-response","trial_index":22,"time_elapsed":492178,"internal_node_id":"0.0-4.0-1.7","subject_id":"6112c9590c46a0832e294382","study_id":"6197b3f67c2b5cd3b6d9596a","session_id":"6197b9e86f4346a089a4153a","condition":"contingent","relevant_dimensions":["pattern","legs"],"bee_group":{"antennae":"X","wings":"X","pattern":"S","legs":"F"},"bonus":0.1600000000000002},{"rt":3627.7999999523163,"stimulus":"bees-with-color/bee-B1DM.svg","response":0,"trial_type":"image-button-response","trial_index":23,"time_elapsed":495808,"internal_node_id":"0.0-4.0-0.8","subject_id":"6112c9590c46a0832e294382","study_id":"6197b3f67c2b5cd3b6d9596a","session_id":"6197b9e86f4346a089a4153a","condition":"contingent","relevant_dimensions":["pattern","legs"],"bee_group":{"antennae":"X","wings":"X","pattern":"S","legs":"F"},"action":"harvest","summary":"good-harvest","bonus":0.1600000000000002},{"rt":3540.5999999046326,"stimulus":"\n                    <p><b>Action: <em>harvest</em></b></p>\n                    <p>This is the bee that you just saw.</p>\n                    <img src=\"bees-with-color/bee-B1DM.svg\" width=\"200\">\n                    <p><span class=\"greenText\"><b>Successful harvest!</b></span><br>Your pay has increased by $0.02. Your bonus pay is now $0.54.</p>\n            ","response":0,"trial_type":"html-button-response","trial_index":24,"time_elapsed":499351,"internal_node_id":"0.0-4.0-1.8","subject_id":"6112c9590c46a0832e294382","study_id":"6197b3f67c2b5cd3b6d9596a","session_id":"6197b9e86f4346a089a4153a","condition":"contingent","relevant_dimensions":["pattern","legs"],"bee_group":{"antennae":"X","wings":"X","pattern":"S","legs":"F"},"bonus":0.1600000000000002},{"rt":3891.5,"stimulus":"bees-with-color/bee-B2SF.svg","response":0,"trial_type":"image-button-response","trial_index":25,"time_elapsed":503246,"internal_node_id":"0.0-4.0-0.9","subject_id":"6112c9590c46a0832e294382","study_id":"6197b3f67c2b5cd3b6d9596a","session_id":"6197b9e86f4346a089a4153a","condition":"contingent","relevant_dimensions":["pattern","legs"],"bee_group":{"antennae":"X","wings":"X","pattern":"S","legs":"F"},"action":"harvest","summary":"bad-harvest","bonus":0.1600000000000002},{"rt":6519.600000023842,"stimulus":"\n                    <p><b>Action: <em>harvest</em></b></p>\n                    <p>This is the bee that you just saw.</p>\n                    <img src=\"bees-with-color/bee-B2SF.svg\" width=\"200\">\n                    <p><span class=\"redText\">Bad choice, the bee was angry.</span><br><b>You have been stung!</b><br>Your pay has been decreased by $0.10. Your bonus pay is now $0.44.</p>\n            ","response":0,"trial_type":"html-button-response","trial_index":26,"time_elapsed":509767,"internal_node_id":"0.0-4.0-1.9","subject_id":"6112c9590c46a0832e294382","study_id":"6197b3f67c2b5cd3b6d9596a","session_id":"6197b9e86f4346a089a4153a","condition":"contingent","relevant_dimensions":["pattern","legs"],"bee_group":{"antennae":"X","wings":"X","pattern":"S","legs":"F"},"bonus":0.1600000000000002},{"rt":2131.5,"stimulus":"bees-with-color/bee-A2DM.svg","response":1,"trial_type":"image-button-response","trial_index":27,"time_elapsed":511901,"internal_node_id":"0.0-4.0-0.10","subject_id":"6112c9590c46a0832e294382","study_id":"6197b3f67c2b5cd3b6d9596a","session_id":"6197b9e86f4346a089a4153a","condition":"contingent","relevant_dimensions":["pattern","legs"],"bee_group":{"antennae":"X","wings":"X","pattern":"S","legs":"F"},"action":"avoid","summary":"bad-avoid","bonus":0.1600000000000002},{"rt":2844.8000000715256,"stimulus":"\n                    <p><b>Action: <em>avoid</em></b></p>\n                    <p>This is the bee that you just saw.</p>\n                    <img src=\"bees-with-color/bee-A2DM.svg\" width=\"200\">\n                    <p><br>Your bonus pay is unchanged, and remains at $0.44.</p>\n            ","response":0,"trial_type":"html-button-response","trial_index":28,"time_elapsed":514747,"internal_node_id":"0.0-4.0-1.10","subject_id":"6112c9590c46a0832e294382","study_id":"6197b3f67c2b5cd3b6d9596a","session_id":"6197b9e86f4346a089a4153a","condition":"contingent","relevant_dimensions":["pattern","legs"],"bee_group":{"antennae":"X","wings":"X","pattern":"S","legs":"F"},"bonus":0.1600000000000002},{"rt":3264.600000023842,"stimulus":"bees-with-color/bee-B2DF.svg","response":0,"trial_type":"image-button-response","trial_index":29,"time_elapsed":518014,"internal_node_id":"0.0-4.0-0.11","subject_id":"6112c9590c46a0832e294382","study_id":"6197b3f67c2b5cd3b6d9596a","session_id":"6197b9e86f4346a089a4153a","condition":"contingent","relevant_dimensions":["pattern","legs"],"bee_group":{"antennae":"X","wings":"X","pattern":"S","legs":"F"},"action":"harvest","summary":"good-harvest","bonus":0.1600000000000002},{"rt":5131.299999952316,"stimulus":"\n                    <p><b>Action: <em>harvest</em></b></p>\n                    <p>This is the bee that you just saw.</p>\n                    <img src=\"bees-with-color/bee-B2DF.svg\" width=\"200\">\n                    <p><span class=\"greenText\"><b>Successful harvest!</b></span><br>Your pay has increased by $0.02. Your bonus pay is now $0.46.</p>\n            ","response":0,"trial_type":"html-button-response","trial_index":30,"time_elapsed":523147,"internal_node_id":"0.0-4.0-1.11","subject_id":"6112c9590c46a0832e294382","study_id":"6197b3f67c2b5cd3b6d9596a","session_id":"6197b9e86f4346a089a4153a","condition":"contingent","relevant_dimensions":["pattern","legs"],"bee_group":{"antennae":"X","wings":"X","pattern":"S","legs":"F"},"bonus":0.1600000000000002},{"rt":2583.399999976158,"stimulus":"bees-with-color/bee-A1SM.svg","response":1,"trial_type":"image-button-response","trial_index":31,"time_elapsed":525733,"internal_node_id":"0.0-4.0-0.12","subject_id":"6112c9590c46a0832e294382","study_id":"6197b3f67c2b5cd3b6d9596a","session_id":"6197b9e86f4346a089a4153a","condition":"contingent","relevant_dimensions":["pattern","legs"],"bee_group":{"antennae":"X","wings":"X","pattern":"S","legs":"F"},"action":"avoid","summary":"bad-avoid","bonus":0.1600000000000002},{"rt":1740.1000000238419,"stimulus":"\n                    <p><b>Action: <em>avoid</em></b></p>\n                    <p>This is the bee that you just saw.</p>\n                    <img src=\"bees-with-color/bee-A1SM.svg\" width=\"200\">\n                    <p><br>Your bonus pay is unchanged, and remains at $0.46.</p>\n            ","response":0,"trial_type":"html-button-response","trial_index":32,"time_elapsed":527475,"internal_node_id":"0.0-4.0-1.12","subject_id":"6112c9590c46a0832e294382","study_id":"6197b3f67c2b5cd3b6d9596a","session_id":"6197b9e86f4346a089a4153a","condition":"contingent","relevant_dimensions":["pattern","legs"],"bee_group":{"antennae":"X","wings":"X","pattern":"S","legs":"F"},"bonus":0.1600000000000002},{"rt":6045.700000047684,"stimulus":"bees-with-color/bee-A2SM.svg","response":1,"trial_type":"image-button-response","trial_index":33,"time_elapsed":533523,"internal_node_id":"0.0-4.0-0.13","subject_id":"6112c9590c46a0832e294382","study_id":"6197b3f67c2b5cd3b6d9596a","session_id":"6197b9e86f4346a089a4153a","condition":"contingent","relevant_dimensions":["pattern","legs"],"bee_group":{"antennae":"X","wings":"X","pattern":"S","legs":"F"},"action":"avoid","summary":"bad-avoid","bonus":0.1600000000000002},{"rt":2377.2000000476837,"stimulus":"\n                    <p><b>Action: <em>avoid</em></b></p>\n                    <p>This is the bee that you just saw.</p>\n                    <img src=\"bees-with-color/bee-A2SM.svg\" width=\"200\">\n                    <p><br>Your bonus pay is unchanged, and remains at $0.46.</p>\n            ","response":0,"trial_type":"html-button-response","trial_index":34,"time_elapsed":535905,"internal_node_id":"0.0-4.0-1.13","subject_id":"6112c9590c46a0832e294382","study_id":"6197b3f67c2b5cd3b6d9596a","session_id":"6197b9e86f4346a089a4153a","condition":"contingent","relevant_dimensions":["pattern","legs"],"bee_group":{"antennae":"X","wings":"X","pattern":"S","legs":"F"},"bonus":0.1600000000000002},{"rt":6005.300000071526,"stimulus":"bees-with-color/bee-B1SF.svg","response":0,"trial_type":"image-button-response","trial_index":35,"time_elapsed":541914,"internal_node_id":"0.0-4.0-0.14","subject_id":"6112c9590c46a0832e294382","study_id":"6197b3f67c2b5cd3b6d9596a","session_id":"6197b9e86f4346a089a4153a","condition":"contingent","relevant_dimensions":["pattern","legs"],"bee_group":{"antennae":"X","wings":"X","pattern":"S","legs":"F"},"action":"harvest","summary":"bad-harvest","bonus":0.1600000000000002},{"rt":2066.8000000715256,"stimulus":"\n                    <p><b>Action: <em>harvest</em></b></p>\n                    <p>This is the bee that you just saw.</p>\n                    <img src=\"bees-with-color/bee-B1SF.svg\" width=\"200\">\n                    <p><span class=\"redText\">Bad choice, the bee was angry.</span><br><b>You have been stung!</b><br>Your pay has been decreased by $0.10. Your bonus pay is now $0.36.</p>\n            ","response":0,"trial_type":"html-button-response","trial_index":36,"time_elapsed":543983,"internal_node_id":"0.0-4.0-1.14","subject_id":"6112c9590c46a0832e294382","study_id":"6197b3f67c2b5cd3b6d9596a","session_id":"6197b9e86f4346a089a4153a","condition":"contingent","relevant_dimensions":["pattern","legs"],"bee_group":{"antennae":"X","wings":"X","pattern":"S","legs":"F"},"bonus":0.1600000000000002},{"rt":1894,"stimulus":"bees-with-color/bee-A2DF.svg","response":1,"trial_type":"image-button-response","trial_index":37,"time_elapsed":545880,"internal_node_id":"0.0-4.0-0.15","subject_id":"6112c9590c46a0832e294382","study_id":"6197b3f67c2b5cd3b6d9596a","session_id":"6197b9e86f4346a089a4153a","condition":"contingent","relevant_dimensions":["pattern","legs"],"bee_group":{"antennae":"X","wings":"X","pattern":"S","legs":"F"},"action":"avoid","summary":"bad-avoid","bonus":0.1600000000000002},{"rt":1127.1000000238419,"stimulus":"\n                    <p><b>Action: <em>avoid</em></b></p>\n                    <p>This is the bee that you just saw.</p>\n                    <img src=\"bees-with-color/bee-A2DF.svg\" width=\"200\">\n                    <p><br>Your bonus pay is unchanged, and remains at $0.36.</p>\n            ","response":0,"trial_type":"html-button-response","trial_index":38,"time_elapsed":547009,"internal_node_id":"0.0-4.0-1.15","subject_id":"6112c9590c46a0832e294382","study_id":"6197b3f67c2b5cd3b6d9596a","session_id":"6197b9e86f4346a089a4153a","condition":"contingent","relevant_dimensions":["pattern","legs"],"bee_group":{"antennae":"X","wings":"X","pattern":"S","legs":"F"},"bonus":0.1600000000000002},{"rt":1705.2999999523163,"stimulus":"bees-with-color/bee-B1DM.svg","response":0,"trial_type":"image-button-response","trial_index":39,"time_elapsed":548717,"internal_node_id":"0.0-4.0-0.16","subject_id":"6112c9590c46a0832e294382","study_id":"6197b3f67c2b5cd3b6d9596a","session_id":"6197b9e86f4346a089a4153a","condition":"contingent","relevant_dimensions":["pattern","legs"],"bee_group":{"antennae":"X","wings":"X","pattern":"S","legs":"F"},"action":"harvest","summary":"good-harvest","bonus":0.1600000000000002},{"rt":1166.8000000715256,"stimulus":"\n                    <p><b>Action: <em>harvest</em></b></p>\n                    <p>This is the bee that you just saw.</p>\n                    <img src=\"bees-with-color/bee-B1DM.svg\" width=\"200\">\n                    <p><span class=\"greenText\"><b>Successful harvest!</b></span><br>Your pay has increased by $0.02. Your bonus pay is now $0.38.</p>\n            ","response":0,"trial_type":"html-button-response","trial_index":40,"time_elapsed":549885,"internal_node_id":"0.0-4.0-1.16","subject_id":"6112c9590c46a0832e294382","study_id":"6197b3f67c2b5cd3b6d9596a","session_id":"6197b9e86f4346a089a4153a","condition":"contingent","relevant_dimensions":["pattern","legs"],"bee_group":{"antennae":"X","wings":"X","pattern":"S","legs":"F"},"bonus":0.1600000000000002},{"rt":3365.1999999284744,"stimulus":"bees-with-color/bee-B1SM.svg","response":0,"trial_type":"image-button-response","trial_index":41,"time_elapsed":553252,"internal_node_id":"0.0-4.0-0.17","subject_id":"6112c9590c46a0832e294382","study_id":"6197b3f67c2b5cd3b6d9596a","session_id":"6197b9e86f4346a089a4153a","condition":"contingent","relevant_dimensions":["pattern","legs"],"bee_group":{"antennae":"X","wings":"X","pattern":"S","legs":"F"},"action":"harvest","summary":"good-harvest","bonus":0.1600000000000002},{"rt":1143.1000000238419,"stimulus":"\n                    <p><b>Action: <em>harvest</em></b></p>\n                    <p>This is the bee that you just saw.</p>\n                    <img src=\"bees-with-color/bee-B1SM.svg\" width=\"200\">\n                    <p><span class=\"greenText\"><b>Successful harvest!</b></span><br>Your pay has increased by $0.02. Your bonus pay is now $0.40.</p>\n            ","response":0,"trial_type":"html-button-response","trial_index":42,"time_elapsed":554397,"internal_node_id":"0.0-4.0-1.17","subject_id":"6112c9590c46a0832e294382","study_id":"6197b3f67c2b5cd3b6d9596a","session_id":"6197b9e86f4346a089a4153a","condition":"contingent","relevant_dimensions":["pattern","legs"],"bee_group":{"antennae":"X","wings":"X","pattern":"S","legs":"F"},"bonus":0.1600000000000002},{"rt":1478.8000000715256,"stimulus":"bees-with-color/bee-A2DF.svg","response":1,"trial_type":"image-button-response","trial_index":43,"time_elapsed":555878,"internal_node_id":"0.0-4.0-0.18","subject_id":"6112c9590c46a0832e294382","study_id":"6197b3f67c2b5cd3b6d9596a","session_id":"6197b9e86f4346a089a4153a","condition":"contingent","relevant_dimensions":["pattern","legs"],"bee_group":{"antennae":"X","wings":"X","pattern":"S","legs":"F"},"action":"avoid","summary":"bad-avoid","bonus":0.1600000000000002},{"rt":1179.5,"stimulus":"\n                    <p><b>Action: <em>avoid</em></b></p>\n                    <p>This is the bee that you just saw.</p>\n                    <img src=\"bees-with-color/bee-A2DF.svg\" width=\"200\">\n                    <p><br>Your bonus pay is unchanged, and remains at $0.40.</p>\n            ","response":0,"trial_type":"html-button-response","trial_index":44,"time_elapsed":557059,"internal_node_id":"0.0-4.0-1.18","subject_id":"6112c9590c46a0832e294382","study_id":"6197b3f67c2b5cd3b6d9596a","session_id":"6197b9e86f4346a089a4153a","condition":"contingent","relevant_dimensions":["pattern","legs"],"bee_group":{"antennae":"X","wings":"X","pattern":"S","legs":"F"},"bonus":0.1600000000000002},{"rt":1918.5,"stimulus":"bees-with-color/bee-B1SF.svg","response":0,"trial_type":"image-button-response","trial_index":45,"time_elapsed":558979,"internal_node_id":"0.0-4.0-0.19","subject_id":"6112c9590c46a0832e294382","study_id":"6197b3f67c2b5cd3b6d9596a","session_id":"6197b9e86f4346a089a4153a","condition":"contingent","relevant_dimensions":["pattern","legs"],"bee_group":{"antennae":"X","wings":"X","pattern":"S","legs":"F"},"action":"harvest","summary":"bad-harvest","bonus":0.1600000000000002},{"rt":3148.2999999523163,"stimulus":"\n                    <p><b>Action: <em>harvest</em></b></p>\n                    <p>This is the bee that you just saw.</p>\n                    <img src=\"bees-with-color/bee-B1SF.svg\" width=\"200\">\n                    <p><span class=\"redText\">Bad choice, the bee was angry.</span><br><b>You have been stung!</b><br>Your pay has been decreased by $0.10. Your bonus pay is now $0.30.</p>\n            ","response":0,"trial_type":"html-button-response","trial_index":46,"time_elapsed":562129,"internal_node_id":"0.0-4.0-1.19","subject_id":"6112c9590c46a0832e294382","study_id":"6197b3f67c2b5cd3b6d9596a","session_id":"6197b9e86f4346a089a4153a","condition":"contingent","relevant_dimensions":["pattern","legs"],"bee_group":{"antennae":"X","wings":"X","pattern":"S","legs":"F"},"bonus":0.1600000000000002},{"rt":2840.7000000476837,"stimulus":"bees-with-color/bee-A1DM.svg","response":1,"trial_type":"image-button-response","trial_index":47,"time_elapsed":564971,"internal_node_id":"0.0-4.0-0.20","subject_id":"6112c9590c46a0832e294382","study_id":"6197b3f67c2b5cd3b6d9596a","session_id":"6197b9e86f4346a089a4153a","condition":"contingent","relevant_dimensions":["pattern","legs"],"bee_group":{"antennae":"X","wings":"X","pattern":"S","legs":"F"},"action":"avoid","summary":"bad-avoid","bonus":0.1600000000000002},{"rt":1122.1999999284744,"stimulus":"\n                    <p><b>Action: <em>avoid</em></b></p>\n                    <p>This is the bee that you just saw.</p>\n                    <img src=\"bees-with-color/bee-A1DM.svg\" width=\"200\">\n                    <p><br>Your bonus pay is unchanged, and remains at $0.30.</p>\n            ","response":0,"trial_type":"html-button-response","trial_index":48,"time_elapsed":566096,"internal_node_id":"0.0-4.0-1.20","subject_id":"6112c9590c46a0832e294382","study_id":"6197b3f67c2b5cd3b6d9596a","session_id":"6197b9e86f4346a089a4153a","condition":"contingent","relevant_dimensions":["pattern","legs"],"bee_group":{"antennae":"X","wings":"X","pattern":"S","legs":"F"},"bonus":0.1600000000000002},{"rt":1254.6999999284744,"stimulus":"bees-with-color/bee-A2DM.svg","response":1,"trial_type":"image-button-response","trial_index":49,"time_elapsed":567352,"internal_node_id":"0.0-4.0-0.21","subject_id":"6112c9590c46a0832e294382","study_id":"6197b3f67c2b5cd3b6d9596a","session_id":"6197b9e86f4346a089a4153a","condition":"contingent","relevant_dimensions":["pattern","legs"],"bee_group":{"antennae":"X","wings":"X","pattern":"S","legs":"F"},"action":"avoid","summary":"bad-avoid","bonus":0.1600000000000002},{"rt":911.3999999761581,"stimulus":"\n                    <p><b>Action: <em>avoid</em></b></p>\n                    <p>This is the bee that you just saw.</p>\n                    <img src=\"bees-with-color/bee-A2DM.svg\" width=\"200\">\n                    <p><br>Your bonus pay is unchanged, and remains at $0.30.</p>\n            ","response":0,"trial_type":"html-button-response","trial_index":50,"time_elapsed":568265,"internal_node_id":"0.0-4.0-1.21","subject_id":"6112c9590c46a0832e294382","study_id":"6197b3f67c2b5cd3b6d9596a","session_id":"6197b9e86f4346a089a4153a","condition":"contingent","relevant_dimensions":["pattern","legs"],"bee_group":{"antennae":"X","wings":"X","pattern":"S","legs":"F"},"bonus":0.1600000000000002},{"rt":1139.1000000238419,"stimulus":"bees-with-color/bee-A2SF.svg","response":1,"trial_type":"image-button-response","trial_index":51,"time_elapsed":569406,"internal_node_id":"0.0-4.0-0.22","subject_id":"6112c9590c46a0832e294382","study_id":"6197b3f67c2b5cd3b6d9596a","session_id":"6197b9e86f4346a089a4153a","condition":"contingent","relevant_dimensions":["pattern","legs"],"bee_group":{"antennae":"X","wings":"X","pattern":"S","legs":"F"},"action":"avoid","summary":"good-avoid","bonus":0.1600000000000002},{"rt":1454.1000000238419,"stimulus":"\n                    <p><b>Action: <em>avoid</em></b></p>\n                    <p>This is the bee that you just saw.</p>\n                    <img src=\"bees-with-color/bee-A2SF.svg\" width=\"200\">\n                    <p><br>Your bonus pay is unchanged, and remains at $0.30.</p>\n            ","response":0,"trial_type":"html-button-response","trial_index":52,"time_elapsed":570863,"internal_node_id":"0.0-4.0-1.22","subject_id":"6112c9590c46a0832e294382","study_id":"6197b3f67c2b5cd3b6d9596a","session_id":"6197b9e86f4346a089a4153a","condition":"contingent","relevant_dimensions":["pattern","legs"],"bee_group":{"antennae":"X","wings":"X","pattern":"S","legs":"F"},"bonus":0.1600000000000002},{"rt":1288.1000000238419,"stimulus":"bees-with-color/bee-A1SM.svg","response":1,"trial_type":"image-button-response","trial_index":53,"time_elapsed":572153,"internal_node_id":"0.0-4.0-0.23","subject_id":"6112c9590c46a0832e294382","study_id":"6197b3f67c2b5cd3b6d9596a","session_id":"6197b9e86f4346a089a4153a","condition":"contingent","relevant_dimensions":["pattern","legs"],"bee_group":{"antennae":"X","wings":"X","pattern":"S","legs":"F"},"action":"avoid","summary":"bad-avoid","bonus":0.1600000000000002},{"rt":1345.6000000238419,"stimulus":"\n                    <p><b>Action: <em>avoid</em></b></p>\n                    <p>This is the bee that you just saw.</p>\n                    <img src=\"bees-with-color/bee-A1SM.svg\" width=\"200\">\n                    <p><br>Your bonus pay is unchanged, and remains at $0.30.</p>\n            ","response":0,"trial_type":"html-button-response","trial_index":54,"time_elapsed":573500,"internal_node_id":"0.0-4.0-1.23","subject_id":"6112c9590c46a0832e294382","study_id":"6197b3f67c2b5cd3b6d9596a","session_id":"6197b9e86f4346a089a4153a","condition":"contingent","relevant_dimensions":["pattern","legs"],"bee_group":{"antennae":"X","wings":"X","pattern":"S","legs":"F"},"bonus":0.1600000000000002},{"rt":1919.8000000715256,"stimulus":"bees-with-color/bee-A1DF.svg","response":1,"trial_type":"image-button-response","trial_index":55,"time_elapsed":575422,"internal_node_id":"0.0-4.0-0.24","subject_id":"6112c9590c46a0832e294382","study_id":"6197b3f67c2b5cd3b6d9596a","session_id":"6197b9e86f4346a089a4153a","condition":"contingent","relevant_dimensions":["pattern","legs"],"bee_group":{"antennae":"X","wings":"X","pattern":"S","legs":"F"},"action":"avoid","summary":"bad-avoid","bonus":0.1600000000000002},{"rt":1093.3999999761581,"stimulus":"\n                    <p><b>Action: <em>avoid</em></b></p>\n                    <p>This is the bee that you just saw.</p>\n                    <img src=\"bees-with-color/bee-A1DF.svg\" width=\"200\">\n                    <p><br>Your bonus pay is unchanged, and remains at $0.30.</p>\n            ","response":0,"trial_type":"html-button-response","trial_index":56,"time_elapsed":576518,"internal_node_id":"0.0-4.0-1.24","subject_id":"6112c9590c46a0832e294382","study_id":"6197b3f67c2b5cd3b6d9596a","session_id":"6197b9e86f4346a089a4153a","condition":"contingent","relevant_dimensions":["pattern","legs"],"bee_group":{"antennae":"X","wings":"X","pattern":"S","legs":"F"},"bonus":0.1600000000000002},{"rt":1675.3999999761581,"stimulus":"bees-with-color/bee-A1SF.svg","response":1,"trial_type":"image-button-response","trial_index":57,"time_elapsed":578196,"internal_node_id":"0.0-4.0-0.25","subject_id":"6112c9590c46a0832e294382","study_id":"6197b3f67c2b5cd3b6d9596a","session_id":"6197b9e86f4346a089a4153a","condition":"contingent","relevant_dimensions":["pattern","legs"],"bee_group":{"antennae":"X","wings":"X","pattern":"S","legs":"F"},"action":"avoid","summary":"good-avoid","bonus":0.1600000000000002},{"rt":911.0999999046326,"stimulus":"\n                    <p><b>Action: <em>avoid</em></b></p>\n                    <p>This is the bee that you just saw.</p>\n                    <img src=\"bees-with-color/bee-A1SF.svg\" width=\"200\">\n                    <p><br>Your bonus pay is unchanged, and remains at $0.30.</p>\n            ","response":0,"trial_type":"html-button-response","trial_index":58,"time_elapsed":579109,"internal_node_id":"0.0-4.0-1.25","subject_id":"6112c9590c46a0832e294382","study_id":"6197b3f67c2b5cd3b6d9596a","session_id":"6197b9e86f4346a089a4153a","condition":"contingent","relevant_dimensions":["pattern","legs"],"bee_group":{"antennae":"X","wings":"X","pattern":"S","legs":"F"},"bonus":0.1600000000000002},{"rt":1830.1000000238419,"stimulus":"bees-with-color/bee-B2DM.svg","response":0,"trial_type":"image-button-response","trial_index":59,"time_elapsed":580942,"internal_node_id":"0.0-4.0-0.26","subject_id":"6112c9590c46a0832e294382","study_id":"6197b3f67c2b5cd3b6d9596a","session_id":"6197b9e86f4346a089a4153a","condition":"contingent","relevant_dimensions":["pattern","legs"],"bee_group":{"antennae":"X","wings":"X","pattern":"S","legs":"F"},"action":"harvest","summary":"good-harvest","bonus":0.1600000000000002},{"rt":1921.3999999761581,"stimulus":"\n                    <p><b>Action: <em>harvest</em></b></p>\n                    <p>This is the bee that you just saw.</p>\n                    <img src=\"bees-with-color/bee-B2DM.svg\" width=\"200\">\n                    <p><span class=\"greenText\"><b>Successful harvest!</b></span><br>Your pay has increased by $0.02. Your bonus pay is now $0.32.</p>\n            ","response":0,"trial_type":"html-button-response","trial_index":60,"time_elapsed":582870,"internal_node_id":"0.0-4.0-1.26","subject_id":"6112c9590c46a0832e294382","study_id":"6197b3f67c2b5cd3b6d9596a","session_id":"6197b9e86f4346a089a4153a","condition":"contingent","relevant_dimensions":["pattern","legs"],"bee_group":{"antennae":"X","wings":"X","pattern":"S","legs":"F"},"bonus":0.1600000000000002},{"rt":1513.3000000715256,"stimulus":"bees-with-color/bee-B2DF.svg","response":0,"trial_type":"image-button-response","trial_index":61,"time_elapsed":584387,"internal_node_id":"0.0-4.0-0.27","subject_id":"6112c9590c46a0832e294382","study_id":"6197b3f67c2b5cd3b6d9596a","session_id":"6197b9e86f4346a089a4153a","condition":"contingent","relevant_dimensions":["pattern","legs"],"bee_group":{"antennae":"X","wings":"X","pattern":"S","legs":"F"},"action":"harvest","summary":"good-harvest","bonus":0.1600000000000002},{"rt":1071.0999999046326,"stimulus":"\n                    <p><b>Action: <em>harvest</em></b></p>\n                    <p>This is the bee that you just saw.</p>\n                    <img src=\"bees-with-color/bee-B2DF.svg\" width=\"200\">\n                    <p><span class=\"greenText\"><b>Successful harvest!</b></span><br>Your pay has increased by $0.02. Your bonus pay is now $0.34.</p>\n            ","response":0,"trial_type":"html-button-response","trial_index":62,"time_elapsed":585461,"internal_node_id":"0.0-4.0-1.27","subject_id":"6112c9590c46a0832e294382","study_id":"6197b3f67c2b5cd3b6d9596a","session_id":"6197b9e86f4346a089a4153a","condition":"contingent","relevant_dimensions":["pattern","legs"],"bee_group":{"antennae":"X","wings":"X","pattern":"S","legs":"F"},"bonus":0.1600000000000002},{"rt":1954.3000000715256,"stimulus":"bees-with-color/bee-B1DF.svg","response":0,"trial_type":"image-button-response","trial_index":63,"time_elapsed":587417,"internal_node_id":"0.0-4.0-0.28","subject_id":"6112c9590c46a0832e294382","study_id":"6197b3f67c2b5cd3b6d9596a","session_id":"6197b9e86f4346a089a4153a","condition":"contingent","relevant_dimensions":["pattern","legs"],"bee_group":{"antennae":"X","wings":"X","pattern":"S","legs":"F"},"action":"harvest","summary":"good-harvest","bonus":0.1600000000000002},{"rt":1367.2999999523163,"stimulus":"\n                    <p><b>Action: <em>harvest</em></b></p>\n                    <p>This is the bee that you just saw.</p>\n                    <img src=\"bees-with-color/bee-B1DF.svg\" width=\"200\">\n                    <p><span class=\"greenText\"><b>Successful harvest!</b></span><br>Your pay has increased by $0.02. Your bonus pay is now $0.36.</p>\n            ","response":0,"trial_type":"html-button-response","trial_index":64,"time_elapsed":588787,"internal_node_id":"0.0-4.0-1.28","subject_id":"6112c9590c46a0832e294382","study_id":"6197b3f67c2b5cd3b6d9596a","session_id":"6197b9e86f4346a089a4153a","condition":"contingent","relevant_dimensions":["pattern","legs"],"bee_group":{"antennae":"X","wings":"X","pattern":"S","legs":"F"},"bonus":0.1600000000000002},{"rt":4612.099999904633,"stimulus":"bees-with-color/bee-B2SM.svg","response":1,"trial_type":"image-button-response","trial_index":65,"time_elapsed":593401,"internal_node_id":"0.0-4.0-0.29","subject_id":"6112c9590c46a0832e294382","study_id":"6197b3f67c2b5cd3b6d9596a","session_id":"6197b9e86f4346a089a4153a","condition":"contingent","relevant_dimensions":["pattern","legs"],"bee_group":{"antennae":"X","wings":"X","pattern":"S","legs":"F"},"action":"avoid","summary":"bad-avoid","bonus":0.1600000000000002},{"rt":1158,"stimulus":"\n                    <p><b>Action: <em>avoid</em></b></p>\n                    <p>This is the bee that you just saw.</p>\n                    <img src=\"bees-with-color/bee-B2SM.svg\" width=\"200\">\n                    <p><br>Your bonus pay is unchanged, and remains at $0.36.</p>\n            ","response":0,"trial_type":"html-button-response","trial_index":66,"time_elapsed":594562,"internal_node_id":"0.0-4.0-1.29","subject_id":"6112c9590c46a0832e294382","study_id":"6197b3f67c2b5cd3b6d9596a","session_id":"6197b9e86f4346a089a4153a","condition":"contingent","relevant_dimensions":["pattern","legs"],"bee_group":{"antennae":"X","wings":"X","pattern":"S","legs":"F"},"bonus":0.1600000000000002},{"rt":1543,"stimulus":"bees-with-color/bee-A2SM.svg","response":1,"trial_type":"image-button-response","trial_index":67,"time_elapsed":596108,"internal_node_id":"0.0-4.0-0.30","subject_id":"6112c9590c46a0832e294382","study_id":"6197b3f67c2b5cd3b6d9596a","session_id":"6197b9e86f4346a089a4153a","condition":"contingent","relevant_dimensions":["pattern","legs"],"bee_group":{"antennae":"X","wings":"X","pattern":"S","legs":"F"},"action":"avoid","summary":"bad-avoid","bonus":0.1600000000000002},{"rt":958.3000000715256,"stimulus":"\n                    <p><b>Action: <em>avoid</em></b></p>\n                    <p>This is the bee that you just saw.</p>\n                    <img src=\"bees-with-color/bee-A2SM.svg\" width=\"200\">\n                    <p><br>Your bonus pay is unchanged, and remains at $0.36.</p>\n            ","response":0,"trial_type":"html-button-response","trial_index":68,"time_elapsed":597071,"internal_node_id":"0.0-4.0-1.30","subject_id":"6112c9590c46a0832e294382","study_id":"6197b3f67c2b5cd3b6d9596a","session_id":"6197b9e86f4346a089a4153a","condition":"contingent","relevant_dimensions":["pattern","legs"],"bee_group":{"antennae":"X","wings":"X","pattern":"S","legs":"F"},"bonus":0.1600000000000002},{"rt":1144.1000000238419,"stimulus":"bees-with-color/bee-B2SF.svg","response":0,"trial_type":"image-button-response","trial_index":69,"time_elapsed":598216,"internal_node_id":"0.0-4.0-0.31","subject_id":"6112c9590c46a0832e294382","study_id":"6197b3f67c2b5cd3b6d9596a","session_id":"6197b9e86f4346a089a4153a","condition":"contingent","relevant_dimensions":["pattern","legs"],"bee_group":{"antennae":"X","wings":"X","pattern":"S","legs":"F"},"action":"harvest","summary":"bad-harvest","bonus":0.1600000000000002},{"rt":1886.8000000715256,"stimulus":"\n                    <p><b>Action: <em>harvest</em></b></p>\n                    <p>This is the bee that you just saw.</p>\n                    <img src=\"bees-with-color/bee-B2SF.svg\" width=\"200\">\n                    <p><span class=\"redText\">Bad choice, the bee was angry.</span><br><b>You have been stung!</b><br>Your pay has been decreased by $0.10. Your bonus pay is now $0.26.</p>\n            ","response":0,"trial_type":"html-button-response","trial_index":70,"time_elapsed":600105,"internal_node_id":"0.0-4.0-1.31","subject_id":"6112c9590c46a0832e294382","study_id":"6197b3f67c2b5cd3b6d9596a","session_id":"6197b9e86f4346a089a4153a","condition":"contingent","relevant_dimensions":["pattern","legs"],"bee_group":{"antennae":"X","wings":"X","pattern":"S","legs":"F"},"bonus":0.1600000000000002},{"rt":8139,"stimulus":"bees-with-color/bee-B2SF.svg","response":0,"trial_type":"image-button-response","trial_index":71,"time_elapsed":608245,"internal_node_id":"0.0-4.0-0.32","subject_id":"6112c9590c46a0832e294382","study_id":"6197b3f67c2b5cd3b6d9596a","session_id":"6197b9e86f4346a089a4153a","condition":"contingent","relevant_dimensions":["pattern","legs"],"bee_group":{"antennae":"X","wings":"X","pattern":"S","legs":"F"},"action":"harvest","summary":"bad-harvest","bonus":0.1600000000000002},{"rt":2124.5,"stimulus":"\n                    <p><b>Action: <em>harvest</em></b></p>\n                    <p>This is the bee that you just saw.</p>\n                    <img src=\"bees-with-color/bee-B2SF.svg\" width=\"200\">\n                    <p><span class=\"redText\">Bad choice, the bee was angry.</span><br><b>You have been stung!</b><br>Your pay has been decreased by $0.10. Your bonus pay is now $0.16.</p>\n            ","response":0,"trial_type":"html-button-response","trial_index":72,"time_elapsed":610372,"internal_node_id":"0.0-4.0-1.32","subject_id":"6112c9590c46a0832e294382","study_id":"6197b3f67c2b5cd3b6d9596a","session_id":"6197b9e86f4346a089a4153a","condition":"contingent","relevant_dimensions":["pattern","legs"],"bee_group":{"antennae":"X","wings":"X","pattern":"S","legs":"F"},"bonus":0.1600000000000002},{"rt":1381,"stimulus":"bees-with-color/bee-A1DF.svg","response":1,"trial_type":"image-button-response","trial_index":73,"time_elapsed":611755,"internal_node_id":"0.0-4.0-0.33","subject_id":"6112c9590c46a0832e294382","study_id":"6197b3f67c2b5cd3b6d9596a","session_id":"6197b9e86f4346a089a4153a","condition":"contingent","relevant_dimensions":["pattern","legs"],"bee_group":{"antennae":"X","wings":"X","pattern":"S","legs":"F"},"action":"avoid","summary":"bad-avoid","bonus":0.1600000000000002},{"rt":894.5,"stimulus":"\n                    <p><b>Action: <em>avoid</em></b></p>\n                    <p>This is the bee that you just saw.</p>\n                    <img src=\"bees-with-color/bee-A1DF.svg\" width=\"200\">\n                    <p><br>Your bonus pay is unchanged, and remains at $0.16.</p>\n            ","response":0,"trial_type":"html-button-response","trial_index":74,"time_elapsed":612651,"internal_node_id":"0.0-4.0-1.33","subject_id":"6112c9590c46a0832e294382","study_id":"6197b3f67c2b5cd3b6d9596a","session_id":"6197b9e86f4346a089a4153a","condition":"contingent","relevant_dimensions":["pattern","legs"],"bee_group":{"antennae":"X","wings":"X","pattern":"S","legs":"F"},"bonus":0.1600000000000002},{"rt":1035.6000000238419,"stimulus":"bees-with-color/bee-B1SM.svg","response":0,"trial_type":"image-button-response","trial_index":75,"time_elapsed":613688,"internal_node_id":"0.0-4.0-0.34","subject_id":"6112c9590c46a0832e294382","study_id":"6197b3f67c2b5cd3b6d9596a","session_id":"6197b9e86f4346a089a4153a","condition":"contingent","relevant_dimensions":["pattern","legs"],"bee_group":{"antennae":"X","wings":"X","pattern":"S","legs":"F"},"action":"harvest","summary":"good-harvest","bonus":0.1600000000000002},{"rt":1247.2000000476837,"stimulus":"\n                    <p><b>Action: <em>harvest</em></b></p>\n                    <p>This is the bee that you just saw.</p>\n                    <img src=\"bees-with-color/bee-B1SM.svg\" width=\"200\">\n                    <p><span class=\"greenText\"><b>Successful harvest!</b></span><br>Your pay has increased by $0.02. Your bonus pay is now $0.18.</p>\n            ","response":0,"trial_type":"html-button-response","trial_index":76,"time_elapsed":614937,"internal_node_id":"0.0-4.0-1.34","subject_id":"6112c9590c46a0832e294382","study_id":"6197b3f67c2b5cd3b6d9596a","session_id":"6197b9e86f4346a089a4153a","condition":"contingent","relevant_dimensions":["pattern","legs"],"bee_group":{"antennae":"X","wings":"X","pattern":"S","legs":"F"},"bonus":0.1600000000000002},{"rt":1984.1999999284744,"stimulus":"bees-with-color/bee-B2SM.svg","response":0,"trial_type":"image-button-response","trial_index":77,"time_elapsed":616923,"internal_node_id":"0.0-4.0-0.35","subject_id":"6112c9590c46a0832e294382","study_id":"6197b3f67c2b5cd3b6d9596a","session_id":"6197b9e86f4346a089a4153a","condition":"contingent","relevant_dimensions":["pattern","legs"],"bee_group":{"antennae":"X","wings":"X","pattern":"S","legs":"F"},"action":"harvest","summary":"good-harvest","bonus":0.1600000000000002},{"rt":6992.5,"stimulus":"\n                    <p><b>Action: <em>harvest</em></b></p>\n                    <p>This is the bee that you just saw.</p>\n                    <img src=\"bees-with-color/bee-B2SM.svg\" width=\"200\">\n                    <p><span class=\"greenText\"><b>Successful harvest!</b></span><br>Your pay has increased by $0.02. Your bonus pay is now $0.20.</p>\n            ","response":0,"trial_type":"html-button-response","trial_index":78,"time_elapsed":623918,"internal_node_id":"0.0-4.0-1.35","subject_id":"6112c9590c46a0832e294382","study_id":"6197b3f67c2b5cd3b6d9596a","session_id":"6197b9e86f4346a089a4153a","condition":"contingent","relevant_dimensions":["pattern","legs"],"bee_group":{"antennae":"X","wings":"X","pattern":"S","legs":"F"},"bonus":0.1600000000000002},{"rt":4066.7000000476837,"stimulus":"bees-with-color/bee-B1DF.svg","response":0,"trial_type":"image-button-response","trial_index":79,"time_elapsed":627988,"internal_node_id":"0.0-4.0-0.36","subject_id":"6112c9590c46a0832e294382","study_id":"6197b3f67c2b5cd3b6d9596a","session_id":"6197b9e86f4346a089a4153a","condition":"contingent","relevant_dimensions":["pattern","legs"],"bee_group":{"antennae":"X","wings":"X","pattern":"S","legs":"F"},"action":"harvest","summary":"good-harvest","bonus":0.1600000000000002},{"rt":1647,"stimulus":"\n                    <p><b>Action: <em>harvest</em></b></p>\n                    <p>This is the bee that you just saw.</p>\n                    <img src=\"bees-with-color/bee-B1DF.svg\" width=\"200\">\n                    <p><span class=\"greenText\"><b>Successful harvest!</b></span><br>Your pay has increased by $0.02. Your bonus pay is now $0.22.</p>\n            ","response":0,"trial_type":"html-button-response","trial_index":80,"time_elapsed":629637,"internal_node_id":"0.0-4.0-1.36","subject_id":"6112c9590c46a0832e294382","study_id":"6197b3f67c2b5cd3b6d9596a","session_id":"6197b9e86f4346a089a4153a","condition":"contingent","relevant_dimensions":["pattern","legs"],"bee_group":{"antennae":"X","wings":"X","pattern":"S","legs":"F"},"bonus":0.1600000000000002},{"rt":2402.8000000715256,"stimulus":"bees-with-color/bee-A1SM.svg","response":1,"trial_type":"image-button-response","trial_index":81,"time_elapsed":632042,"internal_node_id":"0.0-4.0-0.37","subject_id":"6112c9590c46a0832e294382","study_id":"6197b3f67c2b5cd3b6d9596a","session_id":"6197b9e86f4346a089a4153a","condition":"contingent","relevant_dimensions":["pattern","legs"],"bee_group":{"antennae":"X","wings":"X","pattern":"S","legs":"F"},"action":"avoid","summary":"bad-avoid","bonus":0.1600000000000002},{"rt":1397.2999999523163,"stimulus":"\n                    <p><b>Action: <em>avoid</em></b></p>\n                    <p>This is the bee that you just saw.</p>\n                    <img src=\"bees-with-color/bee-A1SM.svg\" width=\"200\">\n                    <p><br>Your bonus pay is unchanged, and remains at $0.22.</p>\n            ","response":0,"trial_type":"html-button-response","trial_index":82,"time_elapsed":633443,"internal_node_id":"0.0-4.0-1.37","subject_id":"6112c9590c46a0832e294382","study_id":"6197b3f67c2b5cd3b6d9596a","session_id":"6197b9e86f4346a089a4153a","condition":"contingent","relevant_dimensions":["pattern","legs"],"bee_group":{"antennae":"X","wings":"X","pattern":"S","legs":"F"},"bonus":0.1600000000000002},{"rt":1557.1000000238419,"stimulus":"bees-with-color/bee-A2SF.svg","response":1,"trial_type":"image-button-response","trial_index":83,"time_elapsed":635004,"internal_node_id":"0.0-4.0-0.38","subject_id":"6112c9590c46a0832e294382","study_id":"6197b3f67c2b5cd3b6d9596a","session_id":"6197b9e86f4346a089a4153a","condition":"contingent","relevant_dimensions":["pattern","legs"],"bee_group":{"antennae":"X","wings":"X","pattern":"S","legs":"F"},"action":"avoid","summary":"good-avoid","bonus":0.1600000000000002},{"rt":1009.2999999523163,"stimulus":"\n                    <p><b>Action: <em>avoid</em></b></p>\n                    <p>This is the bee that you just saw.</p>\n                    <img src=\"bees-with-color/bee-A2SF.svg\" width=\"200\">\n                    <p><br>Your bonus pay is unchanged, and remains at $0.22.</p>\n            ","response":0,"trial_type":"html-button-response","trial_index":84,"time_elapsed":636016,"internal_node_id":"0.0-4.0-1.38","subject_id":"6112c9590c46a0832e294382","study_id":"6197b3f67c2b5cd3b6d9596a","session_id":"6197b9e86f4346a089a4153a","condition":"contingent","relevant_dimensions":["pattern","legs"],"bee_group":{"antennae":"X","wings":"X","pattern":"S","legs":"F"},"bonus":0.1600000000000002},{"rt":2111.7999999523163,"stimulus":"bees-with-color/bee-A2SM.svg","response":1,"trial_type":"image-button-response","trial_index":85,"time_elapsed":638131,"internal_node_id":"0.0-4.0-0.39","subject_id":"6112c9590c46a0832e294382","study_id":"6197b3f67c2b5cd3b6d9596a","session_id":"6197b9e86f4346a089a4153a","condition":"contingent","relevant_dimensions":["pattern","legs"],"bee_group":{"antennae":"X","wings":"X","pattern":"S","legs":"F"},"action":"avoid","summary":"bad-avoid","bonus":0.1600000000000002},{"rt":1193,"stimulus":"\n                    <p><b>Action: <em>avoid</em></b></p>\n                    <p>This is the bee that you just saw.</p>\n                    <img src=\"bees-with-color/bee-A2SM.svg\" width=\"200\">\n                    <p><br>Your bonus pay is unchanged, and remains at $0.22.</p>\n            ","response":0,"trial_type":"html-button-response","trial_index":86,"time_elapsed":639326,"internal_node_id":"0.0-4.0-1.39","subject_id":"6112c9590c46a0832e294382","study_id":"6197b3f67c2b5cd3b6d9596a","session_id":"6197b9e86f4346a089a4153a","condition":"contingent","relevant_dimensions":["pattern","legs"],"bee_group":{"antennae":"X","wings":"X","pattern":"S","legs":"F"},"bonus":0.1600000000000002},{"rt":1293.5,"stimulus":"bees-with-color/bee-A2DF.svg","response":1,"trial_type":"image-button-response","trial_index":87,"time_elapsed":640623,"internal_node_id":"0.0-4.0-0.40","subject_id":"6112c9590c46a0832e294382","study_id":"6197b3f67c2b5cd3b6d9596a","session_id":"6197b9e86f4346a089a4153a","condition":"contingent","relevant_dimensions":["pattern","legs"],"bee_group":{"antennae":"X","wings":"X","pattern":"S","legs":"F"},"action":"avoid","summary":"bad-avoid","bonus":0.1600000000000002},{"rt":838.3000000715256,"stimulus":"\n                    <p><b>Action: <em>avoid</em></b></p>\n                    <p>This is the bee that you just saw.</p>\n                    <img src=\"bees-with-color/bee-A2DF.svg\" width=\"200\">\n                    <p><br>Your bonus pay is unchanged, and remains at $0.22.</p>\n            ","response":0,"trial_type":"html-button-response","trial_index":88,"time_elapsed":641463,"internal_node_id":"0.0-4.0-1.40","subject_id":"6112c9590c46a0832e294382","study_id":"6197b3f67c2b5cd3b6d9596a","session_id":"6197b9e86f4346a089a4153a","condition":"contingent","relevant_dimensions":["pattern","legs"],"bee_group":{"antennae":"X","wings":"X","pattern":"S","legs":"F"},"bonus":0.1600000000000002},{"rt":1351,"stimulus":"bees-with-color/bee-B2DF.svg","response":0,"trial_type":"image-button-response","trial_index":89,"time_elapsed":642816,"internal_node_id":"0.0-4.0-0.41","subject_id":"6112c9590c46a0832e294382","study_id":"6197b3f67c2b5cd3b6d9596a","session_id":"6197b9e86f4346a089a4153a","condition":"contingent","relevant_dimensions":["pattern","legs"],"bee_group":{"antennae":"X","wings":"X","pattern":"S","legs":"F"},"action":"harvest","summary":"good-harvest","bonus":0.1600000000000002},{"rt":1161.4000000953674,"stimulus":"\n                    <p><b>Action: <em>harvest</em></b></p>\n                    <p>This is the bee that you just saw.</p>\n                    <img src=\"bees-with-color/bee-B2DF.svg\" width=\"200\">\n                    <p><span class=\"greenText\"><b>Successful harvest!</b></span><br>Your pay has increased by $0.02. Your bonus pay is now $0.24.</p>\n            ","response":0,"trial_type":"html-button-response","trial_index":90,"time_elapsed":643981,"internal_node_id":"0.0-4.0-1.41","subject_id":"6112c9590c46a0832e294382","study_id":"6197b3f67c2b5cd3b6d9596a","session_id":"6197b9e86f4346a089a4153a","condition":"contingent","relevant_dimensions":["pattern","legs"],"bee_group":{"antennae":"X","wings":"X","pattern":"S","legs":"F"},"bonus":0.1600000000000002},{"rt":1575.2999999523163,"stimulus":"bees-with-color/bee-B1DM.svg","response":0,"trial_type":"image-button-response","trial_index":91,"time_elapsed":645558,"internal_node_id":"0.0-4.0-0.42","subject_id":"6112c9590c46a0832e294382","study_id":"6197b3f67c2b5cd3b6d9596a","session_id":"6197b9e86f4346a089a4153a","condition":"contingent","relevant_dimensions":["pattern","legs"],"bee_group":{"antennae":"X","wings":"X","pattern":"S","legs":"F"},"action":"harvest","summary":"good-harvest","bonus":0.1600000000000002},{"rt":1213.1999999284744,"stimulus":"\n                    <p><b>Action: <em>harvest</em></b></p>\n                    <p>This is the bee that you just saw.</p>\n                    <img src=\"bees-with-color/bee-B1DM.svg\" width=\"200\">\n                    <p><span class=\"greenText\"><b>Successful harvest!</b></span><br>Your pay has increased by $0.02. Your bonus pay is now $0.26.</p>\n            ","response":0,"trial_type":"html-button-response","trial_index":92,"time_elapsed":646774,"internal_node_id":"0.0-4.0-1.42","subject_id":"6112c9590c46a0832e294382","study_id":"6197b3f67c2b5cd3b6d9596a","session_id":"6197b9e86f4346a089a4153a","condition":"contingent","relevant_dimensions":["pattern","legs"],"bee_group":{"antennae":"X","wings":"X","pattern":"S","legs":"F"},"bonus":0.1600000000000002},{"rt":1187.3000000715256,"stimulus":"bees-with-color/bee-A1SF.svg","response":1,"trial_type":"image-button-response","trial_index":93,"time_elapsed":647964,"internal_node_id":"0.0-4.0-0.43","subject_id":"6112c9590c46a0832e294382","study_id":"6197b3f67c2b5cd3b6d9596a","session_id":"6197b9e86f4346a089a4153a","condition":"contingent","relevant_dimensions":["pattern","legs"],"bee_group":{"antennae":"X","wings":"X","pattern":"S","legs":"F"},"action":"avoid","summary":"good-avoid","bonus":0.1600000000000002},{"rt":1054,"stimulus":"\n                    <p><b>Action: <em>avoid</em></b></p>\n                    <p>This is the bee that you just saw.</p>\n                    <img src=\"bees-with-color/bee-A1SF.svg\" width=\"200\">\n                    <p><br>Your bonus pay is unchanged, and remains at $0.26.</p>\n            ","response":0,"trial_type":"html-button-response","trial_index":94,"time_elapsed":649019,"internal_node_id":"0.0-4.0-1.43","subject_id":"6112c9590c46a0832e294382","study_id":"6197b3f67c2b5cd3b6d9596a","session_id":"6197b9e86f4346a089a4153a","condition":"contingent","relevant_dimensions":["pattern","legs"],"bee_group":{"antennae":"X","wings":"X","pattern":"S","legs":"F"},"bonus":0.1600000000000002},{"rt":2715.7999999523163,"stimulus":"bees-with-color/bee-B1SF.svg","response":1,"trial_type":"image-button-response","trial_index":95,"time_elapsed":651737,"internal_node_id":"0.0-4.0-0.44","subject_id":"6112c9590c46a0832e294382","study_id":"6197b3f67c2b5cd3b6d9596a","session_id":"6197b9e86f4346a089a4153a","condition":"contingent","relevant_dimensions":["pattern","legs"],"bee_group":{"antennae":"X","wings":"X","pattern":"S","legs":"F"},"action":"avoid","summary":"good-avoid","bonus":0.1600000000000002},{"rt":1013.8999999761581,"stimulus":"\n                    <p><b>Action: <em>avoid</em></b></p>\n                    <p>This is the bee that you just saw.</p>\n                    <img src=\"bees-with-color/bee-B1SF.svg\" width=\"200\">\n                    <p><br>Your bonus pay is unchanged, and remains at $0.26.</p>\n            ","response":0,"trial_type":"html-button-response","trial_index":96,"time_elapsed":652752,"internal_node_id":"0.0-4.0-1.44","subject_id":"6112c9590c46a0832e294382","study_id":"6197b3f67c2b5cd3b6d9596a","session_id":"6197b9e86f4346a089a4153a","condition":"contingent","relevant_dimensions":["pattern","legs"],"bee_group":{"antennae":"X","wings":"X","pattern":"S","legs":"F"},"bonus":0.1600000000000002},{"rt":2119.600000023842,"stimulus":"bees-with-color/bee-A1DM.svg","response":1,"trial_type":"image-button-response","trial_index":97,"time_elapsed":654873,"internal_node_id":"0.0-4.0-0.45","subject_id":"6112c9590c46a0832e294382","study_id":"6197b3f67c2b5cd3b6d9596a","session_id":"6197b9e86f4346a089a4153a","condition":"contingent","relevant_dimensions":["pattern","legs"],"bee_group":{"antennae":"X","wings":"X","pattern":"S","legs":"F"},"action":"avoid","summary":"bad-avoid","bonus":0.1600000000000002},{"rt":923.2000000476837,"stimulus":"\n                    <p><b>Action: <em>avoid</em></b></p>\n                    <p>This is the bee that you just saw.</p>\n                    <img src=\"bees-with-color/bee-A1DM.svg\" width=\"200\">\n                    <p><br>Your bonus pay is unchanged, and remains at $0.26.</p>\n            ","response":0,"trial_type":"html-button-response","trial_index":98,"time_elapsed":655799,"internal_node_id":"0.0-4.0-1.45","subject_id":"6112c9590c46a0832e294382","study_id":"6197b3f67c2b5cd3b6d9596a","session_id":"6197b9e86f4346a089a4153a","condition":"contingent","relevant_dimensions":["pattern","legs"],"bee_group":{"antennae":"X","wings":"X","pattern":"S","legs":"F"},"bonus":0.1600000000000002},{"rt":2934.899999976158,"stimulus":"bees-with-color/bee-B2DM.svg","response":0,"trial_type":"image-button-response","trial_index":99,"time_elapsed":658736,"internal_node_id":"0.0-4.0-0.46","subject_id":"6112c9590c46a0832e294382","study_id":"6197b3f67c2b5cd3b6d9596a","session_id":"6197b9e86f4346a089a4153a","condition":"contingent","relevant_dimensions":["pattern","legs"],"bee_group":{"antennae":"X","wings":"X","pattern":"S","legs":"F"},"action":"harvest","summary":"good-harvest","bonus":0.1600000000000002},{"rt":1026.6000000238419,"stimulus":"\n                    <p><b>Action: <em>harvest</em></b></p>\n                    <p>This is the bee that you just saw.</p>\n                    <img src=\"bees-with-color/bee-B2DM.svg\" width=\"200\">\n                    <p><span class=\"greenText\"><b>Successful harvest!</b></span><br>Your pay has increased by $0.02. Your bonus pay is now $0.28.</p>\n            ","response":0,"trial_type":"html-button-response","trial_index":100,"time_elapsed":659764,"internal_node_id":"0.0-4.0-1.46","subject_id":"6112c9590c46a0832e294382","study_id":"6197b3f67c2b5cd3b6d9596a","session_id":"6197b9e86f4346a089a4153a","condition":"contingent","relevant_dimensions":["pattern","legs"],"bee_group":{"antennae":"X","wings":"X","pattern":"S","legs":"F"},"bonus":0.1600000000000002},{"rt":1495.6000000238419,"stimulus":"bees-with-color/bee-A2DM.svg","response":1,"trial_type":"image-button-response","trial_index":101,"time_elapsed":661262,"internal_node_id":"0.0-4.0-0.47","subject_id":"6112c9590c46a0832e294382","study_id":"6197b3f67c2b5cd3b6d9596a","session_id":"6197b9e86f4346a089a4153a","condition":"contingent","relevant_dimensions":["pattern","legs"],"bee_group":{"antennae":"X","wings":"X","pattern":"S","legs":"F"},"action":"avoid","summary":"bad-avoid","bonus":0.1600000000000002},{"rt":988.6000000238419,"stimulus":"\n                    <p><b>Action: <em>avoid</em></b></p>\n                    <p>This is the bee that you just saw.</p>\n                    <img src=\"bees-with-color/bee-A2DM.svg\" width=\"200\">\n                    <p><br>Your bonus pay is unchanged, and remains at $0.28.</p>\n            ","response":0,"trial_type":"html-button-response","trial_index":102,"time_elapsed":662253,"internal_node_id":"0.0-4.0-1.47","subject_id":"6112c9590c46a0832e294382","study_id":"6197b3f67c2b5cd3b6d9596a","session_id":"6197b9e86f4346a089a4153a","condition":"contingent","relevant_dimensions":["pattern","legs"],"bee_group":{"antennae":"X","wings":"X","pattern":"S","legs":"F"},"bonus":0.1600000000000002},{"rt":1415.1000000238419,"stimulus":"bees-with-color/bee-B1DF.svg","response":0,"trial_type":"image-button-response","trial_index":103,"time_elapsed":663670,"internal_node_id":"0.0-4.0-0.48","subject_id":"6112c9590c46a0832e294382","study_id":"6197b3f67c2b5cd3b6d9596a","session_id":"6197b9e86f4346a089a4153a","condition":"contingent","relevant_dimensions":["pattern","legs"],"bee_group":{"antennae":"X","wings":"X","pattern":"S","legs":"F"},"action":"harvest","summary":"good-harvest","bonus":0.1600000000000002},{"rt":1195.1999999284744,"stimulus":"\n                    <p><b>Action: <em>harvest</em></b></p>\n                    <p>This is the bee that you just saw.</p>\n                    <img src=\"bees-with-color/bee-B1DF.svg\" width=\"200\">\n                    <p><span class=\"greenText\"><b>Successful harvest!</b></span><br>Your pay has increased by $0.02. Your bonus pay is now $0.30.</p>\n            ","response":0,"trial_type":"html-button-response","trial_index":104,"time_elapsed":664867,"internal_node_id":"0.0-4.0-1.48","subject_id":"6112c9590c46a0832e294382","study_id":"6197b3f67c2b5cd3b6d9596a","session_id":"6197b9e86f4346a089a4153a","condition":"contingent","relevant_dimensions":["pattern","legs"],"bee_group":{"antennae":"X","wings":"X","pattern":"S","legs":"F"},"bonus":0.1600000000000002},{"rt":1502.1999999284744,"stimulus":"bees-with-color/bee-A2DF.svg","response":1,"trial_type":"image-button-response","trial_index":105,"time_elapsed":666371,"internal_node_id":"0.0-4.0-0.49","subject_id":"6112c9590c46a0832e294382","study_id":"6197b3f67c2b5cd3b6d9596a","session_id":"6197b9e86f4346a089a4153a","condition":"contingent","relevant_dimensions":["pattern","legs"],"bee_group":{"antennae":"X","wings":"X","pattern":"S","legs":"F"},"action":"avoid","summary":"bad-avoid","bonus":0.1600000000000002},{"rt":1522.5,"stimulus":"\n                    <p><b>Action: <em>avoid</em></b></p>\n                    <p>This is the bee that you just saw.</p>\n                    <img src=\"bees-with-color/bee-A2DF.svg\" width=\"200\">\n                    <p><br>Your bonus pay is unchanged, and remains at $0.30.</p>\n            ","response":0,"trial_type":"html-button-response","trial_index":106,"time_elapsed":667897,"internal_node_id":"0.0-4.0-1.49","subject_id":"6112c9590c46a0832e294382","study_id":"6197b3f67c2b5cd3b6d9596a","session_id":"6197b9e86f4346a089a4153a","condition":"contingent","relevant_dimensions":["pattern","legs"],"bee_group":{"antennae":"X","wings":"X","pattern":"S","legs":"F"},"bonus":0.1600000000000002},{"rt":2589.1999999284744,"stimulus":"bees-with-color/bee-B1SM.svg","response":1,"trial_type":"image-button-response","trial_index":107,"time_elapsed":670591,"internal_node_id":"0.0-4.0-0.50","subject_id":"6112c9590c46a0832e294382","study_id":"6197b3f67c2b5cd3b6d9596a","session_id":"6197b9e86f4346a089a4153a","condition":"contingent","relevant_dimensions":["pattern","legs"],"bee_group":{"antennae":"X","wings":"X","pattern":"S","legs":"F"},"action":"avoid","summary":"bad-avoid","bonus":0.1600000000000002},{"rt":935.5,"stimulus":"\n                    <p><b>Action: <em>avoid</em></b></p>\n                    <p>This is the bee that you just saw.</p>\n                    <img src=\"bees-with-color/bee-B1SM.svg\" width=\"200\">\n                    <p><br>Your bonus pay is unchanged, and remains at $0.30.</p>\n            ","response":0,"trial_type":"html-button-response","trial_index":108,"time_elapsed":671528,"internal_node_id":"0.0-4.0-1.50","subject_id":"6112c9590c46a0832e294382","study_id":"6197b3f67c2b5cd3b6d9596a","session_id":"6197b9e86f4346a089a4153a","condition":"contingent","relevant_dimensions":["pattern","legs"],"bee_group":{"antennae":"X","wings":"X","pattern":"S","legs":"F"},"bonus":0.1600000000000002},{"rt":1131.2000000476837,"stimulus":"bees-with-color/bee-B1SF.svg","response":0,"trial_type":"image-button-response","trial_index":109,"time_elapsed":672661,"internal_node_id":"0.0-4.0-0.51","subject_id":"6112c9590c46a0832e294382","study_id":"6197b3f67c2b5cd3b6d9596a","session_id":"6197b9e86f4346a089a4153a","condition":"contingent","relevant_dimensions":["pattern","legs"],"bee_group":{"antennae":"X","wings":"X","pattern":"S","legs":"F"},"action":"harvest","summary":"bad-harvest","bonus":0.1600000000000002},{"rt":3644.9000000953674,"stimulus":"\n                    <p><b>Action: <em>harvest</em></b></p>\n                    <p>This is the bee that you just saw.</p>\n                    <img src=\"bees-with-color/bee-B1SF.svg\" width=\"200\">\n                    <p><span class=\"redText\">Bad choice, the bee was angry.</span><br><b>You have been stung!</b><br>Your pay has been decreased by $0.10. Your bonus pay is now $0.20.</p>\n            ","response":0,"trial_type":"html-button-response","trial_index":110,"time_elapsed":676308,"internal_node_id":"0.0-4.0-1.51","subject_id":"6112c9590c46a0832e294382","study_id":"6197b3f67c2b5cd3b6d9596a","session_id":"6197b9e86f4346a089a4153a","condition":"contingent","relevant_dimensions":["pattern","legs"],"bee_group":{"antennae":"X","wings":"X","pattern":"S","legs":"F"},"bonus":0.1600000000000002},{"rt":1446,"stimulus":"bees-with-color/bee-A2DM.svg","response":1,"trial_type":"image-button-response","trial_index":111,"time_elapsed":677756,"internal_node_id":"0.0-4.0-0.52","subject_id":"6112c9590c46a0832e294382","study_id":"6197b3f67c2b5cd3b6d9596a","session_id":"6197b9e86f4346a089a4153a","condition":"contingent","relevant_dimensions":["pattern","legs"],"bee_group":{"antennae":"X","wings":"X","pattern":"S","legs":"F"},"action":"avoid","summary":"bad-avoid","bonus":0.1600000000000002},{"rt":966.3000000715256,"stimulus":"\n                    <p><b>Action: <em>avoid</em></b></p>\n                    <p>This is the bee that you just saw.</p>\n                    <img src=\"bees-with-color/bee-A2DM.svg\" width=\"200\">\n                    <p><br>Your bonus pay is unchanged, and remains at $0.20.</p>\n            ","response":0,"trial_type":"html-button-response","trial_index":112,"time_elapsed":678725,"internal_node_id":"0.0-4.0-1.52","subject_id":"6112c9590c46a0832e294382","study_id":"6197b3f67c2b5cd3b6d9596a","session_id":"6197b9e86f4346a089a4153a","condition":"contingent","relevant_dimensions":["pattern","legs"],"bee_group":{"antennae":"X","wings":"X","pattern":"S","legs":"F"},"bonus":0.1600000000000002},{"rt":1329.0999999046326,"stimulus":"bees-with-color/bee-A1SM.svg","response":1,"trial_type":"image-button-response","trial_index":113,"time_elapsed":680056,"internal_node_id":"0.0-4.0-0.53","subject_id":"6112c9590c46a0832e294382","study_id":"6197b3f67c2b5cd3b6d9596a","session_id":"6197b9e86f4346a089a4153a","condition":"contingent","relevant_dimensions":["pattern","legs"],"bee_group":{"antennae":"X","wings":"X","pattern":"S","legs":"F"},"action":"avoid","summary":"bad-avoid","bonus":0.1600000000000002},{"rt":3392.7999999523163,"stimulus":"\n                    <p><b>Action: <em>avoid</em></b></p>\n                    <p>This is the bee that you just saw.</p>\n                    <img src=\"bees-with-color/bee-A1SM.svg\" width=\"200\">\n                    <p><br>Your bonus pay is unchanged, and remains at $0.20.</p>\n            ","response":0,"trial_type":"html-button-response","trial_index":114,"time_elapsed":683450,"internal_node_id":"0.0-4.0-1.53","subject_id":"6112c9590c46a0832e294382","study_id":"6197b3f67c2b5cd3b6d9596a","session_id":"6197b9e86f4346a089a4153a","condition":"contingent","relevant_dimensions":["pattern","legs"],"bee_group":{"antennae":"X","wings":"X","pattern":"S","legs":"F"},"bonus":0.1600000000000002},{"rt":1603.2000000476837,"stimulus":"bees-with-color/bee-B2DM.svg","response":0,"trial_type":"image-button-response","trial_index":115,"time_elapsed":685055,"internal_node_id":"0.0-4.0-0.54","subject_id":"6112c9590c46a0832e294382","study_id":"6197b3f67c2b5cd3b6d9596a","session_id":"6197b9e86f4346a089a4153a","condition":"contingent","relevant_dimensions":["pattern","legs"],"bee_group":{"antennae":"X","wings":"X","pattern":"S","legs":"F"},"action":"harvest","summary":"good-harvest","bonus":0.1600000000000002},{"rt":958,"stimulus":"\n                    <p><b>Action: <em>harvest</em></b></p>\n                    <p>This is the bee that you just saw.</p>\n                    <img src=\"bees-with-color/bee-B2DM.svg\" width=\"200\">\n                    <p><span class=\"greenText\"><b>Successful harvest!</b></span><br>Your pay has increased by $0.02. Your bonus pay is now $0.22.</p>\n            ","response":0,"trial_type":"html-button-response","trial_index":116,"time_elapsed":686016,"internal_node_id":"0.0-4.0-1.54","subject_id":"6112c9590c46a0832e294382","study_id":"6197b3f67c2b5cd3b6d9596a","session_id":"6197b9e86f4346a089a4153a","condition":"contingent","relevant_dimensions":["pattern","legs"],"bee_group":{"antennae":"X","wings":"X","pattern":"S","legs":"F"},"bonus":0.1600000000000002},{"rt":2158.100000023842,"stimulus":"bees-with-color/bee-A2SF.svg","response":1,"trial_type":"image-button-response","trial_index":117,"time_elapsed":688177,"internal_node_id":"0.0-4.0-0.55","subject_id":"6112c9590c46a0832e294382","study_id":"6197b3f67c2b5cd3b6d9596a","session_id":"6197b9e86f4346a089a4153a","condition":"contingent","relevant_dimensions":["pattern","legs"],"bee_group":{"antennae":"X","wings":"X","pattern":"S","legs":"F"},"action":"avoid","summary":"good-avoid","bonus":0.1600000000000002},{"rt":1313.8999999761581,"stimulus":"\n                    <p><b>Action: <em>avoid</em></b></p>\n                    <p>This is the bee that you just saw.</p>\n                    <img src=\"bees-with-color/bee-A2SF.svg\" width=\"200\">\n                    <p><br>Your bonus pay is unchanged, and remains at $0.22.</p>\n            ","response":0,"trial_type":"html-button-response","trial_index":118,"time_elapsed":689493,"internal_node_id":"0.0-4.0-1.55","subject_id":"6112c9590c46a0832e294382","study_id":"6197b3f67c2b5cd3b6d9596a","session_id":"6197b9e86f4346a089a4153a","condition":"contingent","relevant_dimensions":["pattern","legs"],"bee_group":{"antennae":"X","wings":"X","pattern":"S","legs":"F"},"bonus":0.1600000000000002},{"rt":2710.5,"stimulus":"bees-with-color/bee-B2DF.svg","response":0,"trial_type":"image-button-response","trial_index":119,"time_elapsed":692206,"internal_node_id":"0.0-4.0-0.56","subject_id":"6112c9590c46a0832e294382","study_id":"6197b3f67c2b5cd3b6d9596a","session_id":"6197b9e86f4346a089a4153a","condition":"contingent","relevant_dimensions":["pattern","legs"],"bee_group":{"antennae":"X","wings":"X","pattern":"S","legs":"F"},"action":"harvest","summary":"good-harvest","bonus":0.1600000000000002},{"rt":2516.0999999046326,"stimulus":"\n                    <p><b>Action: <em>harvest</em></b></p>\n                    <p>This is the bee that you just saw.</p>\n                    <img src=\"bees-with-color/bee-B2DF.svg\" width=\"200\">\n                    <p><span class=\"greenText\"><b>Successful harvest!</b></span><br>Your pay has increased by $0.02. Your bonus pay is now $0.24.</p>\n            ","response":0,"trial_type":"html-button-response","trial_index":120,"time_elapsed":694725,"internal_node_id":"0.0-4.0-1.56","subject_id":"6112c9590c46a0832e294382","study_id":"6197b3f67c2b5cd3b6d9596a","session_id":"6197b9e86f4346a089a4153a","condition":"contingent","relevant_dimensions":["pattern","legs"],"bee_group":{"antennae":"X","wings":"X","pattern":"S","legs":"F"},"bonus":0.1600000000000002},{"rt":1223.5,"stimulus":"bees-with-color/bee-A1DF.svg","response":1,"trial_type":"image-button-response","trial_index":121,"time_elapsed":695951,"internal_node_id":"0.0-4.0-0.57","subject_id":"6112c9590c46a0832e294382","study_id":"6197b3f67c2b5cd3b6d9596a","session_id":"6197b9e86f4346a089a4153a","condition":"contingent","relevant_dimensions":["pattern","legs"],"bee_group":{"antennae":"X","wings":"X","pattern":"S","legs":"F"},"action":"avoid","summary":"bad-avoid","bonus":0.1600000000000002},{"rt":1121.6999999284744,"stimulus":"\n                    <p><b>Action: <em>avoid</em></b></p>\n                    <p>This is the bee that you just saw.</p>\n                    <img src=\"bees-with-color/bee-A1DF.svg\" width=\"200\">\n                    <p><br>Your bonus pay is unchanged, and remains at $0.24.</p>\n            ","response":0,"trial_type":"html-button-response","trial_index":122,"time_elapsed":697077,"internal_node_id":"0.0-4.0-1.57","subject_id":"6112c9590c46a0832e294382","study_id":"6197b3f67c2b5cd3b6d9596a","session_id":"6197b9e86f4346a089a4153a","condition":"contingent","relevant_dimensions":["pattern","legs"],"bee_group":{"antennae":"X","wings":"X","pattern":"S","legs":"F"},"bonus":0.1600000000000002},{"rt":4165.800000071526,"stimulus":"bees-with-color/bee-A1DM.svg","response":1,"trial_type":"image-button-response","trial_index":123,"time_elapsed":701245,"internal_node_id":"0.0-4.0-0.58","subject_id":"6112c9590c46a0832e294382","study_id":"6197b3f67c2b5cd3b6d9596a","session_id":"6197b9e86f4346a089a4153a","condition":"contingent","relevant_dimensions":["pattern","legs"],"bee_group":{"antennae":"X","wings":"X","pattern":"S","legs":"F"},"action":"avoid","summary":"bad-avoid","bonus":0.1600000000000002},{"rt":1049.1000000238419,"stimulus":"\n                    <p><b>Action: <em>avoid</em></b></p>\n                    <p>This is the bee that you just saw.</p>\n                    <img src=\"bees-with-color/bee-A1DM.svg\" width=\"200\">\n                    <p><br>Your bonus pay is unchanged, and remains at $0.24.</p>\n            ","response":0,"trial_type":"html-button-response","trial_index":124,"time_elapsed":702296,"internal_node_id":"0.0-4.0-1.58","subject_id":"6112c9590c46a0832e294382","study_id":"6197b3f67c2b5cd3b6d9596a","session_id":"6197b9e86f4346a089a4153a","condition":"contingent","relevant_dimensions":["pattern","legs"],"bee_group":{"antennae":"X","wings":"X","pattern":"S","legs":"F"},"bonus":0.1600000000000002},{"rt":9153.699999928474,"stimulus":"bees-with-color/bee-B1DM.svg","response":0,"trial_type":"image-button-response","trial_index":125,"time_elapsed":711451,"internal_node_id":"0.0-4.0-0.59","subject_id":"6112c9590c46a0832e294382","study_id":"6197b3f67c2b5cd3b6d9596a","session_id":"6197b9e86f4346a089a4153a","condition":"contingent","relevant_dimensions":["pattern","legs"],"bee_group":{"antennae":"X","wings":"X","pattern":"S","legs":"F"},"action":"harvest","summary":"good-harvest","bonus":0.1600000000000002},{"rt":1350.1000000238419,"stimulus":"\n                    <p><b>Action: <em>harvest</em></b></p>\n                    <p>This is the bee that you just saw.</p>\n                    <img src=\"bees-with-color/bee-B1DM.svg\" width=\"200\">\n                    <p><span class=\"greenText\"><b>Successful harvest!</b></span><br>Your pay has increased by $0.02. Your bonus pay is now $0.26.</p>\n            ","response":0,"trial_type":"html-button-response","trial_index":126,"time_elapsed":712803,"internal_node_id":"0.0-4.0-1.59","subject_id":"6112c9590c46a0832e294382","study_id":"6197b3f67c2b5cd3b6d9596a","session_id":"6197b9e86f4346a089a4153a","condition":"contingent","relevant_dimensions":["pattern","legs"],"bee_group":{"antennae":"X","wings":"X","pattern":"S","legs":"F"},"bonus":0.1600000000000002},{"rt":1850.7000000476837,"stimulus":"bees-with-color/bee-A1SF.svg","response":1,"trial_type":"image-button-response","trial_index":127,"time_elapsed":714656,"internal_node_id":"0.0-4.0-0.60","subject_id":"6112c9590c46a0832e294382","study_id":"6197b3f67c2b5cd3b6d9596a","session_id":"6197b9e86f4346a089a4153a","condition":"contingent","relevant_dimensions":["pattern","legs"],"bee_group":{"antennae":"X","wings":"X","pattern":"S","legs":"F"},"action":"avoid","summary":"good-avoid","bonus":0.1600000000000002},{"rt":1239.5,"stimulus":"\n                    <p><b>Action: <em>avoid</em></b></p>\n                    <p>This is the bee that you just saw.</p>\n                    <img src=\"bees-with-color/bee-A1SF.svg\" width=\"200\">\n                    <p><br>Your bonus pay is unchanged, and remains at $0.26.</p>\n            ","response":0,"trial_type":"html-button-response","trial_index":128,"time_elapsed":715897,"internal_node_id":"0.0-4.0-1.60","subject_id":"6112c9590c46a0832e294382","study_id":"6197b3f67c2b5cd3b6d9596a","session_id":"6197b9e86f4346a089a4153a","condition":"contingent","relevant_dimensions":["pattern","legs"],"bee_group":{"antennae":"X","wings":"X","pattern":"S","legs":"F"},"bonus":0.1600000000000002},{"rt":3346.7000000476837,"stimulus":"bees-with-color/bee-A2SM.svg","response":1,"trial_type":"image-button-response","trial_index":129,"time_elapsed":719246,"internal_node_id":"0.0-4.0-0.61","subject_id":"6112c9590c46a0832e294382","study_id":"6197b3f67c2b5cd3b6d9596a","session_id":"6197b9e86f4346a089a4153a","condition":"contingent","relevant_dimensions":["pattern","legs"],"bee_group":{"antennae":"X","wings":"X","pattern":"S","legs":"F"},"action":"avoid","summary":"bad-avoid","bonus":0.1600000000000002},{"rt":1582.3999999761581,"stimulus":"\n                    <p><b>Action: <em>avoid</em></b></p>\n                    <p>This is the bee that you just saw.</p>\n                    <img src=\"bees-with-color/bee-A2SM.svg\" width=\"200\">\n                    <p><br>Your bonus pay is unchanged, and remains at $0.26.</p>\n            ","response":0,"trial_type":"html-button-response","trial_index":130,"time_elapsed":720831,"internal_node_id":"0.0-4.0-1.61","subject_id":"6112c9590c46a0832e294382","study_id":"6197b3f67c2b5cd3b6d9596a","session_id":"6197b9e86f4346a089a4153a","condition":"contingent","relevant_dimensions":["pattern","legs"],"bee_group":{"antennae":"X","wings":"X","pattern":"S","legs":"F"},"bonus":0.1600000000000002},{"rt":2075.100000023842,"stimulus":"bees-with-color/bee-B2SF.svg","response":1,"trial_type":"image-button-response","trial_index":131,"time_elapsed":722908,"internal_node_id":"0.0-4.0-0.62","subject_id":"6112c9590c46a0832e294382","study_id":"6197b3f67c2b5cd3b6d9596a","session_id":"6197b9e86f4346a089a4153a","condition":"contingent","relevant_dimensions":["pattern","legs"],"bee_group":{"antennae":"X","wings":"X","pattern":"S","legs":"F"},"action":"avoid","summary":"good-avoid","bonus":0.1600000000000002},{"rt":1046.8999999761581,"stimulus":"\n                    <p><b>Action: <em>avoid</em></b></p>\n                    <p>This is the bee that you just saw.</p>\n                    <img src=\"bees-with-color/bee-B2SF.svg\" width=\"200\">\n                    <p><br>Your bonus pay is unchanged, and remains at $0.26.</p>\n            ","response":0,"trial_type":"html-button-response","trial_index":132,"time_elapsed":723957,"internal_node_id":"0.0-4.0-1.62","subject_id":"6112c9590c46a0832e294382","study_id":"6197b3f67c2b5cd3b6d9596a","session_id":"6197b9e86f4346a089a4153a","condition":"contingent","relevant_dimensions":["pattern","legs"],"bee_group":{"antennae":"X","wings":"X","pattern":"S","legs":"F"},"bonus":0.1600000000000002},{"rt":1327.7000000476837,"stimulus":"bees-with-color/bee-B2SM.svg","response":0,"trial_type":"image-button-response","trial_index":133,"time_elapsed":725287,"internal_node_id":"0.0-4.0-0.63","subject_id":"6112c9590c46a0832e294382","study_id":"6197b3f67c2b5cd3b6d9596a","session_id":"6197b9e86f4346a089a4153a","condition":"contingent","relevant_dimensions":["pattern","legs"],"bee_group":{"antennae":"X","wings":"X","pattern":"S","legs":"F"},"action":"harvest","summary":"good-harvest","bonus":0.1600000000000002},{"rt":2905.600000023842,"stimulus":"\n                    <p><b>Action: <em>harvest</em></b></p>\n                    <p>This is the bee that you just saw.</p>\n                    <img src=\"bees-with-color/bee-B2SM.svg\" width=\"200\">\n                    <p><span class=\"greenText\"><b>Successful harvest!</b></span><br>Your pay has increased by $0.02. Your bonus pay is now $0.28.</p>\n            ","response":0,"trial_type":"html-button-response","trial_index":134,"time_elapsed":728194,"internal_node_id":"0.0-4.0-1.63","subject_id":"6112c9590c46a0832e294382","study_id":"6197b3f67c2b5cd3b6d9596a","session_id":"6197b9e86f4346a089a4153a","condition":"contingent","relevant_dimensions":["pattern","legs"],"bee_group":{"antennae":"X","wings":"X","pattern":"S","legs":"F"},"bonus":0.1600000000000002},{"rt":14709.200000047684,"stimulus":"You have completed the first part of this experiment.<br><br>You will now begin a shorter second part, in which you will receive no feedback.<br>The same rules regarding bonus pay apply.<br><br>Press any key to begin.","response":" ","trial_type":"html-keyboard-response","trial_index":135,"time_elapsed":742905,"internal_node_id":"0.0-5.0","subject_id":"6112c9590c46a0832e294382","study_id":"6197b3f67c2b5cd3b6d9596a","session_id":"6197b9e86f4346a089a4153a","condition":"contingent","relevant_dimensions":["pattern","legs"],"bee_group":{"antennae":"X","wings":"X","pattern":"S","legs":"F"},"bonus":0.1600000000000002},{"rt":2766.5,"stimulus":"bees-with-color/bee-B1SF.svg","response":0,"trial_type":"image-button-response","trial_index":136,"time_elapsed":745684,"internal_node_id":"0.0-6.0-0.0","subject_id":"6112c9590c46a0832e294382","study_id":"6197b3f67c2b5cd3b6d9596a","session_id":"6197b9e86f4346a089a4153a","condition":"contingent","relevant_dimensions":["pattern","legs"],"bee_group":{"antennae":"X","wings":"X","pattern":"S","legs":"F"},"bonus":0.1600000000000002},{"rt":3192.4000000953674,"stimulus":"bees-with-color/bee-B2DF.svg","response":0,"trial_type":"image-button-response","trial_index":137,"time_elapsed":748882,"internal_node_id":"0.0-6.0-0.1","subject_id":"6112c9590c46a0832e294382","study_id":"6197b3f67c2b5cd3b6d9596a","session_id":"6197b9e86f4346a089a4153a","condition":"contingent","relevant_dimensions":["pattern","legs"],"bee_group":{"antennae":"X","wings":"X","pattern":"S","legs":"F"},"bonus":0.1600000000000002},{"rt":1293.8999999761581,"stimulus":"bees-with-color/bee-A2DF.svg","response":1,"trial_type":"image-button-response","trial_index":138,"time_elapsed":750179,"internal_node_id":"0.0-6.0-0.2","subject_id":"6112c9590c46a0832e294382","study_id":"6197b3f67c2b5cd3b6d9596a","session_id":"6197b9e86f4346a089a4153a","condition":"contingent","relevant_dimensions":["pattern","legs"],"bee_group":{"antennae":"X","wings":"X","pattern":"S","legs":"F"},"bonus":0.1600000000000002},{"rt":2226.7000000476837,"stimulus":"bees-with-color/bee-B1DM.svg","response":0,"trial_type":"image-button-response","trial_index":139,"time_elapsed":752408,"internal_node_id":"0.0-6.0-0.3","subject_id":"6112c9590c46a0832e294382","study_id":"6197b3f67c2b5cd3b6d9596a","session_id":"6197b9e86f4346a089a4153a","condition":"contingent","relevant_dimensions":["pattern","legs"],"bee_group":{"antennae":"X","wings":"X","pattern":"S","legs":"F"},"bonus":0.1600000000000002},{"rt":1270.2000000476837,"stimulus":"bees-with-color/bee-A1DM.svg","response":1,"trial_type":"image-button-response","trial_index":140,"time_elapsed":753681,"internal_node_id":"0.0-6.0-0.4","subject_id":"6112c9590c46a0832e294382","study_id":"6197b3f67c2b5cd3b6d9596a","session_id":"6197b9e86f4346a089a4153a","condition":"contingent","relevant_dimensions":["pattern","legs"],"bee_group":{"antennae":"X","wings":"X","pattern":"S","legs":"F"},"bonus":0.1600000000000002},{"rt":2089.8000000715256,"stimulus":"bees-with-color/bee-A1DF.svg","response":1,"trial_type":"image-button-response","trial_index":141,"time_elapsed":755774,"internal_node_id":"0.0-6.0-0.5","subject_id":"6112c9590c46a0832e294382","study_id":"6197b3f67c2b5cd3b6d9596a","session_id":"6197b9e86f4346a089a4153a","condition":"contingent","relevant_dimensions":["pattern","legs"],"bee_group":{"antennae":"X","wings":"X","pattern":"S","legs":"F"},"bonus":0.1600000000000002},{"rt":829.4000000953674,"stimulus":"bees-with-color/bee-A2SF.svg","response":1,"trial_type":"image-button-response","trial_index":142,"time_elapsed":756607,"internal_node_id":"0.0-6.0-0.6","subject_id":"6112c9590c46a0832e294382","study_id":"6197b3f67c2b5cd3b6d9596a","session_id":"6197b9e86f4346a089a4153a","condition":"contingent","relevant_dimensions":["pattern","legs"],"bee_group":{"antennae":"X","wings":"X","pattern":"S","legs":"F"},"bonus":0.1600000000000002},{"rt":964.7999999523163,"stimulus":"bees-with-color/bee-A2SM.svg","response":1,"trial_type":"image-button-response","trial_index":143,"time_elapsed":757574,"internal_node_id":"0.0-6.0-0.7","subject_id":"6112c9590c46a0832e294382","study_id":"6197b3f67c2b5cd3b6d9596a","session_id":"6197b9e86f4346a089a4153a","condition":"contingent","relevant_dimensions":["pattern","legs"],"bee_group":{"antennae":"X","wings":"X","pattern":"S","legs":"F"},"bonus":0.1600000000000002},{"rt":1822.8999999761581,"stimulus":"bees-with-color/bee-B2SF.svg","response":0,"trial_type":"image-button-response","trial_index":144,"time_elapsed":759400,"internal_node_id":"0.0-6.0-0.8","subject_id":"6112c9590c46a0832e294382","study_id":"6197b3f67c2b5cd3b6d9596a","session_id":"6197b9e86f4346a089a4153a","condition":"contingent","relevant_dimensions":["pattern","legs"],"bee_group":{"antennae":"X","wings":"X","pattern":"S","legs":"F"},"bonus":0.1600000000000002},{"rt":1434.5,"stimulus":"bees-with-color/bee-B2DM.svg","response":1,"trial_type":"image-button-response","trial_index":145,"time_elapsed":760836,"internal_node_id":"0.0-6.0-0.9","subject_id":"6112c9590c46a0832e294382","study_id":"6197b3f67c2b5cd3b6d9596a","session_id":"6197b9e86f4346a089a4153a","condition":"contingent","relevant_dimensions":["pattern","legs"],"bee_group":{"antennae":"X","wings":"X","pattern":"S","legs":"F"},"bonus":0.1600000000000002},{"rt":902.1000000238419,"stimulus":"bees-with-color/bee-A1SF.svg","response":1,"trial_type":"image-button-response","trial_index":146,"time_elapsed":761741,"internal_node_id":"0.0-6.0-0.10","subject_id":"6112c9590c46a0832e294382","study_id":"6197b3f67c2b5cd3b6d9596a","session_id":"6197b9e86f4346a089a4153a","condition":"contingent","relevant_dimensions":["pattern","legs"],"bee_group":{"antennae":"X","wings":"X","pattern":"S","legs":"F"},"bonus":0.1600000000000002},{"rt":1511.3000000715256,"stimulus":"bees-with-color/bee-A1SM.svg","response":1,"trial_type":"image-button-response","trial_index":147,"time_elapsed":763255,"internal_node_id":"0.0-6.0-0.11","subject_id":"6112c9590c46a0832e294382","study_id":"6197b3f67c2b5cd3b6d9596a","session_id":"6197b9e86f4346a089a4153a","condition":"contingent","relevant_dimensions":["pattern","legs"],"bee_group":{"antennae":"X","wings":"X","pattern":"S","legs":"F"},"bonus":0.1600000000000002},{"rt":713.8999999761581,"stimulus":"bees-with-color/bee-A2DM.svg","response":1,"trial_type":"image-button-response","trial_index":148,"time_elapsed":763972,"internal_node_id":"0.0-6.0-0.12","subject_id":"6112c9590c46a0832e294382","study_id":"6197b3f67c2b5cd3b6d9596a","session_id":"6197b9e86f4346a089a4153a","condition":"contingent","relevant_dimensions":["pattern","legs"],"bee_group":{"antennae":"X","wings":"X","pattern":"S","legs":"F"},"bonus":0.1600000000000002},{"rt":1301.5,"stimulus":"bees-with-color/bee-B1DF.svg","response":0,"trial_type":"image-button-response","trial_index":149,"time_elapsed":765275,"internal_node_id":"0.0-6.0-0.13","subject_id":"6112c9590c46a0832e294382","study_id":"6197b3f67c2b5cd3b6d9596a","session_id":"6197b9e86f4346a089a4153a","condition":"contingent","relevant_dimensions":["pattern","legs"],"bee_group":{"antennae":"X","wings":"X","pattern":"S","legs":"F"},"bonus":0.1600000000000002},{"rt":2295.100000023842,"stimulus":"bees-with-color/bee-B2SM.svg","response":1,"trial_type":"image-button-response","trial_index":150,"time_elapsed":767573,"internal_node_id":"0.0-6.0-0.14","subject_id":"6112c9590c46a0832e294382","study_id":"6197b3f67c2b5cd3b6d9596a","session_id":"6197b9e86f4346a089a4153a","condition":"contingent","relevant_dimensions":["pattern","legs"],"bee_group":{"antennae":"X","wings":"X","pattern":"S","legs":"F"},"bonus":0.1600000000000002},{"rt":2170.399999976158,"stimulus":"bees-with-color/bee-B1SM.svg","response":0,"trial_type":"image-button-response","trial_index":151,"time_elapsed":769746,"internal_node_id":"0.0-6.0-0.15","subject_id":"6112c9590c46a0832e294382","study_id":"6197b3f67c2b5cd3b6d9596a","session_id":"6197b9e86f4346a089a4153a","condition":"contingent","relevant_dimensions":["pattern","legs"],"bee_group":{"antennae":"X","wings":"X","pattern":"S","legs":"F"},"bonus":0.1600000000000002},{"rt":1198.3999999761581,"stimulus":"bees-with-color/bee-A1SF.svg","response":1,"trial_type":"image-button-response","trial_index":152,"time_elapsed":770946,"internal_node_id":"0.0-6.0-0.16","subject_id":"6112c9590c46a0832e294382","study_id":"6197b3f67c2b5cd3b6d9596a","session_id":"6197b9e86f4346a089a4153a","condition":"contingent","relevant_dimensions":["pattern","legs"],"bee_group":{"antennae":"X","wings":"X","pattern":"S","legs":"F"},"bonus":0.1600000000000002},{"rt":4677,"stimulus":"bees-with-color/bee-B2DF.svg","response":0,"trial_type":"image-button-response","trial_index":153,"time_elapsed":775625,"internal_node_id":"0.0-6.0-0.17","subject_id":"6112c9590c46a0832e294382","study_id":"6197b3f67c2b5cd3b6d9596a","session_id":"6197b9e86f4346a089a4153a","condition":"contingent","relevant_dimensions":["pattern","legs"],"bee_group":{"antennae":"X","wings":"X","pattern":"S","legs":"F"},"bonus":0.1600000000000002},{"rt":1185.1000000238419,"stimulus":"bees-with-color/bee-A1DF.svg","response":1,"trial_type":"image-button-response","trial_index":154,"time_elapsed":776813,"internal_node_id":"0.0-6.0-0.18","subject_id":"6112c9590c46a0832e294382","study_id":"6197b3f67c2b5cd3b6d9596a","session_id":"6197b9e86f4346a089a4153a","condition":"contingent","relevant_dimensions":["pattern","legs"],"bee_group":{"antennae":"X","wings":"X","pattern":"S","legs":"F"},"bonus":0.1600000000000002},{"rt":1656.6000000238419,"stimulus":"bees-with-color/bee-A2SF.svg","response":1,"trial_type":"image-button-response","trial_index":155,"time_elapsed":778472,"internal_node_id":"0.0-6.0-0.19","subject_id":"6112c9590c46a0832e294382","study_id":"6197b3f67c2b5cd3b6d9596a","session_id":"6197b9e86f4346a089a4153a","condition":"contingent","relevant_dimensions":["pattern","legs"],"bee_group":{"antennae":"X","wings":"X","pattern":"S","legs":"F"},"bonus":0.1600000000000002},{"rt":1753.2999999523163,"stimulus":"bees-with-color/bee-A2SM.svg","response":1,"trial_type":"image-button-response","trial_index":156,"time_elapsed":780228,"internal_node_id":"0.0-6.0-0.20","subject_id":"6112c9590c46a0832e294382","study_id":"6197b3f67c2b5cd3b6d9596a","session_id":"6197b9e86f4346a089a4153a","condition":"contingent","relevant_dimensions":["pattern","legs"],"bee_group":{"antennae":"X","wings":"X","pattern":"S","legs":"F"},"bonus":0.1600000000000002},{"rt":1134.9000000953674,"stimulus":"bees-with-color/bee-A2DM.svg","response":1,"trial_type":"image-button-response","trial_index":157,"time_elapsed":781364,"internal_node_id":"0.0-6.0-0.21","subject_id":"6112c9590c46a0832e294382","study_id":"6197b3f67c2b5cd3b6d9596a","session_id":"6197b9e86f4346a089a4153a","condition":"contingent","relevant_dimensions":["pattern","legs"],"bee_group":{"antennae":"X","wings":"X","pattern":"S","legs":"F"},"bonus":0.1600000000000002},{"rt":2914.2999999523163,"stimulus":"bees-with-color/bee-B1DF.svg","response":0,"trial_type":"image-button-response","trial_index":158,"time_elapsed":784281,"internal_node_id":"0.0-6.0-0.22","subject_id":"6112c9590c46a0832e294382","study_id":"6197b3f67c2b5cd3b6d9596a","session_id":"6197b9e86f4346a089a4153a","condition":"contingent","relevant_dimensions":["pattern","legs"],"bee_group":{"antennae":"X","wings":"X","pattern":"S","legs":"F"},"bonus":0.1600000000000002},{"rt":2351.5,"stimulus":"bees-with-color/bee-A1SM.svg","response":1,"trial_type":"image-button-response","trial_index":159,"time_elapsed":786635,"internal_node_id":"0.0-6.0-0.23","subject_id":"6112c9590c46a0832e294382","study_id":"6197b3f67c2b5cd3b6d9596a","session_id":"6197b9e86f4346a089a4153a","condition":"contingent","relevant_dimensions":["pattern","legs"],"bee_group":{"antennae":"X","wings":"X","pattern":"S","legs":"F"},"bonus":0.1600000000000002},{"rt":4788.699999928474,"stimulus":"bees-with-color/bee-B2DM.svg","response":0,"trial_type":"image-button-response","trial_index":160,"time_elapsed":791427,"internal_node_id":"0.0-6.0-0.24","subject_id":"6112c9590c46a0832e294382","study_id":"6197b3f67c2b5cd3b6d9596a","session_id":"6197b9e86f4346a089a4153a","condition":"contingent","relevant_dimensions":["pattern","legs"],"bee_group":{"antennae":"X","wings":"X","pattern":"S","legs":"F"},"bonus":0.1600000000000002},{"rt":1114.1999999284744,"stimulus":"bees-with-color/bee-A1DM.svg","response":1,"trial_type":"image-button-response","trial_index":161,"time_elapsed":792543,"internal_node_id":"0.0-6.0-0.25","subject_id":"6112c9590c46a0832e294382","study_id":"6197b3f67c2b5cd3b6d9596a","session_id":"6197b9e86f4346a089a4153a","condition":"contingent","relevant_dimensions":["pattern","legs"],"bee_group":{"antennae":"X","wings":"X","pattern":"S","legs":"F"},"bonus":0.1600000000000002},{"rt":1776.1000000238419,"stimulus":"bees-with-color/bee-B1SM.svg","response":1,"trial_type":"image-button-response","trial_index":162,"time_elapsed":794322,"internal_node_id":"0.0-6.0-0.26","subject_id":"6112c9590c46a0832e294382","study_id":"6197b3f67c2b5cd3b6d9596a","session_id":"6197b9e86f4346a089a4153a","condition":"contingent","relevant_dimensions":["pattern","legs"],"bee_group":{"antennae":"X","wings":"X","pattern":"S","legs":"F"},"bonus":0.1600000000000002},{"rt":1500.5999999046326,"stimulus":"bees-with-color/bee-B1DM.svg","response":0,"trial_type":"image-button-response","trial_index":163,"time_elapsed":795825,"internal_node_id":"0.0-6.0-0.27","subject_id":"6112c9590c46a0832e294382","study_id":"6197b3f67c2b5cd3b6d9596a","session_id":"6197b9e86f4346a089a4153a","condition":"contingent","relevant_dimensions":["pattern","legs"],"bee_group":{"antennae":"X","wings":"X","pattern":"S","legs":"F"},"bonus":0.1600000000000002},{"rt":1212,"stimulus":"bees-with-color/bee-B1SF.svg","response":0,"trial_type":"image-button-response","trial_index":164,"time_elapsed":797039,"internal_node_id":"0.0-6.0-0.28","subject_id":"6112c9590c46a0832e294382","study_id":"6197b3f67c2b5cd3b6d9596a","session_id":"6197b9e86f4346a089a4153a","condition":"contingent","relevant_dimensions":["pattern","legs"],"bee_group":{"antennae":"X","wings":"X","pattern":"S","legs":"F"},"bonus":0.1600000000000002},{"rt":1389.2000000476837,"stimulus"