[{"success":true,"trial_type":"fullscreen","trial_index":0,"time_elapsed":3233,"internal_node_id":"0.0-0.0","subject_id":"61262e740dde117dc4f427e1","study_id":"6197b3f67c2b5cd3b6d9596a","session_id":"6197b8914984ca08797d2718","condition":"full-information","relevant_dimensions":["wings","legs"],"bee_group":{"antennae":"X","wings":"2","pattern":"X","legs":"M"},"bonus":1.9200000000000013},{"success":true,"timeout":false,"failed_images":[],"failed_audio":[],"failed_video":[],"trial_type":"preload","trial_index":1,"time_elapsed":4777,"internal_node_id":"0.0-1.0","subject_id":"61262e740dde117dc4f427e1","study_id":"6197b3f67c2b5cd3b6d9596a","session_id":"6197b8914984ca08797d2718","condition":"full-information","relevant_dimensions":["wings","legs"],"bee_group":{"antennae":"X","wings":"2","pattern":"X","legs":"M"},"bonus":1.9200000000000013},{"rt":1753,"stimulus":"Welcome! Press any key to begin.","response":" ","trial_type":"html-keyboard-response","trial_index":2,"time_elapsed":6531,"internal_node_id":"0.0-2.0","subject_id":"61262e740dde117dc4f427e1","study_id":"6197b3f67c2b5cd3b6d9596a","session_id":"6197b8914984ca08797d2718","condition":"full-information","relevant_dimensions":["wings","legs"],"bee_group":{"antennae":"X","wings":"2","pattern":"X","legs":"M"},"bonus":1.9200000000000013},{"view_history":[{"page_index":0,"viewing_time":4958.200000047684},{"page_index":1,"viewing_time":21708.299999952316},{"page_index":2,"viewing_time":6306.100000023842},{"page_index":3,"viewing_time":8095.700000047684},{"page_index":4,"viewing_time":4648.799999952316},{"page_index":5,"viewing_time":3412.100000023842},{"page_index":6,"viewing_time":15901.299999952316},{"page_index":7,"viewing_time":4441.5},{"page_index":8,"viewing_time":25959.899999976158},{"page_index":9,"viewing_time":6293.100000023842},{"page_index":10,"viewing_time":1664.2000000476837},{"page_index":11,"viewing_time":10820},{"page_index":12,"viewing_time":6199.799999952316},{"page_index":13,"viewing_time":1175.5},{"page_index":14,"viewing_time":1103.3999999761581}],"rt":122688.30000007153,"trial_type":"instructions","trial_index":3,"time_elapsed":129220,"internal_node_id":"0.0-3.0-0.0","subject_id":"61262e740dde117dc4f427e1","study_id":"6197b3f67c2b5cd3b6d9596a","session_id":"6197b8914984ca08797d2718","condition":"full-information","relevant_dimensions":["wings","legs"],"bee_group":{"antennae":"X","wings":"2","pattern":"X","legs":"M"},"bonus":1.9200000000000013},{"rt":12641.700000047684,"response":{"Q0":["Two or six legs","Stripes or spots on body","Single or double wings","Antennae or no antennae"]},"question_order":[0],"trial_type":"survey-multi-select","trial_index":4,"time_elapsed":141864,"internal_node_id":"0.0-3.0-1.0","subject_id":"61262e740dde117dc4f427e1","study_id":"6197b3f67c2b5cd3b6d9596a","session_id":"6197b8914984ca08797d2718","condition":"full-information","relevant_dimensions":["wings","legs"],"bee_group":{"antennae":"X","wings":"2","pattern":"X","legs":"M"},"correct":true,"bonus":1.9200000000000013},{"rt":14048.5,"response":{"Q1":"No.","Q2":"Based on the four features of the bee.","Q3":"You learn if it was friendly or dangerous, but do not alter your bonus."},"question_order":[0,1,2],"trial_type":"survey-multi-choice","trial_index":5,"time_elapsed":155916,"internal_node_id":"0.0-3.0-2.0","subject_id":"61262e740dde117dc4f427e1","study_id":"6197b3f67c2b5cd3b6d9596a","session_id":"6197b8914984ca08797d2718","condition":"full-information","relevant_dimensions":["wings","legs"],"bee_group":{"antennae":"X","wings":"2","pattern":"X","legs":"M"},"correct":true,"bonus":1.9200000000000013},{"rt":4244.899999976158,"stimulus":"<p>Congrats, you got everything right<br>When you're ready, click the button below to continue to the experiment.</p>","response":0,"trial_type":"html-button-response","trial_index":6,"time_elapsed":160163,"internal_node_id":"0.0-3.0-3.0","subject_id":"61262e740dde117dc4f427e1","study_id":"6197b3f67c2b5cd3b6d9596a","session_id":"6197b8914984ca08797d2718","condition":"full-information","relevant_dimensions":["wings","legs"],"bee_group":{"antennae":"X","wings":"2","pattern":"X","legs":"M"},"bonus":1.9200000000000013},{"rt":30281.600000023842,"stimulus":"bees-with-color/bee-A2DM.svg","response":1,"trial_type":"image-button-response","trial_index":7,"time_elapsed":190447,"internal_node_id":"0.0-4.0-0.0","subject_id":"61262e740dde117dc4f427e1","study_id":"6197b3f67c2b5cd3b6d9596a","session_id":"6197b8914984ca08797d2718","condition":"full-information","relevant_dimensions":["wings","legs"],"bee_group":{"antennae":"X","wings":"2","pattern":"X","legs":"M"},"action":"avoid","summary":"good-avoid","bonus":1.9200000000000013},{"rt":20857.700000047684,"stimulus":"\n                    <p><b>Action: <em>avoid</em></b></p>\n                    <p>This is the bee that you just saw.</p>\n                    <img src=\"bees-with-color/bee-A2DM.svg\" width=\"200\">\n                    <p><span class=\"greenText\">Good choice!</span>  This bee would have stung you.<br>Your bonus pay is unchanged, and remains at $0.54.</p>\n            ","response":0,"trial_type":"html-button-response","trial_index":8,"time_elapsed":211306,"internal_node_id":"0.0-4.0-1.0","subject_id":"61262e740dde117dc4f427e1","study_id":"6197b3f67c2b5cd3b6d9596a","session_id":"6197b8914984ca08797d2718","condition":"full-information","relevant_dimensions":["wings","legs"],"bee_group":{"antennae":"X","wings":"2","pattern":"X","legs":"M"},"bonus":1.9200000000000013},{"rt":15420,"stimulus":"bees-with-color/bee-A1DF.svg","response":0,"trial_type":"image-button-response","trial_index":9,"time_elapsed":226727,"internal_node_id":"0.0-4.0-0.1","subject_id":"61262e740dde117dc4f427e1","study_id":"6197b3f67c2b5cd3b6d9596a","session_id":"6197b8914984ca08797d2718","condition":"full-information","relevant_dimensions":["wings","legs"],"bee_group":{"antennae":"X","wings":"2","pattern":"X","legs":"M"},"action":"harvest","summary":"good-harvest","bonus":1.9200000000000013},{"rt":10186.700000047684,"stimulus":"\n                    <p><b>Action: <em>harvest</em></b></p>\n                    <p>This is the bee that you just saw.</p>\n                    <img src=\"bees-with-color/bee-A1DF.svg\" width=\"200\">\n                    <p><span class=\"greenText\"><b>Successful harvest!</b></span><br>Your pay has increased by $0.02. Your bonus pay is now $0.56.</p>\n            ","response":0,"trial_type":"html-button-response","trial_index":10,"time_elapsed":236915,"internal_node_id":"0.0-4.0-1.1","subject_id":"61262e740dde117dc4f427e1","study_id":"6197b3f67c2b5cd3b6d9596a","session_id":"6197b8914984ca08797d2718","condition":"full-information","relevant_dimensions":["wings","legs"],"bee_group":{"antennae":"X","wings":"2","pattern":"X","legs":"M"},"bonus":1.9200000000000013},{"rt":20320.599999904633,"stimulus":"bees-with-color/bee-B1SM.svg","response":1,"trial_type":"image-button-response","trial_index":11,"time_elapsed":257237,"internal_node_id":"0.0-4.0-0.2","subject_id":"61262e740dde117dc4f427e1","study_id":"6197b3f67c2b5cd3b6d9596a","session_id":"6197b8914984ca08797d2718","condition":"full-information","relevant_dimensions":["wings","legs"],"bee_group":{"antennae":"X","wings":"2","pattern":"X","legs":"M"},"action":"avoid","summary":"bad-avoid","bonus":1.9200000000000013},{"rt":24965,"stimulus":"\n                    <p><b>Action: <em>avoid</em></b></p>\n                    <p>This is the bee that you just saw.</p>\n                    <img src=\"bees-with-color/bee-B1SM.svg\" width=\"200\">\n                    <p><span class=\"redText\">Bad choice,</span> the bee was friendly.<br>Your bonus pay is unchanged, and remains at $0.56.</p>\n            ","response":0,"trial_type":"html-button-response","trial_index":12,"time_elapsed":282203,"internal_node_id":"0.0-4.0-1.2","subject_id":"61262e740dde117dc4f427e1","study_id":"6197b3f67c2b5cd3b6d9596a","session_id":"6197b8914984ca08797d2718","condition":"full-information","relevant_dimensions":["wings","legs"],"bee_group":{"antennae":"X","wings":"2","pattern":"X","legs":"M"},"bonus":1.9200000000000013},{"rt":2205.899999976158,"stimulus":"bees-with-color/bee-A1SF.svg","response":1,"trial_type":"image-button-response","trial_index":13,"time_elapsed":284411,"internal_node_id":"0.0-4.0-0.3","subject_id":"61262e740dde117dc4f427e1","study_id":"6197b3f67c2b5cd3b6d9596a","session_id":"6197b8914984ca08797d2718","condition":"full-information","relevant_dimensions":["wings","legs"],"bee_group":{"antennae":"X","wings":"2","pattern":"X","legs":"M"},"action":"avoid","summary":"bad-avoid","bonus":1.9200000000000013},{"rt":1220.6000000238419,"stimulus":"\n                    <p><b>Action: <em>avoid</em></b></p>\n                    <p>This is the bee that you just saw.</p>\n                    <img src=\"bees-with-color/bee-A1SF.svg\" width=\"200\">\n                    <p><span class=\"redText\">Bad choice,</span> the bee was friendly.<br>Your bonus pay is unchanged, and remains at $0.56.</p>\n            ","response":0,"trial_type":"html-button-response","trial_index":14,"time_elapsed":285632,"internal_node_id":"0.0-4.0-1.3","subject_id":"61262e740dde117dc4f427e1","study_id":"6197b3f67c2b5cd3b6d9596a","session_id":"6197b8914984ca08797d2718","condition":"full-information","relevant_dimensions":["wings","legs"],"bee_group":{"antennae":"X","wings":"2","pattern":"X","legs":"M"},"bonus":1.9200000000000013},{"rt":1172.1000000238419,"stimulus":"bees-with-color/bee-B1DF.svg","response":1,"trial_type":"image-button-response","trial_index":15,"time_elapsed":286805,"internal_node_id":"0.0-4.0-0.4","subject_id":"61262e740dde117dc4f427e1","study_id":"6197b3f67c2b5cd3b6d9596a","session_id":"6197b8914984ca08797d2718","condition":"full-information","relevant_dimensions":["wings","legs"],"bee_group":{"antennae":"X","wings":"2","pattern":"X","legs":"M"},"action":"avoid","summary":"bad-avoid","bonus":1.9200000000000013},{"rt":658.0999999046326,"stimulus":"\n                    <p><b>Action: <em>avoid</em></b></p>\n                    <p>This is the bee that you just saw.</p>\n                    <img src=\"bees-with-color/bee-B1DF.svg\" width=\"200\">\n                    <p><span class=\"redText\">Bad choice,</span> the bee was friendly.<br>Your bonus pay is unchanged, and remains at $0.56.</p>\n            ","response":0,"trial_type":"html-button-response","trial_index":16,"time_elapsed":287465,"internal_node_id":"0.0-4.0-1.4","subject_id":"61262e740dde117dc4f427e1","study_id":"6197b3f67c2b5cd3b6d9596a","session_id":"6197b8914984ca08797d2718","condition":"full-information","relevant_dimensions":["wings","legs"],"bee_group":{"antennae":"X","wings":"2","pattern":"X","legs":"M"},"bonus":1.9200000000000013},{"rt":630.2999999523163,"stimulus":"bees-with-color/bee-A2SM.svg","response":1,"trial_type":"image-button-response","trial_index":17,"time_elapsed":288096,"internal_node_id":"0.0-4.0-0.5","subject_id":"61262e740dde117dc4f427e1","study_id":"6197b3f67c2b5cd3b6d9596a","session_id":"6197b8914984ca08797d2718","condition":"full-information","relevant_dimensions":["wings","legs"],"bee_group":{"antennae":"X","wings":"2","pattern":"X","legs":"M"},"action":"avoid","summary":"good-avoid","bonus":1.9200000000000013},{"rt":1748,"stimulus":"\n                    <p><b>Action: <em>avoid</em></b></p>\n                    <p>This is the bee that you just saw.</p>\n                    <img src=\"bees-with-color/bee-A2SM.svg\" width=\"200\">\n                    <p><span class=\"greenText\">Good choice!</span>  This bee would have stung you.<br>Your bonus pay is unchanged, and remains at $0.56.</p>\n            ","response":0,"trial_type":"html-button-response","trial_index":18,"time_elapsed":289845,"internal_node_id":"0.0-4.0-1.5","subject_id":"61262e740dde117dc4f427e1","study_id":"6197b3f67c2b5cd3b6d9596a","session_id":"6197b8914984ca08797d2718","condition":"full-information","relevant_dimensions":["wings","legs"],"bee_group":{"antennae":"X","wings":"2","pattern":"X","legs":"M"},"bonus":1.9200000000000013},{"rt":1843.7000000476837,"stimulus":"bees-with-color/bee-A2SF.svg","response":0,"trial_type":"image-button-response","trial_index":19,"time_elapsed":291690,"internal_node_id":"0.0-4.0-0.6","subject_id":"61262e740dde117dc4f427e1","study_id":"6197b3f67c2b5cd3b6d9596a","session_id":"6197b8914984ca08797d2718","condition":"full-information","relevant_dimensions":["wings","legs"],"bee_group":{"antennae":"X","wings":"2","pattern":"X","legs":"M"},"action":"harvest","summary":"good-harvest","bonus":1.9200000000000013},{"rt":56369.5,"stimulus":"\n                    <p><b>Action: <em>harvest</em></b></p>\n                    <p>This is the bee that you just saw.</p>\n                    <img src=\"bees-with-color/bee-A2SF.svg\" width=\"200\">\n                    <p><span class=\"greenText\"><b>Successful harvest!</b></span><br>Your pay has increased by $0.02. Your bonus pay is now $0.58.</p>\n            ","response":0,"trial_type":"html-button-response","trial_index":20,"time_elapsed":348061,"internal_node_id":"0.0-4.0-1.6","subject_id":"61262e740dde117dc4f427e1","study_id":"6197b3f67c2b5cd3b6d9596a","session_id":"6197b8914984ca08797d2718","condition":"full-information","relevant_dimensions":["wings","legs"],"bee_group":{"antennae":"X","wings":"2","pattern":"X","legs":"M"},"bonus":1.9200000000000013},{"rt":1420.5,"stimulus":"bees-with-color/bee-B2DF.svg","response":0,"trial_type":"image-button-response","trial_index":21,"time_elapsed":349483,"internal_node_id":"0.0-4.0-0.7","subject_id":"61262e740dde117dc4f427e1","study_id":"6197b3f67c2b5cd3b6d9596a","session_id":"6197b8914984ca08797d2718","condition":"full-information","relevant_dimensions":["wings","legs"],"bee_group":{"antennae":"X","wings":"2","pattern":"X","legs":"M"},"action":"harvest","summary":"good-harvest","bonus":1.9200000000000013},{"rt":1233.7999999523163,"stimulus":"\n                    <p><b>Action: <em>harvest</em></b></p>\n                    <p>This is the bee that you just saw.</p>\n                    <img src=\"bees-with-color/bee-B2DF.svg\" width=\"200\">\n                    <p><span class=\"greenText\"><b>Successful harvest!</b></span><br>Your pay has increased by $0.02. Your bonus pay is now $0.60.</p>\n            ","response":0,"trial_type":"html-button-response","trial_index":22,"time_elapsed":350719,"internal_node_id":"0.0-4.0-1.7","subject_id":"61262e740dde117dc4f427e1","study_id":"6197b3f67c2b5cd3b6d9596a","session_id":"6197b8914984ca08797d2718","condition":"full-information","relevant_dimensions":["wings","legs"],"bee_group":{"antennae":"X","wings":"2","pattern":"X","legs":"M"},"bonus":1.9200000000000013},{"rt":1149.8999999761581,"stimulus":"bees-with-color/bee-B2SM.svg","response":1,"trial_type":"image-button-response","trial_index":23,"time_elapsed":351870,"internal_node_id":"0.0-4.0-0.8","subject_id":"61262e740dde117dc4f427e1","study_id":"6197b3f67c2b5cd3b6d9596a","session_id":"6197b8914984ca08797d2718","condition":"full-information","relevant_dimensions":["wings","legs"],"bee_group":{"antennae":"X","wings":"2","pattern":"X","legs":"M"},"action":"avoid","summary":"good-avoid","bonus":1.9200000000000013},{"rt":1233.6999999284744,"stimulus":"\n                    <p><b>Action: <em>avoid</em></b></p>\n                    <p>This is the bee that you just saw.</p>\n                    <img src=\"bees-with-color/bee-B2SM.svg\" width=\"200\">\n                    <p><span class=\"greenText\">Good choice!</span>  This bee would have stung you.<br>Your bonus pay is unchanged, and remains at $0.60.</p>\n            ","response":0,"trial_type":"html-button-response","trial_index":24,"time_elapsed":353105,"internal_node_id":"0.0-4.0-1.8","subject_id":"61262e740dde117dc4f427e1","study_id":"6197b3f67c2b5cd3b6d9596a","session_id":"6197b8914984ca08797d2718","condition":"full-information","relevant_dimensions":["wings","legs"],"bee_group":{"antennae":"X","wings":"2","pattern":"X","legs":"M"},"bonus":1.9200000000000013},{"rt":1568,"stimulus":"bees-with-color/bee-B1SF.svg","response":0,"trial_type":"image-button-response","trial_index":25,"time_elapsed":354673,"internal_node_id":"0.0-4.0-0.9","subject_id":"61262e740dde117dc4f427e1","study_id":"6197b3f67c2b5cd3b6d9596a","session_id":"6197b8914984ca08797d2718","condition":"full-information","relevant_dimensions":["wings","legs"],"bee_group":{"antennae":"X","wings":"2","pattern":"X","legs":"M"},"action":"harvest","summary":"good-harvest","bonus":1.9200000000000013},{"rt":955.9000000953674,"stimulus":"\n                    <p><b>Action: <em>harvest</em></b></p>\n                    <p>This is the bee that you just saw.</p>\n                    <img src=\"bees-with-color/bee-B1SF.svg\" width=\"200\">\n                    <p><span class=\"greenText\"><b>Successful harvest!</b></span><br>Your pay has increased by $0.02. Your bonus pay is now $0.62.</p>\n            ","response":0,"trial_type":"html-button-response","trial_index":26,"time_elapsed":355630,"internal_node_id":"0.0-4.0-1.9","subject_id":"61262e740dde117dc4f427e1","study_id":"6197b3f67c2b5cd3b6d9596a","session_id":"6197b8914984ca08797d2718","condition":"full-information","relevant_dimensions":["wings","legs"],"bee_group":{"antennae":"X","wings":"2","pattern":"X","legs":"M"},"bonus":1.9200000000000013},{"rt":1019.6999999284744,"stimulus":"bees-with-color/bee-B2DM.svg","response":1,"trial_type":"image-button-response","trial_index":27,"time_elapsed":356651,"internal_node_id":"0.0-4.0-0.10","subject_id":"61262e740dde117dc4f427e1","study_id":"6197b3f67c2b5cd3b6d9596a","session_id":"6197b8914984ca08797d2718","condition":"full-information","relevant_dimensions":["wings","legs"],"bee_group":{"antennae":"X","wings":"2","pattern":"X","legs":"M"},"action":"avoid","summary":"good-avoid","bonus":1.9200000000000013},{"rt":956.1000000238419,"stimulus":"\n                    <p><b>Action: <em>avoid</em></b></p>\n                    <p>This is the bee that you just saw.</p>\n                    <img src=\"bees-with-color/bee-B2DM.svg\" width=\"200\">\n                    <p><span class=\"greenText\">Good choice!</span>  This bee would have stung you.<br>Your bonus pay is unchanged, and remains at $0.62.</p>\n            ","response":0,"trial_type":"html-button-response","trial_index":28,"time_elapsed":357608,"internal_node_id":"0.0-4.0-1.10","subject_id":"61262e740dde117dc4f427e1","study_id":"6197b3f67c2b5cd3b6d9596a","session_id":"6197b8914984ca08797d2718","condition":"full-information","relevant_dimensions":["wings","legs"],"bee_group":{"antennae":"X","wings":"2","pattern":"X","legs":"M"},"bonus":1.9200000000000013},{"rt":1096.1999999284744,"stimulus":"bees-with-color/bee-B1DM.svg","response":0,"trial_type":"image-button-response","trial_index":29,"time_elapsed":358705,"internal_node_id":"0.0-4.0-0.11","subject_id":"61262e740dde117dc4f427e1","study_id":"6197b3f67c2b5cd3b6d9596a","session_id":"6197b8914984ca08797d2718","condition":"full-information","relevant_dimensions":["wings","legs"],"bee_group":{"antennae":"X","wings":"2","pattern":"X","legs":"M"},"action":"harvest","summary":"good-harvest","bonus":1.9200000000000013},{"rt":894.2000000476837,"stimulus":"\n                    <p><b>Action: <em>harvest</em></b></p>\n                    <p>This is the bee that you just saw.</p>\n                    <img src=\"bees-with-color/bee-B1DM.svg\" width=\"200\">\n                    <p><span class=\"greenText\"><b>Successful harvest!</b></span><br>Your pay has increased by $0.02. Your bonus pay is now $0.64.</p>\n            ","response":0,"trial_type":"html-button-response","trial_index":30,"time_elapsed":359600,"internal_node_id":"0.0-4.0-1.11","subject_id":"61262e740dde117dc4f427e1","study_id":"6197b3f67c2b5cd3b6d9596a","session_id":"6197b8914984ca08797d2718","condition":"full-information","relevant_dimensions":["wings","legs"],"bee_group":{"antennae":"X","wings":"2","pattern":"X","legs":"M"},"bonus":1.9200000000000013},{"rt":1137.5,"stimulus":"bees-with-color/bee-A1DM.svg","response":0,"trial_type":"image-button-response","trial_index":31,"time_elapsed":360738,"internal_node_id":"0.0-4.0-0.12","subject_id":"61262e740dde117dc4f427e1","study_id":"6197b3f67c2b5cd3b6d9596a","session_id":"6197b8914984ca08797d2718","condition":"full-information","relevant_dimensions":["wings","legs"],"bee_group":{"antennae":"X","wings":"2","pattern":"X","legs":"M"},"action":"harvest","summary":"good-harvest","bonus":1.9200000000000013},{"rt":650.9000000953674,"stimulus":"\n                    <p><b>Action: <em>harvest</em></b></p>\n                    <p>This is the bee that you just saw.</p>\n                    <img src=\"bees-with-color/bee-A1DM.svg\" width=\"200\">\n                    <p><span class=\"greenText\"><b>Successful harvest!</b></span><br>Your pay has increased by $0.02. Your bonus pay is now $0.66.</p>\n            ","response":0,"trial_type":"html-button-response","trial_index":32,"time_elapsed":361390,"internal_node_id":"0.0-4.0-1.12","subject_id":"61262e740dde117dc4f427e1","study_id":"6197b3f67c2b5cd3b6d9596a","session_id":"6197b8914984ca08797d2718","condition":"full-information","relevant_dimensions":["wings","legs"],"bee_group":{"antennae":"X","wings":"2","pattern":"X","legs":"M"},"bonus":1.9200000000000013},{"rt":1727.7000000476837,"stimulus":"bees-with-color/bee-A2DF.svg","response":0,"trial_type":"image-button-response","trial_index":33,"time_elapsed":363119,"internal_node_id":"0.0-4.0-0.13","subject_id":"61262e740dde117dc4f427e1","study_id":"6197b3f67c2b5cd3b6d9596a","session_id":"6197b8914984ca08797d2718","condition":"full-information","relevant_dimensions":["wings","legs"],"bee_group":{"antennae":"X","wings":"2","pattern":"X","legs":"M"},"action":"harvest","summary":"good-harvest","bonus":1.9200000000000013},{"rt":721.2999999523163,"stimulus":"\n                    <p><b>Action: <em>harvest</em></b></p>\n                    <p>This is the bee that you just saw.</p>\n                    <img src=\"bees-with-color/bee-A2DF.svg\" width=\"200\">\n                    <p><span class=\"greenText\"><b>Successful harvest!</b></span><br>Your pay has increased by $0.02. Your bonus pay is now $0.68.</p>\n            ","response":0,"trial_type":"html-button-response","trial_index":34,"time_elapsed":363841,"internal_node_id":"0.0-4.0-1.13","subject_id":"61262e740dde117dc4f427e1","study_id":"6197b3f67c2b5cd3b6d9596a","session_id":"6197b8914984ca08797d2718","condition":"full-information","relevant_dimensions":["wings","legs"],"bee_group":{"antennae":"X","wings":"2","pattern":"X","legs":"M"},"bonus":1.9200000000000013},{"rt":1317.5,"stimulus":"bees-with-color/bee-A1SM.svg","response":0,"trial_type":"image-button-response","trial_index":35,"time_elapsed":365160,"internal_node_id":"0.0-4.0-0.14","subject_id":"61262e740dde117dc4f427e1","study_id":"6197b3f67c2b5cd3b6d9596a","session_id":"6197b8914984ca08797d2718","condition":"full-information","relevant_dimensions":["wings","legs"],"bee_group":{"antennae":"X","wings":"2","pattern":"X","legs":"M"},"action":"harvest","summary":"good-harvest","bonus":1.9200000000000013},{"rt":692.6000000238419,"stimulus":"\n                    <p><b>Action: <em>harvest</em></b></p>\n                    <p>This is the bee that you just saw.</p>\n                    <img src=\"bees-with-color/bee-A1SM.svg\" width=\"200\">\n                    <p><span class=\"greenText\"><b>Successful harvest!</b></span><br>Your pay has increased by $0.02. Your bonus pay is now $0.70.</p>\n            ","response":0,"trial_type":"html-button-response","trial_index":36,"time_elapsed":365853,"internal_node_id":"0.0-4.0-1.14","subject_id":"61262e740dde117dc4f427e1","study_id":"6197b3f67c2b5cd3b6d9596a","session_id":"6197b8914984ca08797d2718","condition":"full-information","relevant_dimensions":["wings","legs"],"bee_group":{"antennae":"X","wings":"2","pattern":"X","legs":"M"},"bonus":1.9200000000000013},{"rt":1172,"stimulus":"bees-with-color/bee-B2SF.svg","response":0,"trial_type":"image-button-response","trial_index":37,"time_elapsed":367026,"internal_node_id":"0.0-4.0-0.15","subject_id":"61262e740dde117dc4f427e1","study_id":"6197b3f67c2b5cd3b6d9596a","session_id":"6197b8914984ca08797d2718","condition":"full-information","relevant_dimensions":["wings","legs"],"bee_group":{"antennae":"X","wings":"2","pattern":"X","legs":"M"},"action":"harvest","summary":"good-harvest","bonus":1.9200000000000013},{"rt":714.2999999523163,"stimulus":"\n                    <p><b>Action: <em>harvest</em></b></p>\n                    <p>This is the bee that you just saw.</p>\n                    <img src=\"bees-with-color/bee-B2SF.svg\" width=\"200\">\n                    <p><span class=\"greenText\"><b>Successful harvest!</b></span><br>Your pay has increased by $0.02. Your bonus pay is now $0.72.</p>\n            ","response":0,"trial_type":"html-button-response","trial_index":38,"time_elapsed":367742,"internal_node_id":"0.0-4.0-1.15","subject_id":"61262e740dde117dc4f427e1","study_id":"6197b3f67c2b5cd3b6d9596a","session_id":"6197b8914984ca08797d2718","condition":"full-information","relevant_dimensions":["wings","legs"],"bee_group":{"antennae":"X","wings":"2","pattern":"X","legs":"M"},"bonus":1.9200000000000013},{"rt":970.7000000476837,"stimulus":"bees-with-color/bee-A1DM.svg","response":0,"trial_type":"image-button-response","trial_index":39,"time_elapsed":368713,"internal_node_id":"0.0-4.0-0.16","subject_id":"61262e740dde117dc4f427e1","study_id":"6197b3f67c2b5cd3b6d9596a","session_id":"6197b8914984ca08797d2718","condition":"full-information","relevant_dimensions":["wings","legs"],"bee_group":{"antennae":"X","wings":"2","pattern":"X","legs":"M"},"action":"harvest","summary":"good-harvest","bonus":1.9200000000000013},{"rt":679.3999999761581,"stimulus":"\n                    <p><b>Action: <em>harvest</em></b></p>\n                    <p>This is the bee that you just saw.</p>\n                    <img src=\"bees-with-color/bee-A1DM.svg\" width=\"200\">\n                    <p><span class=\"greenText\"><b>Successful harvest!</b></span><br>Your pay has increased by $0.02. Your bonus pay is now $0.74.</p>\n            ","response":0,"trial_type":"html-button-response","trial_index":40,"time_elapsed":369394,"internal_node_id":"0.0-4.0-1.16","subject_id":"61262e740dde117dc4f427e1","study_id":"6197b3f67c2b5cd3b6d9596a","session_id":"6197b8914984ca08797d2718","condition":"full-information","relevant_dimensions":["wings","legs"],"bee_group":{"antennae":"X","wings":"2","pattern":"X","legs":"M"},"bonus":1.9200000000000013},{"rt":915.1000000238419,"stimulus":"bees-with-color/bee-A2SM.svg","response":1,"trial_type":"image-button-response","trial_index":41,"time_elapsed":370310,"internal_node_id":"0.0-4.0-0.17","subject_id":"61262e740dde117dc4f427e1","study_id":"6197b3f67c2b5cd3b6d9596a","session_id":"6197b8914984ca08797d2718","condition":"full-information","relevant_dimensions":["wings","legs"],"bee_group":{"antennae":"X","wings":"2","pattern":"X","legs":"M"},"action":"avoid","summary":"good-avoid","bonus":1.9200000000000013},{"rt":769.5,"stimulus":"\n                    <p><b>Action: <em>avoid</em></b></p>\n                    <p>This is the bee that you just saw.</p>\n                    <img src=\"bees-with-color/bee-A2SM.svg\" width=\"200\">\n                    <p><span class=\"greenText\">Good choice!</span>  This bee would have stung you.<br>Your bonus pay is unchanged, and remains at $0.74.</p>\n            ","response":0,"trial_type":"html-button-response","trial_index":42,"time_elapsed":371080,"internal_node_id":"0.0-4.0-1.17","subject_id":"61262e740dde117dc4f427e1","study_id":"6197b3f67c2b5cd3b6d9596a","session_id":"6197b8914984ca08797d2718","condition":"full-information","relevant_dimensions":["wings","legs"],"bee_group":{"antennae":"X","wings":"2","pattern":"X","legs":"M"},"bonus":1.9200000000000013},{"rt":1436.2000000476837,"stimulus":"bees-with-color/bee-A2DF.svg","response":0,"trial_type":"image-button-response","trial_index":43,"time_elapsed":372517,"internal_node_id":"0.0-4.0-0.18","subject_id":"61262e740dde117dc4f427e1","study_id":"6197b3f67c2b5cd3b6d9596a","session_id":"6197b8914984ca08797d2718","condition":"full-information","relevant_dimensions":["wings","legs"],"bee_group":{"antennae":"X","wings":"2","pattern":"X","legs":"M"},"action":"harvest","summary":"good-harvest","bonus":1.9200000000000013},{"rt":983.8999999761581,"stimulus":"\n                    <p><b>Action: <em>harvest</em></b></p>\n                    <p>This is the bee that you just saw.</p>\n                    <img src=\"bees-with-color/bee-A2DF.svg\" width=\"200\">\n                    <p><span class=\"greenText\"><b>Successful harvest!</b></span><br>Your pay has increased by $0.02. Your bonus pay is now $0.76.</p>\n            ","response":0,"trial_type":"html-button-response","trial_index":44,"time_elapsed":373503,"internal_node_id":"0.0-4.0-1.18","subject_id":"61262e740dde117dc4f427e1","study_id":"6197b3f67c2b5cd3b6d9596a","session_id":"6197b8914984ca08797d2718","condition":"full-information","relevant_dimensions":["wings","legs"],"bee_group":{"antennae":"X","wings":"2","pattern":"X","legs":"M"},"bonus":1.9200000000000013},{"rt":1741.1999999284744,"stimulus":"bees-with-color/bee-A1SF.svg","response":0,"trial_type":"image-button-response","trial_index":45,"time_elapsed":375245,"internal_node_id":"0.0-4.0-0.19","subject_id":"61262e740dde117dc4f427e1","study_id":"6197b3f67c2b5cd3b6d9596a","session_id":"6197b8914984ca08797d2718","condition":"full-information","relevant_dimensions":["wings","legs"],"bee_group":{"antennae":"X","wings":"2","pattern":"X","legs":"M"},"action":"harvest","summary":"good-harvest","bonus":1.9200000000000013},{"rt":914.8999999761581,"stimulus":"\n                    <p><b>Action: <em>harvest</em></b></p>\n                    <p>This is the bee that you just saw.</p>\n                    <img src=\"bees-with-color/bee-A1SF.svg\" width=\"200\">\n                    <p><span class=\"greenText\"><b>Successful harvest!</b></span><br>Your pay has increased by $0.02. Your bonus pay is now $0.78.</p>\n            ","response":0,"trial_type":"html-button-response","trial_index":46,"time_elapsed":376161,"internal_node_id":"0.0-4.0-1.19","subject_id":"61262e740dde117dc4f427e1","study_id":"6197b3f67c2b5cd3b6d9596a","session_id":"6197b8914984ca08797d2718","condition":"full-information","relevant_dimensions":["wings","legs"],"bee_group":{"antennae":"X","wings":"2","pattern":"X","legs":"M"},"bonus":1.9200000000000013},{"rt":1074.1000000238419,"stimulus":"bees-with-color/bee-B1DM.svg","response":0,"trial_type":"image-button-response","trial_index":47,"time_elapsed":377237,"internal_node_id":"0.0-4.0-0.20","subject_id":"61262e740dde117dc4f427e1","study_id":"6197b3f67c2b5cd3b6d9596a","session_id":"6197b8914984ca08797d2718","condition":"full-information","relevant_dimensions":["wings","legs"],"bee_group":{"antennae":"X","wings":"2","pattern":"X","legs":"M"},"action":"harvest","summary":"good-harvest","bonus":1.9200000000000013},{"rt":680.1000000238419,"stimulus":"\n                    <p><b>Action: <em>harvest</em></b></p>\n                    <p>This is the bee that you just saw.</p>\n                    <img src=\"bees-with-color/bee-B1DM.svg\" width=\"200\">\n                    <p><span class=\"greenText\"><b>Successful harvest!</b></span><br>Your pay has increased by $0.02. Your bonus pay is now $0.80.</p>\n            ","response":0,"trial_type":"html-button-response","trial_index":48,"time_elapsed":377918,"internal_node_id":"0.0-4.0-1.20","subject_id":"61262e740dde117dc4f427e1","study_id":"6197b3f67c2b5cd3b6d9596a","session_id":"6197b8914984ca08797d2718","condition":"full-information","relevant_dimensions":["wings","legs"],"bee_group":{"antennae":"X","wings":"2","pattern":"X","legs":"M"},"bonus":1.9200000000000013},{"rt":1011.6999999284744,"stimulus":"bees-with-color/bee-B2SF.svg","response":0,"trial_type":"image-button-response","trial_index":49,"time_elapsed":378930,"internal_node_id":"0.0-4.0-0.21","subject_id":"61262e740dde117dc4f427e1","study_id":"6197b3f67c2b5cd3b6d9596a","session_id":"6197b8914984ca08797d2718","condition":"full-information","relevant_dimensions":["wings","legs"],"bee_group":{"antennae":"X","wings":"2","pattern":"X","legs":"M"},"action":"harvest","summary":"good-harvest","bonus":1.9200000000000013},{"rt":617.2999999523163,"stimulus":"\n                    <p><b>Action: <em>harvest</em></b></p>\n                    <p>This is the bee that you just saw.</p>\n                    <img src=\"bees-with-color/bee-B2SF.svg\" width=\"200\">\n                    <p><span class=\"greenText\"><b>Successful harvest!</b></span><br>Your pay has increased by $0.02. Your bonus pay is now $0.82.</p>\n            ","response":0,"trial_type":"html-button-response","trial_index":50,"time_elapsed":379549,"internal_node_id":"0.0-4.0-1.21","subject_id":"61262e740dde117dc4f427e1","study_id":"6197b3f67c2b5cd3b6d9596a","session_id":"6197b8914984ca08797d2718","condition":"full-information","relevant_dimensions":["wings","legs"],"bee_group":{"antennae":"X","wings":"2","pattern":"X","legs":"M"},"bonus":1.9200000000000013},{"rt":797.5,"stimulus":"bees-with-color/bee-B2SM.svg","response":1,"trial_type":"image-button-response","trial_index":51,"time_elapsed":380347,"internal_node_id":"0.0-4.0-0.22","subject_id":"61262e740dde117dc4f427e1","study_id":"6197b3f67c2b5cd3b6d9596a","session_id":"6197b8914984ca08797d2718","condition":"full-information","relevant_dimensions":["wings","legs"],"bee_group":{"antennae":"X","wings":"2","pattern":"X","legs":"M"},"action":"avoid","summary":"good-avoid","bonus":1.9200000000000013},{"rt":665.6999999284744,"stimulus":"\n                    <p><b>Action: <em>avoid</em></b></p>\n                    <p>This is the bee that you just saw.</p>\n                    <img src=\"bees-with-color/bee-B2SM.svg\" width=\"200\">\n                    <p><span class=\"greenText\">Good choice!</span>  This bee would have stung you.<br>Your bonus pay is unchanged, and remains at $0.82.</p>\n            ","response":0,"trial_type":"html-button-response","trial_index":52,"time_elapsed":381014,"internal_node_id":"0.0-4.0-1.22","subject_id":"61262e740dde117dc4f427e1","study_id":"6197b3f67c2b5cd3b6d9596a","session_id":"6197b8914984ca08797d2718","condition":"full-information","relevant_dimensions":["wings","legs"],"bee_group":{"antennae":"X","wings":"2","pattern":"X","legs":"M"},"bonus":1.9200000000000013},{"rt":1908,"stimulus":"bees-with-color/bee-A1SM.svg","response":0,"trial_type":"image-button-response","trial_index":53,"time_elapsed":382923,"internal_node_id":"0.0-4.0-0.23","subject_id":"61262e740dde117dc4f427e1","study_id":"6197b3f67c2b5cd3b6d9596a","session_id":"6197b8914984ca08797d2718","condition":"full-information","relevant_dimensions":["wings","legs"],"bee_group":{"antennae":"X","wings":"2","pattern":"X","legs":"M"},"action":"harvest","summary":"good-harvest","bonus":1.9200000000000013},{"rt":1311.5999999046326,"stimulus":"\n                    <p><b>Action: <em>harvest</em></b></p>\n                    <p>This is the bee that you just saw.</p>\n                    <img src=\"bees-with-color/bee-A1SM.svg\" width=\"200\">\n                    <p><span class=\"greenText\"><b>Successful harvest!</b></span><br>Your pay has increased by $0.02. Your bonus pay is now $0.84.</p>\n            ","response":0,"trial_type":"html-button-response","trial_index":54,"time_elapsed":384235,"internal_node_id":"0.0-4.0-1.23","subject_id":"61262e740dde117dc4f427e1","study_id":"6197b3f67c2b5cd3b6d9596a","session_id":"6197b8914984ca08797d2718","condition":"full-information","relevant_dimensions":["wings","legs"],"bee_group":{"antennae":"X","wings":"2","pattern":"X","legs":"M"},"bonus":1.9200000000000013},{"rt":824.5999999046326,"stimulus":"bees-with-color/bee-B1DF.svg","response":0,"trial_type":"image-button-response","trial_index":55,"time_elapsed":385061,"internal_node_id":"0.0-4.0-0.24","subject_id":"61262e740dde117dc4f427e1","study_id":"6197b3f67c2b5cd3b6d9596a","session_id":"6197b8914984ca08797d2718","condition":"full-information","relevant_dimensions":["wings","legs"],"bee_group":{"antennae":"X","wings":"2","pattern":"X","legs":"M"},"action":"harvest","summary":"good-harvest","bonus":1.9200000000000013},{"rt":699.8000000715256,"stimulus":"\n                    <p><b>Action: <em>harvest</em></b></p>\n                    <p>This is the bee that you just saw.</p>\n                    <img src=\"bees-with-color/bee-B1DF.svg\" width=\"200\">\n                    <p><span class=\"greenText\"><b>Successful harvest!</b></span><br>Your pay has increased by $0.02. Your bonus pay is now $0.86.</p>\n            ","response":0,"trial_type":"html-button-response","trial_index":56,"time_elapsed":385762,"internal_node_id":"0.0-4.0-1.24","subject_id":"61262e740dde117dc4f427e1","study_id":"6197b3f67c2b5cd3b6d9596a","session_id":"6197b8914984ca08797d2718","condition":"full-information","relevant_dimensions":["wings","legs"],"bee_group":{"antennae":"X","wings":"2","pattern":"X","legs":"M"},"bonus":1.9200000000000013},{"rt":2144.7999999523163,"stimulus":"bees-with-color/bee-B1SF.svg","response":0,"trial_type":"image-button-response","trial_index":57,"time_elapsed":387908,"internal_node_id":"0.0-4.0-0.25","subject_id":"61262e740dde117dc4f427e1","study_id":"6197b3f67c2b5cd3b6d9596a","session_id":"6197b8914984ca08797d2718","condition":"full-information","relevant_dimensions":["wings","legs"],"bee_group":{"antennae":"X","wings":"2","pattern":"X","legs":"M"},"action":"harvest","summary":"good-harvest","bonus":1.9200000000000013},{"rt":790.7000000476837,"stimulus":"\n                    <p><b>Action: <em>harvest</em></b></p>\n                    <p>This is the bee that you just saw.</p>\n                    <img src=\"bees-with-color/bee-B1SF.svg\" width=\"200\">\n                    <p><span class=\"greenText\"><b>Successful harvest!</b></span><br>Your pay has increased by $0.02. Your bonus pay is now $0.88.</p>\n            ","response":0,"trial_type":"html-button-response","trial_index":58,"time_elapsed":388700,"internal_node_id":"0.0-4.0-1.25","subject_id":"61262e740dde117dc4f427e1","study_id":"6197b3f67c2b5cd3b6d9596a","session_id":"6197b8914984ca08797d2718","condition":"full-information","relevant_dimensions":["wings","legs"],"bee_group":{"antennae":"X","wings":"2","pattern":"X","legs":"M"},"bonus":1.9200000000000013},{"rt":1075.1999999284744,"stimulus":"bees-with-color/bee-B2DF.svg","response":0,"trial_type":"image-button-response","trial_index":59,"time_elapsed":389776,"internal_node_id":"0.0-4.0-0.26","subject_id":"61262e740dde117dc4f427e1","study_id":"6197b3f67c2b5cd3b6d9596a","session_id":"6197b8914984ca08797d2718","condition":"full-information","relevant_dimensions":["wings","legs"],"bee_group":{"antennae":"X","wings":"2","pattern":"X","legs":"M"},"action":"harvest","summary":"good-harvest","bonus":1.9200000000000013},{"rt":637.8999999761581,"stimulus":"\n                    <p><b>Action: <em>harvest</em></b></p>\n                    <p>This is the bee that you just saw.</p>\n                    <img src=\"bees-with-color/bee-B2DF.svg\" width=\"200\">\n                    <p><span class=\"greenText\"><b>Successful harvest!</b></span><br>Your pay has increased by $0.02. Your bonus pay is now $0.90.</p>\n            ","response":0,"trial_type":"html-button-response","trial_index":60,"time_elapsed":390415,"internal_node_id":"0.0-4.0-1.26","subject_id":"61262e740dde117dc4f427e1","study_id":"6197b3f67c2b5cd3b6d9596a","session_id":"6197b8914984ca08797d2718","condition":"full-information","relevant_dimensions":["wings","legs"],"bee_group":{"antennae":"X","wings":"2","pattern":"X","legs":"M"},"bonus":1.9200000000000013},{"rt":991.6999999284744,"stimulus":"bees-with-color/bee-B1SM.svg","response":0,"trial_type":"image-button-response","trial_index":61,"time_elapsed":391408,"internal_node_id":"0.0-4.0-0.27","subject_id":"61262e740dde117dc4f427e1","study_id":"6197b3f67c2b5cd3b6d9596a","session_id":"6197b8914984ca08797d2718","condition":"full-information","relevant_dimensions":["wings","legs"],"bee_group":{"antennae":"X","wings":"2","pattern":"X","legs":"M"},"action":"harvest","summary":"good-harvest","bonus":1.9200000000000013},{"rt":748.8000000715256,"stimulus":"\n                    <p><b>Action: <em>harvest</em></b></p>\n                    <p>This is the bee that you just saw.</p>\n                    <img src=\"bees-with-color/bee-B1SM.svg\" width=\"200\">\n                    <p><span class=\"greenText\"><b>Successful harvest!</b></span><br>Your pay has increased by $0.02. Your bonus pay is now $0.92.</p>\n            ","response":0,"trial_type":"html-button-response","trial_index":62,"time_elapsed":392157,"internal_node_id":"0.0-4.0-1.27","subject_id":"61262e740dde117dc4f427e1","study_id":"6197b3f67c2b5cd3b6d9596a","session_id":"6197b8914984ca08797d2718","condition":"full-information","relevant_dimensions":["wings","legs"],"bee_group":{"antennae":"X","wings":"2","pattern":"X","legs":"M"},"bonus":1.9200000000000013},{"rt":930.2000000476837,"stimulus":"bees-with-color/bee-B2DM.svg","response":1,"trial_type":"image-button-response","trial_index":63,"time_elapsed":393088,"internal_node_id":"0.0-4.0-0.28","subject_id":"61262e740dde117dc4f427e1","study_id":"6197b3f67c2b5cd3b6d9596a","session_id":"6197b8914984ca08797d2718","condition":"full-information","relevant_dimensions":["wings","legs"],"bee_group":{"antennae":"X","wings":"2","pattern":"X","legs":"M"},"action":"avoid","summary":"good-avoid","bonus":1.9200000000000013},{"rt":846,"stimulus":"\n                    <p><b>Action: <em>avoid</em></b></p>\n                    <p>This is the bee that you just saw.</p>\n                    <img src=\"bees-with-color/bee-B2DM.svg\" width=\"200\">\n                    <p><span class=\"greenText\">Good choice!</span>  This bee would have stung you.<br>Your bonus pay is unchanged, and remains at $0.92.</p>\n            ","response":0,"trial_type":"html-button-response","trial_index":64,"time_elapsed":393935,"internal_node_id":"0.0-4.0-1.28","subject_id":"61262e740dde117dc4f427e1","study_id":"6197b3f67c2b5cd3b6d9596a","session_id":"6197b8914984ca08797d2718","condition":"full-information","relevant_dimensions":["wings","legs"],"bee_group":{"antennae":"X","wings":"2","pattern":"X","legs":"M"},"bonus":1.9200000000000013},{"rt":894.1000000238419,"stimulus":"bees-with-color/bee-A1DF.svg","response":0,"trial_type":"image-button-response","trial_index":65,"time_elapsed":394831,"internal_node_id":"0.0-4.0-0.29","subject_id":"61262e740dde117dc4f427e1","study_id":"6197b3f67c2b5cd3b6d9596a","session_id":"6197b8914984ca08797d2718","condition":"full-information","relevant_dimensions":["wings","legs"],"bee_group":{"antennae":"X","wings":"2","pattern":"X","legs":"M"},"action":"harvest","summary":"good-harvest","bonus":1.9200000000000013},{"rt":651.5,"stimulus":"\n                    <p><b>Action: <em>harvest</em></b></p>\n                    <p>This is the bee that you just saw.</p>\n                    <img src=\"bees-with-color/bee-A1DF.svg\" width=\"200\">\n                    <p><span class=\"greenText\"><b>Successful harvest!</b></span><br>Your pay has increased by $0.02. Your bonus pay is now $0.94.</p>\n            ","response":0,"trial_type":"html-button-response","trial_index":66,"time_elapsed":395484,"internal_node_id":"0.0-4.0-1.29","subject_id":"61262e740dde117dc4f427e1","study_id":"6197b3f67c2b5cd3b6d9596a","session_id":"6197b8914984ca08797d2718","condition":"full-information","relevant_dimensions":["wings","legs"],"bee_group":{"antennae":"X","wings":"2","pattern":"X","legs":"M"},"bonus":1.9200000000000013},{"rt":1262.6999999284744,"stimulus":"bees-with-color/bee-A2SF.svg","response":0,"trial_type":"image-button-response","trial_index":67,"time_elapsed":396747,"internal_node_id":"0.0-4.0-0.30","subject_id":"61262e740dde117dc4f427e1","study_id":"6197b3f67c2b5cd3b6d9596a","session_id":"6197b8914984ca08797d2718","condition":"full-information","relevant_dimensions":["wings","legs"],"bee_group":{"antennae":"X","wings":"2","pattern":"X","legs":"M"},"action":"harvest","summary":"good-harvest","bonus":1.9200000000000013},{"rt":588,"stimulus":"\n                    <p><b>Action: <em>harvest</em></b></p>\n                    <p>This is the bee that you just saw.</p>\n                    <img src=\"bees-with-color/bee-A2SF.svg\" width=\"200\">\n                    <p><span class=\"greenText\"><b>Successful harvest!</b></span><br>Your pay has increased by $0.02. Your bonus pay is now $0.96.</p>\n            ","response":0,"trial_type":"html-button-response","trial_index":68,"time_elapsed":397336,"internal_node_id":"0.0-4.0-1.30","subject_id":"61262e740dde117dc4f427e1","study_id":"6197b3f67c2b5cd3b6d9596a","session_id":"6197b8914984ca08797d2718","condition":"full-information","relevant_dimensions":["wings","legs"],"bee_group":{"antennae":"X","wings":"2","pattern":"X","legs":"M"},"bonus":1.9200000000000013},{"rt":867.5999999046326,"stimulus":"bees-with-color/bee-A2DM.svg","response":1,"trial_type":"image-button-response","trial_index":69,"time_elapsed":398205,"internal_node_id":"0.0-4.0-0.31","subject_id":"61262e740dde117dc4f427e1","study_id":"6197b3f67c2b5cd3b6d9596a","session_id":"6197b8914984ca08797d2718","condition":"full-information","relevant_dimensions":["wings","legs"],"bee_group":{"antennae":"X","wings":"2","pattern":"X","legs":"M"},"action":"avoid","summary":"good-avoid","bonus":1.9200000000000013},{"rt":602.7000000476837,"stimulus":"\n                    <p><b>Action: <em>avoid</em></b></p>\n                    <p>This is the bee that you just saw.</p>\n                    <img src=\"bees-with-color/bee-A2DM.svg\" width=\"200\">\n                    <p><span class=\"greenText\">Good choice!</span>  This bee would have stung you.<br>Your bonus pay is unchanged, and remains at $0.96.</p>\n            ","response":0,"trial_type":"html-button-response","trial_index":70,"time_elapsed":398809,"internal_node_id":"0.0-4.0-1.31","subject_id":"61262e740dde117dc4f427e1","study_id":"6197b3f67c2b5cd3b6d9596a","session_id":"6197b8914984ca08797d2718","condition":"full-information","relevant_dimensions":["wings","legs"],"bee_group":{"antennae":"X","wings":"2","pattern":"X","legs":"M"},"bonus":1.9200000000000013},{"rt":1144.7000000476837,"stimulus":"bees-with-color/bee-B2SM.svg","response":1,"trial_type":"image-button-response","trial_index":71,"time_elapsed":399955,"internal_node_id":"0.0-4.0-0.32","subject_id":"61262e740dde117dc4f427e1","study_id":"6197b3f67c2b5cd3b6d9596a","session_id":"6197b8914984ca08797d2718","condition":"full-information","relevant_dimensions":["wings","legs"],"bee_group":{"antennae":"X","wings":"2","pattern":"X","legs":"M"},"action":"avoid","summary":"good-avoid","bonus":1.9200000000000013},{"rt":588.6000000238419,"stimulus":"\n                    <p><b>Action: <em>avoid</em></b></p>\n                    <p>This is the bee that you just saw.</p>\n                    <img src=\"bees-with-color/bee-B2SM.svg\" width=\"200\">\n                    <p><span class=\"greenText\">Good choice!</span>  This bee would have stung you.<br>Your bonus pay is unchanged, and remains at $0.96.</p>\n            ","response":0,"trial_type":"html-button-response","trial_index":72,"time_elapsed":400545,"internal_node_id":"0.0-4.0-1.32","subject_id":"61262e740dde117dc4f427e1","study_id":"6197b3f67c2b5cd3b6d9596a","session_id":"6197b8914984ca08797d2718","condition":"full-information","relevant_dimensions":["wings","legs"],"bee_group":{"antennae":"X","wings":"2","pattern":"X","legs":"M"},"bonus":1.9200000000000013},{"rt":846.8000000715256,"stimulus":"bees-with-color/bee-A1DM.svg","response":0,"trial_type":"image-button-response","trial_index":73,"time_elapsed":401392,"internal_node_id":"0.0-4.0-0.33","subject_id":"61262e740dde117dc4f427e1","study_id":"6197b3f67c2b5cd3b6d9596a","session_id":"6197b8914984ca08797d2718","condition":"full-information","relevant_dimensions":["wings","legs"],"bee_group":{"antennae":"X","wings":"2","pattern":"X","legs":"M"},"action":"harvest","summary":"good-harvest","bonus":1.9200000000000013},{"rt":588.7999999523163,"stimulus":"\n                    <p><b>Action: <em>harvest</em></b></p>\n                    <p>This is the bee that you just saw.</p>\n                    <img src=\"bees-with-color/bee-A1DM.svg\" width=\"200\">\n                    <p><span class=\"greenText\"><b>Successful harvest!</b></span><br>Your pay has increased by $0.02. Your bonus pay is now $0.98.</p>\n            ","response":0,"trial_type":"html-button-response","trial_index":74,"time_elapsed":401982,"internal_node_id":"0.0-4.0-1.33","subject_id":"61262e740dde117dc4f427e1","study_id":"6197b3f67c2b5cd3b6d9596a","session_id":"6197b8914984ca08797d2718","condition":"full-information","relevant_dimensions":["wings","legs"],"bee_group":{"antennae":"X","wings":"2","pattern":"X","legs":"M"},"bonus":1.9200000000000013},{"rt":1192.8999999761581,"stimulus":"bees-with-color/bee-B1SM.svg","response":0,"trial_type":"image-button-response","trial_index":75,"time_elapsed":403176,"internal_node_id":"0.0-4.0-0.34","subject_id":"61262e740dde117dc4f427e1","study_id":"6197b3f67c2b5cd3b6d9596a","session_id":"6197b8914984ca08797d2718","condition":"full-information","relevant_dimensions":["wings","legs"],"bee_group":{"antennae":"X","wings":"2","pattern":"X","legs":"M"},"action":"harvest","summary":"good-harvest","bonus":1.9200000000000013},{"rt":817.6999999284744,"stimulus":"\n                    <p><b>Action: <em>harvest</em></b></p>\n                    <p>This is the bee that you just saw.</p>\n                    <img src=\"bees-with-color/bee-B1SM.svg\" width=\"200\">\n                    <p><span class=\"greenText\"><b>Successful harvest!</b></span><br>Your pay has increased by $0.02. Your bonus pay is now $1.00.</p>\n            ","response":0,"trial_type":"html-button-response","trial_index":76,"time_elapsed":403995,"internal_node_id":"0.0-4.0-1.34","subject_id":"61262e740dde117dc4f427e1","study_id":"6197b3f67c2b5cd3b6d9596a","session_id":"6197b8914984ca08797d2718","condition":"full-information","relevant_dimensions":["wings","legs"],"bee_group":{"antennae":"X","wings":"2","pattern":"X","legs":"M"},"bonus":1.9200000000000013},{"rt":929,"stimulus":"bees-with-color/bee-A1SF.svg","response":0,"trial_type":"image-button-response","trial_index":77,"time_elapsed":404925,"internal_node_id":"0.0-4.0-0.35","subject_id":"61262e740dde117dc4f427e1","study_id":"6197b3f67c2b5cd3b6d9596a","session_id":"6197b8914984ca08797d2718","condition":"full-information","relevant_dimensions":["wings","legs"],"bee_group":{"antennae":"X","wings":"2","pattern":"X","legs":"M"},"action":"harvest","summary":"good-harvest","bonus":1.9200000000000013},{"rt":540.5,"stimulus":"\n                    <p><b>Action: <em>harvest</em></b></p>\n                    <p>This is the bee that you just saw.</p>\n                    <img src=\"bees-with-color/bee-A1SF.svg\" width=\"200\">\n                    <p><span class=\"greenText\"><b>Successful harvest!</b></span><br>Your pay has increased by $0.02. Your bonus pay is now $1.02.</p>\n            ","response":0,"trial_type":"html-button-response","trial_index":78,"time_elapsed":405467,"internal_node_id":"0.0-4.0-1.35","subject_id":"61262e740dde117dc4f427e1","study_id":"6197b3f67c2b5cd3b6d9596a","session_id":"6197b8914984ca08797d2718","condition":"full-information","relevant_dimensions":["wings","legs"],"bee_group":{"antennae":"X","wings":"2","pattern":"X","legs":"M"},"bonus":1.9200000000000013},{"rt":686.5,"stimulus":"bees-with-color/bee-A1DF.svg","response":0,"trial_type":"image-button-response","trial_index":79,"time_elapsed":406154,"internal_node_id":"0.0-4.0-0.36","subject_id":"61262e740dde117dc4f427e1","study_id":"6197b3f67c2b5cd3b6d9596a","session_id":"6197b8914984ca08797d2718","condition":"full-information","relevant_dimensions":["wings","legs"],"bee_group":{"antennae":"X","wings":"2","pattern":"X","legs":"M"},"action":"harvest","summary":"good-harvest","bonus":1.9200000000000013},{"rt":512.5,"stimulus":"\n                    <p><b>Action: <em>harvest</em></b></p>\n                    <p>This is the bee that you just saw.</p>\n                    <img src=\"bees-with-color/bee-A1DF.svg\" width=\"200\">\n                    <p><span class=\"greenText\"><b>Successful harvest!</b></span><br>Your pay has increased by $0.02. Your bonus pay is now $1.04.</p>\n            ","response":0,"trial_type":"html-button-response","trial_index":80,"time_elapsed":406667,"internal_node_id":"0.0-4.0-1.36","subject_id":"61262e740dde117dc4f427e1","study_id":"6197b3f67c2b5cd3b6d9596a","session_id":"6197b8914984ca08797d2718","condition":"full-information","relevant_dimensions":["wings","legs"],"bee_group":{"antennae":"X","wings":"2","pattern":"X","legs":"M"},"bonus":1.9200000000000013},{"rt":818.5,"stimulus":"bees-with-color/bee-A2SF.svg","response":0,"trial_type":"image-button-response","trial_index":81,"time_elapsed":407487,"internal_node_id":"0.0-4.0-0.37","subject_id":"61262e740dde117dc4f427e1","study_id":"6197b3f67c2b5cd3b6d9596a","session_id":"6197b8914984ca08797d2718","condition":"full-information","relevant_dimensions":["wings","legs"],"bee_group":{"antennae":"X","wings":"2","pattern":"X","legs":"M"},"action":"harvest","summary":"good-harvest","bonus":1.9200000000000013},{"rt":492.39999997615814,"stimulus":"\n                    <p><b>Action: <em>harvest</em></b></p>\n                    <p>This is the bee that you just saw.</p>\n                    <img src=\"bees-with-color/bee-A2SF.svg\" width=\"200\">\n                    <p><span class=\"greenText\"><b>Successful harvest!</b></span><br>Your pay has increased by $0.02. Your bonus pay is now $1.06.</p>\n            ","response":0,"trial_type":"html-button-response","trial_index":82,"time_elapsed":407981,"internal_node_id":"0.0-4.0-1.37","subject_id":"61262e740dde117dc4f427e1","study_id":"6197b3f67c2b5cd3b6d9596a","session_id":"6197b8914984ca08797d2718","condition":"full-information","relevant_dimensions":["wings","legs"],"bee_group":{"antennae":"X","wings":"2","pattern":"X","legs":"M"},"bonus":1.9200000000000013},{"rt":700.1000000238419,"stimulus":"bees-with-color/bee-A2DM.svg","response":1,"trial_type":"image-button-response","trial_index":83,"time_elapsed":408682,"internal_node_id":"0.0-4.0-0.38","subject_id":"61262e740dde117dc4f427e1","study_id":"6197b3f67c2b5cd3b6d9596a","session_id":"6197b8914984ca08797d2718","condition":"full-information","relevant_dimensions":["wings","legs"],"bee_group":{"antennae":"X","wings":"2","pattern":"X","legs":"M"},"action":"avoid","summary":"good-avoid","bonus":1.9200000000000013},{"rt":485.1999999284744,"stimulus":"\n                    <p><b>Action: <em>avoid</em></b></p>\n                    <p>This is the bee that you just saw.</p>\n                    <img src=\"bees-with-color/bee-A2DM.svg\" width=\"200\">\n                    <p><span class=\"greenText\">Good choice!</span>  This bee would have stung you.<br>Your bonus pay is unchanged, and remains at $1.06.</p>\n            ","response":0,"trial_type":"html-button-response","trial_index":84,"time_elapsed":409168,"internal_node_id":"0.0-4.0-1.38","subject_id":"61262e740dde117dc4f427e1","study_id":"6197b3f67c2b5cd3b6d9596a","session_id":"6197b8914984ca08797d2718","condition":"full-information","relevant_dimensions":["wings","legs"],"bee_group":{"antennae":"X","wings":"2","pattern":"X","legs":"M"},"bonus":1.9200000000000013},{"rt":880.5,"stimulus":"bees-with-color/bee-B2SF.svg","response":0,"trial_type":"image-button-response","trial_index":85,"time_elapsed":410050,"internal_node_id":"0.0-4.0-0.39","subject_id":"61262e740dde117dc4f427e1","study_id":"6197b3f67c2b5cd3b6d9596a","session_id":"6197b8914984ca08797d2718","condition":"full-information","relevant_dimensions":["wings","legs"],"bee_group":{"antennae":"X","wings":"2","pattern":"X","legs":"M"},"action":"harvest","summary":"good-harvest","bonus":1.9200000000000013},{"rt":519.8000000715256,"stimulus":"\n                    <p><b>Action: <em>harvest</em></b></p>\n                    <p>This is the bee that you just saw.</p>\n                    <img src=\"bees-with-color/bee-B2SF.svg\" width=\"200\">\n                    <p><span class=\"greenText\"><b>Successful harvest!</b></span><br>Your pay has increased by $0.02. Your bonus pay is now $1.08.</p>\n            ","response":0,"trial_type":"html-button-response","trial_index":86,"time_elapsed":410570,"internal_node_id":"0.0-4.0-1.39","subject_id":"61262e740dde117dc4f427e1","study_id":"6197b3f67c2b5cd3b6d9596a","session_id":"6197b8914984ca08797d2718","condition":"full-information","relevant_dimensions":["wings","legs"],"bee_group":{"antennae":"X","wings":"2","pattern":"X","legs":"M"},"bonus":1.9200000000000013},{"rt":770.5,"stimulus":"bees-with-color/bee-B1DM.svg","response":0,"trial_type":"image-button-response","trial_index":87,"time_elapsed":411342,"internal_node_id":"0.0-4.0-0.40","subject_id":"61262e740dde117dc4f427e1","study_id":"6197b3f67c2b5cd3b6d9596a","session_id":"6197b8914984ca08797d2718","condition":"full-information","relevant_dimensions":["wings","legs"],"bee_group":{"antennae":"X","wings":"2","pattern":"X","legs":"M"},"action":"harvest","summary":"good-harvest","bonus":1.9200000000000013},{"rt":568,"stimulus":"\n                    <p><b>Action: <em>harvest</em></b></p>\n                    <p>This is the bee that you just saw.</p>\n                    <img src=\"bees-with-color/bee-B1DM.svg\" width=\"200\">\n                    <p><span class=\"greenText\"><b>Successful harvest!</b></span><br>Your pay has increased by $0.02. Your bonus pay is now $1.10.</p>\n            ","response":0,"trial_type":"html-button-response","trial_index":88,"time_elapsed":411911,"internal_node_id":"0.0-4.0-1.40","subject_id":"61262e740dde117dc4f427e1","study_id":"6197b3f67c2b5cd3b6d9596a","session_id":"6197b8914984ca08797d2718","condition":"full-information","relevant_dimensions":["wings","legs"],"bee_group":{"antennae":"X","wings":"2","pattern":"X","legs":"M"},"bonus":1.9200000000000013},{"rt":936,"stimulus":"bees-with-color/bee-A1SM.svg","response":0,"trial_type":"image-button-response","trial_index":89,"time_elapsed":412848,"internal_node_id":"0.0-4.0-0.41","subject_id":"61262e740dde117dc4f427e1","study_id":"6197b3f67c2b5cd3b6d9596a","session_id":"6197b8914984ca08797d2718","condition":"full-information","relevant_dimensions":["wings","legs"],"bee_group":{"antennae":"X","wings":"2","pattern":"X","legs":"M"},"action":"harvest","summary":"good-harvest","bonus":1.9200000000000013},{"rt":881,"stimulus":"\n                    <p><b>Action: <em>harvest</em></b></p>\n                    <p>This is the bee that you just saw.</p>\n                    <img src=\"bees-with-color/bee-A1SM.svg\" width=\"200\">\n                    <p><span class=\"greenText\"><b>Successful harvest!</b></span><br>Your pay has increased by $0.02. Your bonus pay is now $1.12.</p>\n            ","response":0,"trial_type":"html-button-response","trial_index":90,"time_elapsed":413730,"internal_node_id":"0.0-4.0-1.41","subject_id":"61262e740dde117dc4f427e1","study_id":"6197b3f67c2b5cd3b6d9596a","session_id":"6197b8914984ca08797d2718","condition":"full-information","relevant_dimensions":["wings","legs"],"bee_group":{"antennae":"X","wings":"2","pattern":"X","legs":"M"},"bonus":1.9200000000000013},{"rt":1228.2000000476837,"stimulus":"bees-with-color/bee-B2DF.svg","response":0,"trial_type":"image-button-response","trial_index":91,"time_elapsed":414959,"internal_node_id":"0.0-4.0-0.42","subject_id":"61262e740dde117dc4f427e1","study_id":"6197b3f67c2b5cd3b6d9596a","session_id":"6197b8914984ca08797d2718","condition":"full-information","relevant_dimensions":["wings","legs"],"bee_group":{"antennae":"X","wings":"2","pattern":"X","legs":"M"},"action":"harvest","summary":"good-harvest","bonus":1.9200000000000013},{"rt":623.8000000715256,"stimulus":"\n                    <p><b>Action: <em>harvest</em></b></p>\n                    <p>This is the bee that you just saw.</p>\n                    <img src=\"bees-with-color/bee-B2DF.svg\" width=\"200\">\n                    <p><span class=\"greenText\"><b>Successful harvest!</b></span><br>Your pay has increased by $0.02. Your bonus pay is now $1.14.</p>\n            ","response":0,"trial_type":"html-button-response","trial_index":92,"time_elapsed":415584,"internal_node_id":"0.0-4.0-1.42","subject_id":"61262e740dde117dc4f427e1","study_id":"6197b3f67c2b5cd3b6d9596a","session_id":"6197b8914984ca08797d2718","condition":"full-information","relevant_dimensions":["wings","legs"],"bee_group":{"antennae":"X","wings":"2","pattern":"X","legs":"M"},"bonus":1.9200000000000013},{"rt":770.0999999046326,"stimulus":"bees-with-color/bee-A2SM.svg","response":1,"trial_type":"image-button-response","trial_index":93,"time_elapsed":416355,"internal_node_id":"0.0-4.0-0.43","subject_id":"61262e740dde117dc4f427e1","study_id":"6197b3f67c2b5cd3b6d9596a","session_id":"6197b8914984ca08797d2718","condition":"full-information","relevant_dimensions":["wings","legs"],"bee_group":{"antennae":"X","wings":"2","pattern":"X","legs":"M"},"action":"avoid","summary":"good-avoid","bonus":1.9200000000000013},{"rt":589.8000000715256,"stimulus":"\n                    <p><b>Action: <em>avoid</em></b></p>\n                    <p>This is the bee that you just saw.</p>\n                    <img src=\"bees-with-color/bee-A2SM.svg\" width=\"200\">\n                    <p><span class=\"greenText\">Good choice!</span>  This bee would have stung you.<br>Your bonus pay is unchanged, and remains at $1.14.</p>\n            ","response":0,"trial_type":"html-button-response","trial_index":94,"time_elapsed":416945,"internal_node_id":"0.0-4.0-1.43","subject_id":"61262e740dde117dc4f427e1","study_id":"6197b3f67c2b5cd3b6d9596a","session_id":"6197b8914984ca08797d2718","condition":"full-information","relevant_dimensions":["wings","legs"],"bee_group":{"antennae":"X","wings":"2","pattern":"X","legs":"M"},"bonus":1.9200000000000013},{"rt":748.3000000715256,"stimulus":"bees-with-color/bee-B1DF.svg","response":0,"trial_type":"image-button-response","trial_index":95,"time_elapsed":417695,"internal_node_id":"0.0-4.0-0.44","subject_id":"61262e740dde117dc4f427e1","study_id":"6197b3f67c2b5cd3b6d9596a","session_id":"6197b8914984ca08797d2718","condition":"full-information","relevant_dimensions":["wings","legs"],"bee_group":{"antennae":"X","wings":"2","pattern":"X","legs":"M"},"action":"harvest","summary":"good-harvest","bonus":1.9200000000000013},{"rt":561.0999999046326,"stimulus":"\n                    <p><b>Action: <em>harvest</em></b></p>\n                    <p>This is the bee that you just saw.</p>\n                    <img src=\"bees-with-color/bee-B1DF.svg\" width=\"200\">\n                    <p><span class=\"greenText\"><b>Successful harvest!</b></span><br>Your pay has increased by $0.02. Your bonus pay is now $1.16.</p>\n            ","response":0,"trial_type":"html-button-response","trial_index":96,"time_elapsed":418257,"internal_node_id":"0.0-4.0-1.44","subject_id":"61262e740dde117dc4f427e1","study_id":"6197b3f67c2b5cd3b6d9596a","session_id":"6197b8914984ca08797d2718","condition":"full-information","relevant_dimensions":["wings","legs"],"bee_group":{"antennae":"X","wings":"2","pattern":"X","legs":"M"},"bonus":1.9200000000000013},{"rt":811.9000000953674,"stimulus":"bees-with-color/bee-B2DM.svg","response":1,"trial_type":"image-button-response","trial_index":97,"time_elapsed":419070,"internal_node_id":"0.0-4.0-0.45","subject_id":"61262e740dde117dc4f427e1","study_id":"6197b3f67c2b5cd3b6d9596a","session_id":"6197b8914984ca08797d2718","condition":"full-information","relevant_dimensions":["wings","legs"],"bee_group":{"antennae":"X","wings":"2","pattern":"X","legs":"M"},"action":"avoid","summary":"good-avoid","bonus":1.9200000000000013},{"rt":574.7000000476837,"stimulus":"\n                    <p><b>Action: <em>avoid</em></b></p>\n                    <p>This is the bee that you just saw.</p>\n                    <img src=\"bees-with-color/bee-B2DM.svg\" width=\"200\">\n                    <p><span class=\"greenText\">Good choice!</span>  This bee would have stung you.<br>Your bonus pay is unchanged, and remains at $1.16.</p>\n            ","response":0,"trial_type":"html-button-response","trial_index":98,"time_elapsed":419646,"internal_node_id":"0.0-4.0-1.45","subject_id":"61262e740dde117dc4f427e1","study_id":"6197b3f67c2b5cd3b6d9596a","session_id":"6197b8914984ca08797d2718","condition":"full-information","relevant_dimensions":["wings","legs"],"bee_group":{"antennae":"X","wings":"2","pattern":"X","legs":"M"},"bonus":1.9200000000000013},{"rt":999.5,"stimulus":"bees-with-color/bee-A2DF.svg","response":0,"trial_type":"image-button-response","trial_index":99,"time_elapsed":420646,"internal_node_id":"0.0-4.0-0.46","subject_id":"61262e740dde117dc4f427e1","study_id":"6197b3f67c2b5cd3b6d9596a","session_id":"6197b8914984ca08797d2718","condition":"full-information","relevant_dimensions":["wings","legs"],"bee_group":{"antennae":"X","wings":"2","pattern":"X","legs":"M"},"action":"harvest","summary":"good-harvest","bonus":1.9200000000000013},{"rt":512.1999999284744,"stimulus":"\n                    <p><b>Action: <em>harvest</em></b></p>\n                    <p>This is the bee that you just saw.</p>\n                    <img src=\"bees-with-color/bee-A2DF.svg\" width=\"200\">\n                    <p><span class=\"greenText\"><b>Successful harvest!</b></span><br>Your pay has increased by $0.02. Your bonus pay is now $1.18.</p>\n            ","response":0,"trial_type":"html-button-response","trial_index":100,"time_elapsed":421160,"internal_node_id":"0.0-4.0-1.46","subject_id":"61262e740dde117dc4f427e1","study_id":"6197b3f67c2b5cd3b6d9596a","session_id":"6197b8914984ca08797d2718","condition":"full-information","relevant_dimensions":["wings","legs"],"bee_group":{"antennae":"X","wings":"2","pattern":"X","legs":"M"},"bonus":1.9200000000000013},{"rt":770.3999999761581,"stimulus":"bees-with-color/bee-B1SF.svg","response":0,"trial_type":"image-button-response","trial_index":101,"time_elapsed":421931,"internal_node_id":"0.0-4.0-0.47","subject_id":"61262e740dde117dc4f427e1","study_id":"6197b3f67c2b5cd3b6d9596a","session_id":"6197b8914984ca08797d2718","condition":"full-information","relevant_dimensions":["wings","legs"],"bee_group":{"antennae":"X","wings":"2","pattern":"X","legs":"M"},"action":"harvest","summary":"good-harvest","bonus":1.9200000000000013},{"rt":498,"stimulus":"\n                    <p><b>Action: <em>harvest</em></b></p>\n                    <p>This is the bee that you just saw.</p>\n                    <img src=\"bees-with-color/bee-B1SF.svg\" width=\"200\">\n                    <p><span class=\"greenText\"><b>Successful harvest!</b></span><br>Your pay has increased by $0.02. Your bonus pay is now $1.20.</p>\n            ","response":0,"trial_type":"html-button-response","trial_index":102,"time_elapsed":422430,"internal_node_id":"0.0-4.0-1.47","subject_id":"61262e740dde117dc4f427e1","study_id":"6197b3f67c2b5cd3b6d9596a","session_id":"6197b8914984ca08797d2718","condition":"full-information","relevant_dimensions":["wings","legs"],"bee_group":{"antennae":"X","wings":"2","pattern":"X","legs":"M"},"bonus":1.9200000000000013},{"rt":964.5,"stimulus":"bees-with-color/bee-A2SF.svg","response":0,"trial_type":"image-button-response","trial_index":103,"time_elapsed":423396,"internal_node_id":"0.0-4.0-0.48","subject_id":"61262e740dde117dc4f427e1","study_id":"6197b3f67c2b5cd3b6d9596a","session_id":"6197b8914984ca08797d2718","condition":"full-information","relevant_dimensions":["wings","legs"],"bee_group":{"antennae":"X","wings":"2","pattern":"X","legs":"M"},"action":"harvest","summary":"good-harvest","bonus":1.9200000000000013},{"rt":2297.7000000476837,"stimulus":"\n                    <p><b>Action: <em>harvest</em></b></p>\n                    <p>This is the bee that you just saw.</p>\n                    <img src=\"bees-with-color/bee-A2SF.svg\" width=\"200\">\n                    <p><span class=\"greenText\"><b>Successful harvest!</b></span><br>Your pay has increased by $0.02. Your bonus pay is now $1.22.</p>\n            ","response":0,"trial_type":"html-button-response","trial_index":104,"time_elapsed":425694,"internal_node_id":"0.0-4.0-1.48","subject_id":"61262e740dde117dc4f427e1","study_id":"6197b3f67c2b5cd3b6d9596a","session_id":"6197b8914984ca08797d2718","condition":"full-information","relevant_dimensions":["wings","legs"],"bee_group":{"antennae":"X","wings":"2","pattern":"X","legs":"M"},"bonus":1.9200000000000013},{"rt":790.6000000238419,"stimulus":"bees-with-color/bee-A1SM.svg","response":0,"trial_type":"image-button-response","trial_index":105,"time_elapsed":426486,"internal_node_id":"0.0-4.0-0.49","subject_id":"61262e740dde117dc4f427e1","study_id":"6197b3f67c2b5cd3b6d9596a","session_id":"6197b8914984ca08797d2718","condition":"full-information","relevant_dimensions":["wings","legs"],"bee_group":{"antennae":"X","wings":"2","pattern":"X","legs":"M"},"action":"harvest","summary":"good-harvest","bonus":1.9200000000000013},{"rt":533,"stimulus":"\n                    <p><b>Action: <em>harvest</em></b></p>\n                    <p>This is the bee that you just saw.</p>\n                    <img src=\"bees-with-color/bee-A1SM.svg\" width=\"200\">\n                    <p><span class=\"greenText\"><b>Successful harvest!</b></span><br>Your pay has increased by $0.02. Your bonus pay is now $1.24.</p>\n            ","response":0,"trial_type":"html-button-response","trial_index":106,"time_elapsed":427021,"internal_node_id":"0.0-4.0-1.49","subject_id":"61262e740dde117dc4f427e1","study_id":"6197b3f67c2b5cd3b6d9596a","session_id":"6197b8914984ca08797d2718","condition":"full-information","relevant_dimensions":["wings","legs"],"bee_group":{"antennae":"X","wings":"2","pattern":"X","legs":"M"},"bonus":1.9200000000000013},{"rt":776.3999999761581,"stimulus":"bees-with-color/bee-A2SM.svg","response":1,"trial_type":"image-button-response","trial_index":107,"time_elapsed":427798,"internal_node_id":"0.0-4.0-0.50","subject_id":"61262e740dde117dc4f427e1","study_id":"6197b3f67c2b5cd3b6d9596a","session_id":"6197b8914984ca08797d2718","condition":"full-information","relevant_dimensions":["wings","legs"],"bee_group":{"antennae":"X","wings":"2","pattern":"X","legs":"M"},"action":"avoid","summary":"good-avoid","bonus":1.9200000000000013},{"rt":471.10000002384186,"stimulus":"\n                    <p><b>Action: <em>avoid</em></b></p>\n                    <p>This is the bee that you just saw.</p>\n                    <img src=\"bees-with-color/bee-A2SM.svg\" width=\"200\">\n                    <p><span class=\"greenText\">Good choice!</span>  This bee would have stung you.<br>Your bonus pay is unchanged, and remains at $1.24.</p>\n            ","response":0,"trial_type":"html-button-response","trial_index":108,"time_elapsed":428271,"internal_node_id":"0.0-4.0-1.50","subject_id":"61262e740dde117dc4f427e1","study_id":"6197b3f67c2b5cd3b6d9596a","session_id":"6197b8914984ca08797d2718","condition":"full-information","relevant_dimensions":["wings","legs"],"bee_group":{"antennae":"X","wings":"2","pattern":"X","legs":"M"},"bonus":1.9200000000000013},{"rt":707.5,"stimulus":"bees-with-color/bee-B1SF.svg","response":0,"trial_type":"image-button-response","trial_index":109,"time_elapsed":428979,"internal_node_id":"0.0-4.0-0.51","subject_id":"61262e740dde117dc4f427e1","study_id":"6197b3f67c2b5cd3b6d9596a","session_id":"6197b8914984ca08797d2718","condition":"full-information","relevant_dimensions":["wings","legs"],"bee_group":{"antennae":"X","wings":"2","pattern":"X","legs":"M"},"action":"harvest","summary":"good-harvest","bonus":1.9200000000000013},{"rt":450,"stimulus":"\n                    <p><b>Action: <em>harvest</em></b></p>\n                    <p>This is the bee that you just saw.</p>\n                    <img src=\"bees-with-color/bee-B1SF.svg\" width=\"200\">\n                    <p><span class=\"greenText\"><b>Successful harvest!</b></span><br>Your pay has increased by $0.02. Your bonus pay is now $1.26.</p>\n            ","response":0,"trial_type":"html-button-response","trial_index":110,"time_elapsed":429430,"internal_node_id":"0.0-4.0-1.51","subject_id":"61262e740dde117dc4f427e1","study_id":"6197b3f67c2b5cd3b6d9596a","session_id":"6197b8914984ca08797d2718","condition":"full-information","relevant_dimensions":["wings","legs"],"bee_group":{"antennae":"X","wings":"2","pattern":"X","legs":"M"},"bonus":1.9200000000000013},{"rt":1005.7999999523163,"stimulus":"bees-with-color/bee-A1SF.svg","response":0,"trial_type":"image-button-response","trial_index":111,"time_elapsed":430437,"internal_node_id":"0.0-4.0-0.52","subject_id":"61262e740dde117dc4f427e1","study_id":"6197b3f67c2b5cd3b6d9596a","session_id":"6197b8914984ca08797d2718","condition":"full-information","relevant_dimensions":["wings","legs"],"bee_group":{"antennae":"X","wings":"2","pattern":"X","legs":"M"},"action":"harvest","summary":"good-harvest","bonus":1.9200000000000013},{"rt":686.2999999523163,"stimulus":"\n                    <p><b>Action: <em>harvest</em></b></p>\n                    <p>This is the bee that you just saw.</p>\n                    <img src=\"bees-with-color/bee-A1SF.svg\" width=\"200\">\n                    <p><span class=\"greenText\"><b>Successful harvest!</b></span><br>Your pay has increased by $0.02. Your bonus pay is now $1.28.</p>\n            ","response":0,"trial_type":"html-button-response","trial_index":112,"time_elapsed":431124,"internal_node_id":"0.0-4.0-1.52","subject_id":"61262e740dde117dc4f427e1","study_id":"6197b3f67c2b5cd3b6d9596a","session_id":"6197b8914984ca08797d2718","condition":"full-information","relevant_dimensions":["wings","legs"],"bee_group":{"antennae":"X","wings":"2","pattern":"X","legs":"M"},"bonus":1.9200000000000013},{"rt":2117.2999999523163,"stimulus":"bees-with-color/bee-A2DF.svg","response":0,"trial_type":"image-button-response","trial_index":113,"time_elapsed":433242,"internal_node_id":"0.0-4.0-0.53","subject_id":"61262e740dde117dc4f427e1","study_id":"6197b3f67c2b5cd3b6d9596a","session_id":"6197b8914984ca08797d2718","condition":"full-information","relevant_dimensions":["wings","legs"],"bee_group":{"antennae":"X","wings":"2","pattern":"X","legs":"M"},"action":"harvest","summary":"good-harvest","bonus":1.9200000000000013},{"rt":637.7000000476837,"stimulus":"\n                    <p><b>Action: <em>harvest</em></b></p>\n                    <p>This is the bee that you just saw.</p>\n                    <img src=\"bees-with-color/bee-A2DF.svg\" width=\"200\">\n                    <p><span class=\"greenText\"><b>Successful harvest!</b></span><br>Your pay has increased by $0.02. Your bonus pay is now $1.30.</p>\n            ","response":0,"trial_type":"html-button-response","trial_index":114,"time_elapsed":433881,"internal_node_id":"0.0-4.0-1.53","subject_id":"61262e740dde117dc4f427e1","study_id":"6197b3f67c2b5cd3b6d9596a","session_id":"6197b8914984ca08797d2718","condition":"full-information","relevant_dimensions":["wings","legs"],"bee_group":{"antennae":"X","wings":"2","pattern":"X","legs":"M"},"bonus":1.9200000000000013},{"rt":901.4000000953674,"stimulus":"bees-with-color/bee-B1SM.svg","response":0,"trial_type":"image-button-response","trial_index":115,"time_elapsed":434783,"internal_node_id":"0.0-4.0-0.54","subject_id":"61262e740dde117dc4f427e1","study_id":"6197b3f67c2b5cd3b6d9596a","session_id":"6197b8914984ca08797d2718","condition":"full-information","relevant_dimensions":["wings","legs"],"bee_group":{"antennae":"X","wings":"2","pattern":"X","legs":"M"},"action":"harvest","summary":"good-harvest","bonus":1.9200000000000013},{"rt":1152.1000000238419,"stimulus":"\n                    <p><b>Action: <em>harvest</em></b></p>\n                    <p>This is the bee that you just saw.</p>\n                    <img src=\"bees-with-color/bee-B1SM.svg\" width=\"200\">\n                    <p><span class=\"greenText\"><b>Successful harvest!</b></span><br>Your pay has increased by $0.02. Your bonus pay is now $1.32.</p>\n            ","response":0,"trial_type":"html-button-response","trial_index":116,"time_elapsed":435936,"internal_node_id":"0.0-4.0-1.54","subject_id":"61262e740dde117dc4f427e1","study_id":"6197b3f67c2b5cd3b6d9596a","session_id":"6197b8914984ca08797d2718","condition":"full-information","relevant_dimensions":["wings","legs"],"bee_group":{"antennae":"X","wings":"2","pattern":"X","legs":"M"},"bonus":1.9200000000000013},{"rt":811.8999999761581,"stimulus":"bees-with-color/bee-A2DM.svg","response":1,"trial_type":"image-button-response","trial_index":117,"time_elapsed":436749,"internal_node_id":"0.0-4.0-0.55","subject_id":"61262e740dde117dc4f427e1","study_id":"6197b3f67c2b5cd3b6d9596a","session_id":"6197b8914984ca08797d2718","condition":"full-information","relevant_dimensions":["wings","legs"],"bee_group":{"antennae":"X","wings":"2","pattern":"X","legs":"M"},"action":"avoid","summary":"good-avoid","bonus":1.9200000000000013},{"rt":762.5,"stimulus":"\n                    <p><b>Action: <em>avoid</em></b></p>\n                    <p>This is the bee that you just saw.</p>\n                    <img src=\"bees-with-color/bee-A2DM.svg\" width=\"200\">\n                    <p><span class=\"greenText\">Good choice!</span>  This bee would have stung you.<br>Your bonus pay is unchanged, and remains at $1.32.</p>\n            ","response":0,"trial_type":"html-button-response","trial_index":118,"time_elapsed":437512,"internal_node_id":"0.0-4.0-1.55","subject_id":"61262e740dde117dc4f427e1","study_id":"6197b3f67c2b5cd3b6d9596a","session_id":"6197b8914984ca08797d2718","condition":"full-information","relevant_dimensions":["wings","legs"],"bee_group":{"antennae":"X","wings":"2","pattern":"X","legs":"M"},"bonus":1.9200000000000013},{"rt":853.2000000476837,"stimulus":"bees-with-color/bee-B2SM.svg","response":1,"trial_type":"image-button-response","trial_index":119,"time_elapsed":438366,"internal_node_id":"0.0-4.0-0.56","subject_id":"61262e740dde117dc4f427e1","study_id":"6197b3f67c2b5cd3b6d9596a","session_id":"6197b8914984ca08797d2718","condition":"full-information","relevant_dimensions":["wings","legs"],"bee_group":{"antennae":"X","wings":"2","pattern":"X","legs":"M"},"action":"avoid","summary":"good-avoid","bonus":1.9200000000000013},{"rt":769.8999999761581,"stimulus":"\n                    <p><b>Action: <em>avoid</em></b></p>\n                    <p>This is the bee that you just saw.</p>\n                    <img src=\"bees-with-color/bee-B2SM.svg\" width=\"200\">\n                    <p><span class=\"greenText\">Good choice!</span>  This bee would have stung you.<br>Your bonus pay is unchanged, and remains at $1.32.</p>\n            ","response":0,"trial_type":"html-button-response","trial_index":120,"time_elapsed":439137,"internal_node_id":"0.0-4.0-1.56","subject_id":"61262e740dde117dc4f427e1","study_id":"6197b3f67c2b5cd3b6d9596a","session_id":"6197b8914984ca08797d2718","condition":"full-information","relevant_dimensions":["wings","legs"],"bee_group":{"antennae":"X","wings":"2","pattern":"X","legs":"M"},"bonus":1.9200000000000013},{"rt":991.8000000715256,"stimulus":"bees-with-color/bee-B1DM.svg","response":0,"trial_type":"image-button-response","trial_index":121,"time_elapsed":440130,"internal_node_id":"0.0-4.0-0.57","subject_id":"61262e740dde117dc4f427e1","study_id":"6197b3f67c2b5cd3b6d9596a","session_id":"6197b8914984ca08797d2718","condition":"full-information","relevant_dimensions":["wings","legs"],"bee_group":{"antennae":"X","wings":"2","pattern":"X","legs":"M"},"action":"harvest","summary":"good-harvest","bonus":1.9200000000000013},{"rt":568.2999999523163,"stimulus":"\n                    <p><b>Action: <em>harvest</em></b></p>\n                    <p>This is the bee that you just saw.</p>\n                    <img src=\"bees-with-color/bee-B1DM.svg\" width=\"200\">\n                    <p><span class=\"greenText\"><b>Successful harvest!</b></span><br>Your pay has increased by $0.02. Your bonus pay is now $1.34.</p>\n            ","response":0,"trial_type":"html-button-response","trial_index":122,"time_elapsed":440699,"internal_node_id":"0.0-4.0-1.57","subject_id":"61262e740dde117dc4f427e1","study_id":"6197b3f67c2b5cd3b6d9596a","session_id":"6197b8914984ca08797d2718","condition":"full-information","relevant_dimensions":["wings","legs"],"bee_group":{"antennae":"X","wings":"2","pattern":"X","legs":"M"},"bonus":1.9200000000000013},{"rt":838.6999999284744,"stimulus":"bees-with-color/bee-B2DM.svg","response":1,"trial_type":"image-button-response","trial_index":123,"time_elapsed":441539,"internal_node_id":"0.0-4.0-0.58","subject_id":"61262e740dde117dc4f427e1","study_id":"6197b3f67c2b5cd3b6d9596a","session_id":"6197b8914984ca08797d2718","condition":"full-information","relevant_dimensions":["wings","legs"],"bee_group":{"antennae":"X","wings":"2","pattern":"X","legs":"M"},"action":"avoid","summary":"good-avoid","bonus":1.9200000000000013},{"rt":505.60000002384186,"stimulus":"\n                    <p><b>Action: <em>avoid</em></b></p>\n                    <p>This is the bee that you just saw.</p>\n                    <img src=\"bees-with-color/bee-B2DM.svg\" width=\"200\">\n                    <p><span class=\"greenText\">Good choice!</span>  This bee would have stung you.<br>Your bonus pay is unchanged, and remains at $1.34.</p>\n            ","response":0,"trial_type":"html-button-response","trial_index":124,"time_elapsed":442046,"internal_node_id":"0.0-4.0-1.58","subject_id":"61262e740dde117dc4f427e1","study_id":"6197b3f67c2b5cd3b6d9596a","session_id":"6197b8914984ca08797d2718","condition":"full-information","relevant_dimensions":["wings","legs"],"bee_group":{"antennae":"X","wings":"2","pattern":"X","legs":"M"},"bonus":1.9200000000000013},{"rt":742.1000000238419,"stimulus":"bees-with-color/bee-B2DF.svg","response":0,"trial_type":"image-button-response","trial_index":125,"time_elapsed":442788,"internal_node_id":"0.0-4.0-0.59","subject_id":"61262e740dde117dc4f427e1","study_id":"6197b3f67c2b5cd3b6d9596a","session_id":"6197b8914984ca08797d2718","condition":"full-information","relevant_dimensions":["wings","legs"],"bee_group":{"antennae":"X","wings":"2","pattern":"X","legs":"M"},"action":"harvest","summary":"good-harvest","bonus":1.9200000000000013},{"rt":748.7000000476837,"stimulus":"\n                    <p><b>Action: <em>harvest</em></b></p>\n                    <p>This is the bee that you just saw.</p>\n                    <img src=\"bees-with-color/bee-B2DF.svg\" width=\"200\">\n                    <p><span class=\"greenText\"><b>Successful harvest!</b></span><br>Your pay has increased by $0.02. Your bonus pay is now $1.36.</p>\n            ","response":0,"trial_type":"html-button-response","trial_index":126,"time_elapsed":443538,"internal_node_id":"0.0-4.0-1.59","subject_id":"61262e740dde117dc4f427e1","study_id":"6197b3f67c2b5cd3b6d9596a","session_id":"6197b8914984ca08797d2718","condition":"full-information","relevant_dimensions":["wings","legs"],"bee_group":{"antennae":"X","wings":"2","pattern":"X","legs":"M"},"bonus":1.9200000000000013},{"rt":797.3999999761581,"stimulus":"bees-with-color/bee-B1DF.svg","response":0,"trial_type":"image-button-response","trial_index":127,"time_elapsed":444336,"internal_node_id":"0.0-4.0-0.60","subject_id":"61262e740dde117dc4f427e1","study_id":"6197b3f67c2b5cd3b6d9596a","session_id":"6197b8914984ca08797d2718","condition":"full-information","relevant_dimensions":["wings","legs"],"bee_group":{"antennae":"X","wings":"2","pattern":"X","legs":"M"},"action":"harvest","summary":"good-harvest","bonus":1.9200000000000013},{"rt":630.7000000476837,"stimulus":"\n                    <p><b>Action: <em>harvest</em></b></p>\n                    <p>This is the bee that you just saw.</p>\n                    <img src=\"bees-with-color/bee-B1DF.svg\" width=\"200\">\n                    <p><span class=\"greenText\"><b>Successful harvest!</b></span><br>Your pay has increased by $0.02. Your bonus pay is now $1.38.</p>\n            ","response":0,"trial_type":"html-button-response","trial_index":128,"time_elapsed":444968,"internal_node_id":"0.0-4.0-1.60","subject_id":"61262e740dde117dc4f427e1","study_id":"6197b3f67c2b5cd3b6d9596a","session_id":"6197b8914984ca08797d2718","condition":"full-information","relevant_dimensions":["wings","legs"],"bee_group":{"antennae":"X","wings":"2","pattern":"X","legs":"M"},"bonus":1.9200000000000013},{"rt":776.7999999523163,"stimulus":"bees-with-color/bee-B2SF.svg","response":0,"trial_type":"image-button-response","trial_index":129,"time_elapsed":445746,"internal_node_id":"0.0-4.0-0.61","subject_id":"61262e740dde117dc4f427e1","study_id":"6197b3f67c2b5cd3b6d9596a","session_id":"6197b8914984ca08797d2718","condition":"full-information","relevant_dimensions":["wings","legs"],"bee_group":{"antennae":"X","wings":"2","pattern":"X","legs":"M"},"action":"harvest","summary":"good-harvest","bonus":1.9200000000000013},{"rt":519.3999999761581,"stimulus":"\n                    <p><b>Action: <em>harvest</em></b></p>\n                    <p>This is the bee that you just saw.</p>\n                    <img src=\"bees-with-color/bee-B2SF.svg\" width=\"200\">\n                    <p><span class=\"greenText\"><b>Successful harvest!</b></span><br>Your pay has increased by $0.02. Your bonus pay is now $1.40.</p>\n            ","response":0,"trial_type":"html-button-response","trial_index":130,"time_elapsed":446266,"internal_node_id":"0.0-4.0-1.61","subject_id":"61262e740dde117dc4f427e1","study_id":"6197b3f67c2b5cd3b6d9596a","session_id":"6197b8914984ca08797d2718","condition":"full-information","relevant_dimensions":["wings","legs"],"bee_group":{"antennae":"X","wings":"2","pattern":"X","legs":"M"},"bonus":1.9200000000000013},{"rt":811.7000000476837,"stimulus":"bees-with-color/bee-A1DF.svg","response":0,"trial_type":"image-button-response","trial_index":131,"time_elapsed":447078,"internal_node_id":"0.0-4.0-0.62","subject_id":"61262e740dde117dc4f427e1","study_id":"6197b3f67c2b5cd3b6d9596a","session_id":"6197b8914984ca08797d2718","condition":"full-information","relevant_dimensions":["wings","legs"],"bee_group":{"antennae":"X","wings":"2","pattern":"X","legs":"M"},"action":"harvest","summary":"good-harvest","bonus":1.9200000000000013},{"rt":512.7999999523163,"stimulus":"\n                    <p><b>Action: <em>harvest</em></b></p>\n                    <p>This is the bee that you just saw.</p>\n                    <img src=\"bees-with-color/bee-A1DF.svg\" width=\"200\">\n                    <p><span class=\"greenText\"><b>Successful harvest!</b></span><br>Your pay has increased by $0.02. Your bonus pay is now $1.42.</p>\n            ","response":0,"trial_type":"html-button-response","trial_index":132,"time_elapsed":447592,"internal_node_id":"0.0-4.0-1.62","subject_id":"61262e740dde117dc4f427e1","study_id":"6197b3f67c2b5cd3b6d9596a","session_id":"6197b8914984ca08797d2718","condition":"full-information","relevant_dimensions":["wings","legs"],"bee_group":{"antennae":"X","wings":"2","pattern":"X","legs":"M"},"bonus":1.9200000000000013},{"rt":1033,"stimulus":"bees-with-color/bee-A1DM.svg","response":0,"trial_type":"image-button-response","trial_index":133,"time_elapsed":448626,"internal_node_id":"0.0-4.0-0.63","subject_id":"61262e740dde117dc4f427e1","study_id":"6197b3f67c2b5cd3b6d9596a","session_id":"6197b8914984ca08797d2718","condition":"full-information","relevant_dimensions":["wings","legs"],"bee_group":{"antennae":"X","wings":"2","pattern":"X","legs":"M"},"action":"harvest","summary":"good-harvest","bonus":1.9200000000000013},{"rt":485.60000002384186,"stimulus":"\n                    <p><b>Action: <em>harvest</em></b></p>\n                    <p>This is the bee that you just saw.</p>\n                    <img src=\"bees-with-color/bee-A1DM.svg\" width=\"200\">\n                    <p><span class=\"greenText\"><b>Successful harvest!</b></span><br>Your pay has increased by $0.02. Your bonus pay is now $1.44.</p>\n            ","response":0,"trial_type":"html-button-response","trial_index":134,"time_elapsed":449113,"internal_node_id":"0.0-4.0-1.63","subject_id":"61262e740dde117dc4f427e1","study_id":"6197b3f67c2b5cd3b6d9596a","session_id":"6197b8914984ca08797d2718","condition":"full-information","relevant_dimensions":["wings","legs"],"bee_group":{"antennae":"X","wings":"2","pattern":"X","legs":"M"},"bonus":1.9200000000000013},{"rt":4184.599999904633,"stimulus":"You have completed the first part of this experiment.<br><br>You will now begin a shorter second part, in which you will receive no feedback.<br>The same rules regarding bonus pay apply.<br><br>Press any key to begin.","response":" ","trial_type":"html-keyboard-response","trial_index":135,"time_elapsed":453299,"internal_node_id":"0.0-5.0","subject_id":"61262e740dde117dc4f427e1","study_id":"6197b3f67c2b5cd3b6d9596a","session_id":"6197b8914984ca08797d2718","condition":"full-information","relevant_dimensions":["wings","legs"],"bee_group":{"antennae":"X","wings":"2","pattern":"X","legs":"M"},"bonus":1.9200000000000013},{"rt":2513.2999999523163,"stimulus":"bees-with-color/bee-A1DF.svg","response":0,"trial_type":"image-button-response","trial_index":136,"time_elapsed":455819,"internal_node_id":"0.0-6.0-0.0","subject_id":"61262e740dde117dc4f427e1","study_id":"6197b3f67c2b5cd3b6d9596a","session_id":"6197b8914984ca08797d2718","condition":"full-information","relevant_dimensions":["wings","legs"],"bee_group":{"antennae":"X","wings":"2","pattern":"X","legs":"M"},"bonus":1.9200000000000013},{"rt":1240.8999999761581,"stimulus":"bees-with-color/bee-A2SM.svg","response":1,"trial_type":"image-button-response","trial_index":137,"time_elapsed":457061,"internal_node_id":"0.0-6.0-0.1","subject_id":"61262e740dde117dc4f427e1","study_id":"6197b3f67c2b5cd3b6d9596a","session_id":"6197b8914984ca08797d2718","condition":"full-information","relevant_dimensions":["wings","legs"],"bee_group":{"antennae":"X","wings":"2","pattern":"X","legs":"M"},"bonus":1.9200000000000013},{"rt":1018.8000000715256,"stimulus":"bees-with-color/bee-A2SF.svg","response":0,"trial_type":"image-button-response","trial_index":138,"time_elapsed":458082,"internal_node_id":"0.0-6.0-0.2","subject_id":"61262e740dde117dc4f427e1","study_id":"6197b3f67c2b5cd3b6d9596a","session_id":"6197b8914984ca08797d2718","condition":"full-information","relevant_dimensions":["wings","legs"],"bee_group":{"antennae":"X","wings":"2","pattern":"X","legs":"M"},"bonus":1.9200000000000013},{"rt":956.1999999284744,"stimulus":"bees-with-color/bee-A1DM.svg","response":0,"trial_type":"image-button-response","trial_index":139,"time_elapsed":459039,"internal_node_id":"0.0-6.0-0.3","subject_id":"61262e740dde117dc4f427e1","study_id":"6197b3f67c2b5cd3b6d9596a","session_id":"6197b8914984ca08797d2718","condition":"full-information","relevant_dimensions":["wings","legs"],"bee_group":{"antennae":"X","wings":"2","pattern":"X","legs":"M"},"bonus":1.9200000000000013},{"rt":818.2000000476837,"stimulus":"bees-with-color/bee-A2DF.svg","response":0,"trial_type":"image-button-response","trial_index":140,"time_elapsed":459859,"internal_node_id":"0.0-6.0-0.4","subject_id":"61262e740dde117dc4f427e1","study_id":"6197b3f67c2b5cd3b6d9596a","session_id":"6197b8914984ca08797d2718","condition":"full-information","relevant_dimensions":["wings","legs"],"bee_group":{"antennae":"X","wings":"2","pattern":"X","legs":"M"},"bonus":1.9200000000000013},{"rt":859.2999999523163,"stimulus":"bees-with-color/bee-A1SM.svg","response":0,"trial_type":"image-button-response","trial_index":141,"time_elapsed":460720,"internal_node_id":"0.0-6.0-0.5","subject_id":"61262e740dde117dc4f427e1","study_id":"6197b3f67c2b5cd3b6d9596a","session_id":"6197b8914984ca08797d2718","condition":"full-information","relevant_dimensions":["wings","legs"],"bee_group":{"antennae":"X","wings":"2","pattern":"X","legs":"M"},"bonus":1.9200000000000013},{"rt":741.1000000238419,"stimulus":"bees-with-color/bee-B2SM.svg","response":1,"trial_type":"image-button-response","trial_index":142,"time_elapsed":461463,"internal_node_id":"0.0-6.0-0.6","subject_id":"61262e740dde117dc4f427e1","study_id":"6197b3f67c2b5cd3b6d9596a","session_id":"6197b8914984ca08797d2718","condition":"full-information","relevant_dimensions":["wings","legs"],"bee_group":{"antennae":"X","wings":"2","pattern":"X","legs":"M"},"bonus":1.9200000000000013},{"rt":810,"stimulus":"bees-with-color/bee-A1SF.svg","response":0,"trial_type":"image-button-response","trial_index":143,"time_elapsed":462275,"internal_node_id":"0.0-6.0-0.7","subject_id":"61262e740dde117dc4f427e1","study_id":"6197b3f67c2b5cd3b6d9596a","session_id":"6197b8914984ca08797d2718","condition":"full-information","relevant_dimensions":["wings","legs"],"bee_group":{"antennae":"X","wings":"2","pattern":"X","legs":"M"},"bonus":1.9200000000000013},{"rt":741.5,"stimulus":"bees-with-color/bee-B1SM.svg","response":0,"trial_type":"image-button-response","trial_index":144,"time_elapsed":463018,"internal_node_id":"0.0-6.0-0.8","subject_id":"61262e740dde117dc4f427e1","study_id":"6197b3f67c2b5cd3b6d9596a","session_id":"6197b8914984ca08797d2718","condition":"full-information","relevant_dimensions":["wings","legs"],"bee_group":{"antennae":"X","wings":"2","pattern":"X","legs":"M"},"bonus":1.9200000000000013},{"rt":880.1000000238419,"stimulus":"bees-with-color/bee-B2SF.svg","response":0,"trial_type":"image-button-response","trial_index":145,"time_elapsed":463899,"internal_node_id":"0.0-6.0-0.9","subject_id":"61262e740dde117dc4f427e1","study_id":"6197b3f67c2b5cd3b6d9596a","session_id":"6197b8914984ca08797d2718","condition":"full-information","relevant_dimensions":["wings","legs"],"bee_group":{"antennae":"X","wings":"2","pattern":"X","legs":"M"},"bonus":1.9200000000000013},{"rt":870.5999999046326,"stimulus":"bees-with-color/bee-A2DM.svg","response":1,"trial_type":"image-button-response","trial_index":146,"time_elapsed":464771,"internal_node_id":"0.0-6.0-0.10","subject_id":"61262e740dde117dc4f427e1","study_id":"6197b3f67c2b5cd3b6d9596a","session_id":"6197b8914984ca08797d2718","condition":"full-information","relevant_dimensions":["wings","legs"],"bee_group":{"antennae":"X","wings":"2","pattern":"X","legs":"M"},"bonus":1.9200000000000013},{"rt":1078.2000000476837,"stimulus":"bees-with-color/bee-B1DF.svg","response":0,"trial_type":"image-button-response","trial_index":147,"time_elapsed":465851,"internal_node_id":"0.0-6.0-0.11","subject_id":"61262e740dde117dc4f427e1","study_id":"6197b3f67c2b5cd3b6d9596a","session_id":"6197b8914984ca08797d2718","condition":"full-information","relevant_dimensions":["wings","legs"],"bee_group":{"antennae":"X","wings":"2","pattern":"X","legs":"M"},"bonus":1.9200000000000013},{"rt":582,"stimulus":"bees-with-color/bee-B1SF.svg","response":0,"trial_type":"image-button-response","trial_index":148,"time_elapsed":466434,"internal_node_id":"0.0-6.0-0.12","subject_id":"61262e740dde117dc4f427e1","study_id":"6197b3f67c2b5cd3b6d9596a","session_id":"6197b8914984ca08797d2718","condition":"full-information","relevant_dimensions":["wings","legs"],"bee_group":{"antennae":"X","wings":"2","pattern":"X","legs":"M"},"bonus":1.9200000000000013},{"rt":873.3999999761581,"stimulus":"bees-with-color/bee-B2DF.svg","response":0,"trial_type":"image-button-response","trial_index":149,"time_elapsed":467309,"internal_node_id":"0.0-6.0-0.13","subject_id":"61262e740dde117dc4f427e1","study_id":"6197b3f67c2b5cd3b6d9596a","session_id":"6197b8914984ca08797d2718","condition":"full-information","relevant_dimensions":["wings","legs"],"bee_group":{"antennae":"X","wings":"2","pattern":"X","legs":"M"},"bonus":1.9200000000000013},{"rt":1519,"stimulus":"bees-with-color/bee-B1DM.svg","response":0,"trial_type":"image-button-response","trial_index":150,"time_elapsed":468830,"internal_node_id":"0.0-6.0-0.14","subject_id":"61262e740dde117dc4f427e1","study_id":"6197b3f67c2b5cd3b6d9596a","session_id":"6197b8914984ca08797d2718","condition":"full-information","relevant_dimensions":["wings","legs"],"bee_group":{"antennae":"X","wings":"2","pattern":"X","legs":"M"},"bonus":1.9200000000000013},{"rt":887.1000000238419,"stimulus":"bees-with-color/bee-B2DM.svg","response":1,"trial_type":"image-button-response","trial_index":151,"time_elapsed":469719,"internal_node_id":"0.0-6.0-0.15","subject_id":"61262e740dde117dc4f427e1","study_id":"6197b3f67c2b5cd3b6d9596a","session_id":"6197b8914984ca08797d2718","condition":"full-information","relevant_dimensions":["wings","legs"],"bee_group":{"antennae":"X","wings":"2","pattern":"X","legs":"M"},"bonus":1.9200000000000013},{"rt":824.7999999523163,"stimulus":"bees-with-color/bee-B2DM.svg","response":1,"trial_type":"image-button-response","trial_index":152,"time_elapsed":470544,"internal_node_id":"0.0-6.0-0.16","subject_id":"61262e740dde117dc4f427e1","study_id":"6197b3f67c2b5cd3b6d9596a","session_id":"6197b8914984ca08797d2718","condition":"full-information","relevant_dimensions":["wings","legs"],"bee_group":{"antennae":"X","wings":"2","pattern":"X","legs":"M"},"bonus":1.9200000000000013},{"rt":790.0999999046326,"stimulus":"bees-with-color/bee-B2DF.svg","response":0,"trial_type":"image-button-response","trial_index":153,"time_elapsed":471336,"internal_node_id":"0.0-6.0-0.17","subject_id":"61262e740dde117dc4f427e1","study_id":"6197b3f67c2b5cd3b6d9596a","session_id":"6197b8914984ca08797d2718","condition":"full-information","relevant_dimensions":["wings","legs"],"bee_group":{"antennae":"X","wings":"2","pattern":"X","legs":"M"},"bonus":1.9200000000000013},{"rt":748.7000000476837,"stimulus":"bees-with-color/bee-A2SF.svg","response":0,"trial_type":"image-button-response","trial_index":154,"time_elapsed":472086,"internal_node_id":"0.0-6.0-0.18","subject_id":"61262e740dde117dc4f427e1","study_id":"6197b3f67c2b5cd3b6d9596a","session_id":"6197b8914984ca08797d2718","condition":"full-information","relevant_dimensions":["wings","legs"],"bee_group":{"antennae":"X","wings":"2","pattern":"X","legs":"M"},"bonus":1.9200000000000013},{"rt":817.6999999284744,"stimulus":"bees-with-color/bee-A2DM.svg","response":1,"trial_type":"image-button-response","trial_index":155,"time_elapsed":472905,"internal_node_id":"0.0-6.0-0.19","subject_id":"61262e740dde117dc4f427e1","study_id":"6197b3f67c2b5cd3b6d9596a","session_id":"6197b8914984ca08797d2718","condition":"full-information","relevant_dimensions":["wings","legs"],"bee_group":{"antennae":"X","wings":"2","pattern":"X","legs":"M"},"bonus":1.9200000000000013},{"rt":908.2000000476837,"stimulus":"bees-with-color/bee-A1DF.svg","response":0,"trial_type":"image-button-response","trial_index":156,"time_elapsed":473814,"internal_node_id":"0.0-6.0-0.20","subject_id":"61262e740dde117dc4f427e1","study_id":"6197b3f67c2b5cd3b6d9596a","session_id":"6197b8914984ca08797d2718","condition":"full-information","relevant_dimensions":["wings","legs"],"bee_group":{"antennae":"X","wings":"2","pattern":"X","legs":"M"},"bonus":1.9200000000000013},{"rt":679.5,"stimulus":"bees-with-color/bee-B1SF.svg","response":0,"trial_type":"image-button-response","trial_index":157,"time_elapsed":474495,"internal_node_id":"0.0-6.0-0.21","subject_id":"61262e740dde117dc4f427e1","study_id":"6197b3f67c2b5cd3b6d9596a","session_id":"6197b8914984ca08797d2718","condition":"full-information","relevant_dimensions":["wings","legs"],"bee_group":{"antennae":"X","wings":"2","pattern":"X","legs":"M"},"bonus":1.9200000000000013},{"rt":874.1999999284744,"stimulus":"bees-with-color/bee-B2SF.svg","response":0,"trial_type":"image-button-response","trial_index":158,"time_elapsed":475370,"internal_node_id":"0.0-6.0-0.22","subject_id":"61262e740dde117dc4f427e1","study_id":"6197b3f67c2b5cd3b6d9596a","session_id":"6197b8914984ca08797d2718","condition":"full-information","relevant_dimensions":["wings","legs"],"bee_group":{"antennae":"X","wings":"2","pattern":"X","legs":"M"},"bonus":1.9