[{"success":true,"trial_type":"fullscreen","trial_index":0,"time_elapsed":4897,"internal_node_id":"0.0-0.0","subject_id":"5c0e94f62932300001e2e0d3","study_id":"60edd13110225f80f9f3709b","session_id":"6196ba73357de4e8d21c4e40","condition":"full-information","relevant_dimensions":["antennae","pattern"],"bee_group":{"antennae":"A","wings":"X","pattern":"S","legs":"X"},"bonus":1.740000000000001},{"success":true,"timeout":false,"failed_images":[],"failed_audio":[],"failed_video":[],"trial_type":"preload","trial_index":1,"time_elapsed":7558,"internal_node_id":"0.0-1.0","subject_id":"5c0e94f62932300001e2e0d3","study_id":"60edd13110225f80f9f3709b","session_id":"6196ba73357de4e8d21c4e40","condition":"full-information","relevant_dimensions":["antennae","pattern"],"bee_group":{"antennae":"A","wings":"X","pattern":"S","legs":"X"},"bonus":1.740000000000001},{"rt":4759.400000035763,"stimulus":"Welcome! Press any key to begin.","response":"z","trial_type":"html-keyboard-response","trial_index":2,"time_elapsed":12320,"internal_node_id":"0.0-2.0","subject_id":"5c0e94f62932300001e2e0d3","study_id":"60edd13110225f80f9f3709b","session_id":"6196ba73357de4e8d21c4e40","condition":"full-information","relevant_dimensions":["antennae","pattern"],"bee_group":{"antennae":"A","wings":"X","pattern":"S","legs":"X"},"bonus":1.740000000000001},{"view_history":[{"page_index":0,"viewing_time":2241.7999999523163},{"page_index":1,"viewing_time":13883},{"page_index":2,"viewing_time":12831.800000011921},{"page_index":3,"viewing_time":24300},{"page_index":4,"viewing_time":10990.100000023842},{"page_index":5,"viewing_time":5960.199999988079},{"page_index":6,"viewing_time":8575.100000023842},{"page_index":7,"viewing_time":11026.899999976158},{"page_index":8,"viewing_time":2559.800000011921},{"page_index":7,"viewing_time":1210},{"page_index":8,"viewing_time":1877.300000011921},{"page_index":7,"viewing_time":1713.8999999761581},{"page_index":8,"viewing_time":466.80000001192093},{"page_index":9,"viewing_time":4277.099999964237},{"page_index":10,"viewing_time":3764.800000011921},{"page_index":11,"viewing_time":15172.900000035763},{"page_index":12,"viewing_time":16619.69999998808},{"page_index":13,"viewing_time":1889.699999988079},{"page_index":14,"viewing_time":2585.800000011921}],"rt":141952.59999996424,"trial_type":"instructions","trial_index":3,"time_elapsed":154275,"internal_node_id":"0.0-3.0-0.0","subject_id":"5c0e94f62932300001e2e0d3","study_id":"60edd13110225f80f9f3709b","session_id":"6196ba73357de4e8d21c4e40","condition":"full-information","relevant_dimensions":["antennae","pattern"],"bee_group":{"antennae":"A","wings":"X","pattern":"S","legs":"X"},"bonus":1.740000000000001},{"rt":19527.30000001192,"response":{"Q0":["Two or six legs","Stripes or spots on body","Single or double wings"]},"question_order":[0],"trial_type":"survey-multi-select","trial_index":4,"time_elapsed":173844,"internal_node_id":"0.0-3.0-1.0","subject_id":"5c0e94f62932300001e2e0d3","study_id":"60edd13110225f80f9f3709b","session_id":"6196ba73357de4e8d21c4e40","condition":"full-information","relevant_dimensions":["antennae","pattern"],"bee_group":{"antennae":"A","wings":"X","pattern":"S","legs":"X"},"correct":false,"bonus":1.740000000000001},{"rt":90268.30000001192,"response":{"Q1":"No.","Q2":"Based on the four features of the bee.","Q3":"You learn if it was friendly or dangerous, but do not alter your bonus."},"question_order":[0,1,2],"trial_type":"survey-multi-choice","trial_index":5,"time_elapsed":264136,"internal_node_id":"0.0-3.0-2.0","subject_id":"5c0e94f62932300001e2e0d3","study_id":"60edd13110225f80f9f3709b","session_id":"6196ba73357de4e8d21c4e40","condition":"full-information","relevant_dimensions":["antennae","pattern"],"bee_group":{"antennae":"A","wings":"X","pattern":"S","legs":"X"},"correct":true,"bonus":1.740000000000001},{"rt":3847.899999976158,"stimulus":"<p>You did not answer all comprehension questions correctly.<br>Press <b>continue</b> to review the instructions again.</p>","response":0,"trial_type":"html-button-response","trial_index":6,"time_elapsed":268025,"internal_node_id":"0.0-3.0-3.0","subject_id":"5c0e94f62932300001e2e0d3","study_id":"60edd13110225f80f9f3709b","session_id":"6196ba73357de4e8d21c4e40","condition":"full-information","relevant_dimensions":["antennae","pattern"],"bee_group":{"antennae":"A","wings":"X","pattern":"S","legs":"X"},"bonus":1.740000000000001},{"view_history":[{"page_index":0,"viewing_time":1596.3999999761581},{"page_index":1,"viewing_time":20697},{"page_index":2,"viewing_time":12746.100000023842},{"page_index":3,"viewing_time":17049.19999998808},{"page_index":4,"viewing_time":18772.19999998808},{"page_index":5,"viewing_time":28951.19999998808},{"page_index":6,"viewing_time":19578.900000035763},{"page_index":7,"viewing_time":6688.300000011921},{"page_index":8,"viewing_time":5582.299999952316},{"page_index":7,"viewing_time":983.7000000476837},{"page_index":8,"viewing_time":1044.7999999523163},{"page_index":9,"viewing_time":8024.200000047684},{"page_index":10,"viewing_time":6066},{"page_index":9,"viewing_time":1746.8999999761581},{"page_index":8,"viewing_time":916.1000000238419},{"page_index":7,"viewing_time":756.7999999523163},{"page_index":8,"viewing_time":365.2000000476837},{"page_index":9,"viewing_time":368.7999999523163},{"page_index":10,"viewing_time":463.7000000476837},{"page_index":11,"viewing_time":1131.5},{"page_index":12,"viewing_time":1676.5999999642372},{"page_index":13,"viewing_time":1024.4000000357628},{"page_index":14,"viewing_time":948}],"rt":157179.59999996424,"trial_type":"instructions","trial_index":7,"time_elapsed":425207,"internal_node_id":"0.0-3.0-4.0-0.0","subject_id":"5c0e94f62932300001e2e0d3","study_id":"60edd13110225f80f9f3709b","session_id":"6196ba73357de4e8d21c4e40","condition":"full-information","relevant_dimensions":["antennae","pattern"],"bee_group":{"antennae":"A","wings":"X","pattern":"S","legs":"X"},"bonus":1.740000000000001},{"rt":13200.300000011921,"response":{"Q0":["Two or six legs","Stripes or spots on body","Single or double wings","Antennae or no antennae"]},"question_order":[0],"trial_type":"survey-multi-select","trial_index":8,"time_elapsed":438429,"internal_node_id":"0.0-3.0-4.0-1.0","subject_id":"5c0e94f62932300001e2e0d3","study_id":"60edd13110225f80f9f3709b","session_id":"6196ba73357de4e8d21c4e40","condition":"full-information","relevant_dimensions":["antennae","pattern"],"bee_group":{"antennae":"A","wings":"X","pattern":"S","legs":"X"},"correct":true,"bonus":1.740000000000001},{"rt":61174.39999997616,"response":{"Q1":"No.","Q2":"Based on the four features of the bee.","Q3":"You learn if it was friendly or dangerous, but do not alter your bonus."},"question_order":[0,1,2],"trial_type":"survey-multi-choice","trial_index":9,"time_elapsed":499630,"internal_node_id":"0.0-3.0-4.0-2.0","subject_id":"5c0e94f62932300001e2e0d3","study_id":"60edd13110225f80f9f3709b","session_id":"6196ba73357de4e8d21c4e40","condition":"full-information","relevant_dimensions":["antennae","pattern"],"bee_group":{"antennae":"A","wings":"X","pattern":"S","legs":"X"},"correct":true,"bonus":1.740000000000001},{"rt":2706.800000011921,"stimulus":"<p>Congrats, you got everything right<br>When you're ready, click the button below to continue to the experiment.</p>","response":0,"trial_type":"html-button-response","trial_index":10,"time_elapsed":502368,"internal_node_id":"0.0-3.0-4.0-3.0","subject_id":"5c0e94f62932300001e2e0d3","study_id":"60edd13110225f80f9f3709b","session_id":"6196ba73357de4e8d21c4e40","condition":"full-information","relevant_dimensions":["antennae","pattern"],"bee_group":{"antennae":"A","wings":"X","pattern":"S","legs":"X"},"bonus":1.740000000000001},{"rt":6337.199999988079,"stimulus":"bees-with-color/bee-A2DF.svg","response":0,"trial_type":"image-button-response","trial_index":11,"time_elapsed":508715,"internal_node_id":"0.0-4.0-0.0","subject_id":"5c0e94f62932300001e2e0d3","study_id":"60edd13110225f80f9f3709b","session_id":"6196ba73357de4e8d21c4e40","condition":"full-information","relevant_dimensions":["antennae","pattern"],"bee_group":{"antennae":"A","wings":"X","pattern":"S","legs":"X"},"action":"harvest","summary":"good-harvest","bonus":1.740000000000001},{"rt":13831.099999964237,"stimulus":"\n                    <p><b>Action: <em>harvest</em></b></p>\n                    <p>This is the bee that you just saw.</p>\n                    <img src=\"bees-with-color/bee-A2DF.svg\" width=\"200\">\n                    <p><span class=\"greenText\"><b>Successful harvest!</b></span><br>Your pay has increased by $0.02. Your bonus pay is now $0.56.</p>\n            ","response":0,"trial_type":"html-button-response","trial_index":12,"time_elapsed":522585,"internal_node_id":"0.0-4.0-1.0","subject_id":"5c0e94f62932300001e2e0d3","study_id":"60edd13110225f80f9f3709b","session_id":"6196ba73357de4e8d21c4e40","condition":"full-information","relevant_dimensions":["antennae","pattern"],"bee_group":{"antennae":"A","wings":"X","pattern":"S","legs":"X"},"bonus":1.740000000000001},{"rt":6215.099999964237,"stimulus":"bees-with-color/bee-A2SF.svg","response":0,"trial_type":"image-button-response","trial_index":13,"time_elapsed":528832,"internal_node_id":"0.0-4.0-0.1","subject_id":"5c0e94f62932300001e2e0d3","study_id":"60edd13110225f80f9f3709b","session_id":"6196ba73357de4e8d21c4e40","condition":"full-information","relevant_dimensions":["antennae","pattern"],"bee_group":{"antennae":"A","wings":"X","pattern":"S","legs":"X"},"action":"harvest","summary":"bad-harvest","bonus":1.740000000000001},{"rt":6033,"stimulus":"\n                    <p><b>Action: <em>harvest</em></b></p>\n                    <p>This is the bee that you just saw.</p>\n                    <img src=\"bees-with-color/bee-A2SF.svg\" width=\"200\">\n                    <p><span class=\"redText\">Bad choice, the bee was angry.</span><br><b>You have been stung!</b><br>Your pay has been decreased by $0.10. Your bonus pay is now $0.46.</p>\n            ","response":0,"trial_type":"html-button-response","trial_index":14,"time_elapsed":534882,"internal_node_id":"0.0-4.0-1.1","subject_id":"5c0e94f62932300001e2e0d3","study_id":"60edd13110225f80f9f3709b","session_id":"6196ba73357de4e8d21c4e40","condition":"full-information","relevant_dimensions":["antennae","pattern"],"bee_group":{"antennae":"A","wings":"X","pattern":"S","legs":"X"},"bonus":1.740000000000001},{"rt":1511.199999988079,"stimulus":"bees-with-color/bee-B1DM.svg","response":1,"trial_type":"image-button-response","trial_index":15,"time_elapsed":536403,"internal_node_id":"0.0-4.0-0.2","subject_id":"5c0e94f62932300001e2e0d3","study_id":"60edd13110225f80f9f3709b","session_id":"6196ba73357de4e8d21c4e40","condition":"full-information","relevant_dimensions":["antennae","pattern"],"bee_group":{"antennae":"A","wings":"X","pattern":"S","legs":"X"},"action":"avoid","summary":"bad-avoid","bonus":1.740000000000001},{"rt":7372.299999952316,"stimulus":"\n                    <p><b>Action: <em>avoid</em></b></p>\n                    <p>This is the bee that you just saw.</p>\n                    <img src=\"bees-with-color/bee-B1DM.svg\" width=\"200\">\n                    <p><span class=\"redText\">Bad choice,</span> the bee was friendly.<br>Your bonus pay is unchanged, and remains at $0.46.</p>\n            ","response":0,"trial_type":"html-button-response","trial_index":16,"time_elapsed":543777,"internal_node_id":"0.0-4.0-1.2","subject_id":"5c0e94f62932300001e2e0d3","study_id":"60edd13110225f80f9f3709b","session_id":"6196ba73357de4e8d21c4e40","condition":"full-information","relevant_dimensions":["antennae","pattern"],"bee_group":{"antennae":"A","wings":"X","pattern":"S","legs":"X"},"bonus":1.740000000000001},{"rt":2741.600000023842,"stimulus":"bees-with-color/bee-B1DF.svg","response":1,"trial_type":"image-button-response","trial_index":17,"time_elapsed":546527,"internal_node_id":"0.0-4.0-0.3","subject_id":"5c0e94f62932300001e2e0d3","study_id":"60edd13110225f80f9f3709b","session_id":"6196ba73357de4e8d21c4e40","condition":"full-information","relevant_dimensions":["antennae","pattern"],"bee_group":{"antennae":"A","wings":"X","pattern":"S","legs":"X"},"action":"avoid","summary":"bad-avoid","bonus":1.740000000000001},{"rt":1657.7000000476837,"stimulus":"\n                    <p><b>Action: <em>avoid</em></b></p>\n                    <p>This is the bee that you just saw.</p>\n                    <img src=\"bees-with-color/bee-B1DF.svg\" width=\"200\">\n                    <p><span class=\"redText\">Bad choice,</span> the bee was friendly.<br>Your bonus pay is unchanged, and remains at $0.46.</p>\n            ","response":0,"trial_type":"html-button-response","trial_index":18,"time_elapsed":548187,"internal_node_id":"0.0-4.0-1.3","subject_id":"5c0e94f62932300001e2e0d3","study_id":"60edd13110225f80f9f3709b","session_id":"6196ba73357de4e8d21c4e40","condition":"full-information","relevant_dimensions":["antennae","pattern"],"bee_group":{"antennae":"A","wings":"X","pattern":"S","legs":"X"},"bonus":1.740000000000001},{"rt":1285,"stimulus":"bees-with-color/bee-A1DF.svg","response":1,"trial_type":"image-button-response","trial_index":19,"time_elapsed":549475,"internal_node_id":"0.0-4.0-0.4","subject_id":"5c0e94f62932300001e2e0d3","study_id":"60edd13110225f80f9f3709b","session_id":"6196ba73357de4e8d21c4e40","condition":"full-information","relevant_dimensions":["antennae","pattern"],"bee_group":{"antennae":"A","wings":"X","pattern":"S","legs":"X"},"action":"avoid","summary":"bad-avoid","bonus":1.740000000000001},{"rt":1253.300000011921,"stimulus":"\n                    <p><b>Action: <em>avoid</em></b></p>\n                    <p>This is the bee that you just saw.</p>\n                    <img src=\"bees-with-color/bee-A1DF.svg\" width=\"200\">\n                    <p><span class=\"redText\">Bad choice,</span> the bee was friendly.<br>Your bonus pay is unchanged, and remains at $0.46.</p>\n            ","response":0,"trial_type":"html-button-response","trial_index":20,"time_elapsed":550730,"internal_node_id":"0.0-4.0-1.4","subject_id":"5c0e94f62932300001e2e0d3","study_id":"60edd13110225f80f9f3709b","session_id":"6196ba73357de4e8d21c4e40","condition":"full-information","relevant_dimensions":["antennae","pattern"],"bee_group":{"antennae":"A","wings":"X","pattern":"S","legs":"X"},"bonus":1.740000000000001},{"rt":1791.8999999761581,"stimulus":"bees-with-color/bee-A2SM.svg","response":1,"trial_type":"image-button-response","trial_index":21,"time_elapsed":552524,"internal_node_id":"0.0-4.0-0.5","subject_id":"5c0e94f62932300001e2e0d3","study_id":"60edd13110225f80f9f3709b","session_id":"6196ba73357de4e8d21c4e40","condition":"full-information","relevant_dimensions":["antennae","pattern"],"bee_group":{"antennae":"A","wings":"X","pattern":"S","legs":"X"},"action":"avoid","summary":"good-avoid","bonus":1.740000000000001},{"rt":3908.400000035763,"stimulus":"\n                    <p><b>Action: <em>avoid</em></b></p>\n                    <p>This is the bee that you just saw.</p>\n                    <img src=\"bees-with-color/bee-A2SM.svg\" width=\"200\">\n                    <p><span class=\"greenText\">Good choice!</span>  This bee would have stung you.<br>Your bonus pay is unchanged, and remains at $0.46.</p>\n            ","response":0,"trial_type":"html-button-response","trial_index":22,"time_elapsed":556434,"internal_node_id":"0.0-4.0-1.5","subject_id":"5c0e94f62932300001e2e0d3","study_id":"60edd13110225f80f9f3709b","session_id":"6196ba73357de4e8d21c4e40","condition":"full-information","relevant_dimensions":["antennae","pattern"],"bee_group":{"antennae":"A","wings":"X","pattern":"S","legs":"X"},"bonus":1.740000000000001},{"rt":970,"stimulus":"bees-with-color/bee-B2DF.svg","response":0,"trial_type":"image-button-response","trial_index":23,"time_elapsed":557406,"internal_node_id":"0.0-4.0-0.6","subject_id":"5c0e94f62932300001e2e0d3","study_id":"60edd13110225f80f9f3709b","session_id":"6196ba73357de4e8d21c4e40","condition":"full-information","relevant_dimensions":["antennae","pattern"],"bee_group":{"antennae":"A","wings":"X","pattern":"S","legs":"X"},"action":"harvest","summary":"good-harvest","bonus":1.740000000000001},{"rt":1596.300000011921,"stimulus":"\n                    <p><b>Action: <em>harvest</em></b></p>\n                    <p>This is the bee that you just saw.</p>\n                    <img src=\"bees-with-color/bee-B2DF.svg\" width=\"200\">\n                    <p><span class=\"greenText\"><b>Successful harvest!</b></span><br>Your pay has increased by $0.02. Your bonus pay is now $0.48.</p>\n            ","response":0,"trial_type":"html-button-response","trial_index":24,"time_elapsed":559004,"internal_node_id":"0.0-4.0-1.6","subject_id":"5c0e94f62932300001e2e0d3","study_id":"60edd13110225f80f9f3709b","session_id":"6196ba73357de4e8d21c4e40","condition":"full-information","relevant_dimensions":["antennae","pattern"],"bee_group":{"antennae":"A","wings":"X","pattern":"S","legs":"X"},"bonus":1.740000000000001},{"rt":1851,"stimulus":"bees-with-color/bee-B1SF.svg","response":1,"trial_type":"image-button-response","trial_index":25,"time_elapsed":560857,"internal_node_id":"0.0-4.0-0.7","subject_id":"5c0e94f62932300001e2e0d3","study_id":"60edd13110225f80f9f3709b","session_id":"6196ba73357de4e8d21c4e40","condition":"full-information","relevant_dimensions":["antennae","pattern"],"bee_group":{"antennae":"A","wings":"X","pattern":"S","legs":"X"},"action":"avoid","summary":"bad-avoid","bonus":1.740000000000001},{"rt":3694.900000035763,"stimulus":"\n                    <p><b>Action: <em>avoid</em></b></p>\n                    <p>This is the bee that you just saw.</p>\n                    <img src=\"bees-with-color/bee-B1SF.svg\" width=\"200\">\n                    <p><span class=\"redText\">Bad choice,</span> the bee was friendly.<br>Your bonus pay is unchanged, and remains at $0.48.</p>\n            ","response":0,"trial_type":"html-button-response","trial_index":26,"time_elapsed":564553,"internal_node_id":"0.0-4.0-1.7","subject_id":"5c0e94f62932300001e2e0d3","study_id":"60edd13110225f80f9f3709b","session_id":"6196ba73357de4e8d21c4e40","condition":"full-information","relevant_dimensions":["antennae","pattern"],"bee_group":{"antennae":"A","wings":"X","pattern":"S","legs":"X"},"bonus":1.740000000000001},{"rt":2563,"stimulus":"bees-with-color/bee-B1SM.svg","response":1,"trial_type":"image-button-response","trial_index":27,"time_elapsed":567120,"internal_node_id":"0.0-4.0-0.8","subject_id":"5c0e94f62932300001e2e0d3","study_id":"60edd13110225f80f9f3709b","session_id":"6196ba73357de4e8d21c4e40","condition":"full-information","relevant_dimensions":["antennae","pattern"],"bee_group":{"antennae":"A","wings":"X","pattern":"S","legs":"X"},"action":"avoid","summary":"bad-avoid","bonus":1.740000000000001},{"rt":2367.5,"stimulus":"\n                    <p><b>Action: <em>avoid</em></b></p>\n                    <p>This is the bee that you just saw.</p>\n                    <img src=\"bees-with-color/bee-B1SM.svg\" width=\"200\">\n                    <p><span class=\"redText\">Bad choice,</span> the bee was friendly.<br>Your bonus pay is unchanged, and remains at $0.48.</p>\n            ","response":0,"trial_type":"html-button-response","trial_index":28,"time_elapsed":569489,"internal_node_id":"0.0-4.0-1.8","subject_id":"5c0e94f62932300001e2e0d3","study_id":"60edd13110225f80f9f3709b","session_id":"6196ba73357de4e8d21c4e40","condition":"full-information","relevant_dimensions":["antennae","pattern"],"bee_group":{"antennae":"A","wings":"X","pattern":"S","legs":"X"},"bonus":1.740000000000001},{"rt":1987.5,"stimulus":"bees-with-color/bee-A1SM.svg","response":1,"trial_type":"image-button-response","trial_index":29,"time_elapsed":571485,"internal_node_id":"0.0-4.0-0.9","subject_id":"5c0e94f62932300001e2e0d3","study_id":"60edd13110225f80f9f3709b","session_id":"6196ba73357de4e8d21c4e40","condition":"full-information","relevant_dimensions":["antennae","pattern"],"bee_group":{"antennae":"A","wings":"X","pattern":"S","legs":"X"},"action":"avoid","summary":"good-avoid","bonus":1.740000000000001},{"rt":948.3000000119209,"stimulus":"\n                    <p><b>Action: <em>avoid</em></b></p>\n                    <p>This is the bee that you just saw.</p>\n                    <img src=\"bees-with-color/bee-A1SM.svg\" width=\"200\">\n                    <p><span class=\"greenText\">Good choice!</span>  This bee would have stung you.<br>Your bonus pay is unchanged, and remains at $0.48.</p>\n            ","response":0,"trial_type":"html-button-response","trial_index":30,"time_elapsed":572436,"internal_node_id":"0.0-4.0-1.9","subject_id":"5c0e94f62932300001e2e0d3","study_id":"60edd13110225f80f9f3709b","session_id":"6196ba73357de4e8d21c4e40","condition":"full-information","relevant_dimensions":["antennae","pattern"],"bee_group":{"antennae":"A","wings":"X","pattern":"S","legs":"X"},"bonus":1.740000000000001},{"rt":1524.300000011921,"stimulus":"bees-with-color/bee-A2DM.svg","response":1,"trial_type":"image-button-response","trial_index":31,"time_elapsed":573962,"internal_node_id":"0.0-4.0-0.10","subject_id":"5c0e94f62932300001e2e0d3","study_id":"60edd13110225f80f9f3709b","session_id":"6196ba73357de4e8d21c4e40","condition":"full-information","relevant_dimensions":["antennae","pattern"],"bee_group":{"antennae":"A","wings":"X","pattern":"S","legs":"X"},"action":"avoid","summary":"bad-avoid","bonus":1.740000000000001},{"rt":1130.199999988079,"stimulus":"\n                    <p><b>Action: <em>avoid</em></b></p>\n                    <p>This is the bee that you just saw.</p>\n                    <img src=\"bees-with-color/bee-A2DM.svg\" width=\"200\">\n                    <p><span class=\"redText\">Bad choice,</span> the bee was friendly.<br>Your bonus pay is unchanged, and remains at $0.48.</p>\n            ","response":0,"trial_type":"html-button-response","trial_index":32,"time_elapsed":575095,"internal_node_id":"0.0-4.0-1.10","subject_id":"5c0e94f62932300001e2e0d3","study_id":"60edd13110225f80f9f3709b","session_id":"6196ba73357de4e8d21c4e40","condition":"full-information","relevant_dimensions":["antennae","pattern"],"bee_group":{"antennae":"A","wings":"X","pattern":"S","legs":"X"},"bonus":1.740000000000001},{"rt":1117.6000000238419,"stimulus":"bees-with-color/bee-B2DM.svg","response":0,"trial_type":"image-button-response","trial_index":33,"time_elapsed":576214,"internal_node_id":"0.0-4.0-0.11","subject_id":"5c0e94f62932300001e2e0d3","study_id":"60edd13110225f80f9f3709b","session_id":"6196ba73357de4e8d21c4e40","condition":"full-information","relevant_dimensions":["antennae","pattern"],"bee_group":{"antennae":"A","wings":"X","pattern":"S","legs":"X"},"action":"harvest","summary":"good-harvest","bonus":1.740000000000001},{"rt":801.1999999880791,"stimulus":"\n                    <p><b>Action: <em>harvest</em></b></p>\n                    <p>This is the bee that you just saw.</p>\n                    <img src=\"bees-with-color/bee-B2DM.svg\" width=\"200\">\n                    <p><span class=\"greenText\"><b>Successful harvest!</b></span><br>Your pay has increased by $0.02. Your bonus pay is now $0.50.</p>\n            ","response":0,"trial_type":"html-button-response","trial_index":34,"time_elapsed":577017,"internal_node_id":"0.0-4.0-1.11","subject_id":"5c0e94f62932300001e2e0d3","study_id":"60edd13110225f80f9f3709b","session_id":"6196ba73357de4e8d21c4e40","condition":"full-information","relevant_dimensions":["antennae","pattern"],"bee_group":{"antennae":"A","wings":"X","pattern":"S","legs":"X"},"bonus":1.740000000000001},{"rt":3443,"stimulus":"bees-with-color/bee-B2SF.svg","response":0,"trial_type":"image-button-response","trial_index":35,"time_elapsed":580462,"internal_node_id":"0.0-4.0-0.12","subject_id":"5c0e94f62932300001e2e0d3","study_id":"60edd13110225f80f9f3709b","session_id":"6196ba73357de4e8d21c4e40","condition":"full-information","relevant_dimensions":["antennae","pattern"],"bee_group":{"antennae":"A","wings":"X","pattern":"S","legs":"X"},"action":"harvest","summary":"good-harvest","bonus":1.740000000000001},{"rt":1040.1000000238419,"stimulus":"\n                    <p><b>Action: <em>harvest</em></b></p>\n                    <p>This is the bee that you just saw.</p>\n                    <img src=\"bees-with-color/bee-B2SF.svg\" width=\"200\">\n                    <p><span class=\"greenText\"><b>Successful harvest!</b></span><br>Your pay has increased by $0.02. Your bonus pay is now $0.52.</p>\n            ","response":0,"trial_type":"html-button-response","trial_index":36,"time_elapsed":581503,"internal_node_id":"0.0-4.0-1.12","subject_id":"5c0e94f62932300001e2e0d3","study_id":"60edd13110225f80f9f3709b","session_id":"6196ba73357de4e8d21c4e40","condition":"full-information","relevant_dimensions":["antennae","pattern"],"bee_group":{"antennae":"A","wings":"X","pattern":"S","legs":"X"},"bonus":1.740000000000001},{"rt":7854.699999988079,"stimulus":"bees-with-color/bee-B2SM.svg","response":1,"trial_type":"image-button-response","trial_index":37,"time_elapsed":589360,"internal_node_id":"0.0-4.0-0.13","subject_id":"5c0e94f62932300001e2e0d3","study_id":"60edd13110225f80f9f3709b","session_id":"6196ba73357de4e8d21c4e40","condition":"full-information","relevant_dimensions":["antennae","pattern"],"bee_group":{"antennae":"A","wings":"X","pattern":"S","legs":"X"},"action":"avoid","summary":"bad-avoid","bonus":1.740000000000001},{"rt":1029.300000011921,"stimulus":"\n                    <p><b>Action: <em>avoid</em></b></p>\n                    <p>This is the bee that you just saw.</p>\n                    <img src=\"bees-with-color/bee-B2SM.svg\" width=\"200\">\n                    <p><span class=\"redText\">Bad choice,</span> the bee was friendly.<br>Your bonus pay is unchanged, and remains at $0.52.</p>\n            ","response":0,"trial_type":"html-button-response","trial_index":38,"time_elapsed":590393,"internal_node_id":"0.0-4.0-1.13","subject_id":"5c0e94f62932300001e2e0d3","study_id":"60edd13110225f80f9f3709b","session_id":"6196ba73357de4e8d21c4e40","condition":"full-information","relevant_dimensions":["antennae","pattern"],"bee_group":{"antennae":"A","wings":"X","pattern":"S","legs":"X"},"bonus":1.740000000000001},{"rt":3101.099999964237,"stimulus":"bees-with-color/bee-A1SF.svg","response":1,"trial_type":"image-button-response","trial_index":39,"time_elapsed":593497,"internal_node_id":"0.0-4.0-0.14","subject_id":"5c0e94f62932300001e2e0d3","study_id":"60edd13110225f80f9f3709b","session_id":"6196ba73357de4e8d21c4e40","condition":"full-information","relevant_dimensions":["antennae","pattern"],"bee_group":{"antennae":"A","wings":"X","pattern":"S","legs":"X"},"action":"avoid","summary":"good-avoid","bonus":1.740000000000001},{"rt":890.1999999880791,"stimulus":"\n                    <p><b>Action: <em>avoid</em></b></p>\n                    <p>This is the bee that you just saw.</p>\n                    <img src=\"bees-with-color/bee-A1SF.svg\" width=\"200\">\n                    <p><span class=\"greenText\">Good choice!</span>  This bee would have stung you.<br>Your bonus pay is unchanged, and remains at $0.52.</p>\n            ","response":0,"trial_type":"html-button-response","trial_index":40,"time_elapsed":594390,"internal_node_id":"0.0-4.0-1.14","subject_id":"5c0e94f62932300001e2e0d3","study_id":"60edd13110225f80f9f3709b","session_id":"6196ba73357de4e8d21c4e40","condition":"full-information","relevant_dimensions":["antennae","pattern"],"bee_group":{"antennae":"A","wings":"X","pattern":"S","legs":"X"},"bonus":1.740000000000001},{"rt":3231.399999976158,"stimulus":"bees-with-color/bee-A1DM.svg","response":0,"trial_type":"image-button-response","trial_index":41,"time_elapsed":597623,"internal_node_id":"0.0-4.0-0.15","subject_id":"5c0e94f62932300001e2e0d3","study_id":"60edd13110225f80f9f3709b","session_id":"6196ba73357de4e8d21c4e40","condition":"full-information","relevant_dimensions":["antennae","pattern"],"bee_group":{"antennae":"A","wings":"X","pattern":"S","legs":"X"},"action":"harvest","summary":"good-harvest","bonus":1.740000000000001},{"rt":1012.3999999761581,"stimulus":"\n                    <p><b>Action: <em>harvest</em></b></p>\n                    <p>This is the bee that you just saw.</p>\n                    <img src=\"bees-with-color/bee-A1DM.svg\" width=\"200\">\n                    <p><span class=\"greenText\"><b>Successful harvest!</b></span><br>Your pay has increased by $0.02. Your bonus pay is now $0.54.</p>\n            ","response":0,"trial_type":"html-button-response","trial_index":42,"time_elapsed":598639,"internal_node_id":"0.0-4.0-1.15","subject_id":"5c0e94f62932300001e2e0d3","study_id":"60edd13110225f80f9f3709b","session_id":"6196ba73357de4e8d21c4e40","condition":"full-information","relevant_dimensions":["antennae","pattern"],"bee_group":{"antennae":"A","wings":"X","pattern":"S","legs":"X"},"bonus":1.740000000000001},{"rt":1623,"stimulus":"bees-with-color/bee-A2DF.svg","response":0,"trial_type":"image-button-response","trial_index":43,"time_elapsed":600264,"internal_node_id":"0.0-4.0-0.16","subject_id":"5c0e94f62932300001e2e0d3","study_id":"60edd13110225f80f9f3709b","session_id":"6196ba73357de4e8d21c4e40","condition":"full-information","relevant_dimensions":["antennae","pattern"],"bee_group":{"antennae":"A","wings":"X","pattern":"S","legs":"X"},"action":"harvest","summary":"good-harvest","bonus":1.740000000000001},{"rt":780.3000000119209,"stimulus":"\n                    <p><b>Action: <em>harvest</em></b></p>\n                    <p>This is the bee that you just saw.</p>\n                    <img src=\"bees-with-color/bee-A2DF.svg\" width=\"200\">\n                    <p><span class=\"greenText\"><b>Successful harvest!</b></span><br>Your pay has increased by $0.02. Your bonus pay is now $0.56.</p>\n            ","response":0,"trial_type":"html-button-response","trial_index":44,"time_elapsed":601048,"internal_node_id":"0.0-4.0-1.16","subject_id":"5c0e94f62932300001e2e0d3","study_id":"60edd13110225f80f9f3709b","session_id":"6196ba73357de4e8d21c4e40","condition":"full-information","relevant_dimensions":["antennae","pattern"],"bee_group":{"antennae":"A","wings":"X","pattern":"S","legs":"X"},"bonus":1.740000000000001},{"rt":6146.899999976158,"stimulus":"bees-with-color/bee-A2SM.svg","response":1,"trial_type":"image-button-response","trial_index":45,"time_elapsed":607197,"internal_node_id":"0.0-4.0-0.17","subject_id":"5c0e94f62932300001e2e0d3","study_id":"60edd13110225f80f9f3709b","session_id":"6196ba73357de4e8d21c4e40","condition":"full-information","relevant_dimensions":["antennae","pattern"],"bee_group":{"antennae":"A","wings":"X","pattern":"S","legs":"X"},"action":"avoid","summary":"good-avoid","bonus":1.740000000000001},{"rt":823.3999999761581,"stimulus":"\n                    <p><b>Action: <em>avoid</em></b></p>\n                    <p>This is the bee that you just saw.</p>\n                    <img src=\"bees-with-color/bee-A2SM.svg\" width=\"200\">\n                    <p><span class=\"greenText\">Good choice!</span>  This bee would have stung you.<br>Your bonus pay is unchanged, and remains at $0.56.</p>\n            ","response":0,"trial_type":"html-button-response","trial_index":46,"time_elapsed":608023,"internal_node_id":"0.0-4.0-1.17","subject_id":"5c0e94f62932300001e2e0d3","study_id":"60edd13110225f80f9f3709b","session_id":"6196ba73357de4e8d21c4e40","condition":"full-information","relevant_dimensions":["antennae","pattern"],"bee_group":{"antennae":"A","wings":"X","pattern":"S","legs":"X"},"bonus":1.740000000000001},{"rt":3312.300000011921,"stimulus":"bees-with-color/bee-A1SF.svg","response":1,"trial_type":"image-button-response","trial_index":47,"time_elapsed":611337,"internal_node_id":"0.0-4.0-0.18","subject_id":"5c0e94f62932300001e2e0d3","study_id":"60edd13110225f80f9f3709b","session_id":"6196ba73357de4e8d21c4e40","condition":"full-information","relevant_dimensions":["antennae","pattern"],"bee_group":{"antennae":"A","wings":"X","pattern":"S","legs":"X"},"action":"avoid","summary":"good-avoid","bonus":1.740000000000001},{"rt":1015.5,"stimulus":"\n                    <p><b>Action: <em>avoid</em></b></p>\n                    <p>This is the bee that you just saw.</p>\n                    <img src=\"bees-with-color/bee-A1SF.svg\" width=\"200\">\n                    <p><span class=\"greenText\">Good choice!</span>  This bee would have stung you.<br>Your bonus pay is unchanged, and remains at $0.56.</p>\n            ","response":0,"trial_type":"html-button-response","trial_index":48,"time_elapsed":612354,"internal_node_id":"0.0-4.0-1.18","subject_id":"5c0e94f62932300001e2e0d3","study_id":"60edd13110225f80f9f3709b","session_id":"6196ba73357de4e8d21c4e40","condition":"full-information","relevant_dimensions":["antennae","pattern"],"bee_group":{"antennae":"A","wings":"X","pattern":"S","legs":"X"},"bonus":1.740000000000001},{"rt":2569.300000011921,"stimulus":"bees-with-color/bee-B2SF.svg","response":0,"trial_type":"image-button-response","trial_index":49,"time_elapsed":614925,"internal_node_id":"0.0-4.0-0.19","subject_id":"5c0e94f62932300001e2e0d3","study_id":"60edd13110225f80f9f3709b","session_id":"6196ba73357de4e8d21c4e40","condition":"full-information","relevant_dimensions":["antennae","pattern"],"bee_group":{"antennae":"A","wings":"X","pattern":"S","legs":"X"},"action":"harvest","summary":"good-harvest","bonus":1.740000000000001},{"rt":738,"stimulus":"\n                    <p><b>Action: <em>harvest</em></b></p>\n                    <p>This is the bee that you just saw.</p>\n                    <img src=\"bees-with-color/bee-B2SF.svg\" width=\"200\">\n                    <p><span class=\"greenText\"><b>Successful harvest!</b></span><br>Your pay has increased by $0.02. Your bonus pay is now $0.58.</p>\n            ","response":0,"trial_type":"html-button-response","trial_index":50,"time_elapsed":615664,"internal_node_id":"0.0-4.0-1.19","subject_id":"5c0e94f62932300001e2e0d3","study_id":"60edd13110225f80f9f3709b","session_id":"6196ba73357de4e8d21c4e40","condition":"full-information","relevant_dimensions":["antennae","pattern"],"bee_group":{"antennae":"A","wings":"X","pattern":"S","legs":"X"},"bonus":1.740000000000001},{"rt":1494.1000000238419,"stimulus":"bees-with-color/bee-B1DM.svg","response":0,"trial_type":"image-button-response","trial_index":51,"time_elapsed":617160,"internal_node_id":"0.0-4.0-0.20","subject_id":"5c0e94f62932300001e2e0d3","study_id":"60edd13110225f80f9f3709b","session_id":"6196ba73357de4e8d21c4e40","condition":"full-information","relevant_dimensions":["antennae","pattern"],"bee_group":{"antennae":"A","wings":"X","pattern":"S","legs":"X"},"action":"harvest","summary":"good-harvest","bonus":1.740000000000001},{"rt":733.3000000119209,"stimulus":"\n                    <p><b>Action: <em>harvest</em></b></p>\n                    <p>This is the bee that you just saw.</p>\n                    <img src=\"bees-with-color/bee-B1DM.svg\" width=\"200\">\n                    <p><span class=\"greenText\"><b>Successful harvest!</b></span><br>Your pay has increased by $0.02. Your bonus pay is now $0.60.</p>\n            ","response":0,"trial_type":"html-button-response","trial_index":52,"time_elapsed":617895,"internal_node_id":"0.0-4.0-1.20","subject_id":"5c0e94f62932300001e2e0d3","study_id":"60edd13110225f80f9f3709b","session_id":"6196ba73357de4e8d21c4e40","condition":"full-information","relevant_dimensions":["antennae","pattern"],"bee_group":{"antennae":"A","wings":"X","pattern":"S","legs":"X"},"bonus":1.740000000000001},{"rt":1127.699999988079,"stimulus":"bees-with-color/bee-B2DM.svg","response":0,"trial_type":"image-button-response","trial_index":53,"time_elapsed":619024,"internal_node_id":"0.0-4.0-0.21","subject_id":"5c0e94f62932300001e2e0d3","study_id":"60edd13110225f80f9f3709b","session_id":"6196ba73357de4e8d21c4e40","condition":"full-information","relevant_dimensions":["antennae","pattern"],"bee_group":{"antennae":"A","wings":"X","pattern":"S","legs":"X"},"action":"harvest","summary":"good-harvest","bonus":1.740000000000001},{"rt":620.3000000119209,"stimulus":"\n                    <p><b>Action: <em>harvest</em></b></p>\n                    <p>This is the bee that you just saw.</p>\n                    <img src=\"bees-with-color/bee-B2DM.svg\" width=\"200\">\n                    <p><span class=\"greenText\"><b>Successful harvest!</b></span><br>Your pay has increased by $0.02. Your bonus pay is now $0.62.</p>\n            ","response":0,"trial_type":"html-button-response","trial_index":54,"time_elapsed":619646,"internal_node_id":"0.0-4.0-1.21","subject_id":"5c0e94f62932300001e2e0d3","study_id":"60edd13110225f80f9f3709b","session_id":"6196ba73357de4e8d21c4e40","condition":"full-information","relevant_dimensions":["antennae","pattern"],"bee_group":{"antennae":"A","wings":"X","pattern":"S","legs":"X"},"bonus":1.740000000000001},{"rt":990.1000000238419,"stimulus":"bees-with-color/bee-B1DF.svg","response":0,"trial_type":"image-button-response","trial_index":55,"time_elapsed":620638,"internal_node_id":"0.0-4.0-0.22","subject_id":"5c0e94f62932300001e2e0d3","study_id":"60edd13110225f80f9f3709b","session_id":"6196ba73357de4e8d21c4e40","condition":"full-information","relevant_dimensions":["antennae","pattern"],"bee_group":{"antennae":"A","wings":"X","pattern":"S","legs":"X"},"action":"harvest","summary":"good-harvest","bonus":1.740000000000001},{"rt":746.1999999880791,"stimulus":"\n                    <p><b>Action: <em>harvest</em></b></p>\n                    <p>This is the bee that you just saw.</p>\n                    <img src=\"bees-with-color/bee-B1DF.svg\" width=\"200\">\n                    <p><span class=\"greenText\"><b>Successful harvest!</b></span><br>Your pay has increased by $0.02. Your bonus pay is now $0.64.</p>\n            ","response":0,"trial_type":"html-button-response","trial_index":56,"time_elapsed":621385,"internal_node_id":"0.0-4.0-1.22","subject_id":"5c0e94f62932300001e2e0d3","study_id":"60edd13110225f80f9f3709b","session_id":"6196ba73357de4e8d21c4e40","condition":"full-information","relevant_dimensions":["antennae","pattern"],"bee_group":{"antennae":"A","wings":"X","pattern":"S","legs":"X"},"bonus":1.740000000000001},{"rt":2191.399999976158,"stimulus":"bees-with-color/bee-B1SM.svg","response":0,"trial_type":"image-button-response","trial_index":57,"time_elapsed":623579,"internal_node_id":"0.0-4.0-0.23","subject_id":"5c0e94f62932300001e2e0d3","study_id":"60edd13110225f80f9f3709b","session_id":"6196ba73357de4e8d21c4e40","condition":"full-information","relevant_dimensions":["antennae","pattern"],"bee_group":{"antennae":"A","wings":"X","pattern":"S","legs":"X"},"action":"harvest","summary":"good-harvest","bonus":1.740000000000001},{"rt":901.2999999523163,"stimulus":"\n                    <p><b>Action: <em>harvest</em></b></p>\n                    <p>This is the bee that you just saw.</p>\n                    <img src=\"bees-with-color/bee-B1SM.svg\" width=\"200\">\n                    <p><span class=\"greenText\"><b>Successful harvest!</b></span><br>Your pay has increased by $0.02. Your bonus pay is now $0.66.</p>\n            ","response":0,"trial_type":"html-button-response","trial_index":58,"time_elapsed":624483,"internal_node_id":"0.0-4.0-1.23","subject_id":"5c0e94f62932300001e2e0d3","study_id":"60edd13110225f80f9f3709b","session_id":"6196ba73357de4e8d21c4e40","condition":"full-information","relevant_dimensions":["antennae","pattern"],"bee_group":{"antennae":"A","wings":"X","pattern":"S","legs":"X"},"bonus":1.740000000000001},{"rt":1668.9000000357628,"stimulus":"bees-with-color/bee-A2DM.svg","response":0,"trial_type":"image-button-response","trial_index":59,"time_elapsed":626152,"internal_node_id":"0.0-4.0-0.24","subject_id":"5c0e94f62932300001e2e0d3","study_id":"60edd13110225f80f9f3709b","session_id":"6196ba73357de4e8d21c4e40","condition":"full-information","relevant_dimensions":["antennae","pattern"],"bee_group":{"antennae":"A","wings":"X","pattern":"S","legs":"X"},"action":"harvest","summary":"good-harvest","bonus":1.740000000000001},{"rt":777.6000000238419,"stimulus":"\n                    <p><b>Action: <em>harvest</em></b></p>\n                    <p>This is the bee that you just saw.</p>\n                    <img src=\"bees-with-color/bee-A2DM.svg\" width=\"200\">\n                    <p><span class=\"greenText\"><b>Successful harvest!</b></span><br>Your pay has increased by $0.02. Your bonus pay is now $0.68.</p>\n            ","response":0,"trial_type":"html-button-response","trial_index":60,"time_elapsed":626931,"internal_node_id":"0.0-4.0-1.24","subject_id":"5c0e94f62932300001e2e0d3","study_id":"60edd13110225f80f9f3709b","session_id":"6196ba73357de4e8d21c4e40","condition":"full-information","relevant_dimensions":["antennae","pattern"],"bee_group":{"antennae":"A","wings":"X","pattern":"S","legs":"X"},"bonus":1.740000000000001},{"rt":1036,"stimulus":"bees-with-color/bee-B2DF.svg","response":0,"trial_type":"image-button-response","trial_index":61,"time_elapsed":627970,"internal_node_id":"0.0-4.0-0.25","subject_id":"5c0e94f62932300001e2e0d3","study_id":"60edd13110225f80f9f3709b","session_id":"6196ba73357de4e8d21c4e40","condition":"full-information","relevant_dimensions":["antennae","pattern"],"bee_group":{"antennae":"A","wings":"X","pattern":"S","legs":"X"},"action":"harvest","summary":"good-harvest","bonus":1.740000000000001},{"rt":929,"stimulus":"\n                    <p><b>Action: <em>harvest</em></b></p>\n                    <p>This is the bee that you just saw.</p>\n                    <img src=\"bees-with-color/bee-B2DF.svg\" width=\"200\">\n                    <p><span class=\"greenText\"><b>Successful harvest!</b></span><br>Your pay has increased by $0.02. Your bonus pay is now $0.70.</p>\n            ","response":0,"trial_type":"html-button-response","trial_index":62,"time_elapsed":628901,"internal_node_id":"0.0-4.0-1.25","subject_id":"5c0e94f62932300001e2e0d3","study_id":"60edd13110225f80f9f3709b","session_id":"6196ba73357de4e8d21c4e40","condition":"full-information","relevant_dimensions":["antennae","pattern"],"bee_group":{"antennae":"A","wings":"X","pattern":"S","legs":"X"},"bonus":1.740000000000001},{"rt":1882.800000011921,"stimulus":"bees-with-color/bee-B2SM.svg","response":0,"trial_type":"image-button-response","trial_index":63,"time_elapsed":630785,"internal_node_id":"0.0-4.0-0.26","subject_id":"5c0e94f62932300001e2e0d3","study_id":"60edd13110225f80f9f3709b","session_id":"6196ba73357de4e8d21c4e40","condition":"full-information","relevant_dimensions":["antennae","pattern"],"bee_group":{"antennae":"A","wings":"X","pattern":"S","legs":"X"},"action":"harvest","summary":"good-harvest","bonus":1.740000000000001},{"rt":809.5999999642372,"stimulus":"\n                    <p><b>Action: <em>harvest</em></b></p>\n                    <p>This is the bee that you just saw.</p>\n                    <img src=\"bees-with-color/bee-B2SM.svg\" width=\"200\">\n                    <p><span class=\"greenText\"><b>Successful harvest!</b></span><br>Your pay has increased by $0.02. Your bonus pay is now $0.72.</p>\n            ","response":0,"trial_type":"html-button-response","trial_index":64,"time_elapsed":631596,"internal_node_id":"0.0-4.0-1.26","subject_id":"5c0e94f62932300001e2e0d3","study_id":"60edd13110225f80f9f3709b","session_id":"6196ba73357de4e8d21c4e40","condition":"full-information","relevant_dimensions":["antennae","pattern"],"bee_group":{"antennae":"A","wings":"X","pattern":"S","legs":"X"},"bonus":1.740000000000001},{"rt":1372.300000011921,"stimulus":"bees-with-color/bee-B1SF.svg","response":0,"trial_type":"image-button-response","trial_index":65,"time_elapsed":632970,"internal_node_id":"0.0-4.0-0.27","subject_id":"5c0e94f62932300001e2e0d3","study_id":"60edd13110225f80f9f3709b","session_id":"6196ba73357de4e8d21c4e40","condition":"full-information","relevant_dimensions":["antennae","pattern"],"bee_group":{"antennae":"A","wings":"X","pattern":"S","legs":"X"},"action":"harvest","summary":"good-harvest","bonus":1.740000000000001},{"rt":2168.399999976158,"stimulus":"\n                    <p><b>Action: <em>harvest</em></b></p>\n                    <p>This is the bee that you just saw.</p>\n                    <img src=\"bees-with-color/bee-B1SF.svg\" width=\"200\">\n                    <p><span class=\"greenText\"><b>Successful harvest!</b></span><br>Your pay has increased by $0.02. Your bonus pay is now $0.74.</p>\n            ","response":0,"trial_type":"html-button-response","trial_index":66,"time_elapsed":635140,"internal_node_id":"0.0-4.0-1.27","subject_id":"5c0e94f62932300001e2e0d3","study_id":"60edd13110225f80f9f3709b","session_id":"6196ba73357de4e8d21c4e40","condition":"full-information","relevant_dimensions":["antennae","pattern"],"bee_group":{"antennae":"A","wings":"X","pattern":"S","legs":"X"},"bonus":1.740000000000001},{"rt":2403.099999964237,"stimulus":"bees-with-color/bee-A1DM.svg","response":0,"trial_type":"image-button-response","trial_index":67,"time_elapsed":637545,"internal_node_id":"0.0-4.0-0.28","subject_id":"5c0e94f62932300001e2e0d3","study_id":"60edd13110225f80f9f3709b","session_id":"6196ba73357de4e8d21c4e40","condition":"full-information","relevant_dimensions":["antennae","pattern"],"bee_group":{"antennae":"A","wings":"X","pattern":"S","legs":"X"},"action":"harvest","summary":"good-harvest","bonus":1.740000000000001},{"rt":873.3999999761581,"stimulus":"\n                    <p><b>Action: <em>harvest</em></b></p>\n                    <p>This is the bee that you just saw.</p>\n                    <img src=\"bees-with-color/bee-A1DM.svg\" width=\"200\">\n                    <p><span class=\"greenText\"><b>Successful harvest!</b></span><br>Your pay has increased by $0.02. Your bonus pay is now $0.76.</p>\n            ","response":0,"trial_type":"html-button-response","trial_index":68,"time_elapsed":638420,"internal_node_id":"0.0-4.0-1.28","subject_id":"5c0e94f62932300001e2e0d3","study_id":"60edd13110225f80f9f3709b","session_id":"6196ba73357de4e8d21c4e40","condition":"full-information","relevant_dimensions":["antennae","pattern"],"bee_group":{"antennae":"A","wings":"X","pattern":"S","legs":"X"},"bonus":1.740000000000001},{"rt":1308,"stimulus":"bees-with-color/bee-A1SM.svg","response":1,"trial_type":"image-button-response","trial_index":69,"time_elapsed":639731,"internal_node_id":"0.0-4.0-0.29","subject_id":"5c0e94f62932300001e2e0d3","study_id":"60edd13110225f80f9f3709b","session_id":"6196ba73357de4e8d21c4e40","condition":"full-information","relevant_dimensions":["antennae","pattern"],"bee_group":{"antennae":"A","wings":"X","pattern":"S","legs":"X"},"action":"avoid","summary":"good-avoid","bonus":1.740000000000001},{"rt":690.4000000357628,"stimulus":"\n                    <p><b>Action: <em>avoid</em></b></p>\n                    <p>This is the bee that you just saw.</p>\n                    <img src=\"bees-with-color/bee-A1SM.svg\" width=\"200\">\n                    <p><span class=\"greenText\">Good choice!</span>  This bee would have stung you.<br>Your bonus pay is unchanged, and remains at $0.76.</p>\n            ","response":0,"trial_type":"html-button-response","trial_index":70,"time_elapsed":640423,"internal_node_id":"0.0-4.0-1.29","subject_id":"5c0e94f62932300001e2e0d3","study_id":"60edd13110225f80f9f3709b","session_id":"6196ba73357de4e8d21c4e40","condition":"full-information","relevant_dimensions":["antennae","pattern"],"bee_group":{"antennae":"A","wings":"X","pattern":"S","legs":"X"},"bonus":1.740000000000001},{"rt":7532.899999976158,"stimulus":"bees-with-color/bee-A2SF.svg","response":1,"trial_type":"image-button-response","trial_index":71,"time_elapsed":647958,"internal_node_id":"0.0-4.0-0.30","subject_id":"5c0e94f62932300001e2e0d3","study_id":"60edd13110225f80f9f3709b","session_id":"6196ba73357de4e8d21c4e40","condition":"full-information","relevant_dimensions":["antennae","pattern"],"bee_group":{"antennae":"A","wings":"X","pattern":"S","legs":"X"},"action":"avoid","summary":"good-avoid","bonus":1.740000000000001},{"rt":1045.7000000476837,"stimulus":"\n                    <p><b>Action: <em>avoid</em></b></p>\n                    <p>This is the bee that you just saw.</p>\n                    <img src=\"bees-with-color/bee-A2SF.svg\" width=\"200\">\n                    <p><span class=\"greenText\">Good choice!</span>  This bee would have stung you.<br>Your bonus pay is unchanged, and remains at $0.76.</p>\n            ","response":0,"trial_type":"html-button-response","trial_index":72,"time_elapsed":649006,"internal_node_id":"0.0-4.0-1.30","subject_id":"5c0e94f62932300001e2e0d3","study_id":"60edd13110225f80f9f3709b","session_id":"6196ba73357de4e8d21c4e40","condition":"full-information","relevant_dimensions":["antennae","pattern"],"bee_group":{"antennae":"A","wings":"X","pattern":"S","legs":"X"},"bonus":1.740000000000001},{"rt":1026.300000011921,"stimulus":"bees-with-color/bee-A1DF.svg","response":0,"trial_type":"image-button-response","trial_index":73,"time_elapsed":650034,"internal_node_id":"0.0-4.0-0.31","subject_id":"5c0e94f62932300001e2e0d3","study_id":"60edd13110225f80f9f3709b","session_id":"6196ba73357de4e8d21c4e40","condition":"full-information","relevant_dimensions":["antennae","pattern"],"bee_group":{"antennae":"A","wings":"X","pattern":"S","legs":"X"},"action":"harvest","summary":"good-harvest","bonus":1.740000000000001},{"rt":671.6000000238419,"stimulus":"\n                    <p><b>Action: <em>harvest</em></b></p>\n                    <p>This is the bee that you just saw.</p>\n                    <img src=\"bees-with-color/bee-A1DF.svg\" width=\"200\">\n                    <p><span class=\"greenText\"><b>Successful harvest!</b></span><br>Your pay has increased by $0.02. Your bonus pay is now $0.78.</p>\n            ","response":0,"trial_type":"html-button-response","trial_index":74,"time_elapsed":650707,"internal_node_id":"0.0-4.0-1.31","subject_id":"5c0e94f62932300001e2e0d3","study_id":"60edd13110225f80f9f3709b","session_id":"6196ba73357de4e8d21c4e40","condition":"full-information","relevant_dimensions":["antennae","pattern"],"bee_group":{"antennae":"A","wings":"X","pattern":"S","legs":"X"},"bonus":1.740000000000001},{"rt":2693.800000011921,"stimulus":"bees-with-color/bee-A1SM.svg","response":1,"trial_type":"image-button-response","trial_index":75,"time_elapsed":653402,"internal_node_id":"0.0-4.0-0.32","subject_id":"5c0e94f62932300001e2e0d3","study_id":"60edd13110225f80f9f3709b","session_id":"6196ba73357de4e8d21c4e40","condition":"full-information","relevant_dimensions":["antennae","pattern"],"bee_group":{"antennae":"A","wings":"X","pattern":"S","legs":"X"},"action":"avoid","summary":"good-avoid","bonus":1.740000000000001},{"rt":893.5999999642372,"stimulus":"\n                    <p><b>Action: <em>avoid</em></b></p>\n                    <p>This is the bee that you just saw.</p>\n                    <img src=\"bees-with-color/bee-A1SM.svg\" width=\"200\">\n                    <p><span class=\"greenText\">Good choice!</span>  This bee would have stung you.<br>Your bonus pay is unchanged, and remains at $0.78.</p>\n            ","response":0,"trial_type":"html-button-response","trial_index":76,"time_elapsed":654297,"internal_node_id":"0.0-4.0-1.32","subject_id":"5c0e94f62932300001e2e0d3","study_id":"60edd13110225f80f9f3709b","session_id":"6196ba73357de4e8d21c4e40","condition":"full-information","relevant_dimensions":["antennae","pattern"],"bee_group":{"antennae":"A","wings":"X","pattern":"S","legs":"X"},"bonus":1.740000000000001},{"rt":1052.5,"stimulus":"bees-with-color/bee-B2DF.svg","response":0,"trial_type":"image-button-response","trial_index":77,"time_elapsed":655351,"internal_node_id":"0.0-4.0-0.33","subject_id":"5c0e94f62932300001e2e0d3","study_id":"60edd13110225f80f9f3709b","session_id":"6196ba73357de4e8d21c4e40","condition":"full-information","relevant_dimensions":["antennae","pattern"],"bee_group":{"antennae":"A","wings":"X","pattern":"S","legs":"X"},"action":"harvest","summary":"good-harvest","bonus":1.740000000000001},{"rt":721.5999999642372,"stimulus":"\n                    <p><b>Action: <em>harvest</em></b></p>\n                    <p>This is the bee that you just saw.</p>\n                    <img src=\"bees-with-color/bee-B2DF.svg\" width=\"200\">\n                    <p><span class=\"greenText\"><b>Successful harvest!</b></span><br>Your pay has increased by $0.02. Your bonus pay is now $0.80.</p>\n            ","response":0,"trial_type":"html-button-response","trial_index":78,"time_elapsed":656074,"internal_node_id":"0.0-4.0-1.33","subject_id":"5c0e94f62932300001e2e0d3","study_id":"60edd13110225f80f9f3709b","session_id":"6196ba73357de4e8d21c4e40","condition":"full-information","relevant_dimensions":["antennae","pattern"],"bee_group":{"antennae":"A","wings":"X","pattern":"S","legs":"X"},"bonus":1.740000000000001},{"rt":1687.699999988079,"stimulus":"bees-with-color/bee-A1DM.svg","response":0,"trial_type":"image-button-response","trial_index":79,"time_elapsed":657763,"internal_node_id":"0.0-4.0-0.34","subject_id":"5c0e94f62932300001e2e0d3","study_id":"60edd13110225f80f9f3709b","session_id":"6196ba73357de4e8d21c4e40","condition":"full-information","relevant_dimensions":["antennae","pattern"],"bee_group":{"antennae":"A","wings":"X","pattern":"S","legs":"X"},"action":"harvest","summary":"good-harvest","bonus":1.740000000000001},{"rt":578.2999999523163,"stimulus":"\n                    <p><b>Action: <em>harvest</em></b></p>\n                    <p>This is the bee that you just saw.</p>\n                    <img src=\"bees-with-color/bee-A1DM.svg\" width=\"200\">\n                    <p><span class=\"greenText\"><b>Successful harvest!</b></span><br>Your pay has increased by $0.02. Your bonus pay is now $0.82.</p>\n            ","response":0,"trial_type":"html-button-response","trial_index":80,"time_elapsed":658346,"internal_node_id":"0.0-4.0-1.34","subject_id":"5c0e94f62932300001e2e0d3","study_id":"60edd13110225f80f9f3709b","session_id":"6196ba73357de4e8d21c4e40","condition":"full-information","relevant_dimensions":["antennae","pattern"],"bee_group":{"antennae":"A","wings":"X","pattern":"S","legs":"X"},"bonus":1.740000000000001},{"rt":4379,"stimulus":"bees-with-color/bee-A1SF.svg","response":1,"trial_type":"image-button-response","trial_index":81,"time_elapsed":662726,"internal_node_id":"0.0-4.0-0.35","subject_id":"5c0e94f62932300001e2e0d3","study_id":"60edd13110225f80f9f3709b","session_id":"6196ba73357de4e8d21c4e40","condition":"full-information","relevant_dimensions":["antennae","pattern"],"bee_group":{"antennae":"A","wings":"X","pattern":"S","legs":"X"},"action":"avoid","summary":"good-avoid","bonus":1.740000000000001},{"rt":652.1999999880791,"stimulus":"\n                    <p><b>Action: <em>avoid</em></b></p>\n                    <p>This is the bee that you just saw.</p>\n                    <img src=\"bees-with-color/bee-A1SF.svg\" width=\"200\">\n                    <p><span class=\"greenText\">Good choice!</span>  This bee would have stung you.<br>Your bonus pay is unchanged, and remains at $0.82.</p>\n            ","response":0,"trial_type":"html-button-response","trial_index":82,"time_elapsed":663380,"internal_node_id":"0.0-4.0-1.35","subject_id":"5c0e94f62932300001e2e0d3","study_id":"60edd13110225f80f9f3709b","session_id":"6196ba73357de4e8d21c4e40","condition":"full-information","relevant_dimensions":["antennae","pattern"],"bee_group":{"antennae":"A","wings":"X","pattern":"S","legs":"X"},"bonus":1.740000000000001},{"rt":1039.9000000357628,"stimulus":"bees-with-color/bee-A2DM.svg","response":0,"trial_type":"image-button-response","trial_index":83,"time_elapsed":664422,"internal_node_id":"0.0-4.0-0.36","subject_id":"5c0e94f62932300001e2e0d3","study_id":"60edd13110225f80f9f3709b","session_id":"6196ba73357de4e8d21c4e40","condition":"full-information","relevant_dimensions":["antennae","pattern"],"bee_group":{"antennae":"A","wings":"X","pattern":"S","legs":"X"},"action":"harvest","summary":"good-harvest","bonus":1.740000000000001},{"rt":543.5,"stimulus":"\n                    <p><b>Action: <em>harvest</em></b></p>\n                    <p>This is the bee that you just saw.</p>\n                    <img src=\"bees-with-color/bee-A2DM.svg\" width=\"200\">\n                    <p><span class=\"greenText\"><b>Successful harvest!</b></span><br>Your pay has increased by $0.02. Your bonus pay is now $0.84.</p>\n            ","response":0,"trial_type":"html-button-response","trial_index":84,"time_elapsed":664967,"internal_node_id":"0.0-4.0-1.36","subject_id":"5c0e94f62932300001e2e0d3","study_id":"60edd13110225f80f9f3709b","session_id":"6196ba73357de4e8d21c4e40","condition":"full-information","relevant_dimensions":["antennae","pattern"],"bee_group":{"antennae":"A","wings":"X","pattern":"S","legs":"X"},"bonus":1.740000000000001},{"rt":825.2999999523163,"stimulus":"bees-with-color/bee-B2DM.svg","response":0,"trial_type":"image-button-response","trial_index":85,"time_elapsed":665793,"internal_node_id":"0.0-4.0-0.37","subject_id":"5c0e94f62932300001e2e0d3","study_id":"60edd13110225f80f9f3709b","session_id":"6196ba73357de4e8d21c4e40","condition":"full-information","relevant_dimensions":["antennae","pattern"],"bee_group":{"antennae":"A","wings":"X","pattern":"S","legs":"X"},"action":"harvest","summary":"good-harvest","bonus":1.740000000000001},{"rt":520.5,"stimulus":"\n                    <p><b>Action: <em>harvest</em></b></p>\n                    <p>This is the bee that you just saw.</p>\n                    <img src=\"bees-with-color/bee-B2DM.svg\" width=\"200\">\n                    <p><span class=\"greenText\"><b>Successful harvest!</b></span><br>Your pay has increased by $0.02. Your bonus pay is now $0.86.</p>\n            ","response":0,"trial_type":"html-button-response","trial_index":86,"time_elapsed":666315,"internal_node_id":"0.0-4.0-1.37","subject_id":"5c0e94f62932300001e2e0d3","study_id":"60edd13110225f80f9f3709b","session_id":"6196ba73357de4e8d21c4e40","condition":"full-information","relevant_dimensions":["antennae","pattern"],"bee_group":{"antennae":"A","wings":"X","pattern":"S","legs":"X"},"bonus":1.740000000000001},{"rt":1713.1000000238419,"stimulus":"bees-with-color/bee-B2SF.svg","response":0,"trial_type":"image-button-response","trial_index":87,"time_elapsed":668029,"internal_node_id":"0.0-4.0-0.38","subject_id":"5c0e94f62932300001e2e0d3","study_id":"60edd13110225f80f9f3709b","session_id":"6196ba73357de4e8d21c4e40","condition":"full-information","relevant_dimensions":["antennae","pattern"],"bee_group":{"antennae":"A","wings":"X","pattern":"S","legs":"X"},"action":"harvest","summary":"good-harvest","bonus":1.740000000000001},{"rt":648.2999999523163,"stimulus":"\n                    <p><b>Action: <em>harvest</em></b></p>\n                    <p>This is the bee that you just saw.</p>\n                    <img src=\"bees-with-color/bee-B2SF.svg\" width=\"200\">\n                    <p><span class=\"greenText\"><b>Successful harvest!</b></span><br>Your pay has increased by $0.02. Your bonus pay is now $0.88.</p>\n            ","response":0,"trial_type":"html-button-response","trial_index":88,"time_elapsed":668679,"internal_node_id":"0.0-4.0-1.38","subject_id":"5c0e94f62932300001e2e0d3","study_id":"60edd13110225f80f9f3709b","session_id":"6196ba73357de4e8d21c4e40","condition":"full-information","relevant_dimensions":["antennae","pattern"],"bee_group":{"antennae":"A","wings":"X","pattern":"S","legs":"X"},"bonus":1.740000000000001},{"rt":994,"stimulus":"bees-with-color/bee-A2DF.svg","response":0,"trial_type":"image-button-response","trial_index":89,"time_elapsed":669674,"internal_node_id":"0.0-4.0-0.39","subject_id":"5c0e94f62932300001e2e0d3","study_id":"60edd13110225f80f9f3709b","session_id":"6196ba73357de4e8d21c4e40","condition":"full-information","relevant_dimensions":["antennae","pattern"],"bee_group":{"antennae":"A","wings":"X","pattern":"S","legs":"X"},"action":"harvest","summary":"good-harvest","bonus":1.740000000000001},{"rt":659.6999999880791,"stimulus":"\n                    <p><b>Action: <em>harvest</em></b></p>\n                    <p>This is the bee that you just saw.</p>\n                    <img src=\"bees-with-color/bee-A2DF.svg\" width=\"200\">\n                    <p><span class=\"greenText\"><b>Successful harvest!</b></span><br>Your pay has increased by $0.02. Your bonus pay is now $0.90.</p>\n            ","response":0,"trial_type":"html-button-response","trial_index":90,"time_elapsed":670335,"internal_node_id":"0.0-4.0-1.39","subject_id":"5c0e94f62932300001e2e0d3","study_id":"60edd13110225f80f9f3709b","session_id":"6196ba73357de4e8d21c4e40","condition":"full-information","relevant_dimensions":["antennae","pattern"],"bee_group":{"antennae":"A","wings":"X","pattern":"S","legs":"X"},"bonus":1.740000000000001},{"rt":983,"stimulus":"bees-with-color/bee-A1DF.svg","response":0,"trial_type":"image-button-response","trial_index":91,"time_elapsed":671319,"internal_node_id":"0.0-4.0-0.40","subject_id":"5c0e94f62932300001e2e0d3","study_id":"60edd13110225f80f9f3709b","session_id":"6196ba73357de4e8d21c4e40","condition":"full-information","relevant_dimensions":["antennae","pattern"],"bee_group":{"antennae":"A","wings":"X","pattern":"S","legs":"X"},"action":"harvest","summary":"good-harvest","bonus":1.740000000000001},{"rt":627.6999999880791,"stimulus":"\n                    <p><b>Action: <em>harvest</em></b></p>\n                    <p>This is the bee that you just saw.</p>\n                    <img src=\"bees-with-color/bee-A1DF.svg\" width=\"200\">\n                    <p><span class=\"greenText\"><b>Successful harvest!</b></span><br>Your pay has increased by $0.02. Your bonus pay is now $0.92.</p>\n            ","response":0,"trial_type":"html-button-response","trial_index":92,"time_elapsed":671948,"internal_node_id":"0.0-4.0-1.40","subject_id":"5c0e94f62932300001e2e0d3","study_id":"60edd13110225f80f9f3709b","session_id":"6196ba73357de4e8d21c4e40","condition":"full-information","relevant_dimensions":["antennae","pattern"],"bee_group":{"antennae":"A","wings":"X","pattern":"S","legs":"X"},"bonus":1.740000000000001},{"rt":1405.7999999523163,"stimulus":"bees-with-color/bee-B1SF.svg","response":0,"trial_type":"image-button-response","trial_index":93,"time_elapsed":673355,"internal_node_id":"0.0-4.0-0.41","subject_id":"5c0e94f62932300001e2e0d3","study_id":"60edd13110225f80f9f3709b","session_id":"6196ba73357de4e8d21c4e40","condition":"full-information","relevant_dimensions":["antennae","pattern"],"bee_group":{"antennae":"A","wings":"X","pattern":"S","legs":"X"},"action":"harvest","summary":"good-harvest","bonus":1.740000000000001},{"rt":589.1999999880791,"stimulus":"\n                    <p><b>Action: <em>harvest</em></b></p>\n                    <p>This is the bee that you just saw.</p>\n                    <img src=\"bees-with-color/bee-B1SF.svg\" width=\"200\">\n                    <p><span class=\"greenText\"><b>Successful harvest!</b></span><br>Your pay has increased by $0.02. Your bonus pay is now $0.94.</p>\n            ","response":0,"trial_type":"html-button-response","trial_index":94,"time_elapsed":673946,"internal_node_id":"0.0-4.0-1.41","subject_id":"5c0e94f62932300001e2e0d3","study_id":"60edd13110225f80f9f3709b","session_id":"6196ba73357de4e8d21c4e40","condition":"full-information","relevant_dimensions":["antennae","pattern"],"bee_group":{"antennae":"A","wings":"X","pattern":"S","legs":"X"},"bonus":1.740000000000001},{"rt":2998,"stimulus":"bees-with-color/bee-B2SM.svg","response":0,"trial_type":"image-button-response","trial_index":95,"time_elapsed":676945,"internal_node_id":"0.0-4.0-0.42","subject_id":"5c0e94f62932300001e2e0d3","study_id":"60edd13110225f80f9f3709b","session_id":"6196ba73357de4e8d21c4e40","condition":"full-information","relevant_dimensions":["antennae","pattern"],"bee_group":{"antennae":"A","wings":"X","pattern":"S","legs":"X"},"action":"harvest","summary":"good-harvest","bonus":1.740000000000001},{"rt":764.4000000357628,"stimulus":"\n                    <p><b>Action: <em>harvest</em></b></p>\n                    <p>This is the bee that you just saw.</p>\n                    <img src=\"bees-with-color/bee-B2SM.svg\" width=\"200\">\n                    <p><span class=\"greenText\"><b>Successful harvest!</b></span><br>Your pay has increased by $0.02. Your bonus pay is now $0.96.</p>\n            ","response":0,"trial_type":"html-button-response","trial_index":96,"time_elapsed":677711,"internal_node_id":"0.0-4.0-1.42","subject_id":"5c0e94f62932300001e2e0d3","study_id":"60edd13110225f80f9f3709b","session_id":"6196ba73357de4e8d21c4e40","condition":"full-information","relevant_dimensions":["antennae","pattern"],"bee_group":{"antennae":"A","wings":"X","pattern":"S","legs":"X"},"bonus":1.740000000000001},{"rt":1753.3999999761581,"stimulus":"bees-with-color/bee-A2SM.svg","response":1,"trial_type":"image-button-response","trial_index":97,"time_elapsed":679466,"internal_node_id":"0.0-4.0-0.43","subject_id":"5c0e94f62932300001e2e0d3","study_id":"60edd13110225f80f9f3709b","session_id":"6196ba73357de4e8d21c4e40","condition":"full-information","relevant_dimensions":["antennae","pattern"],"bee_group":{"antennae":"A","wings":"X","pattern":"S","legs":"X"},"action":"avoid","summary":"good-avoid","bonus":1.740000000000001},{"rt":2523.300000011921,"stimulus":"\n                    <p><b>Action: <em>avoid</em></b></p>\n                    <p>This is the bee that you just saw.</p>\n                    <img src=\"bees-with-color/bee-A2SM.svg\" width=\"200\">\n                    <p><span class=\"greenText\">Good choice!</span>  This bee would have stung you.<br>Your bonus pay is unchanged, and remains at $0.96.</p>\n            ","response":0,"trial_type":"html-button-response","trial_index":98,"time_elapsed":681991,"internal_node_id":"0.0-4.0-1.43","subject_id":"5c0e94f62932300001e2e0d3","study_id":"60edd13110225f80f9f3709b","session_id":"6196ba73357de4e8d21c4e40","condition":"full-information","relevant_dimensions":["antennae","pattern"],"bee_group":{"antennae":"A","wings":"X","pattern":"S","legs":"X"},"bonus":1.740000000000001},{"rt":1123.800000011921,"stimulus":"bees-with-color/bee-B1SM.svg","response":0,"trial_type":"image-button-response","trial_index":99,"time_elapsed":683116,"internal_node_id":"0.0-4.0-0.44","subject_id":"5c0e94f62932300001e2e0d3","study_id":"60edd13110225f80f9f3709b","session_id":"6196ba73357de4e8d21c4e40","condition":"full-information","relevant_dimensions":["antennae","pattern"],"bee_group":{"antennae":"A","wings":"X","pattern":"S","legs":"X"},"action":"harvest","summary":"good-harvest","bonus":1.740000000000001},{"rt":582.5,"stimulus":"\n                    <p><b>Action: <em>harvest</em></b></p>\n                    <p>This is the bee that you just saw.</p>\n                    <img src=\"bees-with-color/bee-B1SM.svg\" width=\"200\">\n                    <p><span class=\"greenText\"><b>Successful harvest!</b></span><br>Your pay has increased by $0.02. Your bonus pay is now $0.98.</p>\n            ","response":0,"trial_type":"html-button-response","trial_index":100,"time_elapsed":683700,"internal_node_id":"0.0-4.0-1.44","subject_id":"5c0e94f62932300001e2e0d3","study_id":"60edd13110225f80f9f3709b","session_id":"6196ba73357de4e8d21c4e40","condition":"full-information","relevant_dimensions":["antennae","pattern"],"bee_group":{"antennae":"A","wings":"X","pattern":"S","legs":"X"},"bonus":1.740000000000001},{"rt":1815.300000011921,"stimulus":"bees-with-color/bee-B1DM.svg","response":0,"trial_type":"image-button-response","trial_index":101,"time_elapsed":685516,"internal_node_id":"0.0-4.0-0.45","subject_id":"5c0e94f62932300001e2e0d3","study_id":"60edd13110225f80f9f3709b","session_id":"6196ba73357de4e8d21c4e40","condition":"full-information","relevant_dimensions":["antennae","pattern"],"bee_group":{"antennae":"A","wings":"X","pattern":"S","legs":"X"},"action":"harvest","summary":"good-harvest","bonus":1.740000000000001},{"rt":827.6999999880791,"stimulus":"\n                    <p><b>Action: <em>harvest</em></b></p>\n                    <p>This is the bee that you just saw.</p>\n                    <img src=\"bees-with-color/bee-B1DM.svg\" width=\"200\">\n                    <p><span class=\"greenText\"><b>Successful harvest!</b></span><br>Your pay has increased by $0.02. Your bonus pay is now $1.00.</p>\n            ","response":0,"trial_type":"html-button-response","trial_index":102,"time_elapsed":686345,"internal_node_id":"0.0-4.0-1.45","subject_id":"5c0e94f62932300001e2e0d3","study_id":"60edd13110225f80f9f3709b","session_id":"6196ba73357de4e8d21c4e40","condition":"full-information","relevant_dimensions":["antennae","pattern"],"bee_group":{"antennae":"A","wings":"X","pattern":"S","legs":"X"},"bonus":1.740000000000001},{"rt":1822.9000000357628,"stimulus":"bees-with-color/bee-A2SF.svg","response":1,"trial_type":"image-button-response","trial_index":103,"time_elapsed":688169,"internal_node_id":"0.0-4.0-0.46","subject_id":"5c0e94f62932300001e2e0d3","study_id":"60edd13110225f80f9f3709b","session_id":"6196ba73357de4e8d21c4e40","condition":"full-information","relevant_dimensions":["antennae","pattern"],"bee_group":{"antennae":"A","wings":"X","pattern":"S","legs":"X"},"action":"avoid","summary":"good-avoid","bonus":1.740000000000001},{"rt":817.5,"stimulus":"\n                    <p><b>Action: <em>avoid</em></b></p>\n                    <p>This is the bee that you just saw.</p>\n                    <img src=\"bees-with-color/bee-A2SF.svg\" width=\"200\">\n                    <p><span class=\"greenText\">Good choice!</span>  This bee would have stung you.<br>Your bonus pay is unchanged, and remains at $1.00.</p>\n            ","response":0,"trial_type":"html-button-response","trial_index":104,"time_elapsed":688988,"internal_node_id":"0.0-4.0-1.46","subject_id":"5c0e94f62932300001e2e0d3","study_id":"60edd13110225f80f9f3709b","session_id":"6196ba73357de4e8d21c4e40","condition":"full-information","relevant_dimensions":["antennae","pattern"],"bee_group":{"antennae":"A","wings":"X","pattern":"S","legs":"X"},"bonus":1.740000000000001},{"rt":1074.8999999761581,"stimulus":"bees-with-color/bee-B1DF.svg","response":0,"trial_type":"image-button-response","trial_index":105,"time_elapsed":690064,"internal_node_id":"0.0-4.0-0.47","subject_id":"5c0e94f62932300001e2e0d3","study_id":"60edd13110225f80f9f3709b","session_id":"6196ba73357de4e8d21c4e40","condition":"full-information","relevant_dimensions":["antennae","pattern"],"bee_group":{"antennae":"A","wings":"X","pattern":"S","legs":"X"},"action":"harvest","summary":"good-harvest","bonus":1.740000000000001},{"rt":631.5,"stimulus":"\n                    <p><b>Action: <em>harvest</em></b></p>\n                    <p>This is the bee that you just saw.</p>\n                    <img src=\"bees-with-color/bee-B1DF.svg\" width=\"200\">\n                    <p><span class=\"greenText\"><b>Successful harvest!</b></span><br>Your pay has increased by $0.02. Your bonus pay is now $1.02.</p>\n            ","response":0,"trial_type":"html-button-response","trial_index":106,"time_elapsed":690697,"internal_node_id":"0.0-4.0-1.47","subject_id":"5c0e94f62932300001e2e0d3","study_id":"60edd13110225f80f9f3709b","session_id":"6196ba73357de4e8d21c4e40","condition":"full-information","relevant_dimensions":["antennae","pattern"],"bee_group":{"antennae":"A","wings":"X","pattern":"S","legs":"X"},"bonus":1.740000000000001},{"rt":1133.1000000238419,"stimulus":"bees-with-color/bee-A2SF.svg","response":1,"trial_type":"image-button-response","trial_index":107,"time_elapsed":691831,"internal_node_id":"0.0-4.0-0.48","subject_id":"5c0e94f62932300001e2e0d3","study_id":"60edd13110225f80f9f3709b","session_id":"6196ba73357de4e8d21c4e40","condition":"full-information","relevant_dimensions":["antennae","pattern"],"bee_group":{"antennae":"A","wings":"X","pattern":"S","legs":"X"},"action":"avoid","summary":"good-avoid","bonus":1.740000000000001},{"rt":547.8000000119209,"stimulus":"\n                    <p><b>Action: <em>avoid</em></b></p>\n                    <p>This is the bee that you just saw.</p>\n                    <img src=\"bees-with-color/bee-A2SF.svg\" width=\"200\">\n                    <p><span class=\"greenText\">Good choice!</span>  This bee would have stung you.<br>Your bonus pay is unchanged, and remains at $1.02.</p>\n            ","response":0,"trial_type":"html-button-response","trial_index":108,"time_elapsed":692382,"internal_node_id":"0.0-4.0-1.48","subject_id":"5c0e94f62932300001e2e0d3","study_id":"60edd13110225f80f9f3709b","session_id":"6196ba73357de4e8d21c4e40","condition":"full-information","relevant_dimensions":["antennae","pattern"],"bee_group":{"antennae":"A","wings":"X","pattern":"S","legs":"X"},"bonus":1.740000000000001},{"rt":954.5,"stimulus":"bees-with-color/bee-A1DM.svg","response":0,"trial_type":"image-button-response","trial_index":109,"time_elapsed":693338,"internal_node_id":"0.0-4.0-0.49","subject_id":"5c0e94f62932300001e2e0d3","study_id":"60edd13110225f80f9f3709b","session_id":"6196ba73357de4e8d21c4e40","condition":"full-information","relevant_dimensions":["antennae","pattern"],"bee_group":{"antennae":"A","wings":"X","pattern":"S","legs":"X"},"action":"harvest","summary":"good-harvest","bonus":1.740000000000001},{"rt":512.6000000238419,"stimulus":"\n                    <p><b>Action: <em>harvest</em></b></p>\n                    <p>This is the bee that you just saw.</p>\n                    <img src=\"bees-with-color/bee-A1DM.svg\" width=\"200\">\n                    <p><span class=\"greenText\"><b>Successful harvest!</b></span><br>Your pay has increased by $0.02. Your bonus pay is now $1.04.</p>\n            ","response":0,"trial_type":"html-button-response","trial_index":110,"time_elapsed":693852,"internal_node_id":"0.0-4.0-1.49","subject_id":"5c0e94f62932300001e2e0d3","study_id":"60edd13110225f80f9f3709b","session_id":"6196ba73357de4e8d21c4e40","condition":"full-information","relevant_dimensions":["antennae","pattern"],"bee_group":{"antennae":"A","wings":"X","pattern":"S","legs":"X"},"bonus":1.740000000000001},{"rt":645.5999999642372,"stimulus":"bees-with-color/bee-A1DF.svg","response":0,"trial_type":"image-button-response","trial_index":111,"time_elapsed":694498,"internal_node_id":"0.0-4.0-0.50","subject_id":"5c0e94f62932300001e2e0d3","study_id":"60edd13110225f80f9f3709b","session_id":"6196ba73357de4e8d21c4e40","condition":"full-information","relevant_dimensions":["antennae","pattern"],"bee_group":{"antennae":"A","wings":"X","pattern":"S","legs":"X"},"action":"harvest","summary":"good-harvest","bonus":1.740000000000001},{"rt":644.6999999880791,"stimulus":"\n                    <p><b>Action: <em>harvest</em></b></p>\n                    <p>This is the bee that you just saw.</p>\n                    <img src=\"bees-with-color/bee-A1DF.svg\" width=\"200\">\n                    <p><span class=\"greenText\"><b>Successful harvest!</b></span><br>Your pay has increased by $0.02. Your bonus pay is now $1.06.</p>\n            ","response":0,"trial_type":"html-button-response","trial_index":112,"time_elapsed":695145,"internal_node_id":"0.0-4.0-1.50","subject_id":"5c0e94f62932300001e2e0d3","study_id":"60edd13110225f80f9f3709b","session_id":"6196ba73357de4e8d21c4e40","condition":"full-information","relevant_dimensions":["antennae","pattern"],"bee_group":{"antennae":"A","wings":"X","pattern":"S","legs":"X"},"bonus":1.740000000000001},{"rt":1141.9000000357628,"stimulus":"bees-with-color/bee-B2SM.svg","response":0,"trial_type":"image-button-response","trial_index":113,"time_elapsed":696288,"internal_node_id":"0.0-4.0-0.51","subject_id":"5c0e94f62932300001e2e0d3","study_id":"60edd13110225f80f9f3709b","session_id":"6196ba73357de4e8d21c4e40","condition":"full-information","relevant_dimensions":["antennae","pattern"],"bee_group":{"antennae":"A","wings":"X","pattern":"S","legs":"X"},"action":"harvest","summary":"good-harvest","bonus":1.740000000000001},{"rt":463.60000002384186,"stimulus":"\n                    <p><b>Action: <em>harvest</em></b></p>\n                    <p>This is the bee that you just saw.</p>\n                    <img src=\"bees-with-color/bee-B2SM.svg\" width=\"200\">\n                    <p><span class=\"greenText\"><b>Successful harvest!</b></span><br>Your pay has increased by $0.02. Your bonus pay is now $1.08.</p>\n            ","response":0,"trial_type":"html-button-response","trial_index":114,"time_elapsed":696753,"internal_node_id":"0.0-4.0-1.51","subject_id":"5c0e94f62932300001e2e0d3","study_id":"60edd13110225f80f9f3709b","session_id":"6196ba73357de4e8d21c4e40","condition":"full-information","relevant_dimensions":["antennae","pattern"],"bee_group":{"antennae":"A","wings":"X","pattern":"S","legs":"X"},"bonus":1.740000000000001},{"rt":1326.699999988079,"stimulus":"bees-with-color/bee-A2DM.svg","response":0,"trial_type":"image-button-response","trial_index":115,"time_elapsed":698081,"internal_node_id":"0.0-4.0-0.52","subject_id":"5c0e94f62932300001e2e0d3","study_id":"60edd13110225f80f9f3709b","session_id":"6196ba73357de4e8d21c4e40","condition":"full-information","relevant_dimensions":["antennae","pattern"],"bee_group":{"antennae":"A","wings":"X","pattern":"S","legs":"X"},"action":"harvest","summary":"good-harvest","bonus":1.740000000000001},{"rt":575.3000000119209,"stimulus":"\n                    <p><b>Action: <em>harvest</em></b></p>\n                    <p>This is the bee that you just saw.</p>\n                    <img src=\"bees-with-color/bee-A2DM.svg\" width=\"200\">\n                    <p><span class=\"greenText\"><b>Successful harvest!</b></span><br>Your pay has increased by $0.02. Your bonus pay is now $1.10.</p>\n            ","response":0,"trial_type":"html-button-response","trial_index":116,"time_elapsed":698657,"internal_node_id":"0.0-4.0-1.52","subject_id":"5c0e94f62932300001e2e0d3","study_id":"60edd13110225f80f9f3709b","session_id":"6196ba73357de4e8d21c4e40","condition":"full-information","relevant_dimensions":["antennae","pattern"],"bee_group":{"antennae":"A","wings":"X","pattern":"S","legs":"X"},"bonus":1.740000000000001},{"rt":787.5999999642372,"stimulus":"bees-with-color/bee-B1DF.svg","response":0,"trial_type":"image-button-response","trial_index":117,"time_elapsed":699446,"internal_node_id":"0.0-4.0-0.53","subject_id":"5c0e94f62932300001e2e0d3","study_id":"60edd13110225f80f9f3709b","session_id":"6196ba73357de4e8d21c4e40","condition":"full-information","relevant_dimensions":["antennae","pattern"],"bee_group":{"antennae":"A","wings":"X","pattern":"S","legs":"X"},"action":"harvest","summary":"good-harvest","bonus":1.740000000000001},{"rt":477,"stimulus":"\n                    <p><b>Action: <em>harvest</em></b></p>\n                    <p>This is the bee that you just saw.</p>\n                    <img src=\"bees-with-color/bee-B1DF.svg\" width=\"200\">\n                    <p><span class=\"greenText\"><b>Successful harvest!</b></span><br>Your pay has increased by $0.02. Your bonus pay is now $1.12.</p>\n            ","response":0,"trial_type":"html-button-response","trial_index":118,"time_elapsed":699924,"internal_node_id":"0.0-4.0-1.53","subject_id":"5c0e94f62932300001e2e0d3","study_id":"60edd13110225f80f9f3709b","session_id":"6196ba73357de4e8d21c4e40","condition":"full-information","relevant_dimensions":["antennae","pattern"],"bee_group":{"antennae":"A","wings":"X","pattern":"S","legs":"X"},"bonus":1.740000000000001},{"rt":1376.1000000238419,"stimulus":"bees-with-color/bee-A1SM.svg","response":1,"trial_type":"image-button-response","trial_index":119,"time_elapsed":701302,"internal_node_id":"0.0-4.0-0.54","subject_id":"5c0e94f62932300001e2e0d3","study_id":"60edd13110225f80f9f3709b","session_id":"6196ba73357de4e8d21c4e40","condition":"full-information","relevant_dimensions":["antennae","pattern"],"bee_group":{"antennae":"A","wings":"X","pattern":"S","legs":"X"},"action":"avoid","summary":"good-avoid","bonus":1.740000000000001},{"rt":566.1999999880791,"stimulus":"\n                    <p><b>Action: <em>avoid</em></b></p>\n                    <p>This is the bee that you just saw.</p>\n                    <img src=\"bees-with-color/bee-A1SM.svg\" width=\"200\">\n                    <p><span class=\"greenText\">Good choice!</span>  This bee would have stung you.<br>Your bonus pay is unchanged, and remains at $1.12.</p>\n            ","response":0,"trial_type":"html-button-response","trial_index":120,"time_elapsed":701870,"internal_node_id":"0.0-4.0-1.54","subject_id":"5c0e94f62932300001e2e0d3","study_id":"60edd13110225f80f9f3709b","session_id":"6196ba73357de4e8d21c4e40","condition":"full-information","relevant_dimensions":["antennae","pattern"],"bee_group":{"antennae":"A","wings":"X","pattern":"S","legs":"X"},"bonus":1.740000000000001},{"rt":871.7000000476837,"stimulus":"bees-with-color/bee-B2SF.svg","response":0,"trial_type":"image-button-response","trial_index":121,"time_elapsed":702743,"internal_node_id":"0.0-4.0-0.55","subject_id":"5c0e94f62932300001e2e0d3","study_id":"60edd13110225f80f9f3709b","session_id":"6196ba73357de4e8d21c4e40","condition":"full-information","relevant_dimensions":["antennae","pattern"],"bee_group":{"antennae":"A","wings":"X","pattern":"S","legs":"X"},"action":"harvest","summary":"good-harvest","bonus":1.740000000000001},{"rt":499.7999999523163,"stimulus":"\n                    <p><b>Action: <em>harvest</em></b></p>\n                    <p>This is the bee that you just saw.</p>\n                    <img src=\"bees-with-color/bee-B2SF.svg\" width=\"200\">\n                    <p><span class=\"greenText\"><b>Successful harvest!</b></span><br>Your pay has increased by $0.02. Your bonus pay is now $1.14.</p>\n            ","response":0,"trial_type":"html-button-response","trial_index":122,"time_elapsed":703244,"internal_node_id":"0.0-4.0-1.55","subject_id":"5c0e94f62932300001e2e0d3","study_id":"60edd13110225f80f9f3709b","session_id":"6196ba73357de4e8d21c4e40","condition":"full-information","relevant_dimensions":["antennae","pattern"],"bee_group":{"antennae":"A","wings":"X","pattern":"S","legs":"X"},"bonus":1.740000000000001},{"rt":948,"stimulus":"bees-with-color/bee-B1DM.svg","response":0,"trial_type":"image-button-response","trial_index":123,"time_elapsed":704193,"internal_node_id":"0.0-4.0-0.56","subject_id":"5c0e94f62932300001e2e0d3","study_id":"60edd13110225f80f9f3709b","session_id":"6196ba73357de4e8d21c4e40","condition":"full-information","relevant_dimensions":["antennae","pattern"],"bee_group":{"antennae":"A","wings":"X","pattern":"S","legs":"X"},"action":"harvest","summary":"good-harvest","bonus":1.740000000000001},{"rt":489.30000001192093,"stimulus":"\n                    <p><b>Action: <em>harvest</em></b></p>\n                    <p>This is the bee that you just saw.</p>\n                    <img src=\"bees-with-color/bee-B1DM.svg\" width=\"200\">\n                    <p><span class=\"greenText\"><b>Successful harvest!</b></span><br>Your pay has increased by $0.02. Your bonus pay is now $1.16.</p>\n            ","response":0,"trial_type":"html-button-response","trial_index":124,"time_elapsed":704684,"internal_node_id":"0.0-4.0-1.56","subject_id":"5c0e94f62932300001e2e0d3","study_id":"60edd13110225f80f9f3709b","session_id":"6196ba73357de4e8d21c4e40","condition":"full-information","relevant_dimensions":["antennae","pattern"],"bee_group":{"antennae":"A","wings":"X","pattern":"S","legs":"X"},"bonus":1.740000000000001},{"rt":1122.0999999642372,"stimulus":"bees-with-color/bee-A2SM.svg","response":1,"trial_type":"image-button-response","trial_index":125,"time_elapsed":705807,"internal_node_id":"0.0-4.0-0.57","subject_id":"5c0e94f62932300001e2e0d3","study_id":"60edd13110225f80f9f3709b","session_id":"6196ba73357de4e8d21c4e40","condition":"full-information","relevant_dimensions":["antennae","pattern"],"bee_group":{"antennae":"A","wings":"X","pattern":"S","legs":"X"},"action":"avoid","summary":"good-avoid","bonus":1.740000000000001},{"rt":621.1000000238419,"stimulus":"\n                    <p><b>Action: <em>avoid</em></b></p>\n                    <p>This is the bee that you just saw.</p>\n                    <img src=\"bees-with-color/bee-A2SM.svg\" width=\"200\">\n                    <p><span class=\"greenText\">Good choice!</span>  This bee would have stung you.<br>Your bonus pay is unchanged, and remains at $1.16.</p>\n            ","response":0,"trial_type":"html-button-response","trial_index":126,"time_elapsed":706430,"internal_node_id":"0.0-4.0-1.57","subject_id":"5c0e94f62932300001e2e0d3","study_id":"60edd13110225f80f9f3709b","session_id":"6196ba73357de4e8d21c4e40","condition":"full-information","relevant_dimensions":["antennae","pattern"],"bee_group":{"antennae":"A","wings":"X","pattern":"S","legs":"X"},"bonus":1.740000000000001},{"rt":873.8999999761581,"stimulus":"bees-with-color/bee-B2DF.svg","response":0,"trial_type":"image-button-response","trial_index":127,"time_elapsed":707305,"internal_node_id":"0.0-4.0-0.58","subject_id":"5c0e94f62932300001e2e0d3","study_id":"60edd13110225f80f9f3709b","session_id":"6196ba73357de4e8d21c4e40","condition":"full-information","relevant_dimensions":["antennae","pattern"],"bee_group":{"antennae":"A","wings":"X","pattern":"S","legs":"X"},"action":"harvest","summary":"good-harvest","bonus":1.740000000000001},{"rt":718.3000000119209,"stimulus":"\n                    <p><b>Action: <em>harvest</em></b></p>\n                    <p>This is the bee that you just saw.</p>\n                    <img src=\"bees-with-color/bee-B2DF.svg\" width=\"200\">\n                    <p><span class=\"greenText\"><b>Successful harvest!</b></span><br>Your pay has increased by $0.02. Your bonus pay is now $1.18.</p>\n            ","response":0,"trial_type":"html-button-response","trial_index":128,"time_elapsed":708025,"internal_node_id":"0.0-4.0-1.58","subject_id":"5c0e94f62932300001e2e0d3","study_id":"60edd13110225f80f9f3709b","session_id":"6196ba73357de4e8d21c4e40","condition":"full-information","relevant_dimensions":["antennae","pattern"],"bee_group":{"antennae":"A","wings":"X","pattern":"S","legs":"X"},"bonus":1.740000000000001},{"rt":1369.800000011921,"stimulus":"bees-with-color/bee-A1SF.svg","response":1,"trial_type":"image-button-response","trial_index":129,"time_elapsed":709396,"internal_node_id":"0.0-4.0-0.59","subject_id":"5c0e94f62932300001e2e0d3","study_id":"60edd13110225f80f9f3709b","session_id":"6196ba73357de4e8d21c4e40","condition":"full-information","relevant_dimensions":["antennae","pattern"],"bee_group":{"antennae":"A","wings":"X","pattern":"S","legs":"X"},"action":"avoid","summary":"good-avoid","bonus":1.740000000000001},{"rt":557.2999999523163,"stimulus":"\n                    <p><b>Action: <em>avoid</em></b></p>\n                    <p>This is the bee that you just saw.</p>\n                    <img src=\"bees-with-color/bee-A1SF.svg\" width=\"200\">\n                    <p><span class=\"greenText\">Good choice!</span>  This bee would have stung you.<br>Your bonus pay is unchanged, and remains at $1.18.</p>\n            ","response":0,"trial_type":"html-button-response","trial_index":130,"time_elapsed":709955,"internal_node_id":"0.0-4.0-1.59","subject_id":"5c0e94f62932300001e2e0d3","study_id":"60edd13110225f80f9f3709b","session_id":"6196ba73357de4e8d21c4e40","condition":"full-information","relevant_dimensions":["antennae","pattern"],"bee_group":{"antennae":"A","wings":"X","pattern":"S","legs":"X"},"bonus":1.740000000000001},{"rt":880.5999999642372,"stimulus":"bees-with-color/bee-A2DF.svg","response":0,"trial_type":"image-button-response","trial_index":131,"time_elapsed":710839,"internal_node_id":"0.0-4.0-0.60","subject_id":"5c0e94f62932300001e2e0d3","study_id":"60edd13110225f80f9f3709b","session_id":"6196ba73357de4e8d21c4e40","condition":"full-information","relevant_dimensions":["antennae","pattern"],"bee_group":{"antennae":"A","wings":"X","pattern":"S","legs":"X"},"action":"harvest","summary":"good-harvest","bonus":1.740000000000001},{"rt":859.5,"stimulus":"\n                    <p><b>Action: <em>harvest</em></b></p>\n                    <p>This is the bee that you just saw.</p>\n                    <img src=\"bees-with-color/bee-A2DF.svg\" width=\"200\">\n                    <p><span class=\"greenText\"><b>Successful harvest!</b></span><br>Your pay has increased by $0.02. Your bonus pay is now $1.20.</p>\n            ","response":0,"trial_type":"html-button-response","trial_index":132,"time_elapsed":711700,"internal_node_id":"0.0-4.0-1.60","subject_id":"5c0e94f62932300001e2e0d3","study_id":"60edd13110225f80f9f3709b","session_id":"6196ba73357de4e8d21c4e40","condition":"full-information","relevant_dimensions":["antennae","pattern"],"bee_group":{"antennae":"A","wings":"X","pattern":"S","legs":"X"},"bonus":1.740000000000001},{"rt":1190.300000011921,"stimulus":"bees-with-color/bee-B2DM.svg","response":0,"trial_type":"image-button-response","trial_index":133,"time_elapsed":712891,"internal_node_id":"0.0-4.0-0.61","subject_id":"5c0e94f62932300001e2e0d3","study_id":"60edd13110225f80f9f3709b","session_id":"6196ba73357de4e8d21c4e40","condition":"full-information","relevant_dimensions":["antennae","pattern"],"bee_group":{"antennae":"A","wings":"X","pattern":"S","legs":"X"},"action":"harvest","summary":"good-harvest","bonus":1.740000000000001},{"rt":807.1000000238419,"stimulus":"\n                    <p><b>Action: <em>harvest</em></b></p>\n                    <p>This is the bee that you just saw.</p>\n                    <img src=\"bees-with-color/bee-B2DM.svg\" width=\"200\">\n                    <p><span class=\"greenText\"><b>Successful harvest!</b></span><br>Your pay has increased by $0.02. Your bonus pay is now $1.22.</p>\n            ","response":0,"trial_type":"html-button-response","trial_index":134,"time_elapsed":713700,"internal_node_id":"0.0-4.0-1.61","subject_id":"5c0e94f62932300001e2e0d3","study_id":"60edd13110225f80f9f3709b","session_id":"6196ba73357de4e8d21c4e40","condition":"full-information","relevant_dimensions":["antennae","pattern"],"bee_group":{"antennae":"A","wings":"X","pattern":"S","legs":"X"},"bonus":1.740000000000001},{"rt":1229.5,"stimulus":"bees-with-color/bee-B1SF.svg","response":0,"trial_type":"image-button-response","trial_index":135,"time_elapsed":714930,"internal_node_id":"0.0-4.0-0.62","subject_id":"5c0e94f62932300001e2e0d3","study_id":"60edd13110225f80f9f3709b","session_id":"6196ba73357de4e8d21c4e40","condition":"full-information","relevant_dimensions":["antennae","pattern"],"bee_group":{"antennae":"A","wings":"X","pattern":"S","legs":"X"},"action":"harvest","summary":"good-harvest","bonus":1.740000000000001},{"rt":619.1000000238419,"stimulus":"\n                    <p><b>Action: <em>harvest</em></b></p>\n                    <p>This is the bee that you just saw.</p>\n                    <img src=\"bees-with-color/bee-B1SF.svg\" width=\"200\">\n                    <p><span class=\"greenText\"><b>Successful harvest!</b></span><br>Your pay has increased by $0.02. Your bonus pay is now $1.24.</p>\n            ","response":0,"trial_type":"html-button-response","trial_index":136,"time_elapsed":715551,"internal_node_id":"0.0-4.0-1.62","subject_id":"5c0e94f62932300001e2e0d3","study_id":"60edd13110225f80f9f3709b","session_id":"6196ba73357de4e8d21c4e40","condition":"full-information","relevant_dimensions":["antennae","pattern"],"bee_group":{"antennae":"A","wings":"X","pattern":"S","legs":"X"},"bonus":1.740000000000001},{"rt":1155.800000011921,"stimulus":"bees-with-color/bee-B1SM.svg","response":0,"trial_type":"image-button-response","trial_index":137,"time_elapsed":716708,"internal_node_id":"0.0-4.0-0.63","subject_id":"5c0e94f62932300001e2e0d3","study_id":"60edd13110225f80f9f3709b","session_id":"6196ba73357de4e8d21c4e40","condition":"full-information","relevant_dimensions":["antennae","pattern"],"bee_group":{"antennae":"A","wings":"X","pattern":"S","legs":"X"},"action":"harvest","summary":"good-harvest","bonus":1.740000000000001},{"rt":535.5999999642372,"stimulus":"\n                    <p><b>Action: <em>harvest</em></b></p>\n                    <p>This is the bee that you just saw.</p>\n                    <img src=\"bees-with-color/bee-B1SM.svg\" width=\"200\">\n                    <p><span class=\"greenText\"><b>Successful harvest!</b></span><br>Your pay has increased by $0.02. Your bonus pay is now $1.26.</p>\n            ","response":0,"trial_type":"html-button-response","trial_index":138,"time_elapsed":717245,"internal_node_id":"0.0-4.0-1.63","subject_id":"5c0e94f62932300001e2e0d3","study_id":"60edd13110225f80f9f3709b","session_id":"6196ba73357de4e8d21c4e40","condition":"full-information","relevant_dimensions":["antennae","pattern"],"bee_group":{"antennae":"A","wings":"X","pattern":"S","legs":"X"},"bonus":1.740000000000001},{"rt":13676.800000011921,"stimulus":"You have completed the first part of this experiment.<br><br>You will now begin a shorter second part, in which you will receive no feedback.<br>The same rules regarding bonus pay apply.<br><br>Press any key to begin.","response":"z","trial_type":"html-keyboard-response","trial_index":139,"time_elapsed":730939,"internal_node_id":"0.0-5.0","subject_id":"5c0e94f62932300001e2e0d3","study_id":"60edd13110225f80f9f3709b","session_id":"6196ba73357de4e8d21c4e40","condition":"full-information","relevant_dimensions":["antennae","pattern"],"bee_group":{"antennae":"A","wings":"X","pattern":"S","legs":"X"},"bonus":1.740000000000001},{"rt":7394.800000011921,"stimulus":"bees-with-color/bee-B1DM.svg","response":0,"trial_type":"image-button-response","trial_index":140,"time_elapsed":738481,"internal_node_id":"0.0-6.0-0.0","subject_id":"5c0e94f62932300001e2e0d3","study_id":"60edd13110225f80f9f3709b","session_id":"6196ba73357de4e8d21c4e40","condition":"full-information","relevant_dimensions":["antennae","pattern"],"bee_group":{"antennae":"A","wings":"X","pattern":"S","legs":"X"},"bonus":1.740000000000001},{"rt":2362.600000023842,"stimulus":"bees-with-color/bee-B1SF.svg","response":0,"trial_type":"image-button-response","trial_index":141,"time_elapsed":740847,"internal_node_id":"0.0-6.0-0.1","subject_id":"5c0e94f62932300001e2e0d3","study_id":"60edd13110225f80f9f3709b","session_id":"6196ba73357de4e8d21c4e40","condition":"full-information","relevant_dimensions":["antennae","pattern"],"bee_group":{"antennae":"A","wings":"X","pattern":"S","legs":"X"},"bonus":1.740000000000001},{"rt":1889.5,"stimulus":"bees-with-color/bee-B2DM.svg","response":0,"trial_type":"image-button-response","trial_index":142,"time_elapsed":742738,"internal_node_id":"0.0-6.0-0.2","subject_id":"5c0e94f62932300001e2e0d3","study_id":"60edd13110225f80f9f3709b","session_id":"6196ba73357de4e8d21c4e40","condition":"full-information","relevant_dimensions":["antennae","pattern"],"bee_group":{"antennae":"A","wings":"X","pattern":"S","legs":"X"},"bonus":1.740000000000001},{"rt":1270.3999999761581,"stimulus":"bees-with-color/bee-A1SM.svg","response":1,"trial_type":"image-button-response","trial_index":143,"time_elapsed":744010,"internal_node_id":"0.0-6.0-0.3","subject_id":"5c0e94f62932300001e2e0d3","study_id":"60edd13110225f80f9f3709b","session_id":"6196ba73357de4e8d21c4e40","condition":"full-information","relevant_dimensions":["antennae","pattern"],"bee_group":{"antennae":"A","wings":"X","pattern":"S","legs":"X"},"bonus":1.740000000000001},{"rt":975,"stimulus":"bees-with-color/bee-B1SM.svg","response":0,"trial_type":"image-button-response","trial_index":144,"time_elapsed":744987,"internal_node_id":"0.0-6.0-0.4","subject_id":"5c0e94f62932300001e2e0d3","study_id":"60edd13110225f80f9f3709b","session_id":"6196ba73357de4e8d21c4e40","condition":"full-information","relevant_dimensions":["antennae","pattern"],"bee_group":{"antennae":"A","wings":"X","pattern":"S","legs":"X"},"bonus":1.740000000000001},{"rt":2727.199999988079,"stimulus":"bees-with-color/bee-B2SF.svg","response":0,"trial_type":"image-button-response","trial_index":145,"time_elapsed":747716,"internal_node_id":"0.0-6.0-0.5","subject_id":"5c0e94f62932300001e2e0d3","study_id":"60edd13110225f80f9f3709b","session_id":"6196ba73357de4e8d21c4e40","condition":"full-information","relevant_dimensions":["antennae","pattern"],"bee_group":{"antennae":"A","wings":"X","pattern":"S","legs":"X"},"bonus":1.740000000000001},{"rt":3182.5,"stimulus":"bees-with-color/bee-B2SM.svg","response":0,"trial_type":"image-button-response","trial_index":146,"time_elapsed":750901,"internal_node_id":"0.0-6.0-0.6","subject_id":"5c0e94f62932300001e2e0d3","study_id":"60edd13110225f80f9f3709b","session_id":"6196ba73357de4e8d21c4e40","condition":"full-information","relevant_dimensions":["antennae","pattern"],"bee_group":{"antennae":"A","wings":"X","pattern":"S","legs":"X"},"bonus":1.740000000000001},{"rt":1266.3999999761581,"stimulus":"bees-with-color/bee-A2SF.svg","response":1,"trial_type":"image-button-response","trial_index":147,"time_elapsed":752170,"internal_node_id":"0.0-6.0-0.7","subject_id":"5c0e94f62932300001e2e0d3","study_id":"60edd13110225f80f9f3709b","session_id":"6196ba73357de4e8d21c4e40","condition":"full-information","relevant_dimensions":["antennae","pattern"],"bee_group":{"antennae":"A","wings":"X","pattern":"S","legs":"X"},"bonus":1.740000000000001},{"rt":831.1999999880791,"stimulus":"bees-with-color/bee-B1DF.svg","response":0,"trial_type":"image-button-response","trial_index":148,"time_elapsed":753004,"internal_node_id":"0.0-6.0-0.8","subject_id":"5c0e94f62932300001e2e0d3","study_id":"60edd13110225f80f9f3709b","session_id":"6196ba73357de4e8d21c4e40","condition":"full-information","relevant_dimensions":["antennae","pattern"],"bee_group":{"antennae":"A","wings":"X","pattern":"S","legs":"X"},"bonus":1.740000000000001},{"rt":1176.3999999761581,"stimulus":"bees-with-color/bee-A1DF.svg","response":0,"trial_type":"image-button-response","trial_index":149,"time_elapsed":754182,"internal_node_id":"0.0-6.0-0.9","subject_id":"5c0e94f62932300001e2e0d3","study_id":"60edd13110225f80f9f3709b","session_id":"6196ba73357de4e8d21c4e40","condition":"full-information","relevant_dimensions":["antennae","pattern"],"bee_group":{"antennae":"A","wings":"X","pattern":"S","legs":"X"},"bonus":1.740000000000001},{"rt":677.8000000119209,"stimulus":"bees-with-color/bee-A2DM.svg","response":0,"trial_type":"image-button-response","trial_index":150,"time_elapsed":754862,"internal_node_id":"0.0-6.0-0.10","subject_id":"5c0e94f62932300001e2e0d3","study_id":"60edd13110225f80f9f3709b","session_id":"6196ba73357de4e8d21c4e40","condition":"full-information","relevant_dimensions":["antennae","pattern"],"bee_group":{"antennae":"A","wings":"X","pattern":"S","legs":"X"},"bonus":1.740000000000001},{"rt":713.3000000119209,"stimulus":"bees-with-color/bee-B2DF.svg","response":0,"trial_type":"image-button-response","trial_index":151,"time_elapsed":755577,"internal_node_id":"0.0-6.0-0.11","subject_id":"5c0e94f62932300001e2e0d3","study_id":"60edd13110225f80f9f3709b","session_id":"6196ba73357de4e8d21c4e40","condition":"full-information","relevant_dimensions":["antennae","pattern"],"bee_group":{"antennae":"A","wings":"X","pattern":"S","legs":"X"},"bonus":1.740000000000001},{"rt":988.3000000119209,"stimulus":"bees-with-color/bee-A2DF.svg","response":0,"trial_type":"image-button-response","trial_index":152,"time_elapsed":756567,"internal_node_id":"0.0-6.0-0.12","subject_id":"5c0e94f62932300001e2e0d3","study_id":"60edd13110225f80f9f3709b","session_id":"6196ba73357de4e8d21c4e40","condition":"full-information","relevant_dimensions":["antennae","pattern"],"bee_group":{"antennae":"A","wings":"X","pattern":"S","legs":"X"},"bonus":1.740000000000001},{"rt":1218.0999999642372,"stimulus":"bees-with-color/bee-A1SF.svg","response":1,"trial_type":"image-button-response","trial_index":153,"time_elapsed":757787,"internal_node_id":"0.0-6.0-0.13","subject_id":"5c0e94f62932300001e2e0d3","study_id":"60edd13110225f80f9f3709b","session_id":"6196ba73357de4e8d21c4e40","condition":"full-information","relevant_dimensions":["antennae","pattern"],"bee_group":{"ante