[{"success":true,"trial_type":"fullscreen","trial_index":0,"time_elapsed":5185,"internal_node_id":"0.0-0.0","subject_id":"5fb9adb28a52968d9f561808","study_id":"60edd13110225f80f9f3709b","session_id":"6196c5030ce8a4acbbd36797","condition":"full-information","relevant_dimensions":["wings","pattern"],"bee_group":{"antennae":"X","wings":"1","pattern":"D","legs":"X"},"bonus":0.5200000000000012},{"success":true,"timeout":false,"failed_images":[],"failed_audio":[],"failed_video":[],"trial_type":"preload","trial_index":1,"time_elapsed":8003,"internal_node_id":"0.0-1.0","subject_id":"5fb9adb28a52968d9f561808","study_id":"60edd13110225f80f9f3709b","session_id":"6196c5030ce8a4acbbd36797","condition":"full-information","relevant_dimensions":["wings","pattern"],"bee_group":{"antennae":"X","wings":"1","pattern":"D","legs":"X"},"bonus":0.5200000000000012},{"rt":3322.399999976158,"stimulus":"Welcome! Press any key to begin.","response":"enter","trial_type":"html-keyboard-response","trial_index":2,"time_elapsed":11327,"internal_node_id":"0.0-2.0","subject_id":"5fb9adb28a52968d9f561808","study_id":"60edd13110225f80f9f3709b","session_id":"6196c5030ce8a4acbbd36797","condition":"full-information","relevant_dimensions":["wings","pattern"],"bee_group":{"antennae":"X","wings":"1","pattern":"D","legs":"X"},"bonus":0.5200000000000012},{"view_history":[{"page_index":0,"viewing_time":6998.699999928474},{"page_index":1,"viewing_time":12451.600000023842},{"page_index":2,"viewing_time":6056.799999952316},{"page_index":3,"viewing_time":13280.600000023842},{"page_index":4,"viewing_time":4074.100000023842},{"page_index":5,"viewing_time":10556.399999976158},{"page_index":6,"viewing_time":9618.300000071526},{"page_index":7,"viewing_time":9389.5},{"page_index":8,"viewing_time":2627.6999999284744},{"page_index":9,"viewing_time":3168.8000000715256},{"page_index":10,"viewing_time":1853},{"page_index":11,"viewing_time":9682.5},{"page_index":12,"viewing_time":9993.199999928474},{"page_index":13,"viewing_time":1521.3999999761581},{"page_index":14,"viewing_time":3305.2000000476837}],"rt":104578.5,"trial_type":"instructions","trial_index":3,"time_elapsed":115904,"internal_node_id":"0.0-3.0-0.0","subject_id":"5fb9adb28a52968d9f561808","study_id":"60edd13110225f80f9f3709b","session_id":"6196c5030ce8a4acbbd36797","condition":"full-information","relevant_dimensions":["wings","pattern"],"bee_group":{"antennae":"X","wings":"1","pattern":"D","legs":"X"},"bonus":0.5200000000000012},{"rt":15261.100000023842,"response":{"Q0":["Two or six legs","Stripes or spots on body","Single or double wings","Antennae or no antennae"]},"question_order":[0],"trial_type":"survey-multi-select","trial_index":4,"time_elapsed":131174,"internal_node_id":"0.0-3.0-1.0","subject_id":"5fb9adb28a52968d9f561808","study_id":"60edd13110225f80f9f3709b","session_id":"6196c5030ce8a4acbbd36797","condition":"full-information","relevant_dimensions":["wings","pattern"],"bee_group":{"antennae":"X","wings":"1","pattern":"D","legs":"X"},"correct":true,"bonus":0.5200000000000012},{"rt":26424.300000071526,"response":{"Q1":"No.","Q2":"Based on the four features of the bee.","Q3":"You do not learn if it was friendly or dangerous, and do not alter your bonus."},"question_order":[0,1,2],"trial_type":"survey-multi-choice","trial_index":5,"time_elapsed":157601,"internal_node_id":"0.0-3.0-2.0","subject_id":"5fb9adb28a52968d9f561808","study_id":"60edd13110225f80f9f3709b","session_id":"6196c5030ce8a4acbbd36797","condition":"full-information","relevant_dimensions":["wings","pattern"],"bee_group":{"antennae":"X","wings":"1","pattern":"D","legs":"X"},"correct":false,"bonus":0.5200000000000012},{"rt":3976.8000000715256,"stimulus":"<p>You did not answer all comprehension questions correctly.<br>Press <b>continue</b> to review the instructions again.</p>","response":0,"trial_type":"html-button-response","trial_index":6,"time_elapsed":161580,"internal_node_id":"0.0-3.0-3.0","subject_id":"5fb9adb28a52968d9f561808","study_id":"60edd13110225f80f9f3709b","session_id":"6196c5030ce8a4acbbd36797","condition":"full-information","relevant_dimensions":["wings","pattern"],"bee_group":{"antennae":"X","wings":"1","pattern":"D","legs":"X"},"bonus":0.5200000000000012},{"view_history":[{"page_index":0,"viewing_time":2630.399999976158},{"page_index":1,"viewing_time":13990.200000047684},{"page_index":2,"viewing_time":7785.600000023842},{"page_index":3,"viewing_time":10458.199999928474},{"page_index":4,"viewing_time":4217.5},{"page_index":5,"viewing_time":2533.399999976158},{"page_index":6,"viewing_time":1337.3000000715256},{"page_index":7,"viewing_time":1874.1999999284744},{"page_index":8,"viewing_time":1321},{"page_index":9,"viewing_time":1040.2000000476837},{"page_index":10,"viewing_time":1084.6000000238419},{"page_index":11,"viewing_time":6523.299999952316},{"page_index":12,"viewing_time":1810.7000000476837},{"page_index":13,"viewing_time":2562.5},{"page_index":14,"viewing_time":1707.1000000238419}],"rt":60876.5,"trial_type":"instructions","trial_index":7,"time_elapsed":222459,"internal_node_id":"0.0-3.0-4.0-0.0","subject_id":"5fb9adb28a52968d9f561808","study_id":"60edd13110225f80f9f3709b","session_id":"6196c5030ce8a4acbbd36797","condition":"full-information","relevant_dimensions":["wings","pattern"],"bee_group":{"antennae":"X","wings":"1","pattern":"D","legs":"X"},"bonus":0.5200000000000012},{"rt":12565.700000047684,"response":{"Q0":["Two or six legs","Stripes or spots on body","Single or double wings","Antennae or no antennae"]},"question_order":[0],"trial_type":"survey-multi-select","trial_index":8,"time_elapsed":235028,"internal_node_id":"0.0-3.0-4.0-1.0","subject_id":"5fb9adb28a52968d9f561808","study_id":"60edd13110225f80f9f3709b","session_id":"6196c5030ce8a4acbbd36797","condition":"full-information","relevant_dimensions":["wings","pattern"],"bee_group":{"antennae":"X","wings":"1","pattern":"D","legs":"X"},"correct":true,"bonus":0.5200000000000012},{"rt":13165.299999952316,"response":{"Q1":"No.","Q2":"Based on the four features of the bee.","Q3":"You learn if it was friendly or dangerous, but do not alter your bonus."},"question_order":[0,1,2],"trial_type":"survey-multi-choice","trial_index":9,"time_elapsed":248198,"internal_node_id":"0.0-3.0-4.0-2.0","subject_id":"5fb9adb28a52968d9f561808","study_id":"60edd13110225f80f9f3709b","session_id":"6196c5030ce8a4acbbd36797","condition":"full-information","relevant_dimensions":["wings","pattern"],"bee_group":{"antennae":"X","wings":"1","pattern":"D","legs":"X"},"correct":true,"bonus":0.5200000000000012},{"rt":1842.8999999761581,"stimulus":"<p>Congrats, you got everything right<br>When you're ready, click the button below to continue to the experiment.</p>","response":0,"trial_type":"html-button-response","trial_index":10,"time_elapsed":250043,"internal_node_id":"0.0-3.0-4.0-3.0","subject_id":"5fb9adb28a52968d9f561808","study_id":"60edd13110225f80f9f3709b","session_id":"6196c5030ce8a4acbbd36797","condition":"full-information","relevant_dimensions":["wings","pattern"],"bee_group":{"antennae":"X","wings":"1","pattern":"D","legs":"X"},"bonus":0.5200000000000012},{"rt":13732,"stimulus":"bees-with-color/bee-A2DM.svg","response":1,"trial_type":"image-button-response","trial_index":11,"time_elapsed":263778,"internal_node_id":"0.0-4.0-0.0","subject_id":"5fb9adb28a52968d9f561808","study_id":"60edd13110225f80f9f3709b","session_id":"6196c5030ce8a4acbbd36797","condition":"full-information","relevant_dimensions":["wings","pattern"],"bee_group":{"antennae":"X","wings":"1","pattern":"D","legs":"X"},"action":"avoid","summary":"bad-avoid","bonus":0.5200000000000012},{"rt":25860.100000023842,"stimulus":"\n                    <p><b>Action: <em>avoid</em></b></p>\n                    <p>This is the bee that you just saw.</p>\n                    <img src=\"bees-with-color/bee-A2DM.svg\" width=\"200\">\n                    <p><span class=\"redText\">Bad choice,</span> the bee was friendly.<br>Your bonus pay is unchanged, and remains at $0.54.</p>\n            ","response":0,"trial_type":"html-button-response","trial_index":12,"time_elapsed":289652,"internal_node_id":"0.0-4.0-1.0","subject_id":"5fb9adb28a52968d9f561808","study_id":"60edd13110225f80f9f3709b","session_id":"6196c5030ce8a4acbbd36797","condition":"full-information","relevant_dimensions":["wings","pattern"],"bee_group":{"antennae":"X","wings":"1","pattern":"D","legs":"X"},"bonus":0.5200000000000012},{"rt":2758.7999999523163,"stimulus":"bees-with-color/bee-A2SM.svg","response":0,"trial_type":"image-button-response","trial_index":13,"time_elapsed":292413,"internal_node_id":"0.0-4.0-0.1","subject_id":"5fb9adb28a52968d9f561808","study_id":"60edd13110225f80f9f3709b","session_id":"6196c5030ce8a4acbbd36797","condition":"full-information","relevant_dimensions":["wings","pattern"],"bee_group":{"antennae":"X","wings":"1","pattern":"D","legs":"X"},"action":"harvest","summary":"good-harvest","bonus":0.5200000000000012},{"rt":1960.8999999761581,"stimulus":"\n                    <p><b>Action: <em>harvest</em></b></p>\n                    <p>This is the bee that you just saw.</p>\n                    <img src=\"bees-with-color/bee-A2SM.svg\" width=\"200\">\n                    <p><span class=\"greenText\"><b>Successful harvest!</b></span><br>Your pay has increased by $0.02. Your bonus pay is now $0.56.</p>\n            ","response":0,"trial_type":"html-button-response","trial_index":14,"time_elapsed":294376,"internal_node_id":"0.0-4.0-1.1","subject_id":"5fb9adb28a52968d9f561808","study_id":"60edd13110225f80f9f3709b","session_id":"6196c5030ce8a4acbbd36797","condition":"full-information","relevant_dimensions":["wings","pattern"],"bee_group":{"antennae":"X","wings":"1","pattern":"D","legs":"X"},"bonus":0.5200000000000012},{"rt":1990.8999999761581,"stimulus":"bees-with-color/bee-B1DM.svg","response":0,"trial_type":"image-button-response","trial_index":15,"time_elapsed":296369,"internal_node_id":"0.0-4.0-0.2","subject_id":"5fb9adb28a52968d9f561808","study_id":"60edd13110225f80f9f3709b","session_id":"6196c5030ce8a4acbbd36797","condition":"full-information","relevant_dimensions":["wings","pattern"],"bee_group":{"antennae":"X","wings":"1","pattern":"D","legs":"X"},"action":"harvest","summary":"bad-harvest","bonus":0.5200000000000012},{"rt":1696,"stimulus":"\n                    <p><b>Action: <em>harvest</em></b></p>\n                    <p>This is the bee that you just saw.</p>\n                    <img src=\"bees-with-color/bee-B1DM.svg\" width=\"200\">\n                    <p><span class=\"redText\">Bad choice, the bee was angry.</span><br><b>You have been stung!</b><br>Your pay has been decreased by $0.10. Your bonus pay is now $0.46.</p>\n            ","response":0,"trial_type":"html-button-response","trial_index":16,"time_elapsed":298066,"internal_node_id":"0.0-4.0-1.2","subject_id":"5fb9adb28a52968d9f561808","study_id":"60edd13110225f80f9f3709b","session_id":"6196c5030ce8a4acbbd36797","condition":"full-information","relevant_dimensions":["wings","pattern"],"bee_group":{"antennae":"X","wings":"1","pattern":"D","legs":"X"},"bonus":0.5200000000000012},{"rt":2277.8000000715256,"stimulus":"bees-with-color/bee-B2DF.svg","response":1,"trial_type":"image-button-response","trial_index":17,"time_elapsed":300346,"internal_node_id":"0.0-4.0-0.3","subject_id":"5fb9adb28a52968d9f561808","study_id":"60edd13110225f80f9f3709b","session_id":"6196c5030ce8a4acbbd36797","condition":"full-information","relevant_dimensions":["wings","pattern"],"bee_group":{"antennae":"X","wings":"1","pattern":"D","legs":"X"},"action":"avoid","summary":"bad-avoid","bonus":0.5200000000000012},{"rt":1754.2000000476837,"stimulus":"\n                    <p><b>Action: <em>avoid</em></b></p>\n                    <p>This is the bee that you just saw.</p>\n                    <img src=\"bees-with-color/bee-B2DF.svg\" width=\"200\">\n                    <p><span class=\"redText\">Bad choice,</span> the bee was friendly.<br>Your bonus pay is unchanged, and remains at $0.46.</p>\n            ","response":0,"trial_type":"html-button-response","trial_index":18,"time_elapsed":302102,"internal_node_id":"0.0-4.0-1.3","subject_id":"5fb9adb28a52968d9f561808","study_id":"60edd13110225f80f9f3709b","session_id":"6196c5030ce8a4acbbd36797","condition":"full-information","relevant_dimensions":["wings","pattern"],"bee_group":{"antennae":"X","wings":"1","pattern":"D","legs":"X"},"bonus":0.5200000000000012},{"rt":2183,"stimulus":"bees-with-color/bee-A1DF.svg","response":1,"trial_type":"image-button-response","trial_index":19,"time_elapsed":304287,"internal_node_id":"0.0-4.0-0.4","subject_id":"5fb9adb28a52968d9f561808","study_id":"60edd13110225f80f9f3709b","session_id":"6196c5030ce8a4acbbd36797","condition":"full-information","relevant_dimensions":["wings","pattern"],"bee_group":{"antennae":"X","wings":"1","pattern":"D","legs":"X"},"action":"avoid","summary":"good-avoid","bonus":0.5200000000000012},{"rt":2064.1999999284744,"stimulus":"\n                    <p><b>Action: <em>avoid</em></b></p>\n                    <p>This is the bee that you just saw.</p>\n                    <img src=\"bees-with-color/bee-A1DF.svg\" width=\"200\">\n                    <p><span class=\"greenText\">Good choice!</span>  This bee would have stung you.<br>Your bonus pay is unchanged, and remains at $0.46.</p>\n            ","response":0,"trial_type":"html-button-response","trial_index":20,"time_elapsed":306347,"internal_node_id":"0.0-4.0-1.4","subject_id":"5fb9adb28a52968d9f561808","study_id":"60edd13110225f80f9f3709b","session_id":"6196c5030ce8a4acbbd36797","condition":"full-information","relevant_dimensions":["wings","pattern"],"bee_group":{"antennae":"X","wings":"1","pattern":"D","legs":"X"},"bonus":0.5200000000000012},{"rt":1038.8999999761581,"stimulus":"bees-with-color/bee-A2SF.svg","response":0,"trial_type":"image-button-response","trial_index":21,"time_elapsed":307388,"internal_node_id":"0.0-4.0-0.5","subject_id":"5fb9adb28a52968d9f561808","study_id":"60edd13110225f80f9f3709b","session_id":"6196c5030ce8a4acbbd36797","condition":"full-information","relevant_dimensions":["wings","pattern"],"bee_group":{"antennae":"X","wings":"1","pattern":"D","legs":"X"},"action":"harvest","summary":"good-harvest","bonus":0.5200000000000012},{"rt":8048.600000023842,"stimulus":"\n                    <p><b>Action: <em>harvest</em></b></p>\n                    <p>This is the bee that you just saw.</p>\n                    <img src=\"bees-with-color/bee-A2SF.svg\" width=\"200\">\n                    <p><span class=\"greenText\"><b>Successful harvest!</b></span><br>Your pay has increased by $0.02. Your bonus pay is now $0.48.</p>\n            ","response":0,"trial_type":"html-button-response","trial_index":22,"time_elapsed":315438,"internal_node_id":"0.0-4.0-1.5","subject_id":"5fb9adb28a52968d9f561808","study_id":"60edd13110225f80f9f3709b","session_id":"6196c5030ce8a4acbbd36797","condition":"full-information","relevant_dimensions":["wings","pattern"],"bee_group":{"antennae":"X","wings":"1","pattern":"D","legs":"X"},"bonus":0.5200000000000012},{"rt":1843,"stimulus":"bees-with-color/bee-A2DF.svg","response":0,"trial_type":"image-button-response","trial_index":23,"time_elapsed":317283,"internal_node_id":"0.0-4.0-0.6","subject_id":"5fb9adb28a52968d9f561808","study_id":"60edd13110225f80f9f3709b","session_id":"6196c5030ce8a4acbbd36797","condition":"full-information","relevant_dimensions":["wings","pattern"],"bee_group":{"antennae":"X","wings":"1","pattern":"D","legs":"X"},"action":"harvest","summary":"good-harvest","bonus":0.5200000000000012},{"rt":1090.3999999761581,"stimulus":"\n                    <p><b>Action: <em>harvest</em></b></p>\n                    <p>This is the bee that you just saw.</p>\n                    <img src=\"bees-with-color/bee-A2DF.svg\" width=\"200\">\n                    <p><span class=\"greenText\"><b>Successful harvest!</b></span><br>Your pay has increased by $0.02. Your bonus pay is now $0.50.</p>\n            ","response":0,"trial_type":"html-button-response","trial_index":24,"time_elapsed":318375,"internal_node_id":"0.0-4.0-1.6","subject_id":"5fb9adb28a52968d9f561808","study_id":"60edd13110225f80f9f3709b","session_id":"6196c5030ce8a4acbbd36797","condition":"full-information","relevant_dimensions":["wings","pattern"],"bee_group":{"antennae":"X","wings":"1","pattern":"D","legs":"X"},"bonus":0.5200000000000012},{"rt":1342,"stimulus":"bees-with-color/bee-B1SM.svg","response":1,"trial_type":"image-button-response","trial_index":25,"time_elapsed":319718,"internal_node_id":"0.0-4.0-0.7","subject_id":"5fb9adb28a52968d9f561808","study_id":"60edd13110225f80f9f3709b","session_id":"6196c5030ce8a4acbbd36797","condition":"full-information","relevant_dimensions":["wings","pattern"],"bee_group":{"antennae":"X","wings":"1","pattern":"D","legs":"X"},"action":"avoid","summary":"bad-avoid","bonus":0.5200000000000012},{"rt":1120.8999999761581,"stimulus":"\n                    <p><b>Action: <em>avoid</em></b></p>\n                    <p>This is the bee that you just saw.</p>\n                    <img src=\"bees-with-color/bee-B1SM.svg\" width=\"200\">\n                    <p><span class=\"redText\">Bad choice,</span> the bee was friendly.<br>Your bonus pay is unchanged, and remains at $0.50.</p>\n            ","response":0,"trial_type":"html-button-response","trial_index":26,"time_elapsed":320841,"internal_node_id":"0.0-4.0-1.7","subject_id":"5fb9adb28a52968d9f561808","study_id":"60edd13110225f80f9f3709b","session_id":"6196c5030ce8a4acbbd36797","condition":"full-information","relevant_dimensions":["wings","pattern"],"bee_group":{"antennae":"X","wings":"1","pattern":"D","legs":"X"},"bonus":0.5200000000000012},{"rt":1126.2000000476837,"stimulus":"bees-with-color/bee-B2SF.svg","response":0,"trial_type":"image-button-response","trial_index":27,"time_elapsed":321969,"internal_node_id":"0.0-4.0-0.8","subject_id":"5fb9adb28a52968d9f561808","study_id":"60edd13110225f80f9f3709b","session_id":"6196c5030ce8a4acbbd36797","condition":"full-information","relevant_dimensions":["wings","pattern"],"bee_group":{"antennae":"X","wings":"1","pattern":"D","legs":"X"},"action":"harvest","summary":"good-harvest","bonus":0.5200000000000012},{"rt":1002.5,"stimulus":"\n                    <p><b>Action: <em>harvest</em></b></p>\n                    <p>This is the bee that you just saw.</p>\n                    <img src=\"bees-with-color/bee-B2SF.svg\" width=\"200\">\n                    <p><span class=\"greenText\"><b>Successful harvest!</b></span><br>Your pay has increased by $0.02. Your bonus pay is now $0.52.</p>\n            ","response":0,"trial_type":"html-button-response","trial_index":28,"time_elapsed":322973,"internal_node_id":"0.0-4.0-1.8","subject_id":"5fb9adb28a52968d9f561808","study_id":"60edd13110225f80f9f3709b","session_id":"6196c5030ce8a4acbbd36797","condition":"full-information","relevant_dimensions":["wings","pattern"],"bee_group":{"antennae":"X","wings":"1","pattern":"D","legs":"X"},"bonus":0.5200000000000012},{"rt":2116.7000000476837,"stimulus":"bees-with-color/bee-B1SF.svg","response":1,"trial_type":"image-button-response","trial_index":29,"time_elapsed":325092,"internal_node_id":"0.0-4.0-0.9","subject_id":"5fb9adb28a52968d9f561808","study_id":"60edd13110225f80f9f3709b","session_id":"6196c5030ce8a4acbbd36797","condition":"full-information","relevant_dimensions":["wings","pattern"],"bee_group":{"antennae":"X","wings":"1","pattern":"D","legs":"X"},"action":"avoid","summary":"bad-avoid","bonus":0.5200000000000012},{"rt":3682,"stimulus":"\n                    <p><b>Action: <em>avoid</em></b></p>\n                    <p>This is the bee that you just saw.</p>\n                    <img src=\"bees-with-color/bee-B1SF.svg\" width=\"200\">\n                    <p><span class=\"redText\">Bad choice,</span> the bee was friendly.<br>Your bonus pay is unchanged, and remains at $0.52.</p>\n            ","response":0,"trial_type":"html-button-response","trial_index":30,"time_elapsed":328775,"internal_node_id":"0.0-4.0-1.9","subject_id":"5fb9adb28a52968d9f561808","study_id":"60edd13110225f80f9f3709b","session_id":"6196c5030ce8a4acbbd36797","condition":"full-information","relevant_dimensions":["wings","pattern"],"bee_group":{"antennae":"X","wings":"1","pattern":"D","legs":"X"},"bonus":0.5200000000000012},{"rt":1533.3999999761581,"stimulus":"bees-with-color/bee-B2DM.svg","response":1,"trial_type":"image-button-response","trial_index":31,"time_elapsed":330310,"internal_node_id":"0.0-4.0-0.10","subject_id":"5fb9adb28a52968d9f561808","study_id":"60edd13110225f80f9f3709b","session_id":"6196c5030ce8a4acbbd36797","condition":"full-information","relevant_dimensions":["wings","pattern"],"bee_group":{"antennae":"X","wings":"1","pattern":"D","legs":"X"},"action":"avoid","summary":"bad-avoid","bonus":0.5200000000000012},{"rt":1540.8999999761581,"stimulus":"\n                    <p><b>Action: <em>avoid</em></b></p>\n                    <p>This is the bee that you just saw.</p>\n                    <img src=\"bees-with-color/bee-B2DM.svg\" width=\"200\">\n                    <p><span class=\"redText\">Bad choice,</span> the bee was friendly.<br>Your bonus pay is unchanged, and remains at $0.52.</p>\n            ","response":0,"trial_type":"html-button-response","trial_index":32,"time_elapsed":331853,"internal_node_id":"0.0-4.0-1.10","subject_id":"5fb9adb28a52968d9f561808","study_id":"60edd13110225f80f9f3709b","session_id":"6196c5030ce8a4acbbd36797","condition":"full-information","relevant_dimensions":["wings","pattern"],"bee_group":{"antennae":"X","wings":"1","pattern":"D","legs":"X"},"bonus":0.5200000000000012},{"rt":1525.0999999046326,"stimulus":"bees-with-color/bee-A1SF.svg","response":1,"trial_type":"image-button-response","trial_index":33,"time_elapsed":333381,"internal_node_id":"0.0-4.0-0.11","subject_id":"5fb9adb28a52968d9f561808","study_id":"60edd13110225f80f9f3709b","session_id":"6196c5030ce8a4acbbd36797","condition":"full-information","relevant_dimensions":["wings","pattern"],"bee_group":{"antennae":"X","wings":"1","pattern":"D","legs":"X"},"action":"avoid","summary":"bad-avoid","bonus":0.5200000000000012},{"rt":1038.7000000476837,"stimulus":"\n                    <p><b>Action: <em>avoid</em></b></p>\n                    <p>This is the bee that you just saw.</p>\n                    <img src=\"bees-with-color/bee-A1SF.svg\" width=\"200\">\n                    <p><span class=\"redText\">Bad choice,</span> the bee was friendly.<br>Your bonus pay is unchanged, and remains at $0.52.</p>\n            ","response":0,"trial_type":"html-button-response","trial_index":34,"time_elapsed":334422,"internal_node_id":"0.0-4.0-1.11","subject_id":"5fb9adb28a52968d9f561808","study_id":"60edd13110225f80f9f3709b","session_id":"6196c5030ce8a4acbbd36797","condition":"full-information","relevant_dimensions":["wings","pattern"],"bee_group":{"antennae":"X","wings":"1","pattern":"D","legs":"X"},"bonus":0.5200000000000012},{"rt":914.2000000476837,"stimulus":"bees-with-color/bee-A1SM.svg","response":0,"trial_type":"image-button-response","trial_index":35,"time_elapsed":335337,"internal_node_id":"0.0-4.0-0.12","subject_id":"5fb9adb28a52968d9f561808","study_id":"60edd13110225f80f9f3709b","session_id":"6196c5030ce8a4acbbd36797","condition":"full-information","relevant_dimensions":["wings","pattern"],"bee_group":{"antennae":"X","wings":"1","pattern":"D","legs":"X"},"action":"harvest","summary":"good-harvest","bonus":0.5200000000000012},{"rt":935.5,"stimulus":"\n                    <p><b>Action: <em>harvest</em></b></p>\n                    <p>This is the bee that you just saw.</p>\n                    <img src=\"bees-with-color/bee-A1SM.svg\" width=\"200\">\n                    <p><span class=\"greenText\"><b>Successful harvest!</b></span><br>Your pay has increased by $0.02. Your bonus pay is now $0.54.</p>\n            ","response":0,"trial_type":"html-button-response","trial_index":36,"time_elapsed":336274,"internal_node_id":"0.0-4.0-1.12","subject_id":"5fb9adb28a52968d9f561808","study_id":"60edd13110225f80f9f3709b","session_id":"6196c5030ce8a4acbbd36797","condition":"full-information","relevant_dimensions":["wings","pattern"],"bee_group":{"antennae":"X","wings":"1","pattern":"D","legs":"X"},"bonus":0.5200000000000012},{"rt":2389.5,"stimulus":"bees-with-color/bee-B1DF.svg","response":0,"trial_type":"image-button-response","trial_index":37,"time_elapsed":338665,"internal_node_id":"0.0-4.0-0.13","subject_id":"5fb9adb28a52968d9f561808","study_id":"60edd13110225f80f9f3709b","session_id":"6196c5030ce8a4acbbd36797","condition":"full-information","relevant_dimensions":["wings","pattern"],"bee_group":{"antennae":"X","wings":"1","pattern":"D","legs":"X"},"action":"harvest","summary":"bad-harvest","bonus":0.5200000000000012},{"rt":2108.899999976158,"stimulus":"\n                    <p><b>Action: <em>harvest</em></b></p>\n                    <p>This is the bee that you just saw.</p>\n                    <img src=\"bees-with-color/bee-B1DF.svg\" width=\"200\">\n                    <p><span class=\"redText\">Bad choice, the bee was angry.</span><br><b>You have been stung!</b><br>Your pay has been decreased by $0.10. Your bonus pay is now $0.44.</p>\n            ","response":0,"trial_type":"html-button-response","trial_index":38,"time_elapsed":340776,"internal_node_id":"0.0-4.0-1.13","subject_id":"5fb9adb28a52968d9f561808","study_id":"60edd13110225f80f9f3709b","session_id":"6196c5030ce8a4acbbd36797","condition":"full-information","relevant_dimensions":["wings","pattern"],"bee_group":{"antennae":"X","wings":"1","pattern":"D","legs":"X"},"bonus":0.5200000000000012},{"rt":11007.5,"stimulus":"bees-with-color/bee-B2SM.svg","response":0,"trial_type":"image-button-response","trial_index":39,"time_elapsed":351785,"internal_node_id":"0.0-4.0-0.14","subject_id":"5fb9adb28a52968d9f561808","study_id":"60edd13110225f80f9f3709b","session_id":"6196c5030ce8a4acbbd36797","condition":"full-information","relevant_dimensions":["wings","pattern"],"bee_group":{"antennae":"X","wings":"1","pattern":"D","legs":"X"},"action":"harvest","summary":"good-harvest","bonus":0.5200000000000012},{"rt":1305,"stimulus":"\n                    <p><b>Action: <em>harvest</em></b></p>\n                    <p>This is the bee that you just saw.</p>\n                    <img src=\"bees-with-color/bee-B2SM.svg\" width=\"200\">\n                    <p><span class=\"greenText\"><b>Successful harvest!</b></span><br>Your pay has increased by $0.02. Your bonus pay is now $0.46.</p>\n            ","response":0,"trial_type":"html-button-response","trial_index":40,"time_elapsed":353092,"internal_node_id":"0.0-4.0-1.14","subject_id":"5fb9adb28a52968d9f561808","study_id":"60edd13110225f80f9f3709b","session_id":"6196c5030ce8a4acbbd36797","condition":"full-information","relevant_dimensions":["wings","pattern"],"bee_group":{"antennae":"X","wings":"1","pattern":"D","legs":"X"},"bonus":0.5200000000000012},{"rt":868.3999999761581,"stimulus":"bees-with-color/bee-A1DM.svg","response":0,"trial_type":"image-button-response","trial_index":41,"time_elapsed":353963,"internal_node_id":"0.0-4.0-0.15","subject_id":"5fb9adb28a52968d9f561808","study_id":"60edd13110225f80f9f3709b","session_id":"6196c5030ce8a4acbbd36797","condition":"full-information","relevant_dimensions":["wings","pattern"],"bee_group":{"antennae":"X","wings":"1","pattern":"D","legs":"X"},"action":"harvest","summary":"bad-harvest","bonus":0.5200000000000012},{"rt":1202.1000000238419,"stimulus":"\n                    <p><b>Action: <em>harvest</em></b></p>\n                    <p>This is the bee that you just saw.</p>\n                    <img src=\"bees-with-color/bee-A1DM.svg\" width=\"200\">\n                    <p><span class=\"redText\">Bad choice, the bee was angry.</span><br><b>You have been stung!</b><br>Your pay has been decreased by $0.10. Your bonus pay is now $0.36.</p>\n            ","response":0,"trial_type":"html-button-response","trial_index":42,"time_elapsed":355166,"internal_node_id":"0.0-4.0-1.15","subject_id":"5fb9adb28a52968d9f561808","study_id":"60edd13110225f80f9f3709b","session_id":"6196c5030ce8a4acbbd36797","condition":"full-information","relevant_dimensions":["wings","pattern"],"bee_group":{"antennae":"X","wings":"1","pattern":"D","legs":"X"},"bonus":0.5200000000000012},{"rt":1153.2999999523163,"stimulus":"bees-with-color/bee-A2SF.svg","response":0,"trial_type":"image-button-response","trial_index":43,"time_elapsed":356321,"internal_node_id":"0.0-4.0-0.16","subject_id":"5fb9adb28a52968d9f561808","study_id":"60edd13110225f80f9f3709b","session_id":"6196c5030ce8a4acbbd36797","condition":"full-information","relevant_dimensions":["wings","pattern"],"bee_group":{"antennae":"X","wings":"1","pattern":"D","legs":"X"},"action":"harvest","summary":"good-harvest","bonus":0.5200000000000012},{"rt":998.8000000715256,"stimulus":"\n                    <p><b>Action: <em>harvest</em></b></p>\n                    <p>This is the bee that you just saw.</p>\n                    <img src=\"bees-with-color/bee-A2SF.svg\" width=\"200\">\n                    <p><span class=\"greenText\"><b>Successful harvest!</b></span><br>Your pay has increased by $0.02. Your bonus pay is now $0.38.</p>\n            ","response":0,"trial_type":"html-button-response","trial_index":44,"time_elapsed":357321,"internal_node_id":"0.0-4.0-1.16","subject_id":"5fb9adb28a52968d9f561808","study_id":"60edd13110225f80f9f3709b","session_id":"6196c5030ce8a4acbbd36797","condition":"full-information","relevant_dimensions":["wings","pattern"],"bee_group":{"antennae":"X","wings":"1","pattern":"D","legs":"X"},"bonus":0.5200000000000012},{"rt":1276.3999999761581,"stimulus":"bees-with-color/bee-B2SM.svg","response":0,"trial_type":"image-button-response","trial_index":45,"time_elapsed":358599,"internal_node_id":"0.0-4.0-0.17","subject_id":"5fb9adb28a52968d9f561808","study_id":"60edd13110225f80f9f3709b","session_id":"6196c5030ce8a4acbbd36797","condition":"full-information","relevant_dimensions":["wings","pattern"],"bee_group":{"antennae":"X","wings":"1","pattern":"D","legs":"X"},"action":"harvest","summary":"good-harvest","bonus":0.5200000000000012},{"rt":1038.5999999046326,"stimulus":"\n                    <p><b>Action: <em>harvest</em></b></p>\n                    <p>This is the bee that you just saw.</p>\n                    <img src=\"bees-with-color/bee-B2SM.svg\" width=\"200\">\n                    <p><span class=\"greenText\"><b>Successful harvest!</b></span><br>Your pay has increased by $0.02. Your bonus pay is now $0.40.</p>\n            ","response":0,"trial_type":"html-button-response","trial_index":46,"time_elapsed":359639,"internal_node_id":"0.0-4.0-1.17","subject_id":"5fb9adb28a52968d9f561808","study_id":"60edd13110225f80f9f3709b","session_id":"6196c5030ce8a4acbbd36797","condition":"full-information","relevant_dimensions":["wings","pattern"],"bee_group":{"antennae":"X","wings":"1","pattern":"D","legs":"X"},"bonus":0.5200000000000012},{"rt":1651.8999999761581,"stimulus":"bees-with-color/bee-B1DM.svg","response":1,"trial_type":"image-button-response","trial_index":47,"time_elapsed":361292,"internal_node_id":"0.0-4.0-0.18","subject_id":"5fb9adb28a52968d9f561808","study_id":"60edd13110225f80f9f3709b","session_id":"6196c5030ce8a4acbbd36797","condition":"full-information","relevant_dimensions":["wings","pattern"],"bee_group":{"antennae":"X","wings":"1","pattern":"D","legs":"X"},"action":"avoid","summary":"good-avoid","bonus":0.5200000000000012},{"rt":1025,"stimulus":"\n                    <p><b>Action: <em>avoid</em></b></p>\n                    <p>This is the bee that you just saw.</p>\n                    <img src=\"bees-with-color/bee-B1DM.svg\" width=\"200\">\n                    <p><span class=\"greenText\">Good choice!</span>  This bee would have stung you.<br>Your bonus pay is unchanged, and remains at $0.40.</p>\n            ","response":0,"trial_type":"html-button-response","trial_index":48,"time_elapsed":362319,"internal_node_id":"0.0-4.0-1.18","subject_id":"5fb9adb28a52968d9f561808","study_id":"60edd13110225f80f9f3709b","session_id":"6196c5030ce8a4acbbd36797","condition":"full-information","relevant_dimensions":["wings","pattern"],"bee_group":{"antennae":"X","wings":"1","pattern":"D","legs":"X"},"bonus":0.5200000000000012},{"rt":1119.8999999761581,"stimulus":"bees-with-color/bee-B2DM.svg","response":1,"trial_type":"image-button-response","trial_index":49,"time_elapsed":363440,"internal_node_id":"0.0-4.0-0.19","subject_id":"5fb9adb28a52968d9f561808","study_id":"60edd13110225f80f9f3709b","session_id":"6196c5030ce8a4acbbd36797","condition":"full-information","relevant_dimensions":["wings","pattern"],"bee_group":{"antennae":"X","wings":"1","pattern":"D","legs":"X"},"action":"avoid","summary":"bad-avoid","bonus":0.5200000000000012},{"rt":965.7000000476837,"stimulus":"\n                    <p><b>Action: <em>avoid</em></b></p>\n                    <p>This is the bee that you just saw.</p>\n                    <img src=\"bees-with-color/bee-B2DM.svg\" width=\"200\">\n                    <p><span class=\"redText\">Bad choice,</span> the bee was friendly.<br>Your bonus pay is unchanged, and remains at $0.40.</p>\n            ","response":0,"trial_type":"html-button-response","trial_index":50,"time_elapsed":364407,"internal_node_id":"0.0-4.0-1.19","subject_id":"5fb9adb28a52968d9f561808","study_id":"60edd13110225f80f9f3709b","session_id":"6196c5030ce8a4acbbd36797","condition":"full-information","relevant_dimensions":["wings","pattern"],"bee_group":{"antennae":"X","wings":"1","pattern":"D","legs":"X"},"bonus":0.5200000000000012},{"rt":1748.2999999523163,"stimulus":"bees-with-color/bee-B1SM.svg","response":0,"trial_type":"image-button-response","trial_index":51,"time_elapsed":366157,"internal_node_id":"0.0-4.0-0.20","subject_id":"5fb9adb28a52968d9f561808","study_id":"60edd13110225f80f9f3709b","session_id":"6196c5030ce8a4acbbd36797","condition":"full-information","relevant_dimensions":["wings","pattern"],"bee_group":{"antennae":"X","wings":"1","pattern":"D","legs":"X"},"action":"harvest","summary":"good-harvest","bonus":0.5200000000000012},{"rt":1556,"stimulus":"\n                    <p><b>Action: <em>harvest</em></b></p>\n                    <p>This is the bee that you just saw.</p>\n                    <img src=\"bees-with-color/bee-B1SM.svg\" width=\"200\">\n                    <p><span class=\"greenText\"><b>Successful harvest!</b></span><br>Your pay has increased by $0.02. Your bonus pay is now $0.42.</p>\n            ","response":0,"trial_type":"html-button-response","trial_index":52,"time_elapsed":367714,"internal_node_id":"0.0-4.0-1.20","subject_id":"5fb9adb28a52968d9f561808","study_id":"60edd13110225f80f9f3709b","session_id":"6196c5030ce8a4acbbd36797","condition":"full-information","relevant_dimensions":["wings","pattern"],"bee_group":{"antennae":"X","wings":"1","pattern":"D","legs":"X"},"bonus":0.5200000000000012},{"rt":1568.5,"stimulus":"bees-with-color/bee-A1DM.svg","response":1,"trial_type":"image-button-response","trial_index":53,"time_elapsed":369284,"internal_node_id":"0.0-4.0-0.21","subject_id":"5fb9adb28a52968d9f561808","study_id":"60edd13110225f80f9f3709b","session_id":"6196c5030ce8a4acbbd36797","condition":"full-information","relevant_dimensions":["wings","pattern"],"bee_group":{"antennae":"X","wings":"1","pattern":"D","legs":"X"},"action":"avoid","summary":"good-avoid","bonus":0.5200000000000012},{"rt":2647.7999999523163,"stimulus":"\n                    <p><b>Action: <em>avoid</em></b></p>\n                    <p>This is the bee that you just saw.</p>\n                    <img src=\"bees-with-color/bee-A1DM.svg\" width=\"200\">\n                    <p><span class=\"greenText\">Good choice!</span>  This bee would have stung you.<br>Your bonus pay is unchanged, and remains at $0.42.</p>\n            ","response":0,"trial_type":"html-button-response","trial_index":54,"time_elapsed":371934,"internal_node_id":"0.0-4.0-1.21","subject_id":"5fb9adb28a52968d9f561808","study_id":"60edd13110225f80f9f3709b","session_id":"6196c5030ce8a4acbbd36797","condition":"full-information","relevant_dimensions":["wings","pattern"],"bee_group":{"antennae":"X","wings":"1","pattern":"D","legs":"X"},"bonus":0.5200000000000012},{"rt":796,"stimulus":"bees-with-color/bee-B1SF.svg","response":0,"trial_type":"image-button-response","trial_index":55,"time_elapsed":372731,"internal_node_id":"0.0-4.0-0.22","subject_id":"5fb9adb28a52968d9f561808","study_id":"60edd13110225f80f9f3709b","session_id":"6196c5030ce8a4acbbd36797","condition":"full-information","relevant_dimensions":["wings","pattern"],"bee_group":{"antennae":"X","wings":"1","pattern":"D","legs":"X"},"action":"harvest","summary":"good-harvest","bonus":0.5200000000000012},{"rt":1002.6000000238419,"stimulus":"\n                    <p><b>Action: <em>harvest</em></b></p>\n                    <p>This is the bee that you just saw.</p>\n                    <img src=\"bees-with-color/bee-B1SF.svg\" width=\"200\">\n                    <p><span class=\"greenText\"><b>Successful harvest!</b></span><br>Your pay has increased by $0.02. Your bonus pay is now $0.44.</p>\n            ","response":0,"trial_type":"html-button-response","trial_index":56,"time_elapsed":373735,"internal_node_id":"0.0-4.0-1.22","subject_id":"5fb9adb28a52968d9f561808","study_id":"60edd13110225f80f9f3709b","session_id":"6196c5030ce8a4acbbd36797","condition":"full-information","relevant_dimensions":["wings","pattern"],"bee_group":{"antennae":"X","wings":"1","pattern":"D","legs":"X"},"bonus":0.5200000000000012},{"rt":2323.600000023842,"stimulus":"bees-with-color/bee-A2DF.svg","response":0,"trial_type":"image-button-response","trial_index":57,"time_elapsed":376061,"internal_node_id":"0.0-4.0-0.23","subject_id":"5fb9adb28a52968d9f561808","study_id":"60edd13110225f80f9f3709b","session_id":"6196c5030ce8a4acbbd36797","condition":"full-information","relevant_dimensions":["wings","pattern"],"bee_group":{"antennae":"X","wings":"1","pattern":"D","legs":"X"},"action":"harvest","summary":"good-harvest","bonus":0.5200000000000012},{"rt":816.7000000476837,"stimulus":"\n                    <p><b>Action: <em>harvest</em></b></p>\n                    <p>This is the bee that you just saw.</p>\n                    <img src=\"bees-with-color/bee-A2DF.svg\" width=\"200\">\n                    <p><span class=\"greenText\"><b>Successful harvest!</b></span><br>Your pay has increased by $0.02. Your bonus pay is now $0.46.</p>\n            ","response":0,"trial_type":"html-button-response","trial_index":58,"time_elapsed":376879,"internal_node_id":"0.0-4.0-1.23","subject_id":"5fb9adb28a52968d9f561808","study_id":"60edd13110225f80f9f3709b","session_id":"6196c5030ce8a4acbbd36797","condition":"full-information","relevant_dimensions":["wings","pattern"],"bee_group":{"antennae":"X","wings":"1","pattern":"D","legs":"X"},"bonus":0.5200000000000012},{"rt":1268,"stimulus":"bees-with-color/bee-A1SF.svg","response":0,"trial_type":"image-button-response","trial_index":59,"time_elapsed":378149,"internal_node_id":"0.0-4.0-0.24","subject_id":"5fb9adb28a52968d9f561808","study_id":"60edd13110225f80f9f3709b","session_id":"6196c5030ce8a4acbbd36797","condition":"full-information","relevant_dimensions":["wings","pattern"],"bee_group":{"antennae":"X","wings":"1","pattern":"D","legs":"X"},"action":"harvest","summary":"good-harvest","bonus":0.5200000000000012},{"rt":1046.2999999523163,"stimulus":"\n                    <p><b>Action: <em>harvest</em></b></p>\n                    <p>This is the bee that you just saw.</p>\n                    <img src=\"bees-with-color/bee-A1SF.svg\" width=\"200\">\n                    <p><span class=\"greenText\"><b>Successful harvest!</b></span><br>Your pay has increased by $0.02. Your bonus pay is now $0.48.</p>\n            ","response":0,"trial_type":"html-button-response","trial_index":60,"time_elapsed":379197,"internal_node_id":"0.0-4.0-1.24","subject_id":"5fb9adb28a52968d9f561808","study_id":"60edd13110225f80f9f3709b","session_id":"6196c5030ce8a4acbbd36797","condition":"full-information","relevant_dimensions":["wings","pattern"],"bee_group":{"antennae":"X","wings":"1","pattern":"D","legs":"X"},"bonus":0.5200000000000012},{"rt":1111.9000000953674,"stimulus":"bees-with-color/bee-A1SM.svg","response":0,"trial_type":"image-button-response","trial_index":61,"time_elapsed":380311,"internal_node_id":"0.0-4.0-0.25","subject_id":"5fb9adb28a52968d9f561808","study_id":"60edd13110225f80f9f3709b","session_id":"6196c5030ce8a4acbbd36797","condition":"full-information","relevant_dimensions":["wings","pattern"],"bee_group":{"antennae":"X","wings":"1","pattern":"D","legs":"X"},"action":"harvest","summary":"good-harvest","bonus":0.5200000000000012},{"rt":715.0999999046326,"stimulus":"\n                    <p><b>Action: <em>harvest</em></b></p>\n                    <p>This is the bee that you just saw.</p>\n                    <img src=\"bees-with-color/bee-A1SM.svg\" width=\"200\">\n                    <p><span class=\"greenText\"><b>Successful harvest!</b></span><br>Your pay has increased by $0.02. Your bonus pay is now $0.50.</p>\n            ","response":0,"trial_type":"html-button-response","trial_index":62,"time_elapsed":381027,"internal_node_id":"0.0-4.0-1.25","subject_id":"5fb9adb28a52968d9f561808","study_id":"60edd13110225f80f9f3709b","session_id":"6196c5030ce8a4acbbd36797","condition":"full-information","relevant_dimensions":["wings","pattern"],"bee_group":{"antennae":"X","wings":"1","pattern":"D","legs":"X"},"bonus":0.5200000000000012},{"rt":12976.700000047684,"stimulus":"bees-with-color/bee-A1DF.svg","response":0,"trial_type":"image-button-response","trial_index":63,"time_elapsed":394006,"internal_node_id":"0.0-4.0-0.26","subject_id":"5fb9adb28a52968d9f561808","study_id":"60edd13110225f80f9f3709b","session_id":"6196c5030ce8a4acbbd36797","condition":"full-information","relevant_dimensions":["wings","pattern"],"bee_group":{"antennae":"X","wings":"1","pattern":"D","legs":"X"},"action":"harvest","summary":"bad-harvest","bonus":0.5200000000000012},{"rt":1844.1000000238419,"stimulus":"\n                    <p><b>Action: <em>harvest</em></b></p>\n                    <p>This is the bee that you just saw.</p>\n                    <img src=\"bees-with-color/bee-A1DF.svg\" width=\"200\">\n                    <p><span class=\"redText\">Bad choice, the bee was angry.</span><br><b>You have been stung!</b><br>Your pay has been decreased by $0.10. Your bonus pay is now $0.40.</p>\n            ","response":0,"trial_type":"html-button-response","trial_index":64,"time_elapsed":395852,"internal_node_id":"0.0-4.0-1.26","subject_id":"5fb9adb28a52968d9f561808","study_id":"60edd13110225f80f9f3709b","session_id":"6196c5030ce8a4acbbd36797","condition":"full-information","relevant_dimensions":["wings","pattern"],"bee_group":{"antennae":"X","wings":"1","pattern":"D","legs":"X"},"bonus":0.5200000000000012},{"rt":1060.1000000238419,"stimulus":"bees-with-color/bee-A2SM.svg","response":0,"trial_type":"image-button-response","trial_index":65,"time_elapsed":396914,"internal_node_id":"0.0-4.0-0.27","subject_id":"5fb9adb28a52968d9f561808","study_id":"60edd13110225f80f9f3709b","session_id":"6196c5030ce8a4acbbd36797","condition":"full-information","relevant_dimensions":["wings","pattern"],"bee_group":{"antennae":"X","wings":"1","pattern":"D","legs":"X"},"action":"harvest","summary":"good-harvest","bonus":0.5200000000000012},{"rt":935.2000000476837,"stimulus":"\n                    <p><b>Action: <em>harvest</em></b></p>\n                    <p>This is the bee that you just saw.</p>\n                    <img src=\"bees-with-color/bee-A2SM.svg\" width=\"200\">\n                    <p><span class=\"greenText\"><b>Successful harvest!</b></span><br>Your pay has increased by $0.02. Your bonus pay is now $0.42.</p>\n            ","response":0,"trial_type":"html-button-response","trial_index":66,"time_elapsed":397851,"internal_node_id":"0.0-4.0-1.27","subject_id":"5fb9adb28a52968d9f561808","study_id":"60edd13110225f80f9f3709b","session_id":"6196c5030ce8a4acbbd36797","condition":"full-information","relevant_dimensions":["wings","pattern"],"bee_group":{"antennae":"X","wings":"1","pattern":"D","legs":"X"},"bonus":0.5200000000000012},{"rt":927.6999999284744,"stimulus":"bees-with-color/bee-B2SF.svg","response":0,"trial_type":"image-button-response","trial_index":67,"time_elapsed":398781,"internal_node_id":"0.0-4.0-0.28","subject_id":"5fb9adb28a52968d9f561808","study_id":"60edd13110225f80f9f3709b","session_id":"6196c5030ce8a4acbbd36797","condition":"full-information","relevant_dimensions":["wings","pattern"],"bee_group":{"antennae":"X","wings":"1","pattern":"D","legs":"X"},"action":"harvest","summary":"good-harvest","bonus":0.5200000000000012},{"rt":943.7000000476837,"stimulus":"\n                    <p><b>Action: <em>harvest</em></b></p>\n                    <p>This is the bee that you just saw.</p>\n                    <img src=\"bees-with-color/bee-B2SF.svg\" width=\"200\">\n                    <p><span class=\"greenText\"><b>Successful harvest!</b></span><br>Your pay has increased by $0.02. Your bonus pay is now $0.44.</p>\n            ","response":0,"trial_type":"html-button-response","trial_index":68,"time_elapsed":399726,"internal_node_id":"0.0-4.0-1.28","subject_id":"5fb9adb28a52968d9f561808","study_id":"60edd13110225f80f9f3709b","session_id":"6196c5030ce8a4acbbd36797","condition":"full-information","relevant_dimensions":["wings","pattern"],"bee_group":{"antennae":"X","wings":"1","pattern":"D","legs":"X"},"bonus":0.5200000000000012},{"rt":1001.9000000953674,"stimulus":"bees-with-color/bee-A2DM.svg","response":1,"trial_type":"image-button-response","trial_index":69,"time_elapsed":400730,"internal_node_id":"0.0-4.0-0.29","subject_id":"5fb9adb28a52968d9f561808","study_id":"60edd13110225f80f9f3709b","session_id":"6196c5030ce8a4acbbd36797","condition":"full-information","relevant_dimensions":["wings","pattern"],"bee_group":{"antennae":"X","wings":"1","pattern":"D","legs":"X"},"action":"avoid","summary":"bad-avoid","bonus":0.5200000000000012},{"rt":1276.0999999046326,"stimulus":"\n                    <p><b>Action: <em>avoid</em></b></p>\n                    <p>This is the bee that you just saw.</p>\n                    <img src=\"bees-with-color/bee-A2DM.svg\" width=\"200\">\n                    <p><span class=\"redText\">Bad choice,</span> the bee was friendly.<br>Your bonus pay is unchanged, and remains at $0.44.</p>\n            ","response":0,"trial_type":"html-button-response","trial_index":70,"time_elapsed":402007,"internal_node_id":"0.0-4.0-1.29","subject_id":"5fb9adb28a52968d9f561808","study_id":"60edd13110225f80f9f3709b","session_id":"6196c5030ce8a4acbbd36797","condition":"full-information","relevant_dimensions":["wings","pattern"],"bee_group":{"antennae":"X","wings":"1","pattern":"D","legs":"X"},"bonus":0.5200000000000012},{"rt":1001.4000000953674,"stimulus":"bees-with-color/bee-B2DF.svg","response":0,"trial_type":"image-button-response","trial_index":71,"time_elapsed":403011,"internal_node_id":"0.0-4.0-0.30","subject_id":"5fb9adb28a52968d9f561808","study_id":"60edd13110225f80f9f3709b","session_id":"6196c5030ce8a4acbbd36797","condition":"full-information","relevant_dimensions":["wings","pattern"],"bee_group":{"antennae":"X","wings":"1","pattern":"D","legs":"X"},"action":"harvest","summary":"good-harvest","bonus":0.5200000000000012},{"rt":1038.8999999761581,"stimulus":"\n                    <p><b>Action: <em>harvest</em></b></p>\n                    <p>This is the bee that you just saw.</p>\n                    <img src=\"bees-with-color/bee-B2DF.svg\" width=\"200\">\n                    <p><span class=\"greenText\"><b>Successful harvest!</b></span><br>Your pay has increased by $0.02. Your bonus pay is now $0.46.</p>\n            ","response":0,"trial_type":"html-button-response","trial_index":72,"time_elapsed":404051,"internal_node_id":"0.0-4.0-1.30","subject_id":"5fb9adb28a52968d9f561808","study_id":"60edd13110225f80f9f3709b","session_id":"6196c5030ce8a4acbbd36797","condition":"full-information","relevant_dimensions":["wings","pattern"],"bee_group":{"antennae":"X","wings":"1","pattern":"D","legs":"X"},"bonus":0.5200000000000012},{"rt":1763.5,"stimulus":"bees-with-color/bee-B1DF.svg","response":0,"trial_type":"image-button-response","trial_index":73,"time_elapsed":405816,"internal_node_id":"0.0-4.0-0.31","subject_id":"5fb9adb28a52968d9f561808","study_id":"60edd13110225f80f9f3709b","session_id":"6196c5030ce8a4acbbd36797","condition":"full-information","relevant_dimensions":["wings","pattern"],"bee_group":{"antennae":"X","wings":"1","pattern":"D","legs":"X"},"action":"harvest","summary":"bad-harvest","bonus":0.5200000000000012},{"rt":1666.2999999523163,"stimulus":"\n                    <p><b>Action: <em>harvest</em></b></p>\n                    <p>This is the bee that you just saw.</p>\n                    <img src=\"bees-with-color/bee-B1DF.svg\" width=\"200\">\n                    <p><span class=\"redText\">Bad choice, the bee was angry.</span><br><b>You have been stung!</b><br>Your pay has been decreased by $0.10. Your bonus pay is now $0.36.</p>\n            ","response":0,"trial_type":"html-button-response","trial_index":74,"time_elapsed":407484,"internal_node_id":"0.0-4.0-1.31","subject_id":"5fb9adb28a52968d9f561808","study_id":"60edd13110225f80f9f3709b","session_id":"6196c5030ce8a4acbbd36797","condition":"full-information","relevant_dimensions":["wings","pattern"],"bee_group":{"antennae":"X","wings":"1","pattern":"D","legs":"X"},"bonus":0.5200000000000012},{"rt":1541,"stimulus":"bees-with-color/bee-B2DM.svg","response":1,"trial_type":"image-button-response","trial_index":75,"time_elapsed":409026,"internal_node_id":"0.0-4.0-0.32","subject_id":"5fb9adb28a52968d9f561808","study_id":"60edd13110225f80f9f3709b","session_id":"6196c5030ce8a4acbbd36797","condition":"full-information","relevant_dimensions":["wings","pattern"],"bee_group":{"antennae":"X","wings":"1","pattern":"D","legs":"X"},"action":"avoid","summary":"bad-avoid","bonus":0.5200000000000012},{"rt":884.1000000238419,"stimulus":"\n                    <p><b>Action: <em>avoid</em></b></p>\n                    <p>This is the bee that you just saw.</p>\n                    <img src=\"bees-with-color/bee-B2DM.svg\" width=\"200\">\n                    <p><span class=\"redText\">Bad choice,</span> the bee was friendly.<br>Your bonus pay is unchanged, and remains at $0.36.</p>\n            ","response":0,"trial_type":"html-button-response","trial_index":76,"time_elapsed":409912,"internal_node_id":"0.0-4.0-1.32","subject_id":"5fb9adb28a52968d9f561808","study_id":"60edd13110225f80f9f3709b","session_id":"6196c5030ce8a4acbbd36797","condition":"full-information","relevant_dimensions":["wings","pattern"],"bee_group":{"antennae":"X","wings":"1","pattern":"D","legs":"X"},"bonus":0.5200000000000012},{"rt":743.2000000476837,"stimulus":"bees-with-color/bee-A1SM.svg","response":0,"trial_type":"image-button-response","trial_index":77,"time_elapsed":410658,"internal_node_id":"0.0-4.0-0.33","subject_id":"5fb9adb28a52968d9f561808","study_id":"60edd13110225f80f9f3709b","session_id":"6196c5030ce8a4acbbd36797","condition":"full-information","relevant_dimensions":["wings","pattern"],"bee_group":{"antennae":"X","wings":"1","pattern":"D","legs":"X"},"action":"harvest","summary":"good-harvest","bonus":0.5200000000000012},{"rt":913.5,"stimulus":"\n                    <p><b>Action: <em>harvest</em></b></p>\n                    <p>This is the bee that you just saw.</p>\n                    <img src=\"bees-with-color/bee-A1SM.svg\" width=\"200\">\n                    <p><span class=\"greenText\"><b>Successful harvest!</b></span><br>Your pay has increased by $0.02. Your bonus pay is now $0.38.</p>\n            ","response":0,"trial_type":"html-button-response","trial_index":78,"time_elapsed":411573,"internal_node_id":"0.0-4.0-1.33","subject_id":"5fb9adb28a52968d9f561808","study_id":"60edd13110225f80f9f3709b","session_id":"6196c5030ce8a4acbbd36797","condition":"full-information","relevant_dimensions":["wings","pattern"],"bee_group":{"antennae":"X","wings":"1","pattern":"D","legs":"X"},"bonus":0.5200000000000012},{"rt":2729.3000000715256,"stimulus":"bees-with-color/bee-A1DM.svg","response":1,"trial_type":"image-button-response","trial_index":79,"time_elapsed":414303,"internal_node_id":"0.0-4.0-0.34","subject_id":"5fb9adb28a52968d9f561808","study_id":"60edd13110225f80f9f3709b","session_id":"6196c5030ce8a4acbbd36797","condition":"full-information","relevant_dimensions":["wings","pattern"],"bee_group":{"antennae":"X","wings":"1","pattern":"D","legs":"X"},"action":"avoid","summary":"good-avoid","bonus":0.5200000000000012},{"rt":1083.0999999046326,"stimulus":"\n                    <p><b>Action: <em>avoid</em></b></p>\n                    <p>This is the bee that you just saw.</p>\n                    <img src=\"bees-with-color/bee-A1DM.svg\" width=\"200\">\n                    <p><span class=\"greenText\">Good choice!</span>  This bee would have stung you.<br>Your bonus pay is unchanged, and remains at $0.38.</p>\n            ","response":0,"trial_type":"html-button-response","trial_index":80,"time_elapsed":415388,"internal_node_id":"0.0-4.0-1.34","subject_id":"5fb9adb28a52968d9f561808","study_id":"60edd13110225f80f9f3709b","session_id":"6196c5030ce8a4acbbd36797","condition":"full-information","relevant_dimensions":["wings","pattern"],"bee_group":{"antennae":"X","wings":"1","pattern":"D","legs":"X"},"bonus":0.5200000000000012},{"rt":935.1000000238419,"stimulus":"bees-with-color/bee-B1SM.svg","response":0,"trial_type":"image-button-response","trial_index":81,"time_elapsed":416325,"internal_node_id":"0.0-4.0-0.35","subject_id":"5fb9adb28a52968d9f561808","study_id":"60edd13110225f80f9f3709b","session_id":"6196c5030ce8a4acbbd36797","condition":"full-information","relevant_dimensions":["wings","pattern"],"bee_group":{"antennae":"X","wings":"1","pattern":"D","legs":"X"},"action":"harvest","summary":"good-harvest","bonus":0.5200000000000012},{"rt":803.1999999284744,"stimulus":"\n                    <p><b>Action: <em>harvest</em></b></p>\n                    <p>This is the bee that you just saw.</p>\n                    <img src=\"bees-with-color/bee-B1SM.svg\" width=\"200\">\n                    <p><span class=\"greenText\"><b>Successful harvest!</b></span><br>Your pay has increased by $0.02. Your bonus pay is now $0.40.</p>\n            ","response":0,"trial_type":"html-button-response","trial_index":82,"time_elapsed":417129,"internal_node_id":"0.0-4.0-1.35","subject_id":"5fb9adb28a52968d9f561808","study_id":"60edd13110225f80f9f3709b","session_id":"6196c5030ce8a4acbbd36797","condition":"full-information","relevant_dimensions":["wings","pattern"],"bee_group":{"antennae":"X","wings":"1","pattern":"D","legs":"X"},"bonus":0.5200000000000012},{"rt":1527.3999999761581,"stimulus":"bees-with-color/bee-B1DF.svg","response":1,"trial_type":"image-button-response","trial_index":83,"time_elapsed":418658,"internal_node_id":"0.0-4.0-0.36","subject_id":"5fb9adb28a52968d9f561808","study_id":"60edd13110225f80f9f3709b","session_id":"6196c5030ce8a4acbbd36797","condition":"full-information","relevant_dimensions":["wings","pattern"],"bee_group":{"antennae":"X","wings":"1","pattern":"D","legs":"X"},"action":"avoid","summary":"good-avoid","bonus":0.5200000000000012},{"rt":773,"stimulus":"\n                    <p><b>Action: <em>avoid</em></b></p>\n                    <p>This is the bee that you just saw.</p>\n                    <img src=\"bees-with-color/bee-B1DF.svg\" width=\"200\">\n                    <p><span class=\"greenText\">Good choice!</span>  This bee would have stung you.<br>Your bonus pay is unchanged, and remains at $0.40.</p>\n            ","response":0,"trial_type":"html-button-response","trial_index":84,"time_elapsed":419432,"internal_node_id":"0.0-4.0-1.36","subject_id":"5fb9adb28a52968d9f561808","study_id":"60edd13110225f80f9f3709b","session_id":"6196c5030ce8a4acbbd36797","condition":"full-information","relevant_dimensions":["wings","pattern"],"bee_group":{"antennae":"X","wings":"1","pattern":"D","legs":"X"},"bonus":0.5200000000000012},{"rt":795.7000000476837,"stimulus":"bees-with-color/bee-B2DF.svg","response":0,"trial_type":"image-button-response","trial_index":85,"time_elapsed":420229,"internal_node_id":"0.0-4.0-0.37","subject_id":"5fb9adb28a52968d9f561808","study_id":"60edd13110225f80f9f3709b","session_id":"6196c5030ce8a4acbbd36797","condition":"full-information","relevant_dimensions":["wings","pattern"],"bee_group":{"antennae":"X","wings":"1","pattern":"D","legs":"X"},"action":"harvest","summary":"good-harvest","bonus":0.5200000000000012},{"rt":1195.6999999284744,"stimulus":"\n                    <p><b>Action: <em>harvest</em></b></p>\n                    <p>This is the bee that you just saw.</p>\n                    <img src=\"bees-with-color/bee-B2DF.svg\" width=\"200\">\n                    <p><span class=\"greenText\"><b>Successful harvest!</b></span><br>Your pay has increased by $0.02. Your bonus pay is now $0.42.</p>\n            ","response":0,"trial_type":"html-button-response","trial_index":86,"time_elapsed":421426,"internal_node_id":"0.0-4.0-1.37","subject_id":"5fb9adb28a52968d9f561808","study_id":"60edd13110225f80f9f3709b","session_id":"6196c5030ce8a4acbbd36797","condition":"full-information","relevant_dimensions":["wings","pattern"],"bee_group":{"antennae":"X","wings":"1","pattern":"D","legs":"X"},"bonus":0.5200000000000012},{"rt":898.4000000953674,"stimulus":"bees-with-color/bee-A2SF.svg","response":0,"trial_type":"image-button-response","trial_index":87,"time_elapsed":422326,"internal_node_id":"0.0-4.0-0.38","subject_id":"5fb9adb28a52968d9f561808","study_id":"60edd13110225f80f9f3709b","session_id":"6196c5030ce8a4acbbd36797","condition":"full-information","relevant_dimensions":["wings","pattern"],"bee_group":{"antennae":"X","wings":"1","pattern":"D","legs":"X"},"action":"harvest","summary":"good-harvest","bonus":0.5200000000000012},{"rt":737.6999999284744,"stimulus":"\n                    <p><b>Action: <em>harvest</em></b></p>\n                    <p>This is the bee that you just saw.</p>\n                    <img src=\"bees-with-color/bee-A2SF.svg\" width=\"200\">\n                    <p><span class=\"greenText\"><b>Successful harvest!</b></span><br>Your pay has increased by $0.02. Your bonus pay is now $0.44.</p>\n            ","response":0,"trial_type":"html-button-response","trial_index":88,"time_elapsed":423065,"internal_node_id":"0.0-4.0-1.38","subject_id":"5fb9adb28a52968d9f561808","study_id":"60edd13110225f80f9f3709b","session_id":"6196c5030ce8a4acbbd36797","condition":"full-information","relevant_dimensions":["wings","pattern"],"bee_group":{"antennae":"X","wings":"1","pattern":"D","legs":"X"},"bonus":0.5200000000000012},{"rt":10304.199999928474,"stimulus":"bees-with-color/bee-B1SF.svg","response":1,"trial_type":"image-button-response","trial_index":89,"time_elapsed":433376,"internal_node_id":"0.0-4.0-0.39","subject_id":"5fb9adb28a52968d9f561808","study_id":"60edd13110225f80f9f3709b","session_id":"6196c5030ce8a4acbbd36797","condition":"full-information","relevant_dimensions":["wings","pattern"],"bee_group":{"antennae":"X","wings":"1","pattern":"D","legs":"X"},"action":"avoid","summary":"bad-avoid","bonus":0.5200000000000012},{"rt":6208.200000047684,"stimulus":"\n                    <p><b>Action: <em>avoid</em></b></p>\n                    <p>This is the bee that you just saw.</p>\n                    <img src=\"bees-with-color/bee-B1SF.svg\" width=\"200\">\n                    <p><span class=\"redText\">Bad choice,</span> the bee was friendly.<br>Your bonus pay is unchanged, and remains at $0.44.</p>\n            ","response":0,"trial_type":"html-button-response","trial_index":90,"time_elapsed":439586,"internal_node_id":"0.0-4.0-1.39","subject_id":"5fb9adb28a52968d9f561808","study_id":"60edd13110225f80f9f3709b","session_id":"6196c5030ce8a4acbbd36797","condition":"full-information","relevant_dimensions":["wings","pattern"],"bee_group":{"antennae":"X","wings":"1","pattern":"D","legs":"X"},"bonus":0.5200000000000012},{"rt":1621.6999999284744,"stimulus":"bees-with-color/bee-A1DF.svg","response":1,"trial_type":"image-button-response","trial_index":91,"time_elapsed":441209,"internal_node_id":"0.0-4.0-0.40","subject_id":"5fb9adb28a52968d9f561808","study_id":"60edd13110225f80f9f3709b","session_id":"6196c5030ce8a4acbbd36797","condition":"full-information","relevant_dimensions":["wings","pattern"],"bee_group":{"antennae":"X","wings":"1","pattern":"D","legs":"X"},"action":"avoid","summary":"good-avoid","bonus":0.5200000000000012},{"rt":1652,"stimulus":"\n                    <p><b>Action: <em>avoid</em></b></p>\n                    <p>This is the bee that you just saw.</p>\n                    <img src=\"bees-with-color/bee-A1DF.svg\" width=\"200\">\n                    <p><span class=\"greenText\">Good choice!</span>  This bee would have stung you.<br>Your bonus pay is unchanged, and remains at $0.44.</p>\n            ","response":0,"trial_type":"html-button-response","trial_index":92,"time_elapsed":442862,"internal_node_id":"0.0-4.0-1.40","subject_id":"5fb9adb28a52968d9f561808","study_id":"60edd13110225f80f9f3709b","session_id":"6196c5030ce8a4acbbd36797","condition":"full-information","relevant_dimensions":["wings","pattern"],"bee_group":{"antennae":"X","wings":"1","pattern":"D","legs":"X"},"bonus":0.5200000000000012},{"rt":884.1000000238419,"stimulus":"bees-with-color/bee-A2SM.svg","response":0,"trial_type":"image-button-response","trial_index":93,"time_elapsed":443748,"internal_node_id":"0.0-4.0-0.41","subject_id":"5fb9adb28a52968d9f561808","study_id":"60edd13110225f80f9f3709b","session_id":"6196c5030ce8a4acbbd36797","condition":"full-information","relevant_dimensions":["wings","pattern"],"bee_group":{"antennae":"X","wings":"1","pattern":"D","legs":"X"},"action":"harvest","summary":"good-harvest","bonus":0.5200000000000012},{"rt":766,"stimulus":"\n                    <p><b>Action: <em>harvest</em></b></p>\n                    <p>This is the bee that you just saw.</p>\n                    <img src=\"bees-with-color/bee-A2SM.svg\" width=\"200\">\n                    <p><span class=\"greenText\"><b>Successful harvest!</b></span><br>Your pay has increased by $0.02. Your bonus pay is now $0.46.</p>\n            ","response":0,"trial_type":"html-button-response","trial_index":94,"time_elapsed":444515,"internal_node_id":"0.0-4.0-1.41","subject_id":"5fb9adb28a52968d9f561808","study_id":"60edd13110225f80f9f3709b","session_id":"6196c5030ce8a4acbbd36797","condition":"full-information","relevant_dimensions":["wings","pattern"],"bee_group":{"antennae":"X","wings":"1","pattern":"D","legs":"X"},"bonus":0.5200000000000012},{"rt":1267.8999999761581,"stimulus":"bees-with-color/bee-A2DM.svg","response":1,"trial_type":"image-button-response","trial_index":95,"time_elapsed":445785,"internal_node_id":"0.0-4.0-0.42","subject_id":"5fb9adb28a52968d9f561808","study_id":"60edd13110225f80f9f3709b","session_id":"6196c5030ce8a4acbbd36797","condition":"full-information","relevant_dimensions":["wings","pattern"],"bee_group":{"antennae":"X","wings":"1","pattern":"D","legs":"X"},"action":"avoid","summary":"bad-avoid","bonus":0.5200000000000012},{"rt":1414.6999999284744,"stimulus":"\n                    <p><b>Action: <em>avoid</em></b></p>\n                    <p>This is the bee that you just saw.</p>\n                    <img src=\"bees-with-color/bee-A2DM.svg\" width=\"200\">\n                    <p><span class=\"redText\">Bad choice,</span> the bee was friendly.<br>Your bonus pay is unchanged, and remains at $0.46.</p>\n            ","response":0,"trial_type":"html-button-response","trial_index":96,"time_elapsed":447201,"internal_node_id":"0.0-4.0-1.42","subject_id":"5fb9adb28a52968d9f561808","study_id":"60edd13110225f80f9f3709b","session_id":"6196c5030ce8a4acbbd36797","condition":"full-information","relevant_dimensions":["wings","pattern"],"bee_group":{"antennae":"X","wings":"1","pattern":"D","legs":"X"},"bonus":0.5200000000000012},{"rt":758.8000000715256,"stimulus":"bees-with-color/bee-B2SF.svg","response":0,"trial_type":"image-button-response","trial_index":97,"time_elapsed":447961,"internal_node_id":"0.0-4.0-0.43","subject_id":"5fb9adb28a52968d9f561808","study_id":"60edd13110225f80f9f3709b","session_id":"6196c5030ce8a4acbbd36797","condition":"full-information","relevant_dimensions":["wings","pattern"],"bee_group":{"antennae":"X","wings":"1","pattern":"D","legs":"X"},"action":"harvest","summary":"good-harvest","bonus":0.5200000000000012},{"rt":1031.8999999761581,"stimulus":"\n                    <p><b>Action: <em>harvest</em></b></p>\n                    <p>This is the bee that you just saw.</p>\n                    <img src=\"bees-with-color/bee-B2SF.svg\" width=\"200\">\n                    <p><span class=\"greenText\"><b>Successful harvest!</b></span><br>Your pay has increased by $0.02. Your bonus pay is now $0.48.</p>\n            ","response":0,"trial_type":"html-button-response","trial_index":98,"time_elapsed":448994,"internal_node_id":"0.0-4.0-1.43","subject_id":"5fb9adb28a52968d9f561808","study_id":"60edd13110225f80f9f3709b","session_id":"6196c5030ce8a4acbbd36797","condition":"full-information","relevant_dimensions":["wings","pattern"],"bee_group":{"antennae":"X","wings":"1","pattern":"D","legs":"X"},"bonus":0.5200000000000012},{"rt":1356.7000000476837,"stimulus":"bees-with-color/bee-B1DM.svg","response":1,"trial_type":"image-button-response","trial_index":99,"time_elapsed":450352,"internal_node_id":"0.0-4.0-0.44","subject_id":"5fb9adb28a52968d9f561808","study_id":"60edd13110225f80f9f3709b","session_id":"6196c5030ce8a4acbbd36797","condition":"full-information","relevant_dimensions":["wings","pattern"],"bee_group":{"antennae":"X","wings":"1","pattern":"D","legs":"X"},"action":"avoid","summary":"good-avoid","bonus":0.5200000000000012},{"rt":1053.2000000476837,"stimulus":"\n                    <p><b>Action: <em>avoid</em></b></p>\n                    <p>This is the bee that you just saw.</p>\n                    <img src=\"bees-with-color/bee-B1DM.svg\" width=\"200\">\n                    <p><span class=\"greenText\">Good choice!</span>  This bee would have stung you.<br>Your bonus pay is unchanged, and remains at $0.48.</p>\n            ","response":0,"trial_type":"html-button-response","trial_index":100,"time_elapsed":451407,"internal_node_id":"0.0-4.0-1.44","subject_id":"5fb9adb28a52968d9f561808","study_id":"60edd13110225f80f9f3709b","session_id":"6196c5030ce8a4acbbd36797","condition":"full-information","relevant_dimensions":["wings","pattern"],"bee_group":{"antennae":"X","wings":"1","pattern":"D","legs":"X"},"bonus":0.5200000000000012},{"rt":876.6999999284744,"stimulus":"bees-with-color/bee-A1SF.svg","response":0,"trial_type":"image-button-response","trial_index":101,"time_elapsed":452285,"internal_node_id":"0.0-4.0-0.45","subject_id":"5fb9adb28a52968d9f561808","study_id":"60edd13110225f80f9f3709b","session_id":"6196c5030ce8a4acbbd36797","condition":"full-information","relevant_dimensions":["wings","pattern"],"bee_group":{"antennae":"X","wings":"1","pattern":"D","legs":"X"},"action":"harvest","summary":"good-harvest","bonus":0.5200000000000012},{"rt":936.1000000238419,"stimulus":"\n                    <p><b>Action: <em>harvest</em></b></p>\n                    <p>This is the bee that you just saw.</p>\n                    <img src=\"bees-with-color/bee-A1SF.svg\" width=\"200\">\n                    <p><span class=\"greenText\"><b>Successful harvest!</b></span><br>Your pay has increased by $0.02. Your bonus pay is now $0.50.</p>\n            ","response":0,"trial_type":"html-button-response","trial_index":102,"time_elapsed":453223,"internal_node_id":"0.0-4.0-1.45","subject_id":"5fb9adb28a52968d9f561808","study_id":"60edd13110225f80f9f3709b","session_id":"6196c5030ce8a4acbbd36797","condition":"full-information","relevant_dimensions":["wings","pattern"],"bee_group":{"antennae":"X","wings":"1","pattern":"D","legs":"X"},"bonus":0.5200000000000012},{"rt":795.6000000238419,"stimulus":"bees-with-color/bee-B2SM.svg","response":0,"trial_type":"image-button-response","trial_index":103,"time_elapsed":454020,"internal_node_id":"0.0-4.0-0.46","subject_id":"5fb9adb28a52968d9f561808","study_id":"60edd13110225f80f9f3709b","session_id":"6196c5030ce8a4acbbd36797","condition":"full-information","relevant_dimensions":["wings","pattern"],"bee_group":{"antennae":"X","wings":"1","pattern":"D","legs":"X"},"action":"harvest","summary":"good-harvest","bonus":0.5200000000000012},{"rt":831.8999999761581,"stimulus":"\n                    <p><b>Action: <em>harvest</em></b></p>\n                    <p>This is the bee that you just saw.</p>\n                    <img src=\"bees-with-color/bee-B2SM.svg\" width=\"200\">\n                    <p><span class=\"greenText\"><b>Successful harvest!</b></span><br>Your pay has increased by $0.02. Your bonus pay is now $0.52.</p>\n            ","response":0,"trial_type":"html-button-response","trial_index":104,"time_elapsed":454853,"internal_node_id":"0.0-4.0-1.46","subject_id":"5fb9adb28a52968d9f561808","study_id":"60edd13110225f80f9f3709b","session_id":"6196c5030ce8a4acbbd36797","condition":"full-information","relevant_dimensions":["wings","pattern"],"bee_group":{"antennae":"X","wings":"1","pattern":"D","legs":"X"},"bonus":0.5200000000000012},{"rt":2647.600000023842,"stimulus":"bees-with-color/bee-A2DF.svg","response":1,"trial_type":"image-button-response","trial_index":105,"time_elapsed":457502,"internal_node_id":"0.0-4.0-0.47","subject_id":"5fb9adb28a52968d9f561808","study_id":"60edd13110225f80f9f3709b","session_id":"6196c5030ce8a4acbbd36797","condition":"full-information","relevant_dimensions":["wings","pattern"],"bee_group":{"antennae":"X","wings":"1","pattern":"D","legs":"X"},"action":"avoid","summary":"bad-avoid","bonus":0.5200000000000012},{"rt":890.6000000238419,"stimulus":"\n                    <p><b>Action: <em>avoid</em></b></p>\n                    <p>This is the bee that you just saw.</p>\n                    <img src=\"bees-with-color/bee-A2DF.svg\" width=\"200\">\n                    <p><span class=\"redText\">Bad choice,</span> the bee was friendly.<br>Your bonus pay is unchanged, and remains at $0.52.</p>\n            ","response":0,"trial_type":"html-button-response","trial_index":106,"time_elapsed":458394,"internal_node_id":"0.0-4.0-1.47","subject_id":"5fb9adb28a52968d9f561808","study_id":"60edd13110225f80f9f3709b","session_id":"6196c5030ce8a4acbbd36797","condition":"full-information","relevant_dimensions":["wings","pattern"],"bee_group":{"antennae":"X","wings":"1","pattern":"D","legs":"X"},"bonus":0.5200000000000012},{"rt":1053.5,"stimulus":"bees-with-color/bee-B1DF.svg","response":0,"trial_type":"image-button-response","trial_index":107,"time_elapsed":459449,"internal_node_id":"0.0-4.0-0.48","subject_id":"5fb9adb28a52968d9f561808","study_id":"60edd13110225f80f9f3709b","session_id":"6196c5030ce8a4acbbd36797","condition":"full-information","relevant_dimensions":["wings","pattern"],"bee_group":{"antennae":"X","wings":"1","pattern":"D","legs":"X"},"action":"harvest","summary":"bad-harvest","bonus":0.5200000000000012},{"rt":1925.1999999284744,"stimulus":"\n                    <p><b>Action: <em>harvest</em></b></p>\n                    <p>This is the bee that you just saw.</p>\n                    <img src=\"bees-with-color/bee-B1DF.svg\" width=\"200\">\n                    <p><span class=\"redText\">Bad choice, the bee was angry.</span><br><b>You have been stung!</b><br>Your pay has been decreased by $0.10. Your bonus pay is now $0.42.</p>\n            ","response":0,"trial_type":"html-button-response","trial_index":108,"time_elapsed":461376,"internal_node_id":"0.0-4.0-1.48","subject_id":"5fb9adb28a52968d9f561808","study_id":"60edd13110225f80f9f3709b","session_id":"6196c5030ce8a4acbbd36797","condition":"full-information","relevant_dimensions":["wings","pattern"],"bee_group":{"antennae":"X","wings":"1","pattern":"D","legs":"X"},"bonus":0.5200000000000012},{"rt":1945.7999999523163,"stimulus":"bees-with-color/bee-A1DM.svg","response":0,"trial_type":"image-button-response","trial_index":109,"time_elapsed":463325,"internal_node_id":"0.0-4.0-0.49","subject_id":"5fb9adb28a52968d9f561808","study_id":"60edd13110225f80f9f3709b","session_id":"6196c5030ce8a4acbbd36797","condition":"full-information","relevant_dimensions":["wings","pattern"],"bee_group":{"antennae":"X","wings":"1","pattern":"D","legs":"X"},"action":"harvest","summary":"bad-harvest","bonus":0.5200000000000012},{"rt":971.8000000715256,"stimulus":"\n                    <p><b>Action: <em>harvest</em></b></p>\n                    <p>This is the bee that you just saw.</p>\n                    <img src=\"bees-with-color/bee-A1DM.svg\" width=\"200\">\n                    <p><span class=\"redText\">Bad choice, the bee was angry.</span><br><b>You have been stung!</b><br>Your pay has been decreased by $0.10. Your bonus pay is now $0.32.</p>\n            ","response":0,"trial_type":"html-button-response","trial_index":110,"time_elapsed":464298,"internal_node_id":"0.0-4.0-1.49","subject_id":"5fb9adb28a52968d9f561808","study_id":"60edd13110225f80f9f3709b","session_id":"6196c5030ce8a4acbbd36797","condition":"full-information","relevant_dimensions":["wings","pattern"],"bee_group":{"antennae":"X","wings":"1","pattern":"D","legs":"X"},"bonus":0.5200000000000012},{"rt":853.2999999523163,"stimulus":"bees-with-color/bee-A1SF.svg","response":0,"trial_type":"image-button-response","trial_index":111,"time_elapsed":465154,"internal_node_id":"0.0-4.0-0.50","subject_id":"5fb9adb28a52968d9f561808","study_id":"60edd13110225f80f9f3709b","session_id":"6196c5030ce8a4acbbd36797","condition":"full-information","relevant_dimensions":["wings","pattern"],"bee_group":{"antennae":"X","wings":"1","pattern":"D","legs":"X"},"action":"harvest","summary":"good-harvest","bonus":0.5200000000000012},{"rt":1570,"stimulus":"\n                    <p><b>Action: <em>harvest</em></b></p>\n                    <p>This is the bee that you just saw.</p>\n                    <img src=\"bees-with-color/bee-A1SF.svg\" width=\"200\">\n                    <p><span class=\"greenText\"><b>Successful harvest!</b></span><br>Your pay has increased by $0.02. Your bonus pay is now $0.34.</p>\n            ","response":0,"trial_type":"html-button-response","trial_index":112,"time_elapsed":466726,"internal_node_id":"0.0-4.0-1.50","subject_id":"5fb9adb28a52968d9f561808","study_id":"60edd13110225f80f9f3709b","session_id":"6196c5030ce8a4acbbd36797","condition":"full-information","relevant_dimensions":["wings","pattern"],"bee_group":{"antennae":"X","wings":"1","pattern":"D","legs":"X"},"bonus":0.5200000000000012},{"rt":913.8999999761581,"stimulus":"bees-with-color/bee-B1SM.svg","response":0,"trial_type":"image-button-response","trial_index":113,"time_elapsed":467641,"internal_node_id":"0.0-4.0-0.51","subject_id":"5fb9adb28a52968d9f561808","study_id":"60edd13110225f80f9f3709b","session_id":"6196c5030ce8a4acbbd36797","condition":"full-information","relevant_dimensions":["wings","pattern"],"bee_group":{"antennae":"X","wings":"1","pattern":"D","legs":"X"},"action":"harvest","summary":"good-harvest","bonus":0.5200000000000012},{"rt":1061.1000000238419,"stimulus":"\n                    <p><b>Action: <em>harvest</em></b></p>\n                    <p>This is the bee that you just saw.</p>\n                    <img src=\"bees-with-color/bee-B1SM.svg\" width=\"200\">\n                    <p><span class=\"greenText\"><b>Successful harvest!</b></span><br>Your pay has increased by $0.02. Your bonus pay is now $0.36.</p>\n            ","response":0,"trial_type":"html-button-response","trial_index":114,"time_elapsed":468705,"internal_node_id":"0.0-4.0-1.51","subject_id":"5fb9adb28a52968d9f561808","study_id":"60edd13110225f80f9f3709b","session_id":"6196c5030ce8a4acbbd36797","condition":"full-information","relevant_dimensions":["wings","pattern"],"bee_group":{"antennae":"X","wings":"1","pattern":"D","legs":"X"},"bonus":0.5200000000000012},{"rt":2190.3000000715256,"stimulus":"bees-with-color/bee-B2DM.svg","response":0,"trial_type":"image-button-response","trial_index":115,"time_elapsed":470896,"internal_node_id":"0.0-4.0-0.52","subject_id":"5fb9adb28a52968d9f561808","study_id":"60edd13110225f80f9f3709b","session_id":"6196c5030ce8a4acbbd36797","condition":"full-information","relevant_dimensions":["wings","pattern"],"bee_group":{"antennae":"X","wings":"1","pattern":"D","legs":"X"},"action":"harvest","summary":"good-harvest","bonus":0.5200000000000012},{"rt":818.5999999046326,"stimulus":"\n                    <p><b>Action: <em>harvest</em></b></p>\n                    <p>This is the bee that you just saw.</p>\n                    <img src=\"bees-with-color/bee-B2DM.svg\" width=\"200\">\n                    <p><span class=\"greenText\"><b>Successful harvest!</b></span><br>Your pay has increased by $0.02. Your bonus pay is now $0.38.</p>\n            ","response":0,"trial_type":"html-button-response","trial_index":116,"time_elapsed":471716,"internal_node_id":"0.0-4.0-1.52","subject_id":"5fb9adb28a52968d9f561808","study_id":"60edd13110225f80f9f3709b","session_id":"6196c5030ce8a4acbbd36797","condition":"full-information","relevant_dimensions":["wings","pattern"],"bee_group":{"antennae":"X","wings":"1","pattern":"D","legs":"X"},"bonus":0.5200000000000012},{"rt":1319.3999999761581,"stimulus":"bees-with-color/bee-A2DM.svg","response":1,"trial_type":"image-button-response","trial_index":117,"time_elapsed":473037,"internal_node_id":"0.0-4.0-0.53","subject_id":"5fb9adb28a52968d9f561808","study_id":"60edd13110225f80f9f3709b","session_id":"6196c5030ce8a4acbbd36797","condition":"full-information","relevant_dimensions":["wings","pattern"],"bee_group":{"antennae":"X","wings":"1","pattern":"D","legs":"X"},"action":"avoid","summary":"bad-avoid","bonus":0.5200000000000012},{"rt":913.8999999761581,"stimulus":"\n                    <p><b>Action: <em>avoid</em></b></p>\n                    <p>This is the bee that you just saw.</p>\n                    <img src=\"bees-with-color/bee-A2DM.svg\" width=\"200\">\n                    <p><span class=\"redText\">Bad choice,</span> the bee was friendly.<br>Your bonus pay is unchanged, and remains at $0.38.</p>\n            ","response":0,"trial_type":"html-button-response","trial_index":118,"time_elapsed":473952,"internal_node_id":"0.0-4.0-1.53","subject_id":"5fb9adb28a52968d9f561808","study_id":"60edd13110225f80f9f3709b","session_id":"6196c5030ce8a4acbbd36797","condition":"full-information","relevant_dimensions":["wings","pattern"],"bee_group":{"antennae":"X","wings":"1","pattern":"D","legs":"X"},"bonus":0.5200000000000012},{"rt":854.5,"stimulus":"bees-with-color/bee-A2SF.svg","response":0,"trial_type":"image-button-response","trial_index":119,"time_elapsed":474808,"internal_node_id":"0.0-4.0-0.54","subject_id":"5fb9adb28a52968d9f561808","study_id":"60edd13110225f80f9f3709b","session_id":"6196c5030ce8a4acbbd36797","condition":"full-information","relevant_dimensions":["wings","pattern"],"bee_group":{"antennae":"X","wings":"1","pattern":"D","legs":"X"},"action":"harvest","summary":"good-harvest","bonus":0.5200000000000012},{"rt":847.6000000238419,"stimulus":"\n                    <p><b>Action: <em>harvest</em></b></p>\n                    <p>This is the bee that you just saw.</p>\n                    <img src=\"bees-with-color/bee-A2SF.svg\" width=\"200\">\n                    <p><span class=\"greenText\"><b>Successful harvest!</b></span><br>Your pay has increased by $0.02. Your bonus pay is now $0.40.</p>\n            ","response":0,"trial_type":"html-button-response","trial_index":120,"time_elapsed":475657,"internal_node_id":"0.0-4.0-1.54","subject_id":"5fb9adb28a52968d9f561808","study_id":"60edd13110225f80f9f3709b","session_id":"6196c5030ce8a4acbbd36797","condition":"full-information","relevant_dimensions":["wings","pattern"],"bee_group":{"antennae":"X","wings":"1","pattern":"D","legs":"X"},"bonus":0.5200000000000012},{"rt":1193.0999999046326,"stimulus":"bees-with-color/bee-A2SM.svg","response":0,"trial_type":"image-button-response","trial_index":121,"time_elapsed":476852,"internal_node_id":"0.0-4.0-0.55","subject_id":"5fb9adb28a52968d9f561808","study_id":"60edd13110225f80f9f3709b","session_id":"6196c5030ce8a4acbbd36797","condition":"full-information","relevant_dimensions":["wings","pattern"],"bee_group":{"antennae":"X","wings":"1","pattern":"D","legs":"X"},"action":"harvest","summary":"good-harvest","bonus":0.5200000000000012},{"rt":958.2000000476837,"stimulus":"\n                    <p><b>Action: <em>harvest</em></b></p>\n                    <p>This is the bee that you just saw.</p>\n                    <img src=\"bees-with-color/bee-A2SM.svg\" width=\"200\">\n                    <p><span class=\"greenText\"><b>Successful harvest!</b></span><br>Your pay has increased by $0.02. Your bonus pay is now $0.42.</p>\n            ","response":0,"trial_type":"html-button-response","trial_index":122,"time_elapsed":477811,"internal_node_id":"0.0-4.0-1.55","subject_id":"5fb9adb28a52968d9f561808","study_id":"60edd13110225f80f9f3709b","session_id":"6196c5030ce8a4acbbd36797","condition":"full-information","relevant_dimensions":["wings","pattern"],"bee_group":{"antennae":"X","wings":"1","pattern":"D","legs":"X"},"bonus":0.5200000000000012},{"rt":1104.6000000238419,"stimulus":"bees-with-color/bee-B1SF.svg","response":0,"trial_type":"image-button-response","trial_index":123,"time_elapsed":478917,"internal_node_id":"0.0-4.0-0.56","subject_id":"5fb9adb28a52968d9f561808","study_id":"60edd13110225f80f9f3709b","session_id":"6196c5030ce8a4acbbd36797","condition":"full-information","relevant_dimensions":["wings","pattern"],"bee_group":{"antennae":"X","wings":"1","pattern":"D","legs":"X"},"action":"harvest","summary":"good-harvest","bonus":0.5200000000000012},{"rt":1002.3999999761581,"stimulus":"\n                    <p><b>Action: <em>harvest</em></b></p>\n                    <p>This is the bee that you just saw.</p>\n                    <img src=\"bees-with-color/bee-B1SF.svg\" width=\"200\">\n                    <p><span class=\"greenText\"><b>Successful harvest!</b></span><br>Your pay has increased by $0.02. Your bonus pay is now $0.44.</p>\n            ","response":0,"trial_type":"html-button-response","trial_index":124,"time_elapsed":479921,"internal_node_id":"0.0-4.0-1.56","subject_id":"5fb9adb28a52968d9f561808","study_id":"60edd13110225f80f9f3709b","session_id":"6196c5030ce8a4acbbd36797","condition":"full-information","relevant_dimensions":["wings","pattern"],"bee_group":{"antennae":"X","wings":"1","pattern":"D","legs":"X"},"bonus":0.5200000000000012},{"rt":1128.2000000476837,"stimulus":"bees-with-color/bee-B2DF.svg","response":0,"trial_type":"image-button-response","trial_index":125,"time_elapsed":481051,"internal_node_id":"0.0-4.0-0.57","subject_id":"5fb9adb28a52968d9f561808","study_id":"60edd13110225f80f9f3709b","session_id":"6196c5030ce8a4acbbd36797","condition":"full-information","relevant_dimensions":["wings","pattern"],"bee_group":{"antennae":"X","wings":"1","pattern":"D","legs":"X"},"action":"harvest","summary":"good-harvest","bonus":0.5200000000000012},{"rt":1053.2999999523163,"stimulus":"\n                    <p><b>Action: <em>harvest</em></b></p>\n                    <p>This is the bee that you just saw.</p>\n                    <img src=\"bees-with-color/bee-B2DF.svg\" width=\"200\">\n                    <p><span class=\"greenText\"><b>Successful harvest!</b></span><br>Your pay has increased by $0.02. Your bonus pay is now $0.46.</p>\n            ","response":0,"trial_type":"html-button-response","trial_index":126,"time_elapsed":482106,"internal_node_id":"0.0-4.0-1.57","subject_id":"5fb9adb28a52968d9f561808","study_id":"60edd13110225f80f9f3709b","session_id":"6196c5030ce8a4acbbd36797","condition":"full-information","relevant_dimensions":["wings","pattern"],"bee_group":{"antennae":"X","wings":"1","pattern":"D","legs":"X"},"bonus":0.5200000000000012},{"rt":1319.1000000238419,"stimulus":"bees-with-color/bee-A2DF.svg","response":1,"trial_type":"image-button-response","trial_index":127,"time_elapsed":483426,"internal_node_id":"0.0-4.0-0.58","subject_id":"5fb9adb28a52968d9f561808","study_id":"60edd13110225f80f9f3709b","session_id":"6196c5030ce8a4acbbd36797","condition":"full-information","relevant_dimensions":["wings","pattern"],"bee_group":{"antennae":"X","wings":"1","pattern":"D","legs":"X"},"action":"avoid","summary":"bad-avoid","bonus":0.5200000000000012},{"rt":721.7000000476837,"stimulus":"\n                    <p><b>Action: <em>avoid</em></b></p>\n                    <p>This is the bee that you just saw.</p>\n                    <img src=\"bees-with-color/bee-A2DF.svg\" width=\"200\">\n                    <p><span class=\"redText\">Bad choice,</span> the bee was friendly.<br>Your bonus pay is unchanged, and remains at $0.46.</p>\n            ","response":0,"trial_type":"html-button-response","trial_index":128,"time_elapsed":484149,"internal_node_id":"0.0-4.0-1.58","subject_id":"5fb9adb28a52968d9f561808","study_id":"60edd13110225f80f9f3709b","session_id":"6196c5030ce8a4acbbd36797","condition":"full-information","relevant_dimensions":["wings","pattern"],"bee_group":{"antennae":"X","wings":"1","pattern":"D","legs":"X"},"bonus":0.5200000000000012},{"rt":744.1999999284744,"stimulus":"bees-with-color/bee-B2SF.svg","response":0,"trial_type":"image-button-response","trial_index":129,"time_elapsed":484894,"internal_node_id":"0.0-4.0-0.59","subject_id":"5fb9adb28a52968d9f561808","study_id":"60edd13110225f80f9f3709b","session_id":"6196c5030ce8a4acbbd36797","condition":"full-information","relevant_dimensions":["wings","pattern"],"bee_group":{"antennae":"X","wings":"1","pattern":"D","legs":"X"},"action":"harvest","summary":"good-harvest","bonus":0.5200000000000012},{"rt":707.2999999523163,"stimulus":"\n                    <p><b>Action: <em>harvest</em></b></p>\n                    <p>This is the bee that you just saw.</p>\n                    <img src=\"bees-with-color/bee-B2SF.svg\" width=\"200\">\n                    <p><span class=\"greenText\"><b>Successful harvest!</b></span><br>Your pay has increased by $0.02. Your bonus pay is now $0.48.</p>\n            ","response":0,"trial_type":"html-button-response","trial_index":130,"time_elapsed":485603,"internal_node_id":"0.0-4.0-1.59","subject_id":"5fb9adb28a52968d9f561808","study_id":"60edd13110225f80f9f3709b","session_id":"6196c5030ce8a4acbbd36797","condition":"full-information","relevant_dimensions":["wings","pattern"],"bee_group":{"antennae":"X","wings":"1","pattern":"D","legs":"X"},"bonus":0.5200000000000012},{"rt":862.1000000238419,"stimulus":"bees-with-color/bee-A1SM.svg","response":0,"trial_type":"image-button-response","trial_index":131,"time_elapsed":486466,"internal_node_id":"0.0-4.0-0.60","subject_id":"5fb9adb28a52968d9f561808","study_id":"60edd13110225f80f9f3709b","session_id":"6196c5030ce8a4acbbd36797","condition":"full-information","relevant_dimensions":["wings","pattern"],"bee_group":{"antennae":"X","wings":"1","pattern":"D","legs":"X"},"action":"harvest","summary":"good-harvest","bonus":0.5200000000000012},{"rt":811.1000000238419,"stimulus":"\n                    <p><b>Action: <em>harvest</em></b></p>\n                    <p>This is the bee that you just saw.</p>\n                    <img src=\"bees-with-color/bee-A1SM.svg\" width=\"200\">\n                    <p><span class=\"greenText\"><b>Successful harvest!</b></span><br>Your pay has increased by $0.02. Your bonus pay is now $0.50.</p>\n            ","response":0,"trial_type":"html-button-response","trial_index":132,"time_elapsed":487279,"internal_node_id":"0.0-4.0-1.60","subject_id":"5fb9adb28a52968d9f561808","study_id":"60edd13110225f80f9f3709b","session_id":"6196c5030ce8a4acbbd36797","condition":"full-information","relevant_dimensions":["wings","pattern"],"bee_group":{"antennae":"X","wings":"1","pattern":"D","legs":"X"},"bonus":0.5200000000000012},{"rt":1112.2000000476837,"stimulus":"bees-with-color/bee-A1DF.svg","response":0,"trial_type":"image-button-response","trial_index":133,"time_elapsed":488387,"internal_node_id":"0.0-4.0-0.61","subject_id":"5fb9adb28a52968d9f561808","study_id":"60edd13110225f80f9f3709b","session_id":"6196c5030ce8a4acbbd36797","condition":"full-information","relevant_dimensions":["wings","pattern"],"bee_group":{"antennae":"X","wings":"1","pattern":"D","legs":"X"},"action":"harvest","summary":"bad-harvest","bonus":0.5200000000000012},{"rt":1179,"stimulus":"\n                    <p><b>Action: <em>harvest</em></b></p>\n                    <p>This is the bee that you just saw.</p>\n                    <img src=\"bees-with-color/bee-A1DF.svg\" width=\"200\">\n                    <p><span class=\"redText\">Bad choice, the bee was angry.</span><br><b>You have been stung!</b><br>Your pay has been decreased by $0.10. Your bonus pay is now $0.40.</p>\n            ","response":0,"trial_type":"html-button-response","trial_index":134,"time_elapsed":489568,"internal_node_id":"0.0-4.0-1.61","subject_id":"5fb9adb28a52968d9f561808","study_id":"60edd13110225f80f9f3709b","session_id":"6196c5030ce8a4acbbd36797","condition":"full-information","relevant_dimensions":["wings","pattern"],"bee_group":{"antennae":"X","wings":"1","pattern":"D","legs":"X"},"bonus":0.5200000000000012},{"rt":1511.3999999761581,"stimulus":"bees-with-color/bee-B1DM.svg","response":0,"trial_type":"image-button-response","trial_index":135,"time_elapsed":491081,"internal_node_id":"0.0-4.0-0.62","subject_id":"5fb9adb28a52968d9f561808","study_id":"60edd13110225f80f9f3709b","session_id":"6196c5030ce8a4acbbd36797","condition":"full-information","relevant_dimensions":["wings","pattern"],"bee_group":{"antennae":"X","wings":"1","pattern":"D","legs":"X"},"action":"harvest","summary":"bad-harvest","bonus":0.5200000000000012},{"rt":912.3999999761581,"stimulus":"\n                    <p><b>Action: <em>harvest</em></b></p>\n                    <p>This is the bee that you just saw.</p>\n                    <img src=\"bees-with-color/bee-B1DM.svg\" width=\"200\">\n                    <p><span class=\"redText\">Bad choice, the bee was angry.</span><br><b>You have been stung!</b><br>Your pay has been decreased by $0.10. Your bonus pay is now $0.30.</p>\n            ","response":0,"trial_type":"html-button-response","trial_index":136,"time_elapsed":491996,"internal_node_id":"0.0-4.0-1.62","subject_id":"5fb9adb28a52968d9f561808","study_id":"60edd13110225f80f9f3709b","session_id":"6196c5030ce8a4acbbd36797","condition":"full-information","relevant_dimensions":["wings","pattern"],"bee_group":{"antennae":"X","wings":"1","pattern":"D","legs":"X"},"bonus":0.5200000000000012},{"rt":839.4000000953674,"stimulus":"bees-with-color/bee-B2SM.svg","response":0,"trial_type":"image-button-response","trial_index":137,"time_elapsed":492837,"internal_node_id":"0.0-4.0-0.63","subject_id":"5fb9adb28a52968d9f561808","study_id":"60edd13110225f80f9f3709b","session_id":"6196c5030ce8a4acbbd36797","condition":"full-information","relevant_dimensions":["wings","pattern"],"bee_group":{"antennae":"X","wings":"1","pattern":"D","legs":"X"},"action":"harvest","summary":"good-harvest","bonus":0.5200000000000012},{"rt":1193.5,"stimulus":"\n                    <p><b>Action: <em>harvest</em></b></p>\n                    <p>This is the bee that you just saw.</p>\n                    <img src=\"bees-with-color/bee-B2SM.svg\" width=\"200\">\n                    <p><span class=\"greenText\"><b>Successful harvest!</b></span><br>Your pay has increased by $0.02. Your bonus pay is now $0.32.</p>\n            ","response":0,"trial_type":"html-button-response","trial_index":138,"time_elapsed":494032,"internal_node_id":"0.0-4.0-1.63","subject_id":"5fb9adb28a52968d9f561808","study_id":"60edd13110225f80f9f3709b","session_id":"6196c5030ce8a4acbbd36797","condition":"full-information","relevant_dimensions":["wings","pattern"],"bee_group":{"antennae":"X","wings":"1","pattern":"D","legs":"X"},"bonus":0.5200000000000012},{"rt":7527.700000047684,"stimulus":"You have completed the first part of this experiment.<br><br>You will now begin a shorter second part, in which you will receive no feedback.<br>The same rules regarding bonus pay apply.<br><br>Press any key to begin.","response":"enter","trial_type":"html-keyboard-response","trial_index":139,"time_elapsed":501561,"internal_node_id":"0.0-5.0","subject_id":"5fb9adb28a52968d9f561808","study_id":"60edd13110225f80f9f3709b","session_id":"6196c5030ce8a4acbbd36797","condition":"full-information","relevant_dimensions":["wings","pattern"],"bee_group":{"antennae":"X","wings":"1","pattern":"D","legs":"X"},"bonus":0.5200000000000012},{"rt":1201.2999999523163,"stimulus":"bees-with-color/bee-A1SM.svg","response":0,"trial_type":"image-button-response","trial_index":140,"time_elapsed":502802,"internal_node_id":"0.0-6.0-0.0","subject_id":"5fb9adb28a52968d9f561808","study_id":"60edd13110225f80f9f3709b","session_id":"6196c5030ce8a4acbbd36797","condition":"full-information","relevant_dimensions":["wings","pattern"],"bee_group":{"antennae":"X","wings":"1","pattern":"D","legs":"X"},"bonus":0.5200000000000012},{"rt":2361,"stimulus":"bees-with-color/bee-B1SM.svg","response":0,"trial_type":"image-button-response","trial_index":141,"time_elapsed":505165,"internal_node_id":"0.0-6.0-0.1","subject_id":"5fb9adb28a52968d9f561808","study_id":"60edd13110225f80f9f3709b","session_id":"6196c5030ce8a4acbbd36797","condition":"full-information","relevant_dimensions":["wings","pattern"],"bee_group":{"antennae":"X","wings":"1","pattern":"D","legs":"X"},"bonus":0.5200000000000012},{"rt":720.2999999523163,"stimulus":"bees-with-color/bee-B1SF.svg","response":0,"trial_type":"image-button-response","trial_index":142,"time_elapsed":505888,"internal_node_id":"0.0-6.0-0.2","subject_id":"5fb9adb28a52968d9f561808","study_id":"60edd13110225f80f9f3709b","session_id":"6196c5030ce8a4acbbd36797","condition":"full-information","relevant_dimensions":["wings","pattern"],"bee_group":{"antennae":"X","wings":"1","pattern":"D","legs":"X"},"bonus":0.5200000000000012},{"rt":1337.3000000715256,"stimulus":"bees-with-color/bee-A1DM.svg","response":1,"trial_type":"image-button-response","trial_index":143,"time_elapsed":507227,"internal_node_id":"0.0-6.0-0.3","subject_id":"5fb9adb28a52968d9f561808","study_id":"60edd13110225f80f9f3709b","session_id":"6196c5030ce8a4acbbd36797","condition":"full-information","relevant_dimensions":["wings","pattern"],"bee_group":{"antennae":"X","wings":"1","pattern":"D","legs":"X"},"bonus":0.5200000000000012},{"rt":851.6999999284744,"stimulus":"bees-with-color/bee-B2SM.svg","response":0,"trial_type":"image-button-response","trial_index":144,"time_elapsed":508082,"internal_node_id":"0.0-6.0-0.4","subject_id":"5fb9adb28a52968d9f561808","study_id":"60edd13110225f80f9f3709b","session_id":"6196c5030ce8a4acbbd36797","condition":"full-information","relevant_dimensions":["wings","pattern"],"bee_group":{"antennae":"X","wings":"1","pattern":"D","legs":"X"},"bonus":0.5200000000000012},{"rt":2530,"stimulus":"bees-with-color/bee-A2SF.svg","response":0,"trial_type":"image-button-response","trial_index":145,"time_elapsed":510615,"internal_node_id":"0.0-6.0-0.5","subject_id":"5fb9adb28a52968d9f561808","study_id":"60edd13110225f80f9f3709b","session_id":"6196c5030ce8a4acbbd36797","condition":"full-information","relevant_dimensions":["wings","pattern"],"bee_group":{"antennae":"X","wings":"1","pattern":"D","legs":"X"},"bonus":0.5200000000000012},{"rt":734.8999999761581,"stimulus":"bees-with-color/bee-B2SF.svg","response":0,"trial_type":"image-button-response","trial_index":146,"time_elapsed":511353,"internal_node_id":"0.0-6.0-0.6","subject_id":"5fb9adb28a52968d9f561808","study_id":"60edd13110225f80f9f3709b","session_id":"6196c5030ce8a4acbbd36797","condition":"full-information","relevant_dimensions":["wings","pattern"],"bee_group":{"antennae":"X","wings":"1","pattern":"D","legs":"X"},"bonus":0.5200000000000012},{"rt":1076.5,"stimulus":"bees-with-color/bee-B1DF.svg","response":1,"trial_type":"image-button-response","trial_index":147,"time_elapsed":512432,"internal_node_id":"0.0-6.0-0.7","subject_id":"5fb9adb28a52968d9f561808","study_id":"60edd13110225f80f9f3709b","session_id":"6196c5030ce8a4acbbd36797","condition":"full-information","relevant_dimensions":["wings","pattern"],"bee_group":{"antennae":"X","wings":"1","pattern":"D","legs":"X"},"bonus":0.5200000000000012},{"rt":2473.2000000476837,"stimulus":"bees-with-color/bee-A2DF.svg","response":0,"trial_type":"image-button-response","trial_index":148,"time_elapsed":514908,"internal_node_id":"0.0-6.0-0.8","subject_id":"5fb9adb28a52968d9f561808","study_id":"60edd13110225f80f9f3709b","session_id":"6196c5030ce8a4acbbd36797","condition":"full-information","relevant_dimensions":["wings","pattern"],"bee_group":{"antennae":"X","wings":"1","pattern":"D","legs":"X"},"bonus":0.5200000000000012},{"rt":1526.8000000715256,"stimulus":"bees-with-color/bee-B2DF.svg","response":0,"trial_type":"image-button-response","trial_index":149,"time_elapsed":516436,"internal_node_id":"0.0-6.0-0.9","subject_id":"5fb9adb28a52968d9f561808","study_id":"60edd13110225f80f9f3709b","session_id":"6196c5030ce8a4acbbd36797","condition":"full-information","relevant_dimensions":["wings","pattern"],"bee_group":{"antennae":"X","wings":"1","pattern":"D","legs":"X"},"bonus":0.5200000000000012},{"rt":1430.2999999523163,"stimulus":"bees-with-color/bee-B2DM.svg","response":1,"trial_type":"image-button-response","trial_index":150,"time_elapsed":517868,"internal_node_id":"0.0-6.0-0.10","subject_id":"5fb9adb28a52968d9f561808","study_id":"60edd13110225f80f9f3709b","session_id":"6196c5030ce8a4acbbd36797","condition":"full-information","relevant_dimensions":["wings","pattern"],"bee_group":{"antennae":"X","wings":"1","pattern":"D","legs":"X"},"bonus":0.5200000000000012},{"rt":1032.6999999284744,"stimulus":"bees-with-color/bee-A2DM.svg","response":1,"trial_type":"image-button-response","trial_index":151,"time_elapsed":518903,"internal_node_id":"0.0-6.0-0.11","subject_id":"5fb9adb28a52968d9f561808","study_id":"60edd13110225f80f9f3709b","session_id":"6196c5030ce8a4acbbd36797","condition":"full-information","relevant_dimensions":["wings","pattern"],"bee_group":{"antennae":"X","wings":"1","pattern":"D","legs":"X"},"bonus":0.5200000000000012},{"rt":1401.1999999284744,"stimulus":"bees-with-color/bee-A1DF.svg","response":0,"trial_type":"image-button-response","trial_index":152,"time_elapsed":520306,"internal_node_id":"0.0-6.0-0.12","subject_id":"5fb9adb28a52968d9f561808","study_id":"60edd13110225f80f9f3709b","session_id":"6196c5030ce8a4acbbd36797","condition":"full-information","relevant_dimensions":["wings","pattern"],"bee_group":{"antennae":"X","wings":"1","pattern":"D","legs":"X"},"bonus":0.5200000000000012},{"rt":809.8000000715256,"stimulus":"bees-with-color/bee-A1SF.svg","response":0,"trial_type":"image-button-response","trial_index":153,"time_elapsed":521118,"internal_node_id":"0.0-6.0-0.13","subject_id":"5fb9adb28a52968d9f561808","study_id":"60edd13110225f80f9f3709b","session_id":"6196c5030ce8a4acbbd36797","condition":"full-information","relevant_dimensions":["wings","pattern"],"bee_group":{"antennae":"X","wings":"1","pattern":"D","legs":"X"},"bonus":0.5200000000000012},{"rt":1923.6000000238419,"stimulus":"bees-with-color/bee-B1DM.svg","response":1,"trial_type":"image-button-response","trial_index":154,"time_elapsed":523043,"internal_node_id":"0.0-6.0-0.14","subject_id":"5fb9adb28a52968d9f561808","study_id":"60edd13110225f80f9f3709b","session_id":"6196c5030ce8a4acbbd36797","condition":"full-information","relevant_dimensions":["wings","pattern"],"bee_group":{"antennae":"X","wings":"1","pattern":"D","legs":"X"},"bonus":0.5200000000000012},{"rt":1621.5,"stimulus":"bees-with-color/bee-A2