[{"success":true,"trial_type":"fullscreen","trial_index":0,"time_elapsed":2803,"internal_node_id":"0.0-0.0","subject_id":"601bde43332e2d5ff932d64a","study_id":"6197b3f67c2b5cd3b6d9596a","session_id":"619be31cd15c67e2e737e329","condition":"full-information","relevant_dimensions":["wings","pattern"],"bee_group":{"antennae":"X","wings":"1","pattern":"D","legs":"X"},"bonus":1.1400000000000008},{"success":true,"timeout":false,"failed_images":[],"failed_audio":[],"failed_video":[],"trial_type":"preload","trial_index":1,"time_elapsed":4594,"internal_node_id":"0.0-1.0","subject_id":"601bde43332e2d5ff932d64a","study_id":"6197b3f67c2b5cd3b6d9596a","session_id":"619be31cd15c67e2e737e329","condition":"full-information","relevant_dimensions":["wings","pattern"],"bee_group":{"antennae":"X","wings":"1","pattern":"D","legs":"X"},"bonus":1.1400000000000008},{"rt":2396.599999964237,"stimulus":"Welcome! Press any key to begin.","response":" ","trial_type":"html-keyboard-response","trial_index":2,"time_elapsed":6991,"internal_node_id":"0.0-2.0","subject_id":"601bde43332e2d5ff932d64a","study_id":"6197b3f67c2b5cd3b6d9596a","session_id":"619be31cd15c67e2e737e329","condition":"full-information","relevant_dimensions":["wings","pattern"],"bee_group":{"antennae":"X","wings":"1","pattern":"D","legs":"X"},"bonus":1.1400000000000008},{"view_history":[{"page_index":0,"viewing_time":2826},{"page_index":1,"viewing_time":12735.899999976158},{"page_index":2,"viewing_time":13848.100000023842},{"page_index":3,"viewing_time":12200},{"page_index":4,"viewing_time":11031.899999976158},{"page_index":5,"viewing_time":7648},{"page_index":6,"viewing_time":9119.900000035763},{"page_index":7,"viewing_time":4056.099999964237},{"page_index":8,"viewing_time":3647.900000035763},{"page_index":7,"viewing_time":880.0999999642372},{"page_index":8,"viewing_time":1032.1000000238419},{"page_index":9,"viewing_time":3359.899999976158},{"page_index":10,"viewing_time":1919.9000000357628},{"page_index":9,"viewing_time":760},{"page_index":10,"viewing_time":576},{"page_index":11,"viewing_time":6720.099999964237},{"page_index":12,"viewing_time":5775.900000035763},{"page_index":13,"viewing_time":1040},{"page_index":14,"viewing_time":1136}],"rt":100314,"trial_type":"instructions","trial_index":3,"time_elapsed":107306,"internal_node_id":"0.0-3.0-0.0","subject_id":"601bde43332e2d5ff932d64a","study_id":"6197b3f67c2b5cd3b6d9596a","session_id":"619be31cd15c67e2e737e329","condition":"full-information","relevant_dimensions":["wings","pattern"],"bee_group":{"antennae":"X","wings":"1","pattern":"D","legs":"X"},"bonus":1.1400000000000008},{"rt":9149.400000035763,"response":{"Q0":["Two or six legs","Stripes or spots on body","Single or double wings","Antennae or no antennae"]},"question_order":[0],"trial_type":"survey-multi-select","trial_index":4,"time_elapsed":116459,"internal_node_id":"0.0-3.0-1.0","subject_id":"601bde43332e2d5ff932d64a","study_id":"6197b3f67c2b5cd3b6d9596a","session_id":"619be31cd15c67e2e737e329","condition":"full-information","relevant_dimensions":["wings","pattern"],"bee_group":{"antennae":"X","wings":"1","pattern":"D","legs":"X"},"correct":true,"bonus":1.1400000000000008},{"rt":14846.599999964237,"response":{"Q1":"No.","Q2":"Based on the four features of the bee.","Q3":"You learn if it was friendly or dangerous, but do not alter your bonus."},"question_order":[0,1,2],"trial_type":"survey-multi-choice","trial_index":5,"time_elapsed":131306,"internal_node_id":"0.0-3.0-2.0","subject_id":"601bde43332e2d5ff932d64a","study_id":"6197b3f67c2b5cd3b6d9596a","session_id":"619be31cd15c67e2e737e329","condition":"full-information","relevant_dimensions":["wings","pattern"],"bee_group":{"antennae":"X","wings":"1","pattern":"D","legs":"X"},"correct":true,"bonus":1.1400000000000008},{"rt":1934.6000000238419,"stimulus":"<p>Congrats, you got everything right<br>When you're ready, click the button below to continue to the experiment.</p>","response":0,"trial_type":"html-button-response","trial_index":6,"time_elapsed":133242,"internal_node_id":"0.0-3.0-3.0","subject_id":"601bde43332e2d5ff932d64a","study_id":"6197b3f67c2b5cd3b6d9596a","session_id":"619be31cd15c67e2e737e329","condition":"full-information","relevant_dimensions":["wings","pattern"],"bee_group":{"antennae":"X","wings":"1","pattern":"D","legs":"X"},"bonus":1.1400000000000008},{"rt":3822.300000011921,"stimulus":"bees-with-color/bee-B1DM.svg","response":1,"trial_type":"image-button-response","trial_index":7,"time_elapsed":137066,"internal_node_id":"0.0-4.0-0.0","subject_id":"601bde43332e2d5ff932d64a","study_id":"6197b3f67c2b5cd3b6d9596a","session_id":"619be31cd15c67e2e737e329","condition":"full-information","relevant_dimensions":["wings","pattern"],"bee_group":{"antennae":"X","wings":"1","pattern":"D","legs":"X"},"action":"avoid","summary":"good-avoid","bonus":1.1400000000000008},{"rt":9606.600000023842,"stimulus":"\n                    <p><b>Action: <em>avoid</em></b></p>\n                    <p>This is the bee that you just saw.</p>\n                    <img src=\"bees-with-color/bee-B1DM.svg\" width=\"200\">\n                    <p><span class=\"greenText\">Good choice!</span>  This bee would have stung you.<br>Your bonus pay is unchanged, and remains at $0.54.</p>\n            ","response":0,"trial_type":"html-button-response","trial_index":8,"time_elapsed":146674,"internal_node_id":"0.0-4.0-1.0","subject_id":"601bde43332e2d5ff932d64a","study_id":"6197b3f67c2b5cd3b6d9596a","session_id":"619be31cd15c67e2e737e329","condition":"full-information","relevant_dimensions":["wings","pattern"],"bee_group":{"antennae":"X","wings":"1","pattern":"D","legs":"X"},"bonus":1.1400000000000008},{"rt":2054.7000000476837,"stimulus":"bees-with-color/bee-B1SM.svg","response":1,"trial_type":"image-button-response","trial_index":9,"time_elapsed":148730,"internal_node_id":"0.0-4.0-0.1","subject_id":"601bde43332e2d5ff932d64a","study_id":"6197b3f67c2b5cd3b6d9596a","session_id":"619be31cd15c67e2e737e329","condition":"full-information","relevant_dimensions":["wings","pattern"],"bee_group":{"antennae":"X","wings":"1","pattern":"D","legs":"X"},"action":"avoid","summary":"bad-avoid","bonus":1.1400000000000008},{"rt":2686.800000011921,"stimulus":"\n                    <p><b>Action: <em>avoid</em></b></p>\n                    <p>This is the bee that you just saw.</p>\n                    <img src=\"bees-with-color/bee-B1SM.svg\" width=\"200\">\n                    <p><span class=\"redText\">Bad choice,</span> the bee was friendly.<br>Your bonus pay is unchanged, and remains at $0.54.</p>\n            ","response":0,"trial_type":"html-button-response","trial_index":10,"time_elapsed":151418,"internal_node_id":"0.0-4.0-1.1","subject_id":"601bde43332e2d5ff932d64a","study_id":"6197b3f67c2b5cd3b6d9596a","session_id":"619be31cd15c67e2e737e329","condition":"full-information","relevant_dimensions":["wings","pattern"],"bee_group":{"antennae":"X","wings":"1","pattern":"D","legs":"X"},"bonus":1.1400000000000008},{"rt":1646.3999999761581,"stimulus":"bees-with-color/bee-B2DF.svg","response":1,"trial_type":"image-button-response","trial_index":11,"time_elapsed":153066,"internal_node_id":"0.0-4.0-0.2","subject_id":"601bde43332e2d5ff932d64a","study_id":"6197b3f67c2b5cd3b6d9596a","session_id":"619be31cd15c67e2e737e329","condition":"full-information","relevant_dimensions":["wings","pattern"],"bee_group":{"antennae":"X","wings":"1","pattern":"D","legs":"X"},"action":"avoid","summary":"bad-avoid","bonus":1.1400000000000008},{"rt":1767,"stimulus":"\n                    <p><b>Action: <em>avoid</em></b></p>\n                    <p>This is the bee that you just saw.</p>\n                    <img src=\"bees-with-color/bee-B2DF.svg\" width=\"200\">\n                    <p><span class=\"redText\">Bad choice,</span> the bee was friendly.<br>Your bonus pay is unchanged, and remains at $0.54.</p>\n            ","response":0,"trial_type":"html-button-response","trial_index":12,"time_elapsed":154834,"internal_node_id":"0.0-4.0-1.2","subject_id":"601bde43332e2d5ff932d64a","study_id":"6197b3f67c2b5cd3b6d9596a","session_id":"619be31cd15c67e2e737e329","condition":"full-information","relevant_dimensions":["wings","pattern"],"bee_group":{"antennae":"X","wings":"1","pattern":"D","legs":"X"},"bonus":1.1400000000000008},{"rt":2879,"stimulus":"bees-with-color/bee-A1SF.svg","response":1,"trial_type":"image-button-response","trial_index":13,"time_elapsed":157714,"internal_node_id":"0.0-4.0-0.3","subject_id":"601bde43332e2d5ff932d64a","study_id":"6197b3f67c2b5cd3b6d9596a","session_id":"619be31cd15c67e2e737e329","condition":"full-information","relevant_dimensions":["wings","pattern"],"bee_group":{"antennae":"X","wings":"1","pattern":"D","legs":"X"},"action":"avoid","summary":"bad-avoid","bonus":1.1400000000000008},{"rt":1103.2000000476837,"stimulus":"\n                    <p><b>Action: <em>avoid</em></b></p>\n                    <p>This is the bee that you just saw.</p>\n                    <img src=\"bees-with-color/bee-A1SF.svg\" width=\"200\">\n                    <p><span class=\"redText\">Bad choice,</span> the bee was friendly.<br>Your bonus pay is unchanged, and remains at $0.54.</p>\n            ","response":0,"trial_type":"html-button-response","trial_index":14,"time_elapsed":158818,"internal_node_id":"0.0-4.0-1.3","subject_id":"601bde43332e2d5ff932d64a","study_id":"6197b3f67c2b5cd3b6d9596a","session_id":"619be31cd15c67e2e737e329","condition":"full-information","relevant_dimensions":["wings","pattern"],"bee_group":{"antennae":"X","wings":"1","pattern":"D","legs":"X"},"bonus":1.1400000000000008},{"rt":3094.699999988079,"stimulus":"bees-with-color/bee-A1DF.svg","response":0,"trial_type":"image-button-response","trial_index":15,"time_elapsed":161914,"internal_node_id":"0.0-4.0-0.4","subject_id":"601bde43332e2d5ff932d64a","study_id":"6197b3f67c2b5cd3b6d9596a","session_id":"619be31cd15c67e2e737e329","condition":"full-information","relevant_dimensions":["wings","pattern"],"bee_group":{"antennae":"X","wings":"1","pattern":"D","legs":"X"},"action":"harvest","summary":"bad-harvest","bonus":1.1400000000000008},{"rt":1495.300000011921,"stimulus":"\n                    <p><b>Action: <em>harvest</em></b></p>\n                    <p>This is the bee that you just saw.</p>\n                    <img src=\"bees-with-color/bee-A1DF.svg\" width=\"200\">\n                    <p><span class=\"redText\">Bad choice, the bee was angry.</span><br><b>You have been stung!</b><br>Your pay has been decreased by $0.10. Your bonus pay is now $0.44.</p>\n            ","response":0,"trial_type":"html-button-response","trial_index":16,"time_elapsed":163410,"internal_node_id":"0.0-4.0-1.4","subject_id":"601bde43332e2d5ff932d64a","study_id":"6197b3f67c2b5cd3b6d9596a","session_id":"619be31cd15c67e2e737e329","condition":"full-information","relevant_dimensions":["wings","pattern"],"bee_group":{"antennae":"X","wings":"1","pattern":"D","legs":"X"},"bonus":1.1400000000000008},{"rt":2390.600000023842,"stimulus":"bees-with-color/bee-A2DM.svg","response":0,"trial_type":"image-button-response","trial_index":17,"time_elapsed":165802,"internal_node_id":"0.0-4.0-0.5","subject_id":"601bde43332e2d5ff932d64a","study_id":"6197b3f67c2b5cd3b6d9596a","session_id":"619be31cd15c67e2e737e329","condition":"full-information","relevant_dimensions":["wings","pattern"],"bee_group":{"antennae":"X","wings":"1","pattern":"D","legs":"X"},"action":"harvest","summary":"good-harvest","bonus":1.1400000000000008},{"rt":1215.300000011921,"stimulus":"\n                    <p><b>Action: <em>harvest</em></b></p>\n                    <p>This is the bee that you just saw.</p>\n                    <img src=\"bees-with-color/bee-A2DM.svg\" width=\"200\">\n                    <p><span class=\"greenText\"><b>Successful harvest!</b></span><br>Your pay has increased by $0.02. Your bonus pay is now $0.46.</p>\n            ","response":0,"trial_type":"html-button-response","trial_index":18,"time_elapsed":167018,"internal_node_id":"0.0-4.0-1.5","subject_id":"601bde43332e2d5ff932d64a","study_id":"6197b3f67c2b5cd3b6d9596a","session_id":"619be31cd15c67e2e737e329","condition":"full-information","relevant_dimensions":["wings","pattern"],"bee_group":{"antennae":"X","wings":"1","pattern":"D","legs":"X"},"bonus":1.1400000000000008},{"rt":1774.9000000357628,"stimulus":"bees-with-color/bee-A2DF.svg","response":1,"trial_type":"image-button-response","trial_index":19,"time_elapsed":168794,"internal_node_id":"0.0-4.0-0.6","subject_id":"601bde43332e2d5ff932d64a","study_id":"6197b3f67c2b5cd3b6d9596a","session_id":"619be31cd15c67e2e737e329","condition":"full-information","relevant_dimensions":["wings","pattern"],"bee_group":{"antennae":"X","wings":"1","pattern":"D","legs":"X"},"action":"avoid","summary":"bad-avoid","bonus":1.1400000000000008},{"rt":855.0999999642372,"stimulus":"\n                    <p><b>Action: <em>avoid</em></b></p>\n                    <p>This is the bee that you just saw.</p>\n                    <img src=\"bees-with-color/bee-A2DF.svg\" width=\"200\">\n                    <p><span class=\"redText\">Bad choice,</span> the bee was friendly.<br>Your bonus pay is unchanged, and remains at $0.46.</p>\n            ","response":0,"trial_type":"html-button-response","trial_index":20,"time_elapsed":169650,"internal_node_id":"0.0-4.0-1.6","subject_id":"601bde43332e2d5ff932d64a","study_id":"6197b3f67c2b5cd3b6d9596a","session_id":"619be31cd15c67e2e737e329","condition":"full-information","relevant_dimensions":["wings","pattern"],"bee_group":{"antennae":"X","wings":"1","pattern":"D","legs":"X"},"bonus":1.1400000000000008},{"rt":2135.199999988079,"stimulus":"bees-with-color/bee-A2SM.svg","response":0,"trial_type":"image-button-response","trial_index":21,"time_elapsed":171786,"internal_node_id":"0.0-4.0-0.7","subject_id":"601bde43332e2d5ff932d64a","study_id":"6197b3f67c2b5cd3b6d9596a","session_id":"619be31cd15c67e2e737e329","condition":"full-information","relevant_dimensions":["wings","pattern"],"bee_group":{"antennae":"X","wings":"1","pattern":"D","legs":"X"},"action":"harvest","summary":"good-harvest","bonus":1.1400000000000008},{"rt":871.3000000119209,"stimulus":"\n                    <p><b>Action: <em>harvest</em></b></p>\n                    <p>This is the bee that you just saw.</p>\n                    <img src=\"bees-with-color/bee-A2SM.svg\" width=\"200\">\n                    <p><span class=\"greenText\"><b>Successful harvest!</b></span><br>Your pay has increased by $0.02. Your bonus pay is now $0.48.</p>\n            ","response":0,"trial_type":"html-button-response","trial_index":22,"time_elapsed":172658,"internal_node_id":"0.0-4.0-1.7","subject_id":"601bde43332e2d5ff932d64a","study_id":"6197b3f67c2b5cd3b6d9596a","session_id":"619be31cd15c67e2e737e329","condition":"full-information","relevant_dimensions":["wings","pattern"],"bee_group":{"antennae":"X","wings":"1","pattern":"D","legs":"X"},"bonus":1.1400000000000008},{"rt":3494.899999976158,"stimulus":"bees-with-color/bee-B1DF.svg","response":1,"trial_type":"image-button-response","trial_index":23,"time_elapsed":176154,"internal_node_id":"0.0-4.0-0.8","subject_id":"601bde43332e2d5ff932d64a","study_id":"6197b3f67c2b5cd3b6d9596a","session_id":"619be31cd15c67e2e737e329","condition":"full-information","relevant_dimensions":["wings","pattern"],"bee_group":{"antennae":"X","wings":"1","pattern":"D","legs":"X"},"action":"avoid","summary":"good-avoid","bonus":1.1400000000000008},{"rt":1014.8999999761581,"stimulus":"\n                    <p><b>Action: <em>avoid</em></b></p>\n                    <p>This is the bee that you just saw.</p>\n                    <img src=\"bees-with-color/bee-B1DF.svg\" width=\"200\">\n                    <p><span class=\"greenText\">Good choice!</span>  This bee would have stung you.<br>Your bonus pay is unchanged, and remains at $0.48.</p>\n            ","response":0,"trial_type":"html-button-response","trial_index":24,"time_elapsed":177170,"internal_node_id":"0.0-4.0-1.8","subject_id":"601bde43332e2d5ff932d64a","study_id":"6197b3f67c2b5cd3b6d9596a","session_id":"619be31cd15c67e2e737e329","condition":"full-information","relevant_dimensions":["wings","pattern"],"bee_group":{"antennae":"X","wings":"1","pattern":"D","legs":"X"},"bonus":1.1400000000000008},{"rt":999.0999999642372,"stimulus":"bees-with-color/bee-B2DM.svg","response":0,"trial_type":"image-button-response","trial_index":25,"time_elapsed":178170,"internal_node_id":"0.0-4.0-0.9","subject_id":"601bde43332e2d5ff932d64a","study_id":"6197b3f67c2b5cd3b6d9596a","session_id":"619be31cd15c67e2e737e329","condition":"full-information","relevant_dimensions":["wings","pattern"],"bee_group":{"antennae":"X","wings":"1","pattern":"D","legs":"X"},"action":"harvest","summary":"good-harvest","bonus":1.1400000000000008},{"rt":734.8999999761581,"stimulus":"\n                    <p><b>Action: <em>harvest</em></b></p>\n                    <p>This is the bee that you just saw.</p>\n                    <img src=\"bees-with-color/bee-B2DM.svg\" width=\"200\">\n                    <p><span class=\"greenText\"><b>Successful harvest!</b></span><br>Your pay has increased by $0.02. Your bonus pay is now $0.50.</p>\n            ","response":0,"trial_type":"html-button-response","trial_index":26,"time_elapsed":178906,"internal_node_id":"0.0-4.0-1.9","subject_id":"601bde43332e2d5ff932d64a","study_id":"6197b3f67c2b5cd3b6d9596a","session_id":"619be31cd15c67e2e737e329","condition":"full-information","relevant_dimensions":["wings","pattern"],"bee_group":{"antennae":"X","wings":"1","pattern":"D","legs":"X"},"bonus":1.1400000000000008},{"rt":1351.300000011921,"stimulus":"bees-with-color/bee-A2SF.svg","response":0,"trial_type":"image-button-response","trial_index":27,"time_elapsed":180258,"internal_node_id":"0.0-4.0-0.10","subject_id":"601bde43332e2d5ff932d64a","study_id":"6197b3f67c2b5cd3b6d9596a","session_id":"619be31cd15c67e2e737e329","condition":"full-information","relevant_dimensions":["wings","pattern"],"bee_group":{"antennae":"X","wings":"1","pattern":"D","legs":"X"},"action":"harvest","summary":"good-harvest","bonus":1.1400000000000008},{"rt":679.1999999880791,"stimulus":"\n                    <p><b>Action: <em>harvest</em></b></p>\n                    <p>This is the bee that you just saw.</p>\n                    <img src=\"bees-with-color/bee-A2SF.svg\" width=\"200\">\n                    <p><span class=\"greenText\"><b>Successful harvest!</b></span><br>Your pay has increased by $0.02. Your bonus pay is now $0.52.</p>\n            ","response":0,"trial_type":"html-button-response","trial_index":28,"time_elapsed":180938,"internal_node_id":"0.0-4.0-1.10","subject_id":"601bde43332e2d5ff932d64a","study_id":"6197b3f67c2b5cd3b6d9596a","session_id":"619be31cd15c67e2e737e329","condition":"full-information","relevant_dimensions":["wings","pattern"],"bee_group":{"antennae":"X","wings":"1","pattern":"D","legs":"X"},"bonus":1.1400000000000008},{"rt":1103.2999999523163,"stimulus":"bees-with-color/bee-B2SF.svg","response":0,"trial_type":"image-button-response","trial_index":29,"time_elapsed":182042,"internal_node_id":"0.0-4.0-0.11","subject_id":"601bde43332e2d5ff932d64a","study_id":"6197b3f67c2b5cd3b6d9596a","session_id":"619be31cd15c67e2e737e329","condition":"full-information","relevant_dimensions":["wings","pattern"],"bee_group":{"antennae":"X","wings":"1","pattern":"D","legs":"X"},"action":"harvest","summary":"good-harvest","bonus":1.1400000000000008},{"rt":703.1999999880791,"stimulus":"\n                    <p><b>Action: <em>harvest</em></b></p>\n                    <p>This is the bee that you just saw.</p>\n                    <img src=\"bees-with-color/bee-B2SF.svg\" width=\"200\">\n                    <p><span class=\"greenText\"><b>Successful harvest!</b></span><br>Your pay has increased by $0.02. Your bonus pay is now $0.54.</p>\n            ","response":0,"trial_type":"html-button-response","trial_index":30,"time_elapsed":182746,"internal_node_id":"0.0-4.0-1.11","subject_id":"601bde43332e2d5ff932d64a","study_id":"6197b3f67c2b5cd3b6d9596a","session_id":"619be31cd15c67e2e737e329","condition":"full-information","relevant_dimensions":["wings","pattern"],"bee_group":{"antennae":"X","wings":"1","pattern":"D","legs":"X"},"bonus":1.1400000000000008},{"rt":951.1000000238419,"stimulus":"bees-with-color/bee-B2SM.svg","response":0,"trial_type":"image-button-response","trial_index":31,"time_elapsed":183698,"internal_node_id":"0.0-4.0-0.12","subject_id":"601bde43332e2d5ff932d64a","study_id":"6197b3f67c2b5cd3b6d9596a","session_id":"619be31cd15c67e2e737e329","condition":"full-information","relevant_dimensions":["wings","pattern"],"bee_group":{"antennae":"X","wings":"1","pattern":"D","legs":"X"},"action":"harvest","summary":"good-harvest","bonus":1.1400000000000008},{"rt":975.1000000238419,"stimulus":"\n                    <p><b>Action: <em>harvest</em></b></p>\n                    <p>This is the bee that you just saw.</p>\n                    <img src=\"bees-with-color/bee-B2SM.svg\" width=\"200\">\n                    <p><span class=\"greenText\"><b>Successful harvest!</b></span><br>Your pay has increased by $0.02. Your bonus pay is now $0.56.</p>\n            ","response":0,"trial_type":"html-button-response","trial_index":32,"time_elapsed":184674,"internal_node_id":"0.0-4.0-1.12","subject_id":"601bde43332e2d5ff932d64a","study_id":"6197b3f67c2b5cd3b6d9596a","session_id":"619be31cd15c67e2e737e329","condition":"full-information","relevant_dimensions":["wings","pattern"],"bee_group":{"antennae":"X","wings":"1","pattern":"D","legs":"X"},"bonus":1.1400000000000008},{"rt":1519.1000000238419,"stimulus":"bees-with-color/bee-B1SF.svg","response":1,"trial_type":"image-button-response","trial_index":33,"time_elapsed":186194,"internal_node_id":"0.0-4.0-0.13","subject_id":"601bde43332e2d5ff932d64a","study_id":"6197b3f67c2b5cd3b6d9596a","session_id":"619be31cd15c67e2e737e329","condition":"full-information","relevant_dimensions":["wings","pattern"],"bee_group":{"antennae":"X","wings":"1","pattern":"D","legs":"X"},"action":"avoid","summary":"bad-avoid","bonus":1.1400000000000008},{"rt":767.1000000238419,"stimulus":"\n                    <p><b>Action: <em>avoid</em></b></p>\n                    <p>This is the bee that you just saw.</p>\n                    <img src=\"bees-with-color/bee-B1SF.svg\" width=\"200\">\n                    <p><span class=\"redText\">Bad choice,</span> the bee was friendly.<br>Your bonus pay is unchanged, and remains at $0.56.</p>\n            ","response":0,"trial_type":"html-button-response","trial_index":34,"time_elapsed":186962,"internal_node_id":"0.0-4.0-1.13","subject_id":"601bde43332e2d5ff932d64a","study_id":"6197b3f67c2b5cd3b6d9596a","session_id":"619be31cd15c67e2e737e329","condition":"full-information","relevant_dimensions":["wings","pattern"],"bee_group":{"antennae":"X","wings":"1","pattern":"D","legs":"X"},"bonus":1.1400000000000008},{"rt":1095,"stimulus":"bees-with-color/bee-A1DM.svg","response":1,"trial_type":"image-button-response","trial_index":35,"time_elapsed":188058,"internal_node_id":"0.0-4.0-0.14","subject_id":"601bde43332e2d5ff932d64a","study_id":"6197b3f67c2b5cd3b6d9596a","session_id":"619be31cd15c67e2e737e329","condition":"full-information","relevant_dimensions":["wings","pattern"],"bee_group":{"antennae":"X","wings":"1","pattern":"D","legs":"X"},"action":"avoid","summary":"good-avoid","bonus":1.1400000000000008},{"rt":1295.2000000476837,"stimulus":"\n                    <p><b>Action: <em>avoid</em></b></p>\n                    <p>This is the bee that you just saw.</p>\n                    <img src=\"bees-with-color/bee-A1DM.svg\" width=\"200\">\n                    <p><span class=\"greenText\">Good choice!</span>  This bee would have stung you.<br>Your bonus pay is unchanged, and remains at $0.56.</p>\n            ","response":0,"trial_type":"html-button-response","trial_index":36,"time_elapsed":189354,"internal_node_id":"0.0-4.0-1.14","subject_id":"601bde43332e2d5ff932d64a","study_id":"6197b3f67c2b5cd3b6d9596a","session_id":"619be31cd15c67e2e737e329","condition":"full-information","relevant_dimensions":["wings","pattern"],"bee_group":{"antennae":"X","wings":"1","pattern":"D","legs":"X"},"bonus":1.1400000000000008},{"rt":2223.100000023842,"stimulus":"bees-with-color/bee-A1SM.svg","response":0,"trial_type":"image-button-response","trial_index":37,"time_elapsed":191578,"internal_node_id":"0.0-4.0-0.15","subject_id":"601bde43332e2d5ff932d64a","study_id":"6197b3f67c2b5cd3b6d9596a","session_id":"619be31cd15c67e2e737e329","condition":"full-information","relevant_dimensions":["wings","pattern"],"bee_group":{"antennae":"X","wings":"1","pattern":"D","legs":"X"},"action":"harvest","summary":"good-harvest","bonus":1.1400000000000008},{"rt":662.8999999761581,"stimulus":"\n                    <p><b>Action: <em>harvest</em></b></p>\n                    <p>This is the bee that you just saw.</p>\n                    <img src=\"bees-with-color/bee-A1SM.svg\" width=\"200\">\n                    <p><span class=\"greenText\"><b>Successful harvest!</b></span><br>Your pay has increased by $0.02. Your bonus pay is now $0.58.</p>\n            ","response":0,"trial_type":"html-button-response","trial_index":38,"time_elapsed":192242,"internal_node_id":"0.0-4.0-1.15","subject_id":"601bde43332e2d5ff932d64a","study_id":"6197b3f67c2b5cd3b6d9596a","session_id":"619be31cd15c67e2e737e329","condition":"full-information","relevant_dimensions":["wings","pattern"],"bee_group":{"antennae":"X","wings":"1","pattern":"D","legs":"X"},"bonus":1.1400000000000008},{"rt":1711.1000000238419,"stimulus":"bees-with-color/bee-B1DF.svg","response":1,"trial_type":"image-button-response","trial_index":39,"time_elapsed":193954,"internal_node_id":"0.0-4.0-0.16","subject_id":"601bde43332e2d5ff932d64a","study_id":"6197b3f67c2b5cd3b6d9596a","session_id":"619be31cd15c67e2e737e329","condition":"full-information","relevant_dimensions":["wings","pattern"],"bee_group":{"antennae":"X","wings":"1","pattern":"D","legs":"X"},"action":"avoid","summary":"good-avoid","bonus":1.1400000000000008},{"rt":1095,"stimulus":"\n                    <p><b>Action: <em>avoid</em></b></p>\n                    <p>This is the bee that you just saw.</p>\n                    <img src=\"bees-with-color/bee-B1DF.svg\" width=\"200\">\n                    <p><span class=\"greenText\">Good choice!</span>  This bee would have stung you.<br>Your bonus pay is unchanged, and remains at $0.58.</p>\n            ","response":0,"trial_type":"html-button-response","trial_index":40,"time_elapsed":195050,"internal_node_id":"0.0-4.0-1.16","subject_id":"601bde43332e2d5ff932d64a","study_id":"6197b3f67c2b5cd3b6d9596a","session_id":"619be31cd15c67e2e737e329","condition":"full-information","relevant_dimensions":["wings","pattern"],"bee_group":{"antennae":"X","wings":"1","pattern":"D","legs":"X"},"bonus":1.1400000000000008},{"rt":1039,"stimulus":"bees-with-color/bee-A1DF.svg","response":1,"trial_type":"image-button-response","trial_index":41,"time_elapsed":196090,"internal_node_id":"0.0-4.0-0.17","subject_id":"601bde43332e2d5ff932d64a","study_id":"6197b3f67c2b5cd3b6d9596a","session_id":"619be31cd15c67e2e737e329","condition":"full-information","relevant_dimensions":["wings","pattern"],"bee_group":{"antennae":"X","wings":"1","pattern":"D","legs":"X"},"action":"avoid","summary":"good-avoid","bonus":1.1400000000000008},{"rt":463,"stimulus":"\n                    <p><b>Action: <em>avoid</em></b></p>\n                    <p>This is the bee that you just saw.</p>\n                    <img src=\"bees-with-color/bee-A1DF.svg\" width=\"200\">\n                    <p><span class=\"greenText\">Good choice!</span>  This bee would have stung you.<br>Your bonus pay is unchanged, and remains at $0.58.</p>\n            ","response":0,"trial_type":"html-button-response","trial_index":42,"time_elapsed":196554,"internal_node_id":"0.0-4.0-1.17","subject_id":"601bde43332e2d5ff932d64a","study_id":"6197b3f67c2b5cd3b6d9596a","session_id":"619be31cd15c67e2e737e329","condition":"full-information","relevant_dimensions":["wings","pattern"],"bee_group":{"antennae":"X","wings":"1","pattern":"D","legs":"X"},"bonus":1.1400000000000008},{"rt":1039,"stimulus":"bees-with-color/bee-A2DM.svg","response":0,"trial_type":"image-button-response","trial_index":43,"time_elapsed":197594,"internal_node_id":"0.0-4.0-0.18","subject_id":"601bde43332e2d5ff932d64a","study_id":"6197b3f67c2b5cd3b6d9596a","session_id":"619be31cd15c67e2e737e329","condition":"full-information","relevant_dimensions":["wings","pattern"],"bee_group":{"antennae":"X","wings":"1","pattern":"D","legs":"X"},"action":"harvest","summary":"good-harvest","bonus":1.1400000000000008},{"rt":838.8999999761581,"stimulus":"\n                    <p><b>Action: <em>harvest</em></b></p>\n                    <p>This is the bee that you just saw.</p>\n                    <img src=\"bees-with-color/bee-A2DM.svg\" width=\"200\">\n                    <p><span class=\"greenText\"><b>Successful harvest!</b></span><br>Your pay has increased by $0.02. Your bonus pay is now $0.60.</p>\n            ","response":0,"trial_type":"html-button-response","trial_index":44,"time_elapsed":198433,"internal_node_id":"0.0-4.0-1.18","subject_id":"601bde43332e2d5ff932d64a","study_id":"6197b3f67c2b5cd3b6d9596a","session_id":"619be31cd15c67e2e737e329","condition":"full-information","relevant_dimensions":["wings","pattern"],"bee_group":{"antennae":"X","wings":"1","pattern":"D","legs":"X"},"bonus":1.1400000000000008},{"rt":1407.3999999761581,"stimulus":"bees-with-color/bee-A2DF.svg","response":0,"trial_type":"image-button-response","trial_index":45,"time_elapsed":199841,"internal_node_id":"0.0-4.0-0.19","subject_id":"601bde43332e2d5ff932d64a","study_id":"6197b3f67c2b5cd3b6d9596a","session_id":"619be31cd15c67e2e737e329","condition":"full-information","relevant_dimensions":["wings","pattern"],"bee_group":{"antennae":"X","wings":"1","pattern":"D","legs":"X"},"action":"harvest","summary":"good-harvest","bonus":1.1400000000000008},{"rt":607.3000000119209,"stimulus":"\n                    <p><b>Action: <em>harvest</em></b></p>\n                    <p>This is the bee that you just saw.</p>\n                    <img src=\"bees-with-color/bee-A2DF.svg\" width=\"200\">\n                    <p><span class=\"greenText\"><b>Successful harvest!</b></span><br>Your pay has increased by $0.02. Your bonus pay is now $0.62.</p>\n            ","response":0,"trial_type":"html-button-response","trial_index":46,"time_elapsed":200449,"internal_node_id":"0.0-4.0-1.19","subject_id":"601bde43332e2d5ff932d64a","study_id":"6197b3f67c2b5cd3b6d9596a","session_id":"619be31cd15c67e2e737e329","condition":"full-information","relevant_dimensions":["wings","pattern"],"bee_group":{"antennae":"X","wings":"1","pattern":"D","legs":"X"},"bonus":1.1400000000000008},{"rt":2255.399999976158,"stimulus":"bees-with-color/bee-A1SF.svg","response":0,"trial_type":"image-button-response","trial_index":47,"time_elapsed":202705,"internal_node_id":"0.0-4.0-0.20","subject_id":"601bde43332e2d5ff932d64a","study_id":"6197b3f67c2b5cd3b6d9596a","session_id":"619be31cd15c67e2e737e329","condition":"full-information","relevant_dimensions":["wings","pattern"],"bee_group":{"antennae":"X","wings":"1","pattern":"D","legs":"X"},"action":"harvest","summary":"good-harvest","bonus":1.1400000000000008},{"rt":631.3000000119209,"stimulus":"\n                    <p><b>Action: <em>harvest</em></b></p>\n                    <p>This is the bee that you just saw.</p>\n                    <img src=\"bees-with-color/bee-A1SF.svg\" width=\"200\">\n                    <p><span class=\"greenText\"><b>Successful harvest!</b></span><br>Your pay has increased by $0.02. Your bonus pay is now $0.64.</p>\n            ","response":0,"trial_type":"html-button-response","trial_index":48,"time_elapsed":203337,"internal_node_id":"0.0-4.0-1.20","subject_id":"601bde43332e2d5ff932d64a","study_id":"6197b3f67c2b5cd3b6d9596a","session_id":"619be31cd15c67e2e737e329","condition":"full-information","relevant_dimensions":["wings","pattern"],"bee_group":{"antennae":"X","wings":"1","pattern":"D","legs":"X"},"bonus":1.1400000000000008},{"rt":1110.7999999523163,"stimulus":"bees-with-color/bee-B1SF.svg","response":1,"trial_type":"image-button-response","trial_index":49,"time_elapsed":204449,"internal_node_id":"0.0-4.0-0.21","subject_id":"601bde43332e2d5ff932d64a","study_id":"6197b3f67c2b5cd3b6d9596a","session_id":"619be31cd15c67e2e737e329","condition":"full-information","relevant_dimensions":["wings","pattern"],"bee_group":{"antennae":"X","wings":"1","pattern":"D","legs":"X"},"action":"avoid","summary":"bad-avoid","bonus":1.1400000000000008},{"rt":1127.199999988079,"stimulus":"\n                    <p><b>Action: <em>avoid</em></b></p>\n                    <p>This is the bee that you just saw.</p>\n                    <img src=\"bees-with-color/bee-B1SF.svg\" width=\"200\">\n                    <p><span class=\"redText\">Bad choice,</span> the bee was friendly.<br>Your bonus pay is unchanged, and remains at $0.64.</p>\n            ","response":0,"trial_type":"html-button-response","trial_index":50,"time_elapsed":205577,"internal_node_id":"0.0-4.0-1.21","subject_id":"601bde43332e2d5ff932d64a","study_id":"6197b3f67c2b5cd3b6d9596a","session_id":"619be31cd15c67e2e737e329","condition":"full-information","relevant_dimensions":["wings","pattern"],"bee_group":{"antennae":"X","wings":"1","pattern":"D","legs":"X"},"bonus":1.1400000000000008},{"rt":1311.2999999523163,"stimulus":"bees-with-color/bee-B2SF.svg","response":1,"trial_type":"image-button-response","trial_index":51,"time_elapsed":206889,"internal_node_id":"0.0-4.0-0.22","subject_id":"601bde43332e2d5ff932d64a","study_id":"6197b3f67c2b5cd3b6d9596a","session_id":"619be31cd15c67e2e737e329","condition":"full-information","relevant_dimensions":["wings","pattern"],"bee_group":{"antennae":"X","wings":"1","pattern":"D","legs":"X"},"action":"avoid","summary":"bad-avoid","bonus":1.1400000000000008},{"rt":559.1999999880791,"stimulus":"\n                    <p><b>Action: <em>avoid</em></b></p>\n                    <p>This is the bee that you just saw.</p>\n                    <img src=\"bees-with-color/bee-B2SF.svg\" width=\"200\">\n                    <p><span class=\"redText\">Bad choice,</span> the bee was friendly.<br>Your bonus pay is unchanged, and remains at $0.64.</p>\n            ","response":0,"trial_type":"html-button-response","trial_index":52,"time_elapsed":207449,"internal_node_id":"0.0-4.0-1.22","subject_id":"601bde43332e2d5ff932d64a","study_id":"6197b3f67c2b5cd3b6d9596a","session_id":"619be31cd15c67e2e737e329","condition":"full-information","relevant_dimensions":["wings","pattern"],"bee_group":{"antennae":"X","wings":"1","pattern":"D","legs":"X"},"bonus":1.1400000000000008},{"rt":1303.300000011921,"stimulus":"bees-with-color/bee-B2SM.svg","response":0,"trial_type":"image-button-response","trial_index":53,"time_elapsed":208753,"internal_node_id":"0.0-4.0-0.23","subject_id":"601bde43332e2d5ff932d64a","study_id":"6197b3f67c2b5cd3b6d9596a","session_id":"619be31cd15c67e2e737e329","condition":"full-information","relevant_dimensions":["wings","pattern"],"bee_group":{"antennae":"X","wings":"1","pattern":"D","legs":"X"},"action":"harvest","summary":"good-harvest","bonus":1.1400000000000008},{"rt":567.0999999642372,"stimulus":"\n                    <p><b>Action: <em>harvest</em></b></p>\n                    <p>This is the bee that you just saw.</p>\n                    <img src=\"bees-with-color/bee-B2SM.svg\" width=\"200\">\n                    <p><span class=\"greenText\"><b>Successful harvest!</b></span><br>Your pay has increased by $0.02. Your bonus pay is now $0.66.</p>\n            ","response":0,"trial_type":"html-button-response","trial_index":54,"time_elapsed":209321,"internal_node_id":"0.0-4.0-1.23","subject_id":"601bde43332e2d5ff932d64a","study_id":"6197b3f67c2b5cd3b6d9596a","session_id":"619be31cd15c67e2e737e329","condition":"full-information","relevant_dimensions":["wings","pattern"],"bee_group":{"antennae":"X","wings":"1","pattern":"D","legs":"X"},"bonus":1.1400000000000008},{"rt":1031.199999988079,"stimulus":"bees-with-color/bee-A2SF.svg","response":0,"trial_type":"image-button-response","trial_index":55,"time_elapsed":210353,"internal_node_id":"0.0-4.0-0.24","subject_id":"601bde43332e2d5ff932d64a","study_id":"6197b3f67c2b5cd3b6d9596a","session_id":"619be31cd15c67e2e737e329","condition":"full-information","relevant_dimensions":["wings","pattern"],"bee_group":{"antennae":"X","wings":"1","pattern":"D","legs":"X"},"action":"harvest","summary":"good-harvest","bonus":1.1400000000000008},{"rt":487.19999998807907,"stimulus":"\n                    <p><b>Action: <em>harvest</em></b></p>\n                    <p>This is the bee that you just saw.</p>\n                    <img src=\"bees-with-color/bee-A2SF.svg\" width=\"200\">\n                    <p><span class=\"greenText\"><b>Successful harvest!</b></span><br>Your pay has increased by $0.02. Your bonus pay is now $0.68.</p>\n            ","response":0,"trial_type":"html-button-response","trial_index":56,"time_elapsed":210841,"internal_node_id":"0.0-4.0-1.24","subject_id":"601bde43332e2d5ff932d64a","study_id":"6197b3f67c2b5cd3b6d9596a","session_id":"619be31cd15c67e2e737e329","condition":"full-information","relevant_dimensions":["wings","pattern"],"bee_group":{"antennae":"X","wings":"1","pattern":"D","legs":"X"},"bonus":1.1400000000000008},{"rt":1743.300000011921,"stimulus":"bees-with-color/bee-A1SM.svg","response":1,"trial_type":"image-button-response","trial_index":57,"time_elapsed":212585,"internal_node_id":"0.0-4.0-0.25","subject_id":"601bde43332e2d5ff932d64a","study_id":"6197b3f67c2b5cd3b6d9596a","session_id":"619be31cd15c67e2e737e329","condition":"full-information","relevant_dimensions":["wings","pattern"],"bee_group":{"antennae":"X","wings":"1","pattern":"D","legs":"X"},"action":"avoid","summary":"bad-avoid","bonus":1.1400000000000008},{"rt":607.1000000238419,"stimulus":"\n                    <p><b>Action: <em>avoid</em></b></p>\n                    <p>This is the bee that you just saw.</p>\n                    <img src=\"bees-with-color/bee-A1SM.svg\" width=\"200\">\n                    <p><span class=\"redText\">Bad choice,</span> the bee was friendly.<br>Your bonus pay is unchanged, and remains at $0.68.</p>\n            ","response":0,"trial_type":"html-button-response","trial_index":58,"time_elapsed":213193,"internal_node_id":"0.0-4.0-1.25","subject_id":"601bde43332e2d5ff932d64a","study_id":"6197b3f67c2b5cd3b6d9596a","session_id":"619be31cd15c67e2e737e329","condition":"full-information","relevant_dimensions":["wings","pattern"],"bee_group":{"antennae":"X","wings":"1","pattern":"D","legs":"X"},"bonus":1.1400000000000008},{"rt":847.1999999880791,"stimulus":"bees-with-color/bee-A1DM.svg","response":1,"trial_type":"image-button-response","trial_index":59,"time_elapsed":214041,"internal_node_id":"0.0-4.0-0.26","subject_id":"601bde43332e2d5ff932d64a","study_id":"6197b3f67c2b5cd3b6d9596a","session_id":"619be31cd15c67e2e737e329","condition":"full-information","relevant_dimensions":["wings","pattern"],"bee_group":{"antennae":"X","wings":"1","pattern":"D","legs":"X"},"action":"avoid","summary":"good-avoid","bonus":1.1400000000000008},{"rt":799.0999999642372,"stimulus":"\n                    <p><b>Action: <em>avoid</em></b></p>\n                    <p>This is the bee that you just saw.</p>\n                    <img src=\"bees-with-color/bee-A1DM.svg\" width=\"200\">\n                    <p><span class=\"greenText\">Good choice!</span>  This bee would have stung you.<br>Your bonus pay is unchanged, and remains at $0.68.</p>\n            ","response":0,"trial_type":"html-button-response","trial_index":60,"time_elapsed":214841,"internal_node_id":"0.0-4.0-1.26","subject_id":"601bde43332e2d5ff932d64a","study_id":"6197b3f67c2b5cd3b6d9596a","session_id":"619be31cd15c67e2e737e329","condition":"full-information","relevant_dimensions":["wings","pattern"],"bee_group":{"antennae":"X","wings":"1","pattern":"D","legs":"X"},"bonus":1.1400000000000008},{"rt":1215.199999988079,"stimulus":"bees-with-color/bee-B1DM.svg","response":1,"trial_type":"image-button-response","trial_index":61,"time_elapsed":216057,"internal_node_id":"0.0-4.0-0.27","subject_id":"601bde43332e2d5ff932d64a","study_id":"6197b3f67c2b5cd3b6d9596a","session_id":"619be31cd15c67e2e737e329","condition":"full-information","relevant_dimensions":["wings","pattern"],"bee_group":{"antennae":"X","wings":"1","pattern":"D","legs":"X"},"action":"avoid","summary":"good-avoid","bonus":1.1400000000000008},{"rt":607,"stimulus":"\n                    <p><b>Action: <em>avoid</em></b></p>\n                    <p>This is the bee that you just saw.</p>\n                    <img src=\"bees-with-color/bee-B1DM.svg\" width=\"200\">\n                    <p><span class=\"greenText\">Good choice!</span>  This bee would have stung you.<br>Your bonus pay is unchanged, and remains at $0.68.</p>\n            ","response":0,"trial_type":"html-button-response","trial_index":62,"time_elapsed":216665,"internal_node_id":"0.0-4.0-1.27","subject_id":"601bde43332e2d5ff932d64a","study_id":"6197b3f67c2b5cd3b6d9596a","session_id":"619be31cd15c67e2e737e329","condition":"full-information","relevant_dimensions":["wings","pattern"],"bee_group":{"antennae":"X","wings":"1","pattern":"D","legs":"X"},"bonus":1.1400000000000008},{"rt":999.2999999523163,"stimulus":"bees-with-color/bee-B2DM.svg","response":0,"trial_type":"image-button-response","trial_index":63,"time_elapsed":217665,"internal_node_id":"0.0-4.0-0.28","subject_id":"601bde43332e2d5ff932d64a","study_id":"6197b3f67c2b5cd3b6d9596a","session_id":"619be31cd15c67e2e737e329","condition":"full-information","relevant_dimensions":["wings","pattern"],"bee_group":{"antennae":"X","wings":"1","pattern":"D","legs":"X"},"action":"harvest","summary":"good-harvest","bonus":1.1400000000000008},{"rt":695.0999999642372,"stimulus":"\n                    <p><b>Action: <em>harvest</em></b></p>\n                    <p>This is the bee that you just saw.</p>\n                    <img src=\"bees-with-color/bee-B2DM.svg\" width=\"200\">\n                    <p><span class=\"greenText\"><b>Successful harvest!</b></span><br>Your pay has increased by $0.02. Your bonus pay is now $0.70.</p>\n            ","response":0,"trial_type":"html-button-response","trial_index":64,"time_elapsed":218361,"internal_node_id":"0.0-4.0-1.28","subject_id":"601bde43332e2d5ff932d64a","study_id":"6197b3f67c2b5cd3b6d9596a","session_id":"619be31cd15c67e2e737e329","condition":"full-information","relevant_dimensions":["wings","pattern"],"bee_group":{"antennae":"X","wings":"1","pattern":"D","legs":"X"},"bonus":1.1400000000000008},{"rt":1647.199999988079,"stimulus":"bees-with-color/bee-B1SM.svg","response":0,"trial_type":"image-button-response","trial_index":65,"time_elapsed":220009,"internal_node_id":"0.0-4.0-0.29","subject_id":"601bde43332e2d5ff932d64a","study_id":"6197b3f67c2b5cd3b6d9596a","session_id":"619be31cd15c67e2e737e329","condition":"full-information","relevant_dimensions":["wings","pattern"],"bee_group":{"antennae":"X","wings":"1","pattern":"D","legs":"X"},"action":"harvest","summary":"good-harvest","bonus":1.1400000000000008},{"rt":399.10000002384186,"stimulus":"\n                    <p><b>Action: <em>harvest</em></b></p>\n                    <p>This is the bee that you just saw.</p>\n                    <img src=\"bees-with-color/bee-B1SM.svg\" width=\"200\">\n                    <p><span class=\"greenText\"><b>Successful harvest!</b></span><br>Your pay has increased by $0.02. Your bonus pay is now $0.72.</p>\n            ","response":0,"trial_type":"html-button-response","trial_index":66,"time_elapsed":220409,"internal_node_id":"0.0-4.0-1.29","subject_id":"601bde43332e2d5ff932d64a","study_id":"6197b3f67c2b5cd3b6d9596a","session_id":"619be31cd15c67e2e737e329","condition":"full-information","relevant_dimensions":["wings","pattern"],"bee_group":{"antennae":"X","wings":"1","pattern":"D","legs":"X"},"bonus":1.1400000000000008},{"rt":1175.0999999642372,"stimulus":"bees-with-color/bee-B2DF.svg","response":0,"trial_type":"image-button-response","trial_index":67,"time_elapsed":221585,"internal_node_id":"0.0-4.0-0.30","subject_id":"601bde43332e2d5ff932d64a","study_id":"6197b3f67c2b5cd3b6d9596a","session_id":"619be31cd15c67e2e737e329","condition":"full-information","relevant_dimensions":["wings","pattern"],"bee_group":{"antennae":"X","wings":"1","pattern":"D","legs":"X"},"action":"harvest","summary":"good-harvest","bonus":1.1400000000000008},{"rt":415,"stimulus":"\n                    <p><b>Action: <em>harvest</em></b></p>\n                    <p>This is the bee that you just saw.</p>\n                    <img src=\"bees-with-color/bee-B2DF.svg\" width=\"200\">\n                    <p><span class=\"greenText\"><b>Successful harvest!</b></span><br>Your pay has increased by $0.02. Your bonus pay is now $0.74.</p>\n            ","response":0,"trial_type":"html-button-response","trial_index":68,"time_elapsed":222001,"internal_node_id":"0.0-4.0-1.30","subject_id":"601bde43332e2d5ff932d64a","study_id":"6197b3f67c2b5cd3b6d9596a","session_id":"619be31cd15c67e2e737e329","condition":"full-information","relevant_dimensions":["wings","pattern"],"bee_group":{"antennae":"X","wings":"1","pattern":"D","legs":"X"},"bonus":1.1400000000000008},{"rt":1479.4000000357628,"stimulus":"bees-with-color/bee-A2SM.svg","response":0,"trial_type":"image-button-response","trial_index":69,"time_elapsed":223482,"internal_node_id":"0.0-4.0-0.31","subject_id":"601bde43332e2d5ff932d64a","study_id":"6197b3f67c2b5cd3b6d9596a","session_id":"619be31cd15c67e2e737e329","condition":"full-information","relevant_dimensions":["wings","pattern"],"bee_group":{"antennae":"X","wings":"1","pattern":"D","legs":"X"},"action":"harvest","summary":"good-harvest","bonus":1.1400000000000008},{"rt":407,"stimulus":"\n                    <p><b>Action: <em>harvest</em></b></p>\n                    <p>This is the bee that you just saw.</p>\n                    <img src=\"bees-with-color/bee-A2SM.svg\" width=\"200\">\n                    <p><span class=\"greenText\"><b>Successful harvest!</b></span><br>Your pay has increased by $0.02. Your bonus pay is now $0.76.</p>\n            ","response":0,"trial_type":"html-button-response","trial_index":70,"time_elapsed":223890,"internal_node_id":"0.0-4.0-1.31","subject_id":"601bde43332e2d5ff932d64a","study_id":"6197b3f67c2b5cd3b6d9596a","session_id":"619be31cd15c67e2e737e329","condition":"full-information","relevant_dimensions":["wings","pattern"],"bee_group":{"antennae":"X","wings":"1","pattern":"D","legs":"X"},"bonus":1.1400000000000008},{"rt":839.1000000238419,"stimulus":"bees-with-color/bee-A2SM.svg","response":0,"trial_type":"image-button-response","trial_index":71,"time_elapsed":224729,"internal_node_id":"0.0-4.0-0.32","subject_id":"601bde43332e2d5ff932d64a","study_id":"6197b3f67c2b5cd3b6d9596a","session_id":"619be31cd15c67e2e737e329","condition":"full-information","relevant_dimensions":["wings","pattern"],"bee_group":{"antennae":"X","wings":"1","pattern":"D","legs":"X"},"action":"harvest","summary":"good-harvest","bonus":1.1400000000000008},{"rt":959.3000000119209,"stimulus":"\n                    <p><b>Action: <em>harvest</em></b></p>\n                    <p>This is the bee that you just saw.</p>\n                    <img src=\"bees-with-color/bee-A2SM.svg\" width=\"200\">\n                    <p><span class=\"greenText\"><b>Successful harvest!</b></span><br>Your pay has increased by $0.02. Your bonus pay is now $0.78.</p>\n            ","response":0,"trial_type":"html-button-response","trial_index":72,"time_elapsed":225690,"internal_node_id":"0.0-4.0-1.32","subject_id":"601bde43332e2d5ff932d64a","study_id":"6197b3f67c2b5cd3b6d9596a","session_id":"619be31cd15c67e2e737e329","condition":"full-information","relevant_dimensions":["wings","pattern"],"bee_group":{"antennae":"X","wings":"1","pattern":"D","legs":"X"},"bonus":1.1400000000000008},{"rt":2223.100000023842,"stimulus":"bees-with-color/bee-B1SM.svg","response":1,"trial_type":"image-button-response","trial_index":73,"time_elapsed":227914,"internal_node_id":"0.0-4.0-0.33","subject_id":"601bde43332e2d5ff932d64a","study_id":"6197b3f67c2b5cd3b6d9596a","session_id":"619be31cd15c67e2e737e329","condition":"full-information","relevant_dimensions":["wings","pattern"],"bee_group":{"antennae":"X","wings":"1","pattern":"D","legs":"X"},"action":"avoid","summary":"bad-avoid","bonus":1.1400000000000008},{"rt":694.8000000119209,"stimulus":"\n                    <p><b>Action: <em>avoid</em></b></p>\n                    <p>This is the bee that you just saw.</p>\n                    <img src=\"bees-with-color/bee-B1SM.svg\" width=\"200\">\n                    <p><span class=\"redText\">Bad choice,</span> the bee was friendly.<br>Your bonus pay is unchanged, and remains at $0.78.</p>\n            ","response":0,"trial_type":"html-button-response","trial_index":74,"time_elapsed":228609,"internal_node_id":"0.0-4.0-1.33","subject_id":"601bde43332e2d5ff932d64a","study_id":"6197b3f67c2b5cd3b6d9596a","session_id":"619be31cd15c67e2e737e329","condition":"full-information","relevant_dimensions":["wings","pattern"],"bee_group":{"antennae":"X","wings":"1","pattern":"D","legs":"X"},"bonus":1.1400000000000008},{"rt":927.1999999880791,"stimulus":"bees-with-color/bee-A1DM.svg","response":1,"trial_type":"image-button-response","trial_index":75,"time_elapsed":229537,"internal_node_id":"0.0-4.0-0.34","subject_id":"601bde43332e2d5ff932d64a","study_id":"6197b3f67c2b5cd3b6d9596a","session_id":"619be31cd15c67e2e737e329","condition":"full-information","relevant_dimensions":["wings","pattern"],"bee_group":{"antennae":"X","wings":"1","pattern":"D","legs":"X"},"action":"avoid","summary":"good-avoid","bonus":1.1400000000000008},{"rt":678.8999999761581,"stimulus":"\n                    <p><b>Action: <em>avoid</em></b></p>\n                    <p>This is the bee that you just saw.</p>\n                    <img src=\"bees-with-color/bee-A1DM.svg\" width=\"200\">\n                    <p><span class=\"greenText\">Good choice!</span>  This bee would have stung you.<br>Your bonus pay is unchanged, and remains at $0.78.</p>\n            ","response":0,"trial_type":"html-button-response","trial_index":76,"time_elapsed":230217,"internal_node_id":"0.0-4.0-1.34","subject_id":"601bde43332e2d5ff932d64a","study_id":"6197b3f67c2b5cd3b6d9596a","session_id":"619be31cd15c67e2e737e329","condition":"full-information","relevant_dimensions":["wings","pattern"],"bee_group":{"antennae":"X","wings":"1","pattern":"D","legs":"X"},"bonus":1.1400000000000008},{"rt":1383.300000011921,"stimulus":"bees-with-color/bee-B2DM.svg","response":0,"trial_type":"image-button-response","trial_index":77,"time_elapsed":231601,"internal_node_id":"0.0-4.0-0.35","subject_id":"601bde43332e2d5ff932d64a","study_id":"6197b3f67c2b5cd3b6d9596a","session_id":"619be31cd15c67e2e737e329","condition":"full-information","relevant_dimensions":["wings","pattern"],"bee_group":{"antennae":"X","wings":"1","pattern":"D","legs":"X"},"action":"harvest","summary":"good-harvest","bonus":1.1400000000000008},{"rt":447.0999999642372,"stimulus":"\n                    <p><b>Action: <em>harvest</em></b></p>\n                    <p>This is the bee that you just saw.</p>\n                    <img src=\"bees-with-color/bee-B2DM.svg\" width=\"200\">\n                    <p><span class=\"greenText\"><b>Successful harvest!</b></span><br>Your pay has increased by $0.02. Your bonus pay is now $0.80.</p>\n            ","response":0,"trial_type":"html-button-response","trial_index":78,"time_elapsed":232049,"internal_node_id":"0.0-4.0-1.35","subject_id":"601bde43332e2d5ff932d64a","study_id":"6197b3f67c2b5cd3b6d9596a","session_id":"619be31cd15c67e2e737e329","condition":"full-information","relevant_dimensions":["wings","pattern"],"bee_group":{"antennae":"X","wings":"1","pattern":"D","legs":"X"},"bonus":1.1400000000000008},{"rt":1263.2999999523163,"stimulus":"bees-with-color/bee-A2DF.svg","response":0,"trial_type":"image-button-response","trial_index":79,"time_elapsed":233313,"internal_node_id":"0.0-4.0-0.36","subject_id":"601bde43332e2d5ff932d64a","study_id":"6197b3f67c2b5cd3b6d9596a","session_id":"619be31cd15c67e2e737e329","condition":"full-information","relevant_dimensions":["wings","pattern"],"bee_group":{"antennae":"X","wings":"1","pattern":"D","legs":"X"},"action":"harvest","summary":"good-harvest","bonus":1.1400000000000008},{"rt":503.30000001192093,"stimulus":"\n                    <p><b>Action: <em>harvest</em></b></p>\n                    <p>This is the bee that you just saw.</p>\n                    <img src=\"bees-with-color/bee-A2DF.svg\" width=\"200\">\n                    <p><span class=\"greenText\"><b>Successful harvest!</b></span><br>Your pay has increased by $0.02. Your bonus pay is now $0.82.</p>\n            ","response":0,"trial_type":"html-button-response","trial_index":80,"time_elapsed":233817,"internal_node_id":"0.0-4.0-1.36","subject_id":"601bde43332e2d5ff932d64a","study_id":"6197b3f67c2b5cd3b6d9596a","session_id":"619be31cd15c67e2e737e329","condition":"full-information","relevant_dimensions":["wings","pattern"],"bee_group":{"antennae":"X","wings":"1","pattern":"D","legs":"X"},"bonus":1.1400000000000008},{"rt":1335.3999999761581,"stimulus":"bees-with-color/bee-A1DF.svg","response":1,"trial_type":"image-button-response","trial_index":81,"time_elapsed":235153,"internal_node_id":"0.0-4.0-0.37","subject_id":"601bde43332e2d5ff932d64a","study_id":"6197b3f67c2b5cd3b6d9596a","session_id":"619be31cd15c67e2e737e329","condition":"full-information","relevant_dimensions":["wings","pattern"],"bee_group":{"antennae":"X","wings":"1","pattern":"D","legs":"X"},"action":"avoid","summary":"good-avoid","bonus":1.1400000000000008},{"rt":671,"stimulus":"\n                    <p><b>Action: <em>avoid</em></b></p>\n                    <p>This is the bee that you just saw.</p>\n                    <img src=\"bees-with-color/bee-A1DF.svg\" width=\"200\">\n                    <p><span class=\"greenText\">Good choice!</span>  This bee would have stung you.<br>Your bonus pay is unchanged, and remains at $0.82.</p>\n            ","response":0,"trial_type":"html-button-response","trial_index":82,"time_elapsed":235825,"internal_node_id":"0.0-4.0-1.37","subject_id":"601bde43332e2d5ff932d64a","study_id":"6197b3f67c2b5cd3b6d9596a","session_id":"619be31cd15c67e2e737e329","condition":"full-information","relevant_dimensions":["wings","pattern"],"bee_group":{"antennae":"X","wings":"1","pattern":"D","legs":"X"},"bonus":1.1400000000000008},{"rt":919.2999999523163,"stimulus":"bees-with-color/bee-A2SF.svg","response":0,"trial_type":"image-button-response","trial_index":83,"time_elapsed":236745,"internal_node_id":"0.0-4.0-0.38","subject_id":"601bde43332e2d5ff932d64a","study_id":"6197b3f67c2b5cd3b6d9596a","session_id":"619be31cd15c67e2e737e329","condition":"full-information","relevant_dimensions":["wings","pattern"],"bee_group":{"antennae":"X","wings":"1","pattern":"D","legs":"X"},"action":"harvest","summary":"good-harvest","bonus":1.1400000000000008},{"rt":751.1999999880791,"stimulus":"\n                    <p><b>Action: <em>harvest</em></b></p>\n                    <p>This is the bee that you just saw.</p>\n                    <img src=\"bees-with-color/bee-A2SF.svg\" width=\"200\">\n                    <p><span class=\"greenText\"><b>Successful harvest!</b></span><br>Your pay has increased by $0.02. Your bonus pay is now $0.84.</p>\n            ","response":0,"trial_type":"html-button-response","trial_index":84,"time_elapsed":237497,"internal_node_id":"0.0-4.0-1.38","subject_id":"601bde43332e2d5ff932d64a","study_id":"6197b3f67c2b5cd3b6d9596a","session_id":"619be31cd15c67e2e737e329","condition":"full-information","relevant_dimensions":["wings","pattern"],"bee_group":{"antennae":"X","wings":"1","pattern":"D","legs":"X"},"bonus":1.1400000000000008},{"rt":1575.199999988079,"stimulus":"bees-with-color/bee-A1SF.svg","response":1,"trial_type":"image-button-response","trial_index":85,"time_elapsed":239073,"internal_node_id":"0.0-4.0-0.39","subject_id":"601bde43332e2d5ff932d64a","study_id":"6197b3f67c2b5cd3b6d9596a","session_id":"619be31cd15c67e2e737e329","condition":"full-information","relevant_dimensions":["wings","pattern"],"bee_group":{"antennae":"X","wings":"1","pattern":"D","legs":"X"},"action":"avoid","summary":"bad-avoid","bonus":1.1400000000000008},{"rt":607.1999999880791,"stimulus":"\n                    <p><b>Action: <em>avoid</em></b></p>\n                    <p>This is the bee that you just saw.</p>\n                    <img src=\"bees-with-color/bee-A1SF.svg\" width=\"200\">\n                    <p><span class=\"redText\">Bad choice,</span> the bee was friendly.<br>Your bonus pay is unchanged, and remains at $0.84.</p>\n            ","response":0,"trial_type":"html-button-response","trial_index":86,"time_elapsed":239681,"internal_node_id":"0.0-4.0-1.39","subject_id":"601bde43332e2d5ff932d64a","study_id":"6197b3f67c2b5cd3b6d9596a","session_id":"619be31cd15c67e2e737e329","condition":"full-information","relevant_dimensions":["wings","pattern"],"bee_group":{"antennae":"X","wings":"1","pattern":"D","legs":"X"},"bonus":1.1400000000000008},{"rt":1759.199999988079,"stimulus":"bees-with-color/bee-B1SF.svg","response":1,"trial_type":"image-button-response","trial_index":87,"time_elapsed":241441,"internal_node_id":"0.0-4.0-0.40","subject_id":"601bde43332e2d5ff932d64a","study_id":"6197b3f67c2b5cd3b6d9596a","session_id":"619be31cd15c67e2e737e329","condition":"full-information","relevant_dimensions":["wings","pattern"],"bee_group":{"antennae":"X","wings":"1","pattern":"D","legs":"X"},"action":"avoid","summary":"bad-avoid","bonus":1.1400000000000008},{"rt":487.0999999642372,"stimulus":"\n                    <p><b>Action: <em>avoid</em></b></p>\n                    <p>This is the bee that you just saw.</p>\n                    <img src=\"bees-with-color/bee-B1SF.svg\" width=\"200\">\n                    <p><span class=\"redText\">Bad choice,</span> the bee was friendly.<br>Your bonus pay is unchanged, and remains at $0.84.</p>\n            ","response":0,"trial_type":"html-button-response","trial_index":88,"time_elapsed":241929,"internal_node_id":"0.0-4.0-1.40","subject_id":"601bde43332e2d5ff932d64a","study_id":"6197b3f67c2b5cd3b6d9596a","session_id":"619be31cd15c67e2e737e329","condition":"full-information","relevant_dimensions":["wings","pattern"],"bee_group":{"antennae":"X","wings":"1","pattern":"D","legs":"X"},"bonus":1.1400000000000008},{"rt":1071.300000011921,"stimulus":"bees-with-color/bee-B2SM.svg","response":0,"trial_type":"image-button-response","trial_index":89,"time_elapsed":243002,"internal_node_id":"0.0-4.0-0.41","subject_id":"601bde43332e2d5ff932d64a","study_id":"6197b3f67c2b5cd3b6d9596a","session_id":"619be31cd15c67e2e737e329","condition":"full-information","relevant_dimensions":["wings","pattern"],"bee_group":{"antennae":"X","wings":"1","pattern":"D","legs":"X"},"action":"harvest","summary":"good-harvest","bonus":1.1400000000000008},{"rt":494.89999997615814,"stimulus":"\n                    <p><b>Action: <em>harvest</em></b></p>\n                    <p>This is the bee that you just saw.</p>\n                    <img src=\"bees-with-color/bee-B2SM.svg\" width=\"200\">\n                    <p><span class=\"greenText\"><b>Successful harvest!</b></span><br>Your pay has increased by $0.02. Your bonus pay is now $0.86.</p>\n            ","response":0,"trial_type":"html-button-response","trial_index":90,"time_elapsed":243497,"internal_node_id":"0.0-4.0-1.41","subject_id":"601bde43332e2d5ff932d64a","study_id":"6197b3f67c2b5cd3b6d9596a","session_id":"619be31cd15c67e2e737e329","condition":"full-information","relevant_dimensions":["wings","pattern"],"bee_group":{"antennae":"X","wings":"1","pattern":"D","legs":"X"},"bonus":1.1400000000000008},{"rt":1575.3999999761581,"stimulus":"bees-with-color/bee-A2DM.svg","response":0,"trial_type":"image-button-response","trial_index":91,"time_elapsed":245073,"internal_node_id":"0.0-4.0-0.42","subject_id":"601bde43332e2d5ff932d64a","study_id":"6197b3f67c2b5cd3b6d9596a","session_id":"619be31cd15c67e2e737e329","condition":"full-information","relevant_dimensions":["wings","pattern"],"bee_group":{"antennae":"X","wings":"1","pattern":"D","legs":"X"},"action":"harvest","summary":"good-harvest","bonus":1.1400000000000008},{"rt":407,"stimulus":"\n                    <p><b>Action: <em>harvest</em></b></p>\n                    <p>This is the bee that you just saw.</p>\n                    <img src=\"bees-with-color/bee-A2DM.svg\" width=\"200\">\n                    <p><span class=\"greenText\"><b>Successful harvest!</b></span><br>Your pay has increased by $0.02. Your bonus pay is now $0.88.</p>\n            ","response":0,"trial_type":"html-button-response","trial_index":92,"time_elapsed":245481,"internal_node_id":"0.0-4.0-1.42","subject_id":"601bde43332e2d5ff932d64a","study_id":"6197b3f67c2b5cd3b6d9596a","session_id":"619be31cd15c67e2e737e329","condition":"full-information","relevant_dimensions":["wings","pattern"],"bee_group":{"antennae":"X","wings":"1","pattern":"D","legs":"X"},"bonus":1.1400000000000008},{"rt":1023.1999999880791,"stimulus":"bees-with-color/bee-B2SF.svg","response":0,"trial_type":"image-button-response","trial_index":93,"time_elapsed":246505,"internal_node_id":"0.0-4.0-0.43","subject_id":"601bde43332e2d5ff932d64a","study_id":"6197b3f67c2b5cd3b6d9596a","session_id":"619be31cd15c67e2e737e329","condition":"full-information","relevant_dimensions":["wings","pattern"],"bee_group":{"antennae":"X","wings":"1","pattern":"D","legs":"X"},"action":"harvest","summary":"good-harvest","bonus":1.1400000000000008},{"rt":391.0999999642372,"stimulus":"\n                    <p><b>Action: <em>harvest</em></b></p>\n                    <p>This is the bee that you just saw.</p>\n                    <img src=\"bees-with-color/bee-B2SF.svg\" width=\"200\">\n                    <p><span class=\"greenText\"><b>Successful harvest!</b></span><br>Your pay has increased by $0.02. Your bonus pay is now $0.90.</p>\n            ","response":0,"trial_type":"html-button-response","trial_index":94,"time_elapsed":246897,"internal_node_id":"0.0-4.0-1.43","subject_id":"601bde43332e2d5ff932d64a","study_id":"6197b3f67c2b5cd3b6d9596a","session_id":"619be31cd15c67e2e737e329","condition":"full-information","relevant_dimensions":["wings","pattern"],"bee_group":{"antennae":"X","wings":"1","pattern":"D","legs":"X"},"bonus":1.1400000000000008},{"rt":1903.1000000238419,"stimulus":"bees-with-color/bee-B1DM.svg","response":0,"trial_type":"image-button-response","trial_index":95,"time_elapsed":248801,"internal_node_id":"0.0-4.0-0.44","subject_id":"601bde43332e2d5ff932d64a","study_id":"6197b3f67c2b5cd3b6d9596a","session_id":"619be31cd15c67e2e737e329","condition":"full-information","relevant_dimensions":["wings","pattern"],"bee_group":{"antennae":"X","wings":"1","pattern":"D","legs":"X"},"action":"harvest","summary":"bad-harvest","bonus":1.1400000000000008},{"rt":1191.7999999523163,"stimulus":"\n                    <p><b>Action: <em>harvest</em></b></p>\n                    <p>This is the bee that you just saw.</p>\n                    <img src=\"bees-with-color/bee-B1DM.svg\" width=\"200\">\n                    <p><span class=\"redText\">Bad choice, the bee was angry.</span><br><b>You have been stung!</b><br>Your pay has been decreased by $0.10. Your bonus pay is now $0.80.</p>\n            ","response":0,"trial_type":"html-button-response","trial_index":96,"time_elapsed":249994,"internal_node_id":"0.0-4.0-1.44","subject_id":"601bde43332e2d5ff932d64a","study_id":"6197b3f67c2b5cd3b6d9596a","session_id":"619be31cd15c67e2e737e329","condition":"full-information","relevant_dimensions":["wings","pattern"],"bee_group":{"antennae":"X","wings":"1","pattern":"D","legs":"X"},"bonus":1.1400000000000008},{"rt":1406.699999988079,"stimulus":"bees-with-color/bee-A1SM.svg","response":0,"trial_type":"image-button-response","trial_index":97,"time_elapsed":251401,"internal_node_id":"0.0-4.0-0.45","subject_id":"601bde43332e2d5ff932d64a","study_id":"6197b3f67c2b5cd3b6d9596a","session_id":"619be31cd15c67e2e737e329","condition":"full-information","relevant_dimensions":["wings","pattern"],"bee_group":{"antennae":"X","wings":"1","pattern":"D","legs":"X"},"action":"harvest","summary":"good-harvest","bonus":1.1400000000000008},{"rt":415.0999999642372,"stimulus":"\n                    <p><b>Action: <em>harvest</em></b></p>\n                    <p>This is the bee that you just saw.</p>\n                    <img src=\"bees-with-color/bee-A1SM.svg\" width=\"200\">\n                    <p><span class=\"greenText\"><b>Successful harvest!</b></span><br>Your pay has increased by $0.02. Your bonus pay is now $0.82.</p>\n            ","response":0,"trial_type":"html-button-response","trial_index":98,"time_elapsed":251817,"internal_node_id":"0.0-4.0-1.45","subject_id":"601bde43332e2d5ff932d64a","study_id":"6197b3f67c2b5cd3b6d9596a","session_id":"619be31cd15c67e2e737e329","condition":"full-information","relevant_dimensions":["wings","pattern"],"bee_group":{"antennae":"X","wings":"1","pattern":"D","legs":"X"},"bonus":1.1400000000000008},{"rt":2111.300000011921,"stimulus":"bees-with-color/bee-B2DF.svg","response":0,"trial_type":"image-button-response","trial_index":99,"time_elapsed":253929,"internal_node_id":"0.0-4.0-0.46","subject_id":"601bde43332e2d5ff932d64a","study_id":"6197b3f67c2b5cd3b6d9596a","session_id":"619be31cd15c67e2e737e329","condition":"full-information","relevant_dimensions":["wings","pattern"],"bee_group":{"antennae":"X","wings":"1","pattern":"D","legs":"X"},"action":"harvest","summary":"good-harvest","bonus":1.1400000000000008},{"rt":1063.1000000238419,"stimulus":"\n                    <p><b>Action: <em>harvest</em></b></p>\n                    <p>This is the bee that you just saw.</p>\n                    <img src=\"bees-with-color/bee-B2DF.svg\" width=\"200\">\n                    <p><span class=\"greenText\"><b>Successful harvest!</b></span><br>Your pay has increased by $0.02. Your bonus pay is now $0.84.</p>\n            ","response":0,"trial_type":"html-button-response","trial_index":100,"time_elapsed":254993,"internal_node_id":"0.0-4.0-1.46","subject_id":"601bde43332e2d5ff932d64a","study_id":"6197b3f67c2b5cd3b6d9596a","session_id":"619be31cd15c67e2e737e329","condition":"full-information","relevant_dimensions":["wings","pattern"],"bee_group":{"antennae":"X","wings":"1","pattern":"D","legs":"X"},"bonus":1.1400000000000008},{"rt":1375.199999988079,"stimulus":"bees-with-color/bee-B1DF.svg","response":1,"trial_type":"image-button-response","trial_index":101,"time_elapsed":256370,"internal_node_id":"0.0-4.0-0.47","subject_id":"601bde43332e2d5ff932d64a","study_id":"6197b3f67c2b5cd3b6d9596a","session_id":"619be31cd15c67e2e737e329","condition":"full-information","relevant_dimensions":["wings","pattern"],"bee_group":{"antennae":"X","wings":"1","pattern":"D","legs":"X"},"action":"avoid","summary":"good-avoid","bonus":1.1400000000000008},{"rt":623.0999999642372,"stimulus":"\n                    <p><b>Action: <em>avoid</em></b></p>\n                    <p>This is the bee that you just saw.</p>\n                    <img src=\"bees-with-color/bee-B1DF.svg\" width=\"200\">\n                    <p><span class=\"greenText\">Good choice!</span>  This bee would have stung you.<br>Your bonus pay is unchanged, and remains at $0.84.</p>\n            ","response":0,"trial_type":"html-button-response","trial_index":102,"time_elapsed":256994,"internal_node_id":"0.0-4.0-1.47","subject_id":"601bde43332e2d5ff932d64a","study_id":"6197b3f67c2b5cd3b6d9596a","session_id":"619be31cd15c67e2e737e329","condition":"full-information","relevant_dimensions":["wings","pattern"],"bee_group":{"antennae":"X","wings":"1","pattern":"D","legs":"X"},"bonus":1.1400000000000008},{"rt":902.8000000119209,"stimulus":"bees-with-color/bee-B2SF.svg","response":0,"trial_type":"image-button-response","trial_index":103,"time_elapsed":257898,"internal_node_id":"0.0-4.0-0.48","subject_id":"601bde43332e2d5ff932d64a","study_id":"6197b3f67c2b5cd3b6d9596a","session_id":"619be31cd15c67e2e737e329","condition":"full-information","relevant_dimensions":["wings","pattern"],"bee_group":{"antennae":"X","wings":"1","pattern":"D","legs":"X"},"action":"harvest","summary":"good-harvest","bonus":1.1400000000000008},{"rt":407.10000002384186,"stimulus":"\n                    <p><b>Action: <em>harvest</em></b></p>\n                    <p>This is the bee that you just saw.</p>\n                    <img src=\"bees-with-color/bee-B2SF.svg\" width=\"200\">\n                    <p><span class=\"greenText\"><b>Successful harvest!</b></span><br>Your pay has increased by $0.02. Your bonus pay is now $0.86.</p>\n            ","response":0,"trial_type":"html-button-response","trial_index":104,"time_elapsed":258306,"internal_node_id":"0.0-4.0-1.48","subject_id":"601bde43332e2d5ff932d64a","study_id":"6197b3f67c2b5cd3b6d9596a","session_id":"619be31cd15c67e2e737e329","condition":"full-information","relevant_dimensions":["wings","pattern"],"bee_group":{"antennae":"X","wings":"1","pattern":"D","legs":"X"},"bonus":1.1400000000000008},{"rt":1607.199999988079,"stimulus":"bees-with-color/bee-B2DM.svg","response":0,"trial_type":"image-button-response","trial_index":105,"time_elapsed":259914,"internal_node_id":"0.0-4.0-0.49","subject_id":"601bde43332e2d5ff932d64a","study_id":"6197b3f67c2b5cd3b6d9596a","session_id":"619be31cd15c67e2e737e329","condition":"full-information","relevant_dimensions":["wings","pattern"],"bee_group":{"antennae":"X","wings":"1","pattern":"D","legs":"X"},"action":"harvest","summary":"good-harvest","bonus":1.1400000000000008},{"rt":399,"stimulus":"\n                    <p><b>Action: <em>harvest</em></b></p>\n                    <p>This is the bee that you just saw.</p>\n                    <img src=\"bees-with-color/bee-B2DM.svg\" width=\"200\">\n                    <p><span class=\"greenText\"><b>Successful harvest!</b></span><br>Your pay has increased by $0.02. Your bonus pay is now $0.88.</p>\n            ","response":0,"trial_type":"html-button-response","trial_index":106,"time_elapsed":260314,"internal_node_id":"0.0-4.0-1.49","subject_id":"601bde43332e2d5ff932d64a","study_id":"6197b3f67c2b5cd3b6d9596a","session_id":"619be31cd15c67e2e737e329","condition":"full-information","relevant_dimensions":["wings","pattern"],"bee_group":{"antennae":"X","wings":"1","pattern":"D","legs":"X"},"bonus":1.1400000000000008},{"rt":2119.2999999523163,"stimulus":"bees-with-color/bee-A1DM.svg","response":1,"trial_type":"image-button-response","trial_index":107,"time_elapsed":262434,"internal_node_id":"0.0-4.0-0.50","subject_id":"601bde43332e2d5ff932d64a","study_id":"6197b3f67c2b5cd3b6d9596a","session_id":"619be31cd15c67e2e737e329","condition":"full-information","relevant_dimensions":["wings","pattern"],"bee_group":{"antennae":"X","wings":"1","pattern":"D","legs":"X"},"action":"avoid","summary":"good-avoid","bonus":1.1400000000000008},{"rt":1271.699999988079,"stimulus":"\n                    <p><b>Action: <em>avoid</em></b></p>\n                    <p>This is the bee that you just saw.</p>\n                    <img src=\"bees-with-color/bee-A1DM.svg\" width=\"200\">\n                    <p><span class=\"greenText\">Good choice!</span>  This bee would have stung you.<br>Your bonus pay is unchanged, and remains at $0.88.</p>\n            ","response":0,"trial_type":"html-button-response","trial_index":108,"time_elapsed":263706,"internal_node_id":"0.0-4.0-1.50","subject_id":"601bde43332e2d5ff932d64a","study_id":"6197b3f67c2b5cd3b6d9596a","session_id":"619be31cd15c67e2e737e329","condition":"full-information","relevant_dimensions":["wings","pattern"],"bee_group":{"antennae":"X","wings":"1","pattern":"D","legs":"X"},"bonus":1.1400000000000008},{"rt":2366.099999964237,"stimulus":"bees-with-color/bee-A1SF.svg","response":0,"trial_type":"image-button-response","trial_index":109,"time_elapsed":266074,"internal_node_id":"0.0-4.0-0.51","subject_id":"601bde43332e2d5ff932d64a","study_id":"6197b3f67c2b5cd3b6d9596a","session_id":"619be31cd15c67e2e737e329","condition":"full-information","relevant_dimensions":["wings","pattern"],"bee_group":{"antennae":"X","wings":"1","pattern":"D","legs":"X"},"action":"harvest","summary":"good-harvest","bonus":1.1400000000000008},{"rt":431.19999998807907,"stimulus":"\n                    <p><b>Action: <em>harvest</em></b></p>\n                    <p>This is the bee that you just saw.</p>\n                    <img src=\"bees-with-color/bee-A1SF.svg\" width=\"200\">\n                    <p><span class=\"greenText\"><b>Successful harvest!</b></span><br>Your pay has increased by $0.02. Your bonus pay is now $0.90.</p>\n            ","response":0,"trial_type":"html-button-response","trial_index":110,"time_elapsed":266506,"internal_node_id":"0.0-4.0-1.51","subject_id":"601bde43332e2d5ff932d64a","study_id":"6197b3f67c2b5cd3b6d9596a","session_id":"619be31cd15c67e2e737e329","condition":"full-information","relevant_dimensions":["wings","pattern"],"bee_group":{"antennae":"X","wings":"1","pattern":"D","legs":"X"},"bonus":1.1400000000000008},{"rt":1287.2999999523163,"stimulus":"bees-with-color/bee-B1SM.svg","response":0,"trial_type":"image-button-response","trial_index":111,"time_elapsed":267794,"internal_node_id":"0.0-4.0-0.52","subject_id":"601bde43332e2d5ff932d64a","study_id":"6197b3f67c2b5cd3b6d9596a","session_id":"619be31cd15c67e2e737e329","condition":"full-information","relevant_dimensions":["wings","pattern"],"bee_group":{"antennae":"X","wings":"1","pattern":"D","legs":"X"},"action":"harvest","summary":"good-harvest","bonus":1.1400000000000008},{"rt":767.1999999880791,"stimulus":"\n                    <p><b>Action: <em>harvest</em></b></p>\n                    <p>This is the bee that you just saw.</p>\n                    <img src=\"bees-with-color/bee-B1SM.svg\" width=\"200\">\n                    <p><span class=\"greenText\"><b>Successful harvest!</b></span><br>Your pay has increased by $0.02. Your bonus pay is now $0.92.</p>\n            ","response":0,"trial_type":"html-button-response","trial_index":112,"time_elapsed":268561,"internal_node_id":"0.0-4.0-1.52","subject_id":"601bde43332e2d5ff932d64a","study_id":"6197b3f67c2b5cd3b6d9596a","session_id":"619be31cd15c67e2e737e329","condition":"full-information","relevant_dimensions":["wings","pattern"],"bee_group":{"antennae":"X","wings":"1","pattern":"D","legs":"X"},"bonus":1.1400000000000008},{"rt":1247.300000011921,"stimulus":"bees-with-color/bee-B2SM.svg","response":0,"trial_type":"image-button-response","trial_index":113,"time_elapsed":269809,"internal_node_id":"0.0-4.0-0.53","subject_id":"601bde43332e2d5ff932d64a","study_id":"6197b3f67c2b5cd3b6d9596a","session_id":"619be31cd15c67e2e737e329","condition":"full-information","relevant_dimensions":["wings","pattern"],"bee_group":{"antennae":"X","wings":"1","pattern":"D","legs":"X"},"action":"harvest","summary":"good-harvest","bonus":1.1400000000000008},{"rt":511.2999999523163,"stimulus":"\n                    <p><b>Action: <em>harvest</em></b></p>\n                    <p>This is the bee that you just saw.</p>\n                    <img src=\"bees-with-color/bee-B2SM.svg\" width=\"200\">\n                    <p><span class=\"greenText\"><b>Successful harvest!</b></span><br>Your pay has increased by $0.02. Your bonus pay is now $0.94.</p>\n            ","response":0,"trial_type":"html-button-response","trial_index":114,"time_elapsed":270321,"internal_node_id":"0.0-4.0-1.53","subject_id":"601bde43332e2d5ff932d64a","study_id":"6197b3f67c2b5cd3b6d9596a","session_id":"619be31cd15c67e2e737e329","condition":"full-information","relevant_dimensions":["wings","pattern"],"bee_group":{"antennae":"X","wings":"1","pattern":"D","legs":"X"},"bonus":1.1400000000000008},{"rt":1463.2999999523163,"stimulus":"bees-with-color/bee-B1DM.svg","response":1,"trial_type":"image-button-response","trial_index":115,"time_elapsed":271786,"internal_node_id":"0.0-4.0-0.54","subject_id":"601bde43332e2d5ff932d64a","study_id":"6197b3f67c2b5cd3b6d9596a","session_id":"619be31cd15c67e2e737e329","condition":"full-information","relevant_dimensions":["wings","pattern"],"bee_group":{"antennae":"X","wings":"1","pattern":"D","legs":"X"},"action":"avoid","summary":"good-avoid","bonus":1.1400000000000008},{"rt":711.1999999880791,"stimulus":"\n                    <p><b>Action: <em>avoid</em></b></p>\n                    <p>This is the bee that you just saw.</p>\n                    <img src=\"bees-with-color/bee-B1DM.svg\" width=\"200\">\n                    <p><span class=\"greenText\">Good choice!</span>  This bee would have stung you.<br>Your bonus pay is unchanged, and remains at $0.94.</p>\n            ","response":0,"trial_type":"html-button-response","trial_index":116,"time_elapsed":272498,"internal_node_id":"0.0-4.0-1.54","subject_id":"601bde43332e2d5ff932d64a","study_id":"6197b3f67c2b5cd3b6d9596a","session_id":"619be31cd15c67e2e737e329","condition":"full-information","relevant_dimensions":["wings","pattern"],"bee_group":{"antennae":"X","wings":"1","pattern":"D","legs":"X"},"bonus":1.1400000000000008},{"rt":1439.199999988079,"stimulus":"bees-with-color/bee-B1SF.svg","response":0,"trial_type":"image-button-response","trial_index":117,"time_elapsed":273937,"internal_node_id":"0.0-4.0-0.55","subject_id":"601bde43332e2d5ff932d64a","study_id":"6197b3f67c2b5cd3b6d9596a","session_id":"619be31cd15c67e2e737e329","condition":"full-information","relevant_dimensions":["wings","pattern"],"bee_group":{"antennae":"X","wings":"1","pattern":"D","legs":"X"},"action":"harvest","summary":"good-harvest","bonus":1.1400000000000008},{"rt":551.2999999523163,"stimulus":"\n                    <p><b>Action: <em>harvest</em></b></p>\n                    <p>This is the bee that you just saw.</p>\n                    <img src=\"bees-with-color/bee-B1SF.svg\" width=\"200\">\n                    <p><span class=\"greenText\"><b>Successful harvest!</b></span><br>Your pay has increased by $0.02. Your bonus pay is now $0.96.</p>\n            ","response":0,"trial_type":"html-button-response","trial_index":118,"time_elapsed":274489,"internal_node_id":"0.0-4.0-1.55","subject_id":"601bde43332e2d5ff932d64a","study_id":"6197b3f67c2b5cd3b6d9596a","session_id":"619be31cd15c67e2e737e329","condition":"full-information","relevant_dimensions":["wings","pattern"],"bee_group":{"antennae":"X","wings":"1","pattern":"D","legs":"X"},"bonus":1.1400000000000008},{"rt":1319.3999999761581,"stimulus":"bees-with-color/bee-B2DF.svg","response":0,"trial_type":"image-button-response","trial_index":119,"time_elapsed":275810,"internal_node_id":"0.0-4.0-0.56","subject_id":"601bde43332e2d5ff932d64a","study_id":"6197b3f67c2b5cd3b6d9596a","session_id":"619be31cd15c67e2e737e329","condition":"full-information","relevant_dimensions":["wings","pattern"],"bee_group":{"antennae":"X","wings":"1","pattern":"D","legs":"X"},"action":"harvest","summary":"good-harvest","bonus":1.1400000000000008},{"rt":519.1999999880791,"stimulus":"\n                    <p><b>Action: <em>harvest</em></b></p>\n                    <p>This is the bee that you just saw.</p>\n                    <img src=\"bees-with-color/bee-B2DF.svg\" width=\"200\">\n                    <p><span class=\"greenText\"><b>Successful harvest!</b></span><br>Your pay has increased by $0.02. Your bonus pay is now $0.98.</p>\n            ","response":0,"trial_type":"html-button-response","trial_index":120,"time_elapsed":276330,"internal_node_id":"0.0-4.0-1.56","subject_id":"601bde43332e2d5ff932d64a","study_id":"6197b3f67c2b5cd3b6d9596a","session_id":"619be31cd15c67e2e737e329","condition":"full-information","relevant_dimensions":["wings","pattern"],"bee_group":{"antennae":"X","wings":"1","pattern":"D","legs":"X"},"bonus":1.1400000000000008},{"rt":2087.2999999523163,"stimulus":"bees-with-color/bee-A1SM.svg","response":0,"trial_type":"image-button-response","trial_index":121,"time_elapsed":278418,"internal_node_id":"0.0-4.0-0.57","subject_id":"601bde43332e2d5ff932d64a","study_id":"6197b3f67c2b5cd3b6d9596a","session_id":"619be31cd15c67e2e737e329","condition":"full-information","relevant_dimensions":["wings","pattern"],"bee_group":{"antennae":"X","wings":"1","pattern":"D","legs":"X"},"action":"harvest","summary":"good-harvest","bonus":1.1400000000000008},{"rt":494.80000001192093,"stimulus":"\n                    <p><b>Action: <em>harvest</em></b></p>\n                    <p>This is the bee that you just saw.</p>\n                    <img src=\"bees-with-color/bee-A1SM.svg\" width=\"200\">\n                    <p><span class=\"greenText\"><b>Successful harvest!</b></span><br>Your pay has increased by $0.02. Your bonus pay is now $1.00.</p>\n            ","response":0,"trial_type":"html-button-response","trial_index":122,"time_elapsed":278913,"internal_node_id":"0.0-4.0-1.57","subject_id":"601bde43332e2d5ff932d64a","study_id":"6197b3f67c2b5cd3b6d9596a","session_id":"619be31cd15c67e2e737e329","condition":"full-information","relevant_dimensions":["wings","pattern"],"bee_group":{"antennae":"X","wings":"1","pattern":"D","legs":"X"},"bonus":1.1400000000000008},{"rt":1103.199999988079,"stimulus":"bees-with-color/bee-A1DF.svg","response":1,"trial_type":"image-button-response","trial_index":123,"time_elapsed":280018,"internal_node_id":"0.0-4.0-0.58","subject_id":"601bde43332e2d5ff932d64a","study_id":"6197b3f67c2b5cd3b6d9596a","session_id":"619be31cd15c67e2e737e329","condition":"full-information","relevant_dimensions":["wings","pattern"],"bee_group":{"antennae":"X","wings":"1","pattern":"D","legs":"X"},"action":"avoid","summary":"good-avoid","bonus":1.1400000000000008},{"rt":919,"stimulus":"\n                    <p><b>Action: <em>avoid</em></b></p>\n                    <p>This is the bee that you just saw.</p>\n                    <img src=\"bees-with-color/bee-A1DF.svg\" width=\"200\">\n                    <p><span class=\"greenText\">Good choice!</span>  This bee would have stung you.<br>Your bonus pay is unchanged, and remains at $1.00.</p>\n            ","response":0,"trial_type":"html-button-response","trial_index":124,"time_elapsed":280938,"internal_node_id":"0.0-4.0-1.58","subject_id":"601bde43332e2d5ff932d64a","study_id":"6197b3f67c2b5cd3b6d9596a","session_id":"619be31cd15c67e2e737e329","condition":"full-information","relevant_dimensions":["wings","pattern"],"bee_group":{"antennae":"X","wings":"1","pattern":"D","legs":"X"},"bonus":1.1400000000000008},{"rt":2127.2999999523163,"stimulus":"bees-with-color/bee-A2DM.svg","response":0,"trial_type":"image-button-response","trial_index":125,"time_elapsed":283066,"internal_node_id":"0.0-4.0-0.59","subject_id":"601bde43332e2d5ff932d64a","study_id":"6197b3f67c2b5cd3b6d9596a","session_id":"619be31cd15c67e2e737e329","condition":"full-information","relevant_dimensions":["wings","pattern"],"bee_group":{"antennae":"X","wings":"1","pattern":"D","legs":"X"},"action":"harvest","summary":"good-harvest","bonus":1.1400000000000008},{"rt":439.10000002384186,"stimulus":"\n                    <p><b>Action: <em>harvest</em></b></p>\n                    <p>This is the bee that you just saw.</p>\n                    <img src=\"bees-with-color/bee-A2DM.svg\" width=\"200\">\n                    <p><span class=\"greenText\"><b>Successful harvest!</b></span><br>Your pay has increased by $0.02. Your bonus pay is now $1.02.</p>\n            ","response":0,"trial_type":"html-button-response","trial_index":126,"time_elapsed":283505,"internal_node_id":"0.0-4.0-1.59","subject_id":"601bde43332e2d5ff932d64a","study_id":"6197b3f67c2b5cd3b6d9596a","session_id":"619be31cd15c67e2e737e329","condition":"full-information","relevant_dimensions":["wings","pattern"],"bee_group":{"antennae":"X","wings":"1","pattern":"D","legs":"X"},"bonus":1.1400000000000008},{"rt":1055.199999988079,"stimulus":"bees-with-color/bee-B1DF.svg","response":1,"trial_type":"image-button-response","trial_index":127,"time_elapsed":284562,"internal_node_id":"0.0-4.0-0.60","subject_id":"601bde43332e2d5ff932d64a","study_id":"6197b3f67c2b5cd3b6d9596a","session_id":"619be31cd15c67e2e737e329","condition":"full-information","relevant_dimensions":["wings","pattern"],"bee_group":{"antennae":"X","wings":"1","pattern":"D","legs":"X"},"action":"avoid","summary":"good-avoid","bonus":1.1400000000000008},{"rt":454.9000000357628,"stimulus":"\n                    <p><b>Action: <em>avoid</em></b></p>\n                    <p>This is the bee that you just saw.</p>\n                    <img src=\"bees-with-color/bee-B1DF.svg\" width=\"200\">\n                    <p><span class=\"greenText\">Good choice!</span>  This bee would have stung you.<br>Your bonus pay is unchanged, and remains at $1.02.</p>\n            ","response":0,"trial_type":"html-button-response","trial_index":128,"time_elapsed":285018,"internal_node_id":"0.0-4.0-1.60","subject_id":"601bde43332e2d5ff932d64a","study_id":"6197b3f67c2b5cd3b6d9596a","session_id":"619be31cd15c67e2e737e329","condition":"full-information","relevant_dimensions":["wings","pattern"],"bee_group":{"antennae":"X","wings":"1","pattern":"D","legs":"X"},"bonus":1.1400000000000008},{"rt":943.0999999642372,"stimulus":"bees-with-color/bee-A2SF.svg","response":0,"trial_type":"image-button-response","trial_index":129,"time_elapsed":285961,"internal_node_id":"0.0-4.0-0.61","subject_id":"601bde43332e2d5ff932d64a","study_id":"6197b3f67c2b5cd3b6d9596a","session_id":"619be31cd15c67e2e737e329","condition":"full-information","relevant_dimensions":["wings","pattern"],"bee_group":{"antennae":"X","wings":"1","pattern":"D","legs":"X"},"action":"harvest","summary":"good-harvest","bonus":1.1400000000000008},{"rt":503.19999998807907,"stimulus":"\n                    <p><b>Action: <em>harvest</em></b></p>\n                    <p>This is the bee that you just saw.</p>\n                    <img src=\"bees-with-color/bee-A2SF.svg\" width=\"200\">\n                    <p><span class=\"greenText\"><b>Successful harvest!</b></span><br>Your pay has increased by $0.02. Your bonus pay is now $1.04.</p>\n            ","response":0,"trial_type":"html-button-response","trial_index":130,"time_elapsed":286465,"internal_node_id":"0.0-4.0-1.61","subject_id":"601bde43332e2d5ff932d64a","study_id":"6197b3f67c2b5cd3b6d9596a","session_id":"619be31cd15c67e2e737e329","condition":"full-information","relevant_dimensions":["wings","pattern"],"bee_group":{"antennae":"X","wings":"1","pattern":"D","legs":"X"},"bonus":1.1400000000000008},{"rt":2095.2999999523163,"stimulus":"bees-with-color/bee-A2DF.svg","response":0,"trial_type":"image-button-response","trial_index":131,"time_elapsed":288562,"internal_node_id":"0.0-4.0-0.62","subject_id":"601bde43332e2d5ff932d64a","study_id":"6197b3f67c2b5cd3b6d9596a","session_id":"619be31cd15c67e2e737e329","condition":"full-information","relevant_dimensions":["wings","pattern"],"bee_group":{"antennae":"X","wings":"1","pattern":"D","legs":"X"},"action":"harvest","summary":"good-harvest","bonus":1.1400000000000008},{"rt":495.0999999642372,"stimulus":"\n                    <p><b>Action: <em>harvest</em></b></p>\n                    <p>This is the bee that you just saw.</p>\n                    <img src=\"bees-with-color/bee-A2DF.svg\" width=\"200\">\n                    <p><span class=\"greenText\"><b>Successful harvest!</b></span><br>Your pay has increased by $0.02. Your bonus pay is now $1.06.</p>\n            ","response":0,"trial_type":"html-button-response","trial_index":132,"time_elapsed":289058,"internal_node_id":"0.0-4.0-1.62","subject_id":"601bde43332e2d5ff932d64a","study_id":"6197b3f67c2b5cd3b6d9596a","session_id":"619be31cd15c67e2e737e329","condition":"full-information","relevant_dimensions":["wings","pattern"],"bee_group":{"antennae":"X","wings":"1","pattern":"D","legs":"X"},"bonus":1.1400000000000008},{"rt":1359.1000000238419,"stimulus":"bees-with-color/bee-A2SM.svg","response":0,"trial_type":"image-button-response","trial_index":133,"time_elapsed":290418,"internal_node_id":"0.0-4.0-0.63","subject_id":"601bde43332e2d5ff932d64a","study_id":"6197b3f67c2b5cd3b6d9596a","session_id":"619be31cd15c67e2e737e329","condition":"full-information","relevant_dimensions":["wings","pattern"],"bee_group":{"antennae":"X","wings":"1","pattern":"D","legs":"X"},"action":"harvest","summary":"good-harvest","bonus":1.1400000000000008},{"rt":407,"stimulus":"\n                    <p><b>Action: <em>harvest</em></b></p>\n                    <p>This is the bee that you just saw.</p>\n                    <img src=\"bees-with-color/bee-A2SM.svg\" width=\"200\">\n                    <p><span class=\"greenText\"><b>Successful harvest!</b></span><br>Your pay has increased by $0.02. Your bonus pay is now $1.08.</p>\n            ","response":0,"trial_type":"html-button-response","trial_index":134,"time_elapsed":290826,"internal_node_id":"0.0-4.0-1.63","subject_id":"601bde43332e2d5ff932d64a","study_id":"6197b3f67c2b5cd3b6d9596a","session_id":"619be31cd15c67e2e737e329","condition":"full-information","relevant_dimensions":["wings","pattern"],"bee_group":{"antennae":"X","wings":"1","pattern":"D","legs":"X"},"bonus":1.1400000000000008},{"rt":5186.399999976158,"stimulus":"You have completed the first part of this experiment.<br><br>You will now begin a shorter second part, in which you will receive no feedback.<br>The same rules regarding bonus pay apply.<br><br>Press any key to begin.","response":" ","trial_type":"html-keyboard-response","trial_index":135,"time_elapsed":296013,"internal_node_id":"0.0-5.0","subject_id":"601bde43332e2d5ff932d64a","study_id":"6197b3f67c2b5cd3b6d9596a","session_id":"619be31cd15c67e2e737e329","condition":"full-information","relevant_dimensions":["wings","pattern"],"bee_group":{"antennae":"X","wings":"1","pattern":"D","legs":"X"},"bonus":1.1400000000000008},{"rt":4751.199999988079,"stimulus":"bees-with-color/bee-B1SM.svg","response":0,"trial_type":"image-button-response","trial_index":136,"time_elapsed":300769,"internal_node_id":"0.0-6.0-0.0","subject_id":"601bde43332e2d5ff932d64a","study_id":"6197b3f67c2b5cd3b6d9596a","session_id":"619be31cd15c67e2e737e329","condition":"full-information","relevant_dimensions":["wings","pattern"],"bee_group":{"antennae":"X","wings":"1","pattern":"D","legs":"X"},"bonus":1.1400000000000008},{"rt":3166.899999976158,"stimulus":"bees-with-color/bee-A1SM.svg","response":0,"trial_type":"image-button-response","trial_index":137,"time_elapsed":303938,"internal_node_id":"0.0-6.0-0.1","subject_id":"601bde43332e2d5ff932d64a","study_id":"6197b3f67c2b5cd3b6d9596a","session_id":"619be31cd15c67e2e737e329","condition":"full-information","relevant_dimensions":["wings","pattern"],"bee_group":{"antennae":"X","wings":"1","pattern":"D","legs":"X"},"bonus":1.1400000000000008},{"rt":4095.199999988079,"stimulus":"bees-with-color/bee-B1DM.svg","response":1,"trial_type":"image-button-response","trial_index":138,"time_elapsed":308034,"internal_node_id":"0.0-6.0-0.2","subject_id":"601bde43332e2d5ff932d64a","study_id":"6197b3f67c2b5cd3b6d9596a","session_id":"619be31cd15c67e2e737e329","condition":"full-information","relevant_dimensions":["wings","pattern"],"bee_group":{"antennae":"X","wings":"1","pattern":"D","legs":"X"},"bonus":1.1400000000000008},{"rt":1718.5,"stimulus":"bees-with-color/bee-A1SF.svg","response":0,"trial_type":"image-button-response","trial_index":139,"time_elapsed":309754,"internal_node_id":"0.0-6.0-0.3","subject_id":"601bde43332e2d5ff932d64a","study_id":"6197b3f67c2b5cd3b6d9596a","session_id":"619be31cd15c67e2e737e329","condition":"full-information","relevant_dimensions":["wings","pattern"],"bee_group":{"antennae":"X","wings":"1","pattern":"D","legs":"X"},"bonus":1.1400000000000008},{"rt":1366.7999999523163,"stimulus":"bees-with-color/bee-A2DF.svg","response":0,"trial_type":"image-button-response","trial_index":140,"time_elapsed":311121,"internal_node_id":"0.0-6.0-0.4","subject_id":"601bde43332e2d5ff932d64a","study_id":"6197b3f67c2b5cd3b6d9596a","session_id":"619be31cd15c67e2e737e329","condition":"full-information","relevant_dimensions":["wings","pattern"],"bee_group":{"antennae":"X","wings":"1","pattern":"D","legs":"X"},"bonus":1.1400000000000008},{"rt":934.9000000357628,"stimulus":"bees-with-color/bee-B2SM.svg","response":0,"trial_type":"image-button-response","trial_index":141,"time_elapsed":312057,"internal_node_id":"0.0-6.0-0.5","subject_id":"601bde43332e2d5ff932d64a","study_id":"6197b3f67c2b5cd3b6d9596a","session_id":"619be31cd15c67e2e737e329","condition":"full-information","relevant_dimensions":["wings","pattern"],"bee_group":{"antennae":"X","wings":"1","pattern":"D","legs":"X"},"bonus":1.1400000000000008},{"rt":1023,"stimulus":"bees-with-color/bee-B1DF.svg","response":1,"trial_type":"image-button-response","trial_index":142,"time_elapsed":313081,"internal_node_id":"0.0-6.0-0.6","subject_id":"601bde43332e2d5ff932d64a","study_id":"6197b3f67c2b5cd3b6d9596a","session_id":"619be31cd15c67e2e737e329","condition":"full-information","relevant_dimensions":["wings","pattern"],"bee_group":{"antennae":"X","wings":"1","pattern":"D","legs":"X"},"bonus":1.1400000000000008},{"rt":1311.1000000238419,"stimulus":"bees-with-color/bee-A2DM.svg","response":0,"trial_type":"image-button-response","trial_index":143,"time_elapsed":314394,"internal_node_id":"0.0-6.0-0.7","subject_id":"601bde43332e2d5ff932d64a","study_id":"6197b3f67c2b5cd3b6d9596a","session_id":"619be31cd15c67e2e737e329","condition":"full-information","relevant_dimensions":["wings","pattern"],"bee_group":{"antennae":"X","wings":"1","pattern":"D","legs":"X"},"bonus":1.1400000000000008},{"rt":1078.6000000238419,"stimulus":"bees-with-color/bee-B2DF.svg","response":0,"trial_type":"image-button-response","trial_index":144,"time_elapsed":315473,"internal_node_id":"0.0-6.0-0.8","subject_id":"601bde43332e2d5ff932d64a","study_id":"6197b3f67c2b5cd3b6d9596a","session_id":"619be31cd15c67e2e737e329","condition":"full-information","relevant_dimensions":["wings","pattern"],"bee_group":{"antennae":"X","wings":"1","pattern":"D","legs":"X"},"bonus":1.1400000000000008},{"rt":1095,"stimulus":"bees-with-color/bee-A1DF.svg","response":0,"trial_type":"image-button-response","trial_index":145,"time_elapsed":316570,"internal_node_id":"0.0-6.0-0.9","subject_id":"601bde43332e2d5ff932d64a","study_id":"6197b3f67c2b5cd3b6d9596a","session_id":"619be31cd15c67e2e737e329","condition":"full-information","relevant_dimensions":["wings","pattern"],"bee_group":{"antennae":"X","wings":"1","pattern":"D","legs":"X"},"bonus":1.1400000000000008},{"rt":983,"stimulus":"bees-with-color/bee-B1SF.svg","response":0,"trial_type":"image-button-response","trial_index":146,"time_elapsed":317554,"internal_node_id":"0.0-6.0-0.10","subject_id":"601bde43332e2d5ff932d64a","study_id":"6197b3f67c2b5cd3b6d9596a","session_id":"619be31cd15c67e2e737e329","condition":"full-information","relevant_dimensions":["wings","pattern"],"bee_group":{"antennae":"X","wings":"1","pattern":"D","legs":"X"},"bonus":1.1400000000000008},{"rt":774.8999999761581,"stimulus":"bees-with-color/bee-B2SF.svg","response":0,"trial_type":"image-button-response","trial_index":147,"time_elapsed":318330,"internal_node_id":"0.0-6.0-0.11","subject_id":"601bde43332e2d5ff932d64a","study_id":"6197b3f67c2b5cd3b6d9596a","session_id":"619be31cd15c67e2e737e329","condition":"full-information","relevant_dimensions":["wings","pattern"],"bee_group":{"antennae":"X","wings":"1","pattern":"D","legs":"X"},"bonus":1.1400000000000008},{"rt":742.8000000119209,"stimulus":"bees-with-color/bee-A2SM.svg","response":0,"trial_type":"image-button-response","trial_index":148,"time_elapsed":319074,"internal_node_id":"0.0-6.0-0.12","subject_id":"601bde43332e2d5ff932d64a","study_id":"6197b3f67c2b5cd3b6d9596a","session_id":"619be31cd15c67e2e737e329","condition":"full-information","relevant_dimensions":["wings","pattern"],"bee_group":{"antennae":"X","wings":"1","pattern":"D","legs":"X"},"bonus":1.1400000000000008},{"rt":718.6999999880791,"stimulus":"bees-with-color/bee-A2SF.svg","response":0,"trial_type":"image-button-response","trial_index":149,"time_elapsed":319794,"internal_node_id":"0.0-6.0-0.13","subject_id":"601bde43332e2d5ff932d64a","study_id":"6197b3f67c2b5cd3b6d9596a","session_id":"619be31cd15c67e2e737e329","condition":"full-information","relevant_dimensions":["wings","pattern"],"bee_group":{"antennae":"X","wings":"1","pattern":"D","legs":"X"},"bonus":1.1400000000000008},{"rt":863,"stimulus":"bees-with-color/bee-A1DM.svg","response":0,"trial_type":"image-button-response","trial_index":150,"time_elapsed":320658,"internal_node_id":"0.0-6.0-0.14","subject_id":"601bde43332e2d5ff932d64a","study_id":"6197b3f67c2b5cd3b6d9596a","session_id":"619be31cd15c67e2e737e329","condition":"full-information","relevant_dimensions":["wings","pattern"],"bee_group":{"antennae":"X","wings":"1","pattern":"D","legs":"X"},"bonus":1.1400000000000008},{"rt":6094.800000011921,"stimulus":"bees-with-color/bee-B2DM.svg","response":0,"trial_type":"image-button-response","trial_index":151,"time_elapsed":326754,"internal_node_id":"0.0-6.0-0.15","subject_id":"601bde43332e2d5ff932d64a","study_id":"6197b3f67c2b5cd3b6d9596a","session_id":"619be31cd15c67e2e737e329","condition":"full-information","relevant_dimensions":["wings","pattern"],"bee_group":{"antennae":"X","wings":"1","pattern":"D","legs":"X"},"bonus":1.1400000000000008},{"rt":1311.1000000238419,"stimulus":"bees-with-color/bee-B1DM.svg","response":0,"trial_type":"image-button-response","trial_index":152,"time_elapsed":328066,"internal_node_id":"0.0-6.0-0.16","subject_id":"601bde43332e2d5ff932d64a","study_id":"6197b3f67c2b5cd3b6d9596a","session_id":"619be31cd15c67e2e737e329","condition":"full-information","relevant_dimensions":["wings","pattern"],"bee_group":{"antennae":"X","wings":"1","pattern":"D","legs":"X"},"bonus":1.1400000000000008},{"rt":590.8000000119209,"stimulus":"bees-with-color/bee-A2DF.svg","response":0,"trial_type":"image-button-response","trial_index":153,"time_elapsed":328658,"internal_node_id":"0.0-6.0-0.17","subject_id":"601bde43332e2d5ff932d64a","study_id":"6197b3f67c2b5cd3b6d9596a","session_id":"619be31cd15c67e2e737e329","condition":"full-information","relevant_dimensions":["wings","pattern"],"bee_group":{"antennae":"X","wings":"1","pattern":"D","legs":"X"},"bonus":1.1400000000000008},{"rt":999,"stimulus":"bees-with-color/bee-A2SF.svg","response":0,"trial_type":"image-button-response","trial_index":154,"time_elapsed":329658,"internal_node_id":"0.0-6.0-0.18","subject_id":"601bde43332e2d5ff932d64a","study_id":"6197b3f67c2b5cd3b6d9596a","session_id":"619be31cd15c67e2e737e329","condition":"full-information","relevant_dimensions":["wings","pattern"],"bee_group":{"antennae":"X","wings":"1","pattern":"D","legs":"X"},"bonus":1.1400000000000008},{"rt":863.1999999880791,"stimulus":"bees-with-color/bee-A2DM.svg","response":0,"trial_type":"image-button-response","trial_index":155,"time_elapsed":330522,"internal_node_id":"0.0-6.0-0.19","subject_id":"601bde43332e2d5ff932d64a","study_id":"6197b3f67c2b5cd3b6d9596a","session_id":"619be31cd15c67e2e737e329","condition":"full-information","relevant_dimensions":["wings","pattern"],"bee_group":{"antennae":"X","wings":"1","pattern":"D","legs":"X"},"bonus":1.1400000000000008},{"rt":7526.899999976158,"stimulus":"bees-with-color/bee-B1SF.svg","response":1,"trial_type":"image-button-response","trial_index":156,"time_elapsed":338050,"internal_node_id":"0.0-6.0-0.20","subject_id":"601bde43332e2d5ff932d64a","study_id":"6197b3f67c2b5cd3b6d9596a","session_id":"619be31cd15c67e2e737e329","condition":"full-information","relevant_dimensions":["wings","pattern"],"bee_group":{"antennae":"X","wings":"1","pattern":"D","legs":"X"},"bonus":1.1400000000000008},{"rt":678.5,"stimulus":"bees-with-color/bee-B2SF.svg","response":0,"trial_type":"image-button-response","trial_index":157,"time_ela