[{"success":true,"trial_type":"fullscreen","trial_index":0,"time_elapsed":2784,"internal_node_id":"0.0-0.0","subject_id":"5ee8b6dbac5fa1054ebd60a7","study_id":"60edd13110225f80f9f3709b","session_id":"6196c4a8e28ca26ab75a8961","condition":"contingent","relevant_dimensions":["wings","pattern"],"bee_group":{"antennae":"X","wings":"1","pattern":"D","legs":"X"},"bonus":1.320000000000001},{"success":true,"timeout":false,"failed_images":[],"failed_audio":[],"failed_video":[],"trial_type":"preload","trial_index":1,"time_elapsed":4916,"internal_node_id":"0.0-1.0","subject_id":"5ee8b6dbac5fa1054ebd60a7","study_id":"60edd13110225f80f9f3709b","session_id":"6196c4a8e28ca26ab75a8961","condition":"contingent","relevant_dimensions":["wings","pattern"],"bee_group":{"antennae":"X","wings":"1","pattern":"D","legs":"X"},"bonus":1.320000000000001},{"rt":3411.199999988079,"stimulus":"Welcome! Press any key to begin.","response":" ","trial_type":"html-keyboard-response","trial_index":2,"time_elapsed":8329,"internal_node_id":"0.0-2.0","subject_id":"5ee8b6dbac5fa1054ebd60a7","study_id":"60edd13110225f80f9f3709b","session_id":"6196c4a8e28ca26ab75a8961","condition":"contingent","relevant_dimensions":["wings","pattern"],"bee_group":{"antennae":"X","wings":"1","pattern":"D","legs":"X"},"bonus":1.320000000000001},{"view_history":[{"page_index":0,"viewing_time":5936.5999999940395},{"page_index":1,"viewing_time":15775.90000000596},{"page_index":2,"viewing_time":12280.90000000596},{"page_index":3,"viewing_time":15895.59999999404},{"page_index":4,"viewing_time":6071},{"page_index":5,"viewing_time":7832.4000000059605},{"page_index":6,"viewing_time":11023.90000000596},{"page_index":7,"viewing_time":4320.0999999940395},{"page_index":8,"viewing_time":6567.5999999940395},{"page_index":9,"viewing_time":3000.0999999940395},{"page_index":10,"viewing_time":3400},{"page_index":11,"viewing_time":9639.90000000596},{"page_index":12,"viewing_time":4128.0999999940395},{"page_index":13,"viewing_time":1696},{"page_index":14,"viewing_time":2368}],"rt":109936.90000000596,"trial_type":"instructions","trial_index":3,"time_elapsed":118267,"internal_node_id":"0.0-3.0-0.0","subject_id":"5ee8b6dbac5fa1054ebd60a7","study_id":"60edd13110225f80f9f3709b","session_id":"6196c4a8e28ca26ab75a8961","condition":"contingent","relevant_dimensions":["wings","pattern"],"bee_group":{"antennae":"X","wings":"1","pattern":"D","legs":"X"},"bonus":1.320000000000001},{"rt":28748.19999998808,"response":{"Q0":["Two or six legs","Stripes or spots on body","Single or double wings","Antennae or no antennae"]},"question_order":[0],"trial_type":"survey-multi-select","trial_index":4,"time_elapsed":147028,"internal_node_id":"0.0-3.0-1.0","subject_id":"5ee8b6dbac5fa1054ebd60a7","study_id":"60edd13110225f80f9f3709b","session_id":"6196c4a8e28ca26ab75a8961","condition":"contingent","relevant_dimensions":["wings","pattern"],"bee_group":{"antennae":"X","wings":"1","pattern":"D","legs":"X"},"correct":true,"bonus":1.320000000000001},{"rt":34795.19999998808,"response":{"Q1":"No.","Q2":"Based on the four features of the bee.","Q3":"You do not learn if it was friendly or dangerous, and do not alter your bonus."},"question_order":[0,1,2],"trial_type":"survey-multi-choice","trial_index":5,"time_elapsed":181827,"internal_node_id":"0.0-3.0-2.0","subject_id":"5ee8b6dbac5fa1054ebd60a7","study_id":"60edd13110225f80f9f3709b","session_id":"6196c4a8e28ca26ab75a8961","condition":"contingent","relevant_dimensions":["wings","pattern"],"bee_group":{"antennae":"X","wings":"1","pattern":"D","legs":"X"},"correct":true,"bonus":1.320000000000001},{"rt":1580.3999999761581,"stimulus":"<p>Congrats, you got everything right<br>When you're ready, click the button below to continue to the experiment.</p>","response":0,"trial_type":"html-button-response","trial_index":6,"time_elapsed":183411,"internal_node_id":"0.0-3.0-3.0","subject_id":"5ee8b6dbac5fa1054ebd60a7","study_id":"60edd13110225f80f9f3709b","session_id":"6196c4a8e28ca26ab75a8961","condition":"contingent","relevant_dimensions":["wings","pattern"],"bee_group":{"antennae":"X","wings":"1","pattern":"D","legs":"X"},"bonus":1.320000000000001},{"rt":3467.300000011921,"stimulus":"bees-with-color/bee-B1DF.svg","response":0,"trial_type":"image-button-response","trial_index":7,"time_elapsed":186884,"internal_node_id":"0.0-4.0-0.0","subject_id":"5ee8b6dbac5fa1054ebd60a7","study_id":"60edd13110225f80f9f3709b","session_id":"6196c4a8e28ca26ab75a8961","condition":"contingent","relevant_dimensions":["wings","pattern"],"bee_group":{"antennae":"X","wings":"1","pattern":"D","legs":"X"},"action":"harvest","summary":"bad-harvest","bonus":1.320000000000001},{"rt":7362.299999982119,"stimulus":"\n                    <p><b>Action: <em>harvest</em></b></p>\n                    <p>This is the bee that you just saw.</p>\n                    <img src=\"bees-with-color/bee-B1DF.svg\" width=\"200\">\n                    <p><span class=\"redText\">Bad choice, the bee was angry.</span><br><b>You have been stung!</b><br>Your pay has been decreased by $0.10. Your bonus pay is now $0.44.</p>\n            ","response":0,"trial_type":"html-button-response","trial_index":8,"time_elapsed":194250,"internal_node_id":"0.0-4.0-1.0","subject_id":"5ee8b6dbac5fa1054ebd60a7","study_id":"60edd13110225f80f9f3709b","session_id":"6196c4a8e28ca26ab75a8961","condition":"contingent","relevant_dimensions":["wings","pattern"],"bee_group":{"antennae":"X","wings":"1","pattern":"D","legs":"X"},"bonus":1.320000000000001},{"rt":1636.699999988079,"stimulus":"bees-with-color/bee-B2DM.svg","response":0,"trial_type":"image-button-response","trial_index":9,"time_elapsed":195891,"internal_node_id":"0.0-4.0-0.1","subject_id":"5ee8b6dbac5fa1054ebd60a7","study_id":"60edd13110225f80f9f3709b","session_id":"6196c4a8e28ca26ab75a8961","condition":"contingent","relevant_dimensions":["wings","pattern"],"bee_group":{"antennae":"X","wings":"1","pattern":"D","legs":"X"},"action":"harvest","summary":"good-harvest","bonus":1.320000000000001},{"rt":6395.699999988079,"stimulus":"\n                    <p><b>Action: <em>harvest</em></b></p>\n                    <p>This is the bee that you just saw.</p>\n                    <img src=\"bees-with-color/bee-B2DM.svg\" width=\"200\">\n                    <p><span class=\"greenText\"><b>Successful harvest!</b></span><br>Your pay has increased by $0.02. Your bonus pay is now $0.46.</p>\n            ","response":0,"trial_type":"html-button-response","trial_index":10,"time_elapsed":202291,"internal_node_id":"0.0-4.0-1.1","subject_id":"5ee8b6dbac5fa1054ebd60a7","study_id":"60edd13110225f80f9f3709b","session_id":"6196c4a8e28ca26ab75a8961","condition":"contingent","relevant_dimensions":["wings","pattern"],"bee_group":{"antennae":"X","wings":"1","pattern":"D","legs":"X"},"bonus":1.320000000000001},{"rt":1900.300000011921,"stimulus":"bees-with-color/bee-A2DF.svg","response":1,"trial_type":"image-button-response","trial_index":11,"time_elapsed":204194,"internal_node_id":"0.0-4.0-0.2","subject_id":"5ee8b6dbac5fa1054ebd60a7","study_id":"60edd13110225f80f9f3709b","session_id":"6196c4a8e28ca26ab75a8961","condition":"contingent","relevant_dimensions":["wings","pattern"],"bee_group":{"antennae":"X","wings":"1","pattern":"D","legs":"X"},"action":"avoid","summary":"bad-avoid","bonus":1.320000000000001},{"rt":2781.699999988079,"stimulus":"\n                    <p><b>Action: <em>avoid</em></b></p>\n                    <p>This is the bee that you just saw.</p>\n                    <img src=\"bees-with-color/bee-A2DF.svg\" width=\"200\">\n                    <p><br>Your bonus pay is unchanged, and remains at $0.46.</p>\n            ","response":0,"trial_type":"html-button-response","trial_index":12,"time_elapsed":206979,"internal_node_id":"0.0-4.0-1.2","subject_id":"5ee8b6dbac5fa1054ebd60a7","study_id":"60edd13110225f80f9f3709b","session_id":"6196c4a8e28ca26ab75a8961","condition":"contingent","relevant_dimensions":["wings","pattern"],"bee_group":{"antennae":"X","wings":"1","pattern":"D","legs":"X"},"bonus":1.320000000000001},{"rt":1506.699999988079,"stimulus":"bees-with-color/bee-B1SM.svg","response":0,"trial_type":"image-button-response","trial_index":13,"time_elapsed":208490,"internal_node_id":"0.0-4.0-0.3","subject_id":"5ee8b6dbac5fa1054ebd60a7","study_id":"60edd13110225f80f9f3709b","session_id":"6196c4a8e28ca26ab75a8961","condition":"contingent","relevant_dimensions":["wings","pattern"],"bee_group":{"antennae":"X","wings":"1","pattern":"D","legs":"X"},"action":"harvest","summary":"good-harvest","bonus":1.320000000000001},{"rt":1332,"stimulus":"\n                    <p><b>Action: <em>harvest</em></b></p>\n                    <p>This is the bee that you just saw.</p>\n                    <img src=\"bees-with-color/bee-B1SM.svg\" width=\"200\">\n                    <p><span class=\"greenText\"><b>Successful harvest!</b></span><br>Your pay has increased by $0.02. Your bonus pay is now $0.48.</p>\n            ","response":0,"trial_type":"html-button-response","trial_index":14,"time_elapsed":209827,"internal_node_id":"0.0-4.0-1.3","subject_id":"5ee8b6dbac5fa1054ebd60a7","study_id":"60edd13110225f80f9f3709b","session_id":"6196c4a8e28ca26ab75a8961","condition":"contingent","relevant_dimensions":["wings","pattern"],"bee_group":{"antennae":"X","wings":"1","pattern":"D","legs":"X"},"bonus":1.320000000000001},{"rt":1755.9000000059605,"stimulus":"bees-with-color/bee-A1SM.svg","response":0,"trial_type":"image-button-response","trial_index":15,"time_elapsed":211586,"internal_node_id":"0.0-4.0-0.4","subject_id":"5ee8b6dbac5fa1054ebd60a7","study_id":"60edd13110225f80f9f3709b","session_id":"6196c4a8e28ca26ab75a8961","condition":"contingent","relevant_dimensions":["wings","pattern"],"bee_group":{"antennae":"X","wings":"1","pattern":"D","legs":"X"},"action":"harvest","summary":"good-harvest","bonus":1.320000000000001},{"rt":829.4000000059605,"stimulus":"\n                    <p><b>Action: <em>harvest</em></b></p>\n                    <p>This is the bee that you just saw.</p>\n                    <img src=\"bees-with-color/bee-A1SM.svg\" width=\"200\">\n                    <p><span class=\"greenText\"><b>Successful harvest!</b></span><br>Your pay has increased by $0.02. Your bonus pay is now $0.50.</p>\n            ","response":0,"trial_type":"html-button-response","trial_index":16,"time_elapsed":212418,"internal_node_id":"0.0-4.0-1.4","subject_id":"5ee8b6dbac5fa1054ebd60a7","study_id":"60edd13110225f80f9f3709b","session_id":"6196c4a8e28ca26ab75a8961","condition":"contingent","relevant_dimensions":["wings","pattern"],"bee_group":{"antennae":"X","wings":"1","pattern":"D","legs":"X"},"bonus":1.320000000000001},{"rt":2189.5999999940395,"stimulus":"bees-with-color/bee-A1DM.svg","response":0,"trial_type":"image-button-response","trial_index":17,"time_elapsed":214611,"internal_node_id":"0.0-4.0-0.5","subject_id":"5ee8b6dbac5fa1054ebd60a7","study_id":"60edd13110225f80f9f3709b","session_id":"6196c4a8e28ca26ab75a8961","condition":"contingent","relevant_dimensions":["wings","pattern"],"bee_group":{"antennae":"X","wings":"1","pattern":"D","legs":"X"},"action":"harvest","summary":"bad-harvest","bonus":1.320000000000001},{"rt":1620.7000000178814,"stimulus":"\n                    <p><b>Action: <em>harvest</em></b></p>\n                    <p>This is the bee that you just saw.</p>\n                    <img src=\"bees-with-color/bee-A1DM.svg\" width=\"200\">\n                    <p><span class=\"redText\">Bad choice, the bee was angry.</span><br><b>You have been stung!</b><br>Your pay has been decreased by $0.10. Your bonus pay is now $0.40.</p>\n            ","response":0,"trial_type":"html-button-response","trial_index":18,"time_elapsed":216234,"internal_node_id":"0.0-4.0-1.5","subject_id":"5ee8b6dbac5fa1054ebd60a7","study_id":"60edd13110225f80f9f3709b","session_id":"6196c4a8e28ca26ab75a8961","condition":"contingent","relevant_dimensions":["wings","pattern"],"bee_group":{"antennae":"X","wings":"1","pattern":"D","legs":"X"},"bonus":1.320000000000001},{"rt":1181.7000000178814,"stimulus":"bees-with-color/bee-A2SM.svg","response":0,"trial_type":"image-button-response","trial_index":19,"time_elapsed":217418,"internal_node_id":"0.0-4.0-0.6","subject_id":"5ee8b6dbac5fa1054ebd60a7","study_id":"60edd13110225f80f9f3709b","session_id":"6196c4a8e28ca26ab75a8961","condition":"contingent","relevant_dimensions":["wings","pattern"],"bee_group":{"antennae":"X","wings":"1","pattern":"D","legs":"X"},"action":"harvest","summary":"good-harvest","bonus":1.320000000000001},{"rt":1356.6000000238419,"stimulus":"\n                    <p><b>Action: <em>harvest</em></b></p>\n                    <p>This is the bee that you just saw.</p>\n                    <img src=\"bees-with-color/bee-A2SM.svg\" width=\"200\">\n                    <p><span class=\"greenText\"><b>Successful harvest!</b></span><br>Your pay has increased by $0.02. Your bonus pay is now $0.42.</p>\n            ","response":0,"trial_type":"html-button-response","trial_index":20,"time_elapsed":218778,"internal_node_id":"0.0-4.0-1.6","subject_id":"5ee8b6dbac5fa1054ebd60a7","study_id":"60edd13110225f80f9f3709b","session_id":"6196c4a8e28ca26ab75a8961","condition":"contingent","relevant_dimensions":["wings","pattern"],"bee_group":{"antennae":"X","wings":"1","pattern":"D","legs":"X"},"bonus":1.320000000000001},{"rt":3022,"stimulus":"bees-with-color/bee-A2DM.svg","response":1,"trial_type":"image-button-response","trial_index":21,"time_elapsed":221802,"internal_node_id":"0.0-4.0-0.7","subject_id":"5ee8b6dbac5fa1054ebd60a7","study_id":"60edd13110225f80f9f3709b","session_id":"6196c4a8e28ca26ab75a8961","condition":"contingent","relevant_dimensions":["wings","pattern"],"bee_group":{"antennae":"X","wings":"1","pattern":"D","legs":"X"},"action":"avoid","summary":"bad-avoid","bonus":1.320000000000001},{"rt":780.9000000059605,"stimulus":"\n                    <p><b>Action: <em>avoid</em></b></p>\n                    <p>This is the bee that you just saw.</p>\n                    <img src=\"bees-with-color/bee-A2DM.svg\" width=\"200\">\n                    <p><br>Your bonus pay is unchanged, and remains at $0.42.</p>\n            ","response":0,"trial_type":"html-button-response","trial_index":22,"time_elapsed":222586,"internal_node_id":"0.0-4.0-1.7","subject_id":"5ee8b6dbac5fa1054ebd60a7","study_id":"60edd13110225f80f9f3709b","session_id":"6196c4a8e28ca26ab75a8961","condition":"contingent","relevant_dimensions":["wings","pattern"],"bee_group":{"antennae":"X","wings":"1","pattern":"D","legs":"X"},"bonus":1.320000000000001},{"rt":3876.5,"stimulus":"bees-with-color/bee-A1DF.svg","response":1,"trial_type":"image-button-response","trial_index":23,"time_elapsed":226466,"internal_node_id":"0.0-4.0-0.8","subject_id":"5ee8b6dbac5fa1054ebd60a7","study_id":"60edd13110225f80f9f3709b","session_id":"6196c4a8e28ca26ab75a8961","condition":"contingent","relevant_dimensions":["wings","pattern"],"bee_group":{"antennae":"X","wings":"1","pattern":"D","legs":"X"},"action":"avoid","summary":"good-avoid","bonus":1.320000000000001},{"rt":933.3999999761581,"stimulus":"\n                    <p><b>Action: <em>avoid</em></b></p>\n                    <p>This is the bee that you just saw.</p>\n                    <img src=\"bees-with-color/bee-A1DF.svg\" width=\"200\">\n                    <p><br>Your bonus pay is unchanged, and remains at $0.42.</p>\n            ","response":0,"trial_type":"html-button-response","trial_index":24,"time_elapsed":227402,"internal_node_id":"0.0-4.0-1.8","subject_id":"5ee8b6dbac5fa1054ebd60a7","study_id":"60edd13110225f80f9f3709b","session_id":"6196c4a8e28ca26ab75a8961","condition":"contingent","relevant_dimensions":["wings","pattern"],"bee_group":{"antennae":"X","wings":"1","pattern":"D","legs":"X"},"bonus":1.320000000000001},{"rt":1573.4000000059605,"stimulus":"bees-with-color/bee-B2SM.svg","response":0,"trial_type":"image-button-response","trial_index":25,"time_elapsed":228977,"internal_node_id":"0.0-4.0-0.9","subject_id":"5ee8b6dbac5fa1054ebd60a7","study_id":"60edd13110225f80f9f3709b","session_id":"6196c4a8e28ca26ab75a8961","condition":"contingent","relevant_dimensions":["wings","pattern"],"bee_group":{"antennae":"X","wings":"1","pattern":"D","legs":"X"},"action":"harvest","summary":"good-harvest","bonus":1.320000000000001},{"rt":734.3000000119209,"stimulus":"\n                    <p><b>Action: <em>harvest</em></b></p>\n                    <p>This is the bee that you just saw.</p>\n                    <img src=\"bees-with-color/bee-B2SM.svg\" width=\"200\">\n                    <p><span class=\"greenText\"><b>Successful harvest!</b></span><br>Your pay has increased by $0.02. Your bonus pay is now $0.44.</p>\n            ","response":0,"trial_type":"html-button-response","trial_index":26,"time_elapsed":229714,"internal_node_id":"0.0-4.0-1.9","subject_id":"5ee8b6dbac5fa1054ebd60a7","study_id":"60edd13110225f80f9f3709b","session_id":"6196c4a8e28ca26ab75a8961","condition":"contingent","relevant_dimensions":["wings","pattern"],"bee_group":{"antennae":"X","wings":"1","pattern":"D","legs":"X"},"bonus":1.320000000000001},{"rt":2596.699999988079,"stimulus":"bees-with-color/bee-B2SF.svg","response":0,"trial_type":"image-button-response","trial_index":27,"time_elapsed":232314,"internal_node_id":"0.0-4.0-0.10","subject_id":"5ee8b6dbac5fa1054ebd60a7","study_id":"60edd13110225f80f9f3709b","session_id":"6196c4a8e28ca26ab75a8961","condition":"contingent","relevant_dimensions":["wings","pattern"],"bee_group":{"antennae":"X","wings":"1","pattern":"D","legs":"X"},"action":"harvest","summary":"good-harvest","bonus":1.320000000000001},{"rt":1124.2999999821186,"stimulus":"\n                    <p><b>Action: <em>harvest</em></b></p>\n                    <p>This is the bee that you just saw.</p>\n                    <img src=\"bees-with-color/bee-B2SF.svg\" width=\"200\">\n                    <p><span class=\"greenText\"><b>Successful harvest!</b></span><br>Your pay has increased by $0.02. Your bonus pay is now $0.46.</p>\n            ","response":0,"trial_type":"html-button-response","trial_index":28,"time_elapsed":233441,"internal_node_id":"0.0-4.0-1.10","subject_id":"5ee8b6dbac5fa1054ebd60a7","study_id":"60edd13110225f80f9f3709b","session_id":"6196c4a8e28ca26ab75a8961","condition":"contingent","relevant_dimensions":["wings","pattern"],"bee_group":{"antennae":"X","wings":"1","pattern":"D","legs":"X"},"bonus":1.320000000000001},{"rt":1398.0999999940395,"stimulus":"bees-with-color/bee-B1SF.svg","response":0,"trial_type":"image-button-response","trial_index":29,"time_elapsed":234842,"internal_node_id":"0.0-4.0-0.11","subject_id":"5ee8b6dbac5fa1054ebd60a7","study_id":"60edd13110225f80f9f3709b","session_id":"6196c4a8e28ca26ab75a8961","condition":"contingent","relevant_dimensions":["wings","pattern"],"bee_group":{"antennae":"X","wings":"1","pattern":"D","legs":"X"},"action":"harvest","summary":"good-harvest","bonus":1.320000000000001},{"rt":932,"stimulus":"\n                    <p><b>Action: <em>harvest</em></b></p>\n                    <p>This is the bee that you just saw.</p>\n                    <img src=\"bees-with-color/bee-B1SF.svg\" width=\"200\">\n                    <p><span class=\"greenText\"><b>Successful harvest!</b></span><br>Your pay has increased by $0.02. Your bonus pay is now $0.48.</p>\n            ","response":0,"trial_type":"html-button-response","trial_index":30,"time_elapsed":235778,"internal_node_id":"0.0-4.0-1.11","subject_id":"5ee8b6dbac5fa1054ebd60a7","study_id":"60edd13110225f80f9f3709b","session_id":"6196c4a8e28ca26ab75a8961","condition":"contingent","relevant_dimensions":["wings","pattern"],"bee_group":{"antennae":"X","wings":"1","pattern":"D","legs":"X"},"bonus":1.320000000000001},{"rt":2084.2999999821186,"stimulus":"bees-with-color/bee-B2DF.svg","response":0,"trial_type":"image-button-response","trial_index":31,"time_elapsed":237866,"internal_node_id":"0.0-4.0-0.12","subject_id":"5ee8b6dbac5fa1054ebd60a7","study_id":"60edd13110225f80f9f3709b","session_id":"6196c4a8e28ca26ab75a8961","condition":"contingent","relevant_dimensions":["wings","pattern"],"bee_group":{"antennae":"X","wings":"1","pattern":"D","legs":"X"},"action":"harvest","summary":"good-harvest","bonus":1.320000000000001},{"rt":732.0999999940395,"stimulus":"\n                    <p><b>Action: <em>harvest</em></b></p>\n                    <p>This is the bee that you just saw.</p>\n                    <img src=\"bees-with-color/bee-B2DF.svg\" width=\"200\">\n                    <p><span class=\"greenText\"><b>Successful harvest!</b></span><br>Your pay has increased by $0.02. Your bonus pay is now $0.50.</p>\n            ","response":0,"trial_type":"html-button-response","trial_index":32,"time_elapsed":238602,"internal_node_id":"0.0-4.0-1.12","subject_id":"5ee8b6dbac5fa1054ebd60a7","study_id":"60edd13110225f80f9f3709b","session_id":"6196c4a8e28ca26ab75a8961","condition":"contingent","relevant_dimensions":["wings","pattern"],"bee_group":{"antennae":"X","wings":"1","pattern":"D","legs":"X"},"bonus":1.320000000000001},{"rt":1757.2999999821186,"stimulus":"bees-with-color/bee-A2SF.svg","response":0,"trial_type":"image-button-response","trial_index":33,"time_elapsed":240362,"internal_node_id":"0.0-4.0-0.13","subject_id":"5ee8b6dbac5fa1054ebd60a7","study_id":"60edd13110225f80f9f3709b","session_id":"6196c4a8e28ca26ab75a8961","condition":"contingent","relevant_dimensions":["wings","pattern"],"bee_group":{"antennae":"X","wings":"1","pattern":"D","legs":"X"},"action":"harvest","summary":"good-harvest","bonus":1.320000000000001},{"rt":540.6999999880791,"stimulus":"\n                    <p><b>Action: <em>harvest</em></b></p>\n                    <p>This is the bee that you just saw.</p>\n                    <img src=\"bees-with-color/bee-A2SF.svg\" width=\"200\">\n                    <p><span class=\"greenText\"><b>Successful harvest!</b></span><br>Your pay has increased by $0.02. Your bonus pay is now $0.52.</p>\n            ","response":0,"trial_type":"html-button-response","trial_index":34,"time_elapsed":240905,"internal_node_id":"0.0-4.0-1.13","subject_id":"5ee8b6dbac5fa1054ebd60a7","study_id":"60edd13110225f80f9f3709b","session_id":"6196c4a8e28ca26ab75a8961","condition":"contingent","relevant_dimensions":["wings","pattern"],"bee_group":{"antennae":"X","wings":"1","pattern":"D","legs":"X"},"bonus":1.320000000000001},{"rt":1293.199999988079,"stimulus":"bees-with-color/bee-A1SF.svg","response":0,"trial_type":"image-button-response","trial_index":35,"time_elapsed":242202,"internal_node_id":"0.0-4.0-0.14","subject_id":"5ee8b6dbac5fa1054ebd60a7","study_id":"60edd13110225f80f9f3709b","session_id":"6196c4a8e28ca26ab75a8961","condition":"contingent","relevant_dimensions":["wings","pattern"],"bee_group":{"antennae":"X","wings":"1","pattern":"D","legs":"X"},"action":"harvest","summary":"good-harvest","bonus":1.320000000000001},{"rt":549.8000000119209,"stimulus":"\n                    <p><b>Action: <em>harvest</em></b></p>\n                    <p>This is the bee that you just saw.</p>\n                    <img src=\"bees-with-color/bee-A1SF.svg\" width=\"200\">\n                    <p><span class=\"greenText\"><b>Successful harvest!</b></span><br>Your pay has increased by $0.02. Your bonus pay is now $0.54.</p>\n            ","response":0,"trial_type":"html-button-response","trial_index":36,"time_elapsed":242754,"internal_node_id":"0.0-4.0-1.14","subject_id":"5ee8b6dbac5fa1054ebd60a7","study_id":"60edd13110225f80f9f3709b","session_id":"6196c4a8e28ca26ab75a8961","condition":"contingent","relevant_dimensions":["wings","pattern"],"bee_group":{"antennae":"X","wings":"1","pattern":"D","legs":"X"},"bonus":1.320000000000001},{"rt":1389.5999999940395,"stimulus":"bees-with-color/bee-B1DM.svg","response":1,"trial_type":"image-button-response","trial_index":37,"time_elapsed":244146,"internal_node_id":"0.0-4.0-0.15","subject_id":"5ee8b6dbac5fa1054ebd60a7","study_id":"60edd13110225f80f9f3709b","session_id":"6196c4a8e28ca26ab75a8961","condition":"contingent","relevant_dimensions":["wings","pattern"],"bee_group":{"antennae":"X","wings":"1","pattern":"D","legs":"X"},"action":"avoid","summary":"good-avoid","bonus":1.320000000000001},{"rt":691.9000000059605,"stimulus":"\n                    <p><b>Action: <em>avoid</em></b></p>\n                    <p>This is the bee that you just saw.</p>\n                    <img src=\"bees-with-color/bee-B1DM.svg\" width=\"200\">\n                    <p><br>Your bonus pay is unchanged, and remains at $0.54.</p>\n            ","response":0,"trial_type":"html-button-response","trial_index":38,"time_elapsed":244842,"internal_node_id":"0.0-4.0-1.15","subject_id":"5ee8b6dbac5fa1054ebd60a7","study_id":"60edd13110225f80f9f3709b","session_id":"6196c4a8e28ca26ab75a8961","condition":"contingent","relevant_dimensions":["wings","pattern"],"bee_group":{"antennae":"X","wings":"1","pattern":"D","legs":"X"},"bonus":1.320000000000001},{"rt":1909.7999999821186,"stimulus":"bees-with-color/bee-B1DF.svg","response":1,"trial_type":"image-button-response","trial_index":39,"time_elapsed":246754,"internal_node_id":"0.0-4.0-0.16","subject_id":"5ee8b6dbac5fa1054ebd60a7","study_id":"60edd13110225f80f9f3709b","session_id":"6196c4a8e28ca26ab75a8961","condition":"contingent","relevant_dimensions":["wings","pattern"],"bee_group":{"antennae":"X","wings":"1","pattern":"D","legs":"X"},"action":"avoid","summary":"good-avoid","bonus":1.320000000000001},{"rt":573.1999999880791,"stimulus":"\n                    <p><b>Action: <em>avoid</em></b></p>\n                    <p>This is the bee that you just saw.</p>\n                    <img src=\"bees-with-color/bee-B1DF.svg\" width=\"200\">\n                    <p><br>Your bonus pay is unchanged, and remains at $0.54.</p>\n            ","response":0,"trial_type":"html-button-response","trial_index":40,"time_elapsed":247330,"internal_node_id":"0.0-4.0-1.16","subject_id":"5ee8b6dbac5fa1054ebd60a7","study_id":"60edd13110225f80f9f3709b","session_id":"6196c4a8e28ca26ab75a8961","condition":"contingent","relevant_dimensions":["wings","pattern"],"bee_group":{"antennae":"X","wings":"1","pattern":"D","legs":"X"},"bonus":1.320000000000001},{"rt":1213.5,"stimulus":"bees-with-color/bee-B1DM.svg","response":1,"trial_type":"image-button-response","trial_index":41,"time_elapsed":248546,"internal_node_id":"0.0-4.0-0.17","subject_id":"5ee8b6dbac5fa1054ebd60a7","study_id":"60edd13110225f80f9f3709b","session_id":"6196c4a8e28ca26ab75a8961","condition":"contingent","relevant_dimensions":["wings","pattern"],"bee_group":{"antennae":"X","wings":"1","pattern":"D","legs":"X"},"action":"avoid","summary":"good-avoid","bonus":1.320000000000001},{"rt":652.6999999880791,"stimulus":"\n                    <p><b>Action: <em>avoid</em></b></p>\n                    <p>This is the bee that you just saw.</p>\n                    <img src=\"bees-with-color/bee-B1DM.svg\" width=\"200\">\n                    <p><br>Your bonus pay is unchanged, and remains at $0.54.</p>\n            ","response":0,"trial_type":"html-button-response","trial_index":42,"time_elapsed":249201,"internal_node_id":"0.0-4.0-1.17","subject_id":"5ee8b6dbac5fa1054ebd60a7","study_id":"60edd13110225f80f9f3709b","session_id":"6196c4a8e28ca26ab75a8961","condition":"contingent","relevant_dimensions":["wings","pattern"],"bee_group":{"antennae":"X","wings":"1","pattern":"D","legs":"X"},"bonus":1.320000000000001},{"rt":1990.199999988079,"stimulus":"bees-with-color/bee-A2DF.svg","response":1,"trial_type":"image-button-response","trial_index":43,"time_elapsed":251194,"internal_node_id":"0.0-4.0-0.18","subject_id":"5ee8b6dbac5fa1054ebd60a7","study_id":"60edd13110225f80f9f3709b","session_id":"6196c4a8e28ca26ab75a8961","condition":"contingent","relevant_dimensions":["wings","pattern"],"bee_group":{"antennae":"X","wings":"1","pattern":"D","legs":"X"},"action":"avoid","summary":"bad-avoid","bonus":1.320000000000001},{"rt":659.6000000238419,"stimulus":"\n                    <p><b>Action: <em>avoid</em></b></p>\n                    <p>This is the bee that you just saw.</p>\n                    <img src=\"bees-with-color/bee-A2DF.svg\" width=\"200\">\n                    <p><br>Your bonus pay is unchanged, and remains at $0.54.</p>\n            ","response":0,"trial_type":"html-button-response","trial_index":44,"time_elapsed":251858,"internal_node_id":"0.0-4.0-1.18","subject_id":"5ee8b6dbac5fa1054ebd60a7","study_id":"60edd13110225f80f9f3709b","session_id":"6196c4a8e28ca26ab75a8961","condition":"contingent","relevant_dimensions":["wings","pattern"],"bee_group":{"antennae":"X","wings":"1","pattern":"D","legs":"X"},"bonus":1.320000000000001},{"rt":1988.4000000059605,"stimulus":"bees-with-color/bee-B2DF.svg","response":1,"trial_type":"image-button-response","trial_index":45,"time_elapsed":253850,"internal_node_id":"0.0-4.0-0.19","subject_id":"5ee8b6dbac5fa1054ebd60a7","study_id":"60edd13110225f80f9f3709b","session_id":"6196c4a8e28ca26ab75a8961","condition":"contingent","relevant_dimensions":["wings","pattern"],"bee_group":{"antennae":"X","wings":"1","pattern":"D","legs":"X"},"action":"avoid","summary":"bad-avoid","bonus":1.320000000000001},{"rt":781.4000000059605,"stimulus":"\n                    <p><b>Action: <em>avoid</em></b></p>\n                    <p>This is the bee that you just saw.</p>\n                    <img src=\"bees-with-color/bee-B2DF.svg\" width=\"200\">\n                    <p><br>Your bonus pay is unchanged, and remains at $0.54.</p>\n            ","response":0,"trial_type":"html-button-response","trial_index":46,"time_elapsed":254634,"internal_node_id":"0.0-4.0-1.19","subject_id":"5ee8b6dbac5fa1054ebd60a7","study_id":"60edd13110225f80f9f3709b","session_id":"6196c4a8e28ca26ab75a8961","condition":"contingent","relevant_dimensions":["wings","pattern"],"bee_group":{"antennae":"X","wings":"1","pattern":"D","legs":"X"},"bonus":1.320000000000001},{"rt":981.5,"stimulus":"bees-with-color/bee-A2SF.svg","response":0,"trial_type":"image-button-response","trial_index":47,"time_elapsed":255618,"internal_node_id":"0.0-4.0-0.20","subject_id":"5ee8b6dbac5fa1054ebd60a7","study_id":"60edd13110225f80f9f3709b","session_id":"6196c4a8e28ca26ab75a8961","condition":"contingent","relevant_dimensions":["wings","pattern"],"bee_group":{"antennae":"X","wings":"1","pattern":"D","legs":"X"},"action":"harvest","summary":"good-harvest","bonus":1.320000000000001},{"rt":804.4000000059605,"stimulus":"\n                    <p><b>Action: <em>harvest</em></b></p>\n                    <p>This is the bee that you just saw.</p>\n                    <img src=\"bees-with-color/bee-A2SF.svg\" width=\"200\">\n                    <p><span class=\"greenText\"><b>Successful harvest!</b></span><br>Your pay has increased by $0.02. Your bonus pay is now $0.56.</p>\n            ","response":0,"trial_type":"html-button-response","trial_index":48,"time_elapsed":256425,"internal_node_id":"0.0-4.0-1.20","subject_id":"5ee8b6dbac5fa1054ebd60a7","study_id":"60edd13110225f80f9f3709b","session_id":"6196c4a8e28ca26ab75a8961","condition":"contingent","relevant_dimensions":["wings","pattern"],"bee_group":{"antennae":"X","wings":"1","pattern":"D","legs":"X"},"bonus":1.320000000000001},{"rt":1022.2000000178814,"stimulus":"bees-with-color/bee-B2SM.svg","response":0,"trial_type":"image-button-response","trial_index":49,"time_elapsed":257450,"internal_node_id":"0.0-4.0-0.21","subject_id":"5ee8b6dbac5fa1054ebd60a7","study_id":"60edd13110225f80f9f3709b","session_id":"6196c4a8e28ca26ab75a8961","condition":"contingent","relevant_dimensions":["wings","pattern"],"bee_group":{"antennae":"X","wings":"1","pattern":"D","legs":"X"},"action":"harvest","summary":"good-harvest","bonus":1.320000000000001},{"rt":885.2999999821186,"stimulus":"\n                    <p><b>Action: <em>harvest</em></b></p>\n                    <p>This is the bee that you just saw.</p>\n                    <img src=\"bees-with-color/bee-B2SM.svg\" width=\"200\">\n                    <p><span class=\"greenText\"><b>Successful harvest!</b></span><br>Your pay has increased by $0.02. Your bonus pay is now $0.58.</p>\n            ","response":0,"trial_type":"html-button-response","trial_index":50,"time_elapsed":258337,"internal_node_id":"0.0-4.0-1.21","subject_id":"5ee8b6dbac5fa1054ebd60a7","study_id":"60edd13110225f80f9f3709b","session_id":"6196c4a8e28ca26ab75a8961","condition":"contingent","relevant_dimensions":["wings","pattern"],"bee_group":{"antennae":"X","wings":"1","pattern":"D","legs":"X"},"bonus":1.320000000000001},{"rt":1390,"stimulus":"bees-with-color/bee-B1SM.svg","response":0,"trial_type":"image-button-response","trial_index":51,"time_elapsed":259730,"internal_node_id":"0.0-4.0-0.22","subject_id":"5ee8b6dbac5fa1054ebd60a7","study_id":"60edd13110225f80f9f3709b","session_id":"6196c4a8e28ca26ab75a8961","condition":"contingent","relevant_dimensions":["wings","pattern"],"bee_group":{"antennae":"X","wings":"1","pattern":"D","legs":"X"},"action":"harvest","summary":"good-harvest","bonus":1.320000000000001},{"rt":652.3000000119209,"stimulus":"\n                    <p><b>Action: <em>harvest</em></b></p>\n                    <p>This is the bee that you just saw.</p>\n                    <img src=\"bees-with-color/bee-B1SM.svg\" width=\"200\">\n                    <p><span class=\"greenText\"><b>Successful harvest!</b></span><br>Your pay has increased by $0.02. Your bonus pay is now $0.60.</p>\n            ","response":0,"trial_type":"html-button-response","trial_index":52,"time_elapsed":260386,"internal_node_id":"0.0-4.0-1.22","subject_id":"5ee8b6dbac5fa1054ebd60a7","study_id":"60edd13110225f80f9f3709b","session_id":"6196c4a8e28ca26ab75a8961","condition":"contingent","relevant_dimensions":["wings","pattern"],"bee_group":{"antennae":"X","wings":"1","pattern":"D","legs":"X"},"bonus":1.320000000000001},{"rt":1380.7999999821186,"stimulus":"bees-with-color/bee-A1SM.svg","response":0,"trial_type":"image-button-response","trial_index":53,"time_elapsed":261770,"internal_node_id":"0.0-4.0-0.23","subject_id":"5ee8b6dbac5fa1054ebd60a7","study_id":"60edd13110225f80f9f3709b","session_id":"6196c4a8e28ca26ab75a8961","condition":"contingent","relevant_dimensions":["wings","pattern"],"bee_group":{"antennae":"X","wings":"1","pattern":"D","legs":"X"},"action":"harvest","summary":"good-harvest","bonus":1.320000000000001},{"rt":1556.7999999821186,"stimulus":"\n                    <p><b>Action: <em>harvest</em></b></p>\n                    <p>This is the bee that you just saw.</p>\n                    <img src=\"bees-with-color/bee-A1SM.svg\" width=\"200\">\n                    <p><span class=\"greenText\"><b>Successful harvest!</b></span><br>Your pay has increased by $0.02. Your bonus pay is now $0.62.</p>\n            ","response":0,"trial_type":"html-button-response","trial_index":54,"time_elapsed":263330,"internal_node_id":"0.0-4.0-1.23","subject_id":"5ee8b6dbac5fa1054ebd60a7","study_id":"60edd13110225f80f9f3709b","session_id":"6196c4a8e28ca26ab75a8961","condition":"contingent","relevant_dimensions":["wings","pattern"],"bee_group":{"antennae":"X","wings":"1","pattern":"D","legs":"X"},"bonus":1.320000000000001},{"rt":1309.800000011921,"stimulus":"bees-with-color/bee-B1SF.svg","response":0,"trial_type":"image-button-response","trial_index":55,"time_elapsed":264642,"internal_node_id":"0.0-4.0-0.24","subject_id":"5ee8b6dbac5fa1054ebd60a7","study_id":"60edd13110225f80f9f3709b","session_id":"6196c4a8e28ca26ab75a8961","condition":"contingent","relevant_dimensions":["wings","pattern"],"bee_group":{"antennae":"X","wings":"1","pattern":"D","legs":"X"},"action":"harvest","summary":"good-harvest","bonus":1.320000000000001},{"rt":532.9000000059605,"stimulus":"\n                    <p><b>Action: <em>harvest</em></b></p>\n                    <p>This is the bee that you just saw.</p>\n                    <img src=\"bees-with-color/bee-B1SF.svg\" width=\"200\">\n                    <p><span class=\"greenText\"><b>Successful harvest!</b></span><br>Your pay has increased by $0.02. Your bonus pay is now $0.64.</p>\n            ","response":0,"trial_type":"html-button-response","trial_index":56,"time_elapsed":265178,"internal_node_id":"0.0-4.0-1.24","subject_id":"5ee8b6dbac5fa1054ebd60a7","study_id":"60edd13110225f80f9f3709b","session_id":"6196c4a8e28ca26ab75a8961","condition":"contingent","relevant_dimensions":["wings","pattern"],"bee_group":{"antennae":"X","wings":"1","pattern":"D","legs":"X"},"bonus":1.320000000000001},{"rt":1125.3999999761581,"stimulus":"bees-with-color/bee-B2SF.svg","response":0,"trial_type":"image-button-response","trial_index":57,"time_elapsed":266305,"internal_node_id":"0.0-4.0-0.25","subject_id":"5ee8b6dbac5fa1054ebd60a7","study_id":"60edd13110225f80f9f3709b","session_id":"6196c4a8e28ca26ab75a8961","condition":"contingent","relevant_dimensions":["wings","pattern"],"bee_group":{"antennae":"X","wings":"1","pattern":"D","legs":"X"},"action":"harvest","summary":"good-harvest","bonus":1.320000000000001},{"rt":910.0999999940395,"stimulus":"\n                    <p><b>Action: <em>harvest</em></b></p>\n                    <p>This is the bee that you just saw.</p>\n                    <img src=\"bees-with-color/bee-B2SF.svg\" width=\"200\">\n                    <p><span class=\"greenText\"><b>Successful harvest!</b></span><br>Your pay has increased by $0.02. Your bonus pay is now $0.66.</p>\n            ","response":0,"trial_type":"html-button-response","trial_index":58,"time_elapsed":267218,"internal_node_id":"0.0-4.0-1.25","subject_id":"5ee8b6dbac5fa1054ebd60a7","study_id":"60edd13110225f80f9f3709b","session_id":"6196c4a8e28ca26ab75a8961","condition":"contingent","relevant_dimensions":["wings","pattern"],"bee_group":{"antennae":"X","wings":"1","pattern":"D","legs":"X"},"bonus":1.320000000000001},{"rt":957.2999999821186,"stimulus":"bees-with-color/bee-A2SM.svg","response":0,"trial_type":"image-button-response","trial_index":59,"time_elapsed":268178,"internal_node_id":"0.0-4.0-0.26","subject_id":"5ee8b6dbac5fa1054ebd60a7","study_id":"60edd13110225f80f9f3709b","session_id":"6196c4a8e28ca26ab75a8961","condition":"contingent","relevant_dimensions":["wings","pattern"],"bee_group":{"antennae":"X","wings":"1","pattern":"D","legs":"X"},"action":"harvest","summary":"good-harvest","bonus":1.320000000000001},{"rt":876.6000000238419,"stimulus":"\n                    <p><b>Action: <em>harvest</em></b></p>\n                    <p>This is the bee that you just saw.</p>\n                    <img src=\"bees-with-color/bee-A2SM.svg\" width=\"200\">\n                    <p><span class=\"greenText\"><b>Successful harvest!</b></span><br>Your pay has increased by $0.02. Your bonus pay is now $0.68.</p>\n            ","response":0,"trial_type":"html-button-response","trial_index":60,"time_elapsed":269058,"internal_node_id":"0.0-4.0-1.26","subject_id":"5ee8b6dbac5fa1054ebd60a7","study_id":"60edd13110225f80f9f3709b","session_id":"6196c4a8e28ca26ab75a8961","condition":"contingent","relevant_dimensions":["wings","pattern"],"bee_group":{"antennae":"X","wings":"1","pattern":"D","legs":"X"},"bonus":1.320000000000001},{"rt":1629.4000000059605,"stimulus":"bees-with-color/bee-B2DM.svg","response":1,"trial_type":"image-button-response","trial_index":61,"time_elapsed":270690,"internal_node_id":"0.0-4.0-0.27","subject_id":"5ee8b6dbac5fa1054ebd60a7","study_id":"60edd13110225f80f9f3709b","session_id":"6196c4a8e28ca26ab75a8961","condition":"contingent","relevant_dimensions":["wings","pattern"],"bee_group":{"antennae":"X","wings":"1","pattern":"D","legs":"X"},"action":"avoid","summary":"bad-avoid","bonus":1.320000000000001},{"rt":805.5,"stimulus":"\n                    <p><b>Action: <em>avoid</em></b></p>\n                    <p>This is the bee that you just saw.</p>\n                    <img src=\"bees-with-color/bee-B2DM.svg\" width=\"200\">\n                    <p><br>Your bonus pay is unchanged, and remains at $0.68.</p>\n            ","response":0,"trial_type":"html-button-response","trial_index":62,"time_elapsed":271498,"internal_node_id":"0.0-4.0-1.27","subject_id":"5ee8b6dbac5fa1054ebd60a7","study_id":"60edd13110225f80f9f3709b","session_id":"6196c4a8e28ca26ab75a8961","condition":"contingent","relevant_dimensions":["wings","pattern"],"bee_group":{"antennae":"X","wings":"1","pattern":"D","legs":"X"},"bonus":1.320000000000001},{"rt":1077.2999999821186,"stimulus":"bees-with-color/bee-A2DM.svg","response":1,"trial_type":"image-button-response","trial_index":63,"time_elapsed":272578,"internal_node_id":"0.0-4.0-0.28","subject_id":"5ee8b6dbac5fa1054ebd60a7","study_id":"60edd13110225f80f9f3709b","session_id":"6196c4a8e28ca26ab75a8961","condition":"contingent","relevant_dimensions":["wings","pattern"],"bee_group":{"antennae":"X","wings":"1","pattern":"D","legs":"X"},"action":"avoid","summary":"bad-avoid","bonus":1.320000000000001},{"rt":556.1999999880791,"stimulus":"\n                    <p><b>Action: <em>avoid</em></b></p>\n                    <p>This is the bee that you just saw.</p>\n                    <img src=\"bees-with-color/bee-A2DM.svg\" width=\"200\">\n                    <p><br>Your bonus pay is unchanged, and remains at $0.68.</p>\n            ","response":0,"trial_type":"html-button-response","trial_index":64,"time_elapsed":273137,"internal_node_id":"0.0-4.0-1.28","subject_id":"5ee8b6dbac5fa1054ebd60a7","study_id":"60edd13110225f80f9f3709b","session_id":"6196c4a8e28ca26ab75a8961","condition":"contingent","relevant_dimensions":["wings","pattern"],"bee_group":{"antennae":"X","wings":"1","pattern":"D","legs":"X"},"bonus":1.320000000000001},{"rt":2022.9000000059605,"stimulus":"bees-with-color/bee-A1DM.svg","response":1,"trial_type":"image-button-response","trial_index":65,"time_elapsed":275162,"internal_node_id":"0.0-4.0-0.29","subject_id":"5ee8b6dbac5fa1054ebd60a7","study_id":"60edd13110225f80f9f3709b","session_id":"6196c4a8e28ca26ab75a8961","condition":"contingent","relevant_dimensions":["wings","pattern"],"bee_group":{"antennae":"X","wings":"1","pattern":"D","legs":"X"},"action":"avoid","summary":"good-avoid","bonus":1.320000000000001},{"rt":820.8000000119209,"stimulus":"\n                    <p><b>Action: <em>avoid</em></b></p>\n                    <p>This is the bee that you just saw.</p>\n                    <img src=\"bees-with-color/bee-A1DM.svg\" width=\"200\">\n                    <p><br>Your bonus pay is unchanged, and remains at $0.68.</p>\n            ","response":0,"trial_type":"html-button-response","trial_index":66,"time_elapsed":275985,"internal_node_id":"0.0-4.0-1.29","subject_id":"5ee8b6dbac5fa1054ebd60a7","study_id":"60edd13110225f80f9f3709b","session_id":"6196c4a8e28ca26ab75a8961","condition":"contingent","relevant_dimensions":["wings","pattern"],"bee_group":{"antennae":"X","wings":"1","pattern":"D","legs":"X"},"bonus":1.320000000000001},{"rt":1423.9000000059605,"stimulus":"bees-with-color/bee-A1DF.svg","response":1,"trial_type":"image-button-response","trial_index":67,"time_elapsed":277412,"internal_node_id":"0.0-4.0-0.30","subject_id":"5ee8b6dbac5fa1054ebd60a7","study_id":"60edd13110225f80f9f3709b","session_id":"6196c4a8e28ca26ab75a8961","condition":"contingent","relevant_dimensions":["wings","pattern"],"bee_group":{"antennae":"X","wings":"1","pattern":"D","legs":"X"},"action":"avoid","summary":"good-avoid","bonus":1.320000000000001},{"rt":674.5999999940395,"stimulus":"\n                    <p><b>Action: <em>avoid</em></b></p>\n                    <p>This is the bee that you just saw.</p>\n                    <img src=\"bees-with-color/bee-A1DF.svg\" width=\"200\">\n                    <p><br>Your bonus pay is unchanged, and remains at $0.68.</p>\n            ","response":0,"trial_type":"html-button-response","trial_index":68,"time_elapsed":278089,"internal_node_id":"0.0-4.0-1.30","subject_id":"5ee8b6dbac5fa1054ebd60a7","study_id":"60edd13110225f80f9f3709b","session_id":"6196c4a8e28ca26ab75a8961","condition":"contingent","relevant_dimensions":["wings","pattern"],"bee_group":{"antennae":"X","wings":"1","pattern":"D","legs":"X"},"bonus":1.320000000000001},{"rt":1133.2999999821186,"stimulus":"bees-with-color/bee-A1SF.svg","response":0,"trial_type":"image-button-response","trial_index":69,"time_elapsed":279225,"internal_node_id":"0.0-4.0-0.31","subject_id":"5ee8b6dbac5fa1054ebd60a7","study_id":"60edd13110225f80f9f3709b","session_id":"6196c4a8e28ca26ab75a8961","condition":"contingent","relevant_dimensions":["wings","pattern"],"bee_group":{"antennae":"X","wings":"1","pattern":"D","legs":"X"},"action":"harvest","summary":"good-harvest","bonus":1.320000000000001},{"rt":1125.5,"stimulus":"\n                    <p><b>Action: <em>harvest</em></b></p>\n                    <p>This is the bee that you just saw.</p>\n                    <img src=\"bees-with-color/bee-A1SF.svg\" width=\"200\">\n                    <p><span class=\"greenText\"><b>Successful harvest!</b></span><br>Your pay has increased by $0.02. Your bonus pay is now $0.70.</p>\n            ","response":0,"trial_type":"html-button-response","trial_index":70,"time_elapsed":280353,"internal_node_id":"0.0-4.0-1.31","subject_id":"5ee8b6dbac5fa1054ebd60a7","study_id":"60edd13110225f80f9f3709b","session_id":"6196c4a8e28ca26ab75a8961","condition":"contingent","relevant_dimensions":["wings","pattern"],"bee_group":{"antennae":"X","wings":"1","pattern":"D","legs":"X"},"bonus":1.320000000000001},{"rt":1461.699999988079,"stimulus":"bees-with-color/bee-B2DM.svg","response":1,"trial_type":"image-button-response","trial_index":71,"time_elapsed":281818,"internal_node_id":"0.0-4.0-0.32","subject_id":"5ee8b6dbac5fa1054ebd60a7","study_id":"60edd13110225f80f9f3709b","session_id":"6196c4a8e28ca26ab75a8961","condition":"contingent","relevant_dimensions":["wings","pattern"],"bee_group":{"antennae":"X","wings":"1","pattern":"D","legs":"X"},"action":"avoid","summary":"bad-avoid","bonus":1.320000000000001},{"rt":612.5999999940395,"stimulus":"\n                    <p><b>Action: <em>avoid</em></b></p>\n                    <p>This is the bee that you just saw.</p>\n                    <img src=\"bees-with-color/bee-B2DM.svg\" width=\"200\">\n                    <p><br>Your bonus pay is unchanged, and remains at $0.70.</p>\n            ","response":0,"trial_type":"html-button-response","trial_index":72,"time_elapsed":282433,"internal_node_id":"0.0-4.0-1.32","subject_id":"5ee8b6dbac5fa1054ebd60a7","study_id":"60edd13110225f80f9f3709b","session_id":"6196c4a8e28ca26ab75a8961","condition":"contingent","relevant_dimensions":["wings","pattern"],"bee_group":{"antennae":"X","wings":"1","pattern":"D","legs":"X"},"bonus":1.320000000000001},{"rt":1542,"stimulus":"bees-with-color/bee-A2SF.svg","response":0,"trial_type":"image-button-response","trial_index":73,"time_elapsed":283978,"internal_node_id":"0.0-4.0-0.33","subject_id":"5ee8b6dbac5fa1054ebd60a7","study_id":"60edd13110225f80f9f3709b","session_id":"6196c4a8e28ca26ab75a8961","condition":"contingent","relevant_dimensions":["wings","pattern"],"bee_group":{"antennae":"X","wings":"1","pattern":"D","legs":"X"},"action":"harvest","summary":"good-harvest","bonus":1.320000000000001},{"rt":693.1999999880791,"stimulus":"\n                    <p><b>Action: <em>harvest</em></b></p>\n                    <p>This is the bee that you just saw.</p>\n                    <img src=\"bees-with-color/bee-A2SF.svg\" width=\"200\">\n                    <p><span class=\"greenText\"><b>Successful harvest!</b></span><br>Your pay has increased by $0.02. Your bonus pay is now $0.72.</p>\n            ","response":0,"trial_type":"html-button-response","trial_index":74,"time_elapsed":284673,"internal_node_id":"0.0-4.0-1.33","subject_id":"5ee8b6dbac5fa1054ebd60a7","study_id":"60edd13110225f80f9f3709b","session_id":"6196c4a8e28ca26ab75a8961","condition":"contingent","relevant_dimensions":["wings","pattern"],"bee_group":{"antennae":"X","wings":"1","pattern":"D","legs":"X"},"bonus":1.320000000000001},{"rt":1173.2999999821186,"stimulus":"bees-with-color/bee-A2DM.svg","response":1,"trial_type":"image-button-response","trial_index":75,"time_elapsed":285850,"internal_node_id":"0.0-4.0-0.34","subject_id":"5ee8b6dbac5fa1054ebd60a7","study_id":"60edd13110225f80f9f3709b","session_id":"6196c4a8e28ca26ab75a8961","condition":"contingent","relevant_dimensions":["wings","pattern"],"bee_group":{"antennae":"X","wings":"1","pattern":"D","legs":"X"},"action":"avoid","summary":"bad-avoid","bonus":1.320000000000001},{"rt":556.6000000238419,"stimulus":"\n                    <p><b>Action: <em>avoid</em></b></p>\n                    <p>This is the bee that you just saw.</p>\n                    <img src=\"bees-with-color/bee-A2DM.svg\" width=\"200\">\n                    <p><br>Your bonus pay is unchanged, and remains at $0.72.</p>\n            ","response":0,"trial_type":"html-button-response","trial_index":76,"time_elapsed":286410,"internal_node_id":"0.0-4.0-1.34","subject_id":"5ee8b6dbac5fa1054ebd60a7","study_id":"60edd13110225f80f9f3709b","session_id":"6196c4a8e28ca26ab75a8961","condition":"contingent","relevant_dimensions":["wings","pattern"],"bee_group":{"antennae":"X","wings":"1","pattern":"D","legs":"X"},"bonus":1.320000000000001},{"rt":709.0999999940395,"stimulus":"bees-with-color/bee-A2SM.svg","response":0,"trial_type":"image-button-response","trial_index":77,"time_elapsed":287121,"internal_node_id":"0.0-4.0-0.35","subject_id":"5ee8b6dbac5fa1054ebd60a7","study_id":"60edd13110225f80f9f3709b","session_id":"6196c4a8e28ca26ab75a8961","condition":"contingent","relevant_dimensions":["wings","pattern"],"bee_group":{"antennae":"X","wings":"1","pattern":"D","legs":"X"},"action":"harvest","summary":"good-harvest","bonus":1.320000000000001},{"rt":573.7999999821186,"stimulus":"\n                    <p><b>Action: <em>harvest</em></b></p>\n                    <p>This is the bee that you just saw.</p>\n                    <img src=\"bees-with-color/bee-A2SM.svg\" width=\"200\">\n                    <p><span class=\"greenText\"><b>Successful harvest!</b></span><br>Your pay has increased by $0.02. Your bonus pay is now $0.74.</p>\n            ","response":0,"trial_type":"html-button-response","trial_index":78,"time_elapsed":287698,"internal_node_id":"0.0-4.0-1.35","subject_id":"5ee8b6dbac5fa1054ebd60a7","study_id":"60edd13110225f80f9f3709b","session_id":"6196c4a8e28ca26ab75a8961","condition":"contingent","relevant_dimensions":["wings","pattern"],"bee_group":{"antennae":"X","wings":"1","pattern":"D","legs":"X"},"bonus":1.320000000000001},{"rt":908.2999999821186,"stimulus":"bees-with-color/bee-A1SM.svg","response":0,"trial_type":"image-button-response","trial_index":79,"time_elapsed":288610,"internal_node_id":"0.0-4.0-0.36","subject_id":"5ee8b6dbac5fa1054ebd60a7","study_id":"60edd13110225f80f9f3709b","session_id":"6196c4a8e28ca26ab75a8961","condition":"contingent","relevant_dimensions":["wings","pattern"],"bee_group":{"antennae":"X","wings":"1","pattern":"D","legs":"X"},"action":"harvest","summary":"good-harvest","bonus":1.320000000000001},{"rt":444.69999998807907,"stimulus":"\n                    <p><b>Action: <em>harvest</em></b></p>\n                    <p>This is the bee that you just saw.</p>\n                    <img src=\"bees-with-color/bee-A1SM.svg\" width=\"200\">\n                    <p><span class=\"greenText\"><b>Successful harvest!</b></span><br>Your pay has increased by $0.02. Your bonus pay is now $0.76.</p>\n            ","response":0,"trial_type":"html-button-response","trial_index":80,"time_elapsed":289058,"internal_node_id":"0.0-4.0-1.36","subject_id":"5ee8b6dbac5fa1054ebd60a7","study_id":"60edd13110225f80f9f3709b","session_id":"6196c4a8e28ca26ab75a8961","condition":"contingent","relevant_dimensions":["wings","pattern"],"bee_group":{"antennae":"X","wings":"1","pattern":"D","legs":"X"},"bonus":1.320000000000001},{"rt":1108.0999999940395,"stimulus":"bees-with-color/bee-A1DF.svg","response":1,"trial_type":"image-button-response","trial_index":81,"time_elapsed":290170,"internal_node_id":"0.0-4.0-0.37","subject_id":"5ee8b6dbac5fa1054ebd60a7","study_id":"60edd13110225f80f9f3709b","session_id":"6196c4a8e28ca26ab75a8961","condition":"contingent","relevant_dimensions":["wings","pattern"],"bee_group":{"antennae":"X","wings":"1","pattern":"D","legs":"X"},"action":"avoid","summary":"good-avoid","bonus":1.320000000000001},{"rt":1597.5999999940395,"stimulus":"\n                    <p><b>Action: <em>avoid</em></b></p>\n                    <p>This is the bee that you just saw.</p>\n                    <img src=\"bees-with-color/bee-A1DF.svg\" width=\"200\">\n                    <p><br>Your bonus pay is unchanged, and remains at $0.76.</p>\n            ","response":0,"trial_type":"html-button-response","trial_index":82,"time_elapsed":291770,"internal_node_id":"0.0-4.0-1.37","subject_id":"5ee8b6dbac5fa1054ebd60a7","study_id":"60edd13110225f80f9f3709b","session_id":"6196c4a8e28ca26ab75a8961","condition":"contingent","relevant_dimensions":["wings","pattern"],"bee_group":{"antennae":"X","wings":"1","pattern":"D","legs":"X"},"bonus":1.320000000000001},{"rt":1516.199999988079,"stimulus":"bees-with-color/bee-B1DF.svg","response":1,"trial_type":"image-button-response","trial_index":83,"time_elapsed":293290,"internal_node_id":"0.0-4.0-0.38","subject_id":"5ee8b6dbac5fa1054ebd60a7","study_id":"60edd13110225f80f9f3709b","session_id":"6196c4a8e28ca26ab75a8961","condition":"contingent","relevant_dimensions":["wings","pattern"],"bee_group":{"antennae":"X","wings":"1","pattern":"D","legs":"X"},"action":"avoid","summary":"good-avoid","bonus":1.320000000000001},{"rt":845.8999999761581,"stimulus":"\n                    <p><b>Action: <em>avoid</em></b></p>\n                    <p>This is the bee that you just saw.</p>\n                    <img src=\"bees-with-color/bee-B1DF.svg\" width=\"200\">\n                    <p><br>Your bonus pay is unchanged, and remains at $0.76.</p>\n            ","response":0,"trial_type":"html-button-response","trial_index":84,"time_elapsed":294138,"internal_node_id":"0.0-4.0-1.38","subject_id":"5ee8b6dbac5fa1054ebd60a7","study_id":"60edd13110225f80f9f3709b","session_id":"6196c4a8e28ca26ab75a8961","condition":"contingent","relevant_dimensions":["wings","pattern"],"bee_group":{"antennae":"X","wings":"1","pattern":"D","legs":"X"},"bonus":1.320000000000001},{"rt":1404.7999999821186,"stimulus":"bees-with-color/bee-B1SF.svg","response":0,"trial_type":"image-button-response","trial_index":85,"time_elapsed":295546,"internal_node_id":"0.0-4.0-0.39","subject_id":"5ee8b6dbac5fa1054ebd60a7","study_id":"60edd13110225f80f9f3709b","session_id":"6196c4a8e28ca26ab75a8961","condition":"contingent","relevant_dimensions":["wings","pattern"],"bee_group":{"antennae":"X","wings":"1","pattern":"D","legs":"X"},"action":"harvest","summary":"good-harvest","bonus":1.320000000000001},{"rt":629.0999999940395,"stimulus":"\n                    <p><b>Action: <em>harvest</em></b></p>\n                    <p>This is the bee that you just saw.</p>\n                    <img src=\"bees-with-color/bee-B1SF.svg\" width=\"200\">\n                    <p><span class=\"greenText\"><b>Successful harvest!</b></span><br>Your pay has increased by $0.02. Your bonus pay is now $0.78.</p>\n            ","response":0,"trial_type":"html-button-response","trial_index":86,"time_elapsed":296178,"internal_node_id":"0.0-4.0-1.39","subject_id":"5ee8b6dbac5fa1054ebd60a7","study_id":"60edd13110225f80f9f3709b","session_id":"6196c4a8e28ca26ab75a8961","condition":"contingent","relevant_dimensions":["wings","pattern"],"bee_group":{"antennae":"X","wings":"1","pattern":"D","legs":"X"},"bonus":1.320000000000001},{"rt":1013.8000000119209,"stimulus":"bees-with-color/bee-B1DM.svg","response":1,"trial_type":"image-button-response","trial_index":87,"time_elapsed":297195,"internal_node_id":"0.0-4.0-0.40","subject_id":"5ee8b6dbac5fa1054ebd60a7","study_id":"60edd13110225f80f9f3709b","session_id":"6196c4a8e28ca26ab75a8961","condition":"contingent","relevant_dimensions":["wings","pattern"],"bee_group":{"antennae":"X","wings":"1","pattern":"D","legs":"X"},"action":"avoid","summary":"good-avoid","bonus":1.320000000000001},{"rt":555.7999999821186,"stimulus":"\n                    <p><b>Action: <em>avoid</em></b></p>\n                    <p>This is the bee that you just saw.</p>\n                    <img src=\"bees-with-color/bee-B1DM.svg\" width=\"200\">\n                    <p><br>Your bonus pay is unchanged, and remains at $0.78.</p>\n            ","response":0,"trial_type":"html-button-response","trial_index":88,"time_elapsed":297754,"internal_node_id":"0.0-4.0-1.40","subject_id":"5ee8b6dbac5fa1054ebd60a7","study_id":"60edd13110225f80f9f3709b","session_id":"6196c4a8e28ca26ab75a8961","condition":"contingent","relevant_dimensions":["wings","pattern"],"bee_group":{"antennae":"X","wings":"1","pattern":"D","legs":"X"},"bonus":1.320000000000001},{"rt":1012.8000000119209,"stimulus":"bees-with-color/bee-A1DM.svg","response":1,"trial_type":"image-button-response","trial_index":89,"time_elapsed":298770,"internal_node_id":"0.0-4.0-0.41","subject_id":"5ee8b6dbac5fa1054ebd60a7","study_id":"60edd13110225f80f9f3709b","session_id":"6196c4a8e28ca26ab75a8961","condition":"contingent","relevant_dimensions":["wings","pattern"],"bee_group":{"antennae":"X","wings":"1","pattern":"D","legs":"X"},"action":"avoid","summary":"good-avoid","bonus":1.320000000000001},{"rt":868.5,"stimulus":"\n                    <p><b>Action: <em>avoid</em></b></p>\n                    <p>This is the bee that you just saw.</p>\n                    <img src=\"bees-with-color/bee-A1DM.svg\" width=\"200\">\n                    <p><br>Your bonus pay is unchanged, and remains at $0.78.</p>\n            ","response":0,"trial_type":"html-button-response","trial_index":90,"time_elapsed":299642,"internal_node_id":"0.0-4.0-1.41","subject_id":"5ee8b6dbac5fa1054ebd60a7","study_id":"60edd13110225f80f9f3709b","session_id":"6196c4a8e28ca26ab75a8961","condition":"contingent","relevant_dimensions":["wings","pattern"],"bee_group":{"antennae":"X","wings":"1","pattern":"D","legs":"X"},"bonus":1.320000000000001},{"rt":852.1999999880791,"stimulus":"bees-with-color/bee-B2SF.svg","response":0,"trial_type":"image-button-response","trial_index":91,"time_elapsed":300498,"internal_node_id":"0.0-4.0-0.42","subject_id":"5ee8b6dbac5fa1054ebd60a7","study_id":"60edd13110225f80f9f3709b","session_id":"6196c4a8e28ca26ab75a8961","condition":"contingent","relevant_dimensions":["wings","pattern"],"bee_group":{"antennae":"X","wings":"1","pattern":"D","legs":"X"},"action":"harvest","summary":"good-harvest","bonus":1.320000000000001},{"rt":549.5,"stimulus":"\n                    <p><b>Action: <em>harvest</em></b></p>\n                    <p>This is the bee that you just saw.</p>\n                    <img src=\"bees-with-color/bee-B2SF.svg\" width=\"200\">\n                    <p><span class=\"greenText\"><b>Successful harvest!</b></span><br>Your pay has increased by $0.02. Your bonus pay is now $0.80.</p>\n            ","response":0,"trial_type":"html-button-response","trial_index":92,"time_elapsed":301050,"internal_node_id":"0.0-4.0-1.42","subject_id":"5ee8b6dbac5fa1054ebd60a7","study_id":"60edd13110225f80f9f3709b","session_id":"6196c4a8e28ca26ab75a8961","condition":"contingent","relevant_dimensions":["wings","pattern"],"bee_group":{"antennae":"X","wings":"1","pattern":"D","legs":"X"},"bonus":1.320000000000001},{"rt":1195.7999999821186,"stimulus":"bees-with-color/bee-B1SM.svg","response":0,"trial_type":"image-button-response","trial_index":93,"time_elapsed":302250,"internal_node_id":"0.0-4.0-0.43","subject_id":"5ee8b6dbac5fa1054ebd60a7","study_id":"60edd13110225f80f9f3709b","session_id":"6196c4a8e28ca26ab75a8961","condition":"contingent","relevant_dimensions":["wings","pattern"],"bee_group":{"antennae":"X","wings":"1","pattern":"D","legs":"X"},"action":"harvest","summary":"good-harvest","bonus":1.320000000000001},{"rt":1493.5999999940395,"stimulus":"\n                    <p><b>Action: <em>harvest</em></b></p>\n                    <p>This is the bee that you just saw.</p>\n                    <img src=\"bees-with-color/bee-B1SM.svg\" width=\"200\">\n                    <p><span class=\"greenText\"><b>Successful harvest!</b></span><br>Your pay has increased by $0.02. Your bonus pay is now $0.82.</p>\n            ","response":0,"trial_type":"html-button-response","trial_index":94,"time_elapsed":303746,"internal_node_id":"0.0-4.0-1.43","subject_id":"5ee8b6dbac5fa1054ebd60a7","study_id":"60edd13110225f80f9f3709b","session_id":"6196c4a8e28ca26ab75a8961","condition":"contingent","relevant_dimensions":["wings","pattern"],"bee_group":{"antennae":"X","wings":"1","pattern":"D","legs":"X"},"bonus":1.320000000000001},{"rt":1052.3999999761581,"stimulus":"bees-with-color/bee-A2DF.svg","response":1,"trial_type":"image-button-response","trial_index":95,"time_elapsed":304802,"internal_node_id":"0.0-4.0-0.44","subject_id":"5ee8b6dbac5fa1054ebd60a7","study_id":"60edd13110225f80f9f3709b","session_id":"6196c4a8e28ca26ab75a8961","condition":"contingent","relevant_dimensions":["wings","pattern"],"bee_group":{"antennae":"X","wings":"1","pattern":"D","legs":"X"},"action":"avoid","summary":"bad-avoid","bonus":1.320000000000001},{"rt":1484.800000011921,"stimulus":"\n                    <p><b>Action: <em>avoid</em></b></p>\n                    <p>This is the bee that you just saw.</p>\n                    <img src=\"bees-with-color/bee-A2DF.svg\" width=\"200\">\n                    <p><br>Your bonus pay is unchanged, and remains at $0.82.</p>\n            ","response":0,"trial_type":"html-button-response","trial_index":96,"time_elapsed":306290,"internal_node_id":"0.0-4.0-1.44","subject_id":"5ee8b6dbac5fa1054ebd60a7","study_id":"60edd13110225f80f9f3709b","session_id":"6196c4a8e28ca26ab75a8961","condition":"contingent","relevant_dimensions":["wings","pattern"],"bee_group":{"antennae":"X","wings":"1","pattern":"D","legs":"X"},"bonus":1.320000000000001},{"rt":1021.9000000059605,"stimulus":"bees-with-color/bee-A1SF.svg","response":0,"trial_type":"image-button-response","trial_index":97,"time_elapsed":307314,"internal_node_id":"0.0-4.0-0.45","subject_id":"5ee8b6dbac5fa1054ebd60a7","study_id":"60edd13110225f80f9f3709b","session_id":"6196c4a8e28ca26ab75a8961","condition":"contingent","relevant_dimensions":["wings","pattern"],"bee_group":{"antennae":"X","wings":"1","pattern":"D","legs":"X"},"action":"harvest","summary":"good-harvest","bonus":1.320000000000001},{"rt":949.4000000059605,"stimulus":"\n                    <p><b>Action: <em>harvest</em></b></p>\n                    <p>This is the bee that you just saw.</p>\n                    <img src=\"bees-with-color/bee-A1SF.svg\" width=\"200\">\n                    <p><span class=\"greenText\"><b>Successful harvest!</b></span><br>Your pay has increased by $0.02. Your bonus pay is now $0.84.</p>\n            ","response":0,"trial_type":"html-button-response","trial_index":98,"time_elapsed":308266,"internal_node_id":"0.0-4.0-1.45","subject_id":"5ee8b6dbac5fa1054ebd60a7","study_id":"60edd13110225f80f9f3709b","session_id":"6196c4a8e28ca26ab75a8961","condition":"contingent","relevant_dimensions":["wings","pattern"],"bee_group":{"antennae":"X","wings":"1","pattern":"D","legs":"X"},"bonus":1.320000000000001},{"rt":805.9000000059605,"stimulus":"bees-with-color/bee-B2DF.svg","response":1,"trial_type":"image-button-response","trial_index":99,"time_elapsed":309074,"internal_node_id":"0.0-4.0-0.46","subject_id":"5ee8b6dbac5fa1054ebd60a7","study_id":"60edd13110225f80f9f3709b","session_id":"6196c4a8e28ca26ab75a8961","condition":"contingent","relevant_dimensions":["wings","pattern"],"bee_group":{"antennae":"X","wings":"1","pattern":"D","legs":"X"},"action":"avoid","summary":"bad-avoid","bonus":1.320000000000001},{"rt":814.5,"stimulus":"\n                    <p><b>Action: <em>avoid</em></b></p>\n                    <p>This is the bee that you just saw.</p>\n                    <img src=\"bees-with-color/bee-B2DF.svg\" width=\"200\">\n                    <p><br>Your bonus pay is unchanged, and remains at $0.84.</p>\n            ","response":0,"trial_type":"html-button-response","trial_index":100,"time_elapsed":309890,"internal_node_id":"0.0-4.0-1.46","subject_id":"5ee8b6dbac5fa1054ebd60a7","study_id":"60edd13110225f80f9f3709b","session_id":"6196c4a8e28ca26ab75a8961","condition":"contingent","relevant_dimensions":["wings","pattern"],"bee_group":{"antennae":"X","wings":"1","pattern":"D","legs":"X"},"bonus":1.320000000000001},{"rt":693.7000000178814,"stimulus":"bees-with-color/bee-B2SM.svg","response":0,"trial_type":"image-button-response","trial_index":101,"time_elapsed":310586,"internal_node_id":"0.0-4.0-0.47","subject_id":"5ee8b6dbac5fa1054ebd60a7","study_id":"60edd13110225f80f9f3709b","session_id":"6196c4a8e28ca26ab75a8961","condition":"contingent","relevant_dimensions":["wings","pattern"],"bee_group":{"antennae":"X","wings":"1","pattern":"D","legs":"X"},"action":"harvest","summary":"good-harvest","bonus":1.320000000000001},{"rt":573.5999999940395,"stimulus":"\n                    <p><b>Action: <em>harvest</em></b></p>\n                    <p>This is the bee that you just saw.</p>\n                    <img src=\"bees-with-color/bee-B2SM.svg\" width=\"200\">\n                    <p><span class=\"greenText\"><b>Successful harvest!</b></span><br>Your pay has increased by $0.02. Your bonus pay is now $0.86.</p>\n            ","response":0,"trial_type":"html-button-response","trial_index":102,"time_elapsed":311162,"internal_node_id":"0.0-4.0-1.47","subject_id":"5ee8b6dbac5fa1054ebd60a7","study_id":"60edd13110225f80f9f3709b","session_id":"6196c4a8e28ca26ab75a8961","condition":"contingent","relevant_dimensions":["wings","pattern"],"bee_group":{"antennae":"X","wings":"1","pattern":"D","legs":"X"},"bonus":1.320000000000001},{"rt":1981.300000011921,"stimulus":"bees-with-color/bee-A1SM.svg","response":0,"trial_type":"image-button-response","trial_index":103,"time_elapsed":313146,"internal_node_id":"0.0-4.0-0.48","subject_id":"5ee8b6dbac5fa1054ebd60a7","study_id":"60edd13110225f80f9f3709b","session_id":"6196c4a8e28ca26ab75a8961","condition":"contingent","relevant_dimensions":["wings","pattern"],"bee_group":{"antennae":"X","wings":"1","pattern":"D","legs":"X"},"action":"harvest","summary":"good-harvest","bonus":1.320000000000001},{"rt":653.5999999940395,"stimulus":"\n                    <p><b>Action: <em>harvest</em></b></p>\n                    <p>This is the bee that you just saw.</p>\n                    <img src=\"bees-with-color/bee-A1SM.svg\" width=\"200\">\n                    <p><span class=\"greenText\"><b>Successful harvest!</b></span><br>Your pay has increased by $0.02. Your bonus pay is now $0.88.</p>\n            ","response":0,"trial_type":"html-button-response","trial_index":104,"time_elapsed":313802,"internal_node_id":"0.0-4.0-1.48","subject_id":"5ee8b6dbac5fa1054ebd60a7","study_id":"60edd13110225f80f9f3709b","session_id":"6196c4a8e28ca26ab75a8961","condition":"contingent","relevant_dimensions":["wings","pattern"],"bee_group":{"antennae":"X","wings":"1","pattern":"D","legs":"X"},"bonus":1.320000000000001},{"rt":1420.7999999821186,"stimulus":"bees-with-color/bee-B1DM.svg","response":1,"trial_type":"image-button-response","trial_index":105,"time_elapsed":315227,"internal_node_id":"0.0-4.0-0.49","subject_id":"5ee8b6dbac5fa1054ebd60a7","study_id":"60edd13110225f80f9f3709b","session_id":"6196c4a8e28ca26ab75a8961","condition":"contingent","relevant_dimensions":["wings","pattern"],"bee_group":{"antennae":"X","wings":"1","pattern":"D","legs":"X"},"action":"avoid","summary":"good-avoid","bonus":1.320000000000001},{"rt":676.5,"stimulus":"\n                    <p><b>Action: <em>avoid</em></b></p>\n                    <p>This is the bee that you just saw.</p>\n                    <img src=\"bees-with-color/bee-B1DM.svg\" width=\"200\">\n                    <p><br>Your bonus pay is unchanged, and remains at $0.88.</p>\n            ","response":0,"trial_type":"html-button-response","trial_index":106,"time_elapsed":315906,"internal_node_id":"0.0-4.0-1.49","subject_id":"5ee8b6dbac5fa1054ebd60a7","study_id":"60edd13110225f80f9f3709b","session_id":"6196c4a8e28ca26ab75a8961","condition":"contingent","relevant_dimensions":["wings","pattern"],"bee_group":{"antennae":"X","wings":"1","pattern":"D","legs":"X"},"bonus":1.320000000000001},{"rt":741.0999999940395,"stimulus":"bees-with-color/bee-B2SM.svg","response":0,"trial_type":"image-button-response","trial_index":107,"time_elapsed":316650,"internal_node_id":"0.0-4.0-0.50","subject_id":"5ee8b6dbac5fa1054ebd60a7","study_id":"60edd13110225f80f9f3709b","session_id":"6196c4a8e28ca26ab75a8961","condition":"contingent","relevant_dimensions":["wings","pattern"],"bee_group":{"antennae":"X","wings":"1","pattern":"D","legs":"X"},"action":"harvest","summary":"good-harvest","bonus":1.320000000000001},{"rt":685.6000000238419,"stimulus":"\n                    <p><b>Action: <em>harvest</em></b></p>\n                    <p>This is the bee that you just saw.</p>\n                    <img src=\"bees-with-color/bee-B2SM.svg\" width=\"200\">\n                    <p><span class=\"greenText\"><b>Successful harvest!</b></span><br>Your pay has increased by $0.02. Your bonus pay is now $0.90.</p>\n            ","response":0,"trial_type":"html-button-response","trial_index":108,"time_elapsed":317338,"internal_node_id":"0.0-4.0-1.50","subject_id":"5ee8b6dbac5fa1054ebd60a7","study_id":"60edd13110225f80f9f3709b","session_id":"6196c4a8e28ca26ab75a8961","condition":"contingent","relevant_dimensions":["wings","pattern"],"bee_group":{"antennae":"X","wings":"1","pattern":"D","legs":"X"},"bonus":1.320000000000001},{"rt":1317.0999999940395,"stimulus":"bees-with-color/bee-B1SM.svg","response":0,"trial_type":"image-button-response","trial_index":109,"time_elapsed":318658,"internal_node_id":"0.0-4.0-0.51","subject_id":"5ee8b6dbac5fa1054ebd60a7","study_id":"60edd13110225f80f9f3709b","session_id":"6196c4a8e28ca26ab75a8961","condition":"contingent","relevant_dimensions":["wings","pattern"],"bee_group":{"antennae":"X","wings":"1","pattern":"D","legs":"X"},"action":"harvest","summary":"good-harvest","bonus":1.320000000000001},{"rt":1373.2999999821186,"stimulus":"\n                    <p><b>Action: <em>harvest</em></b></p>\n                    <p>This is the bee that you just saw.</p>\n                    <img src=\"bees-with-color/bee-B1SM.svg\" width=\"200\">\n                    <p><span class=\"greenText\"><b>Successful harvest!</b></span><br>Your pay has increased by $0.02. Your bonus pay is now $0.92.</p>\n            ","response":0,"trial_type":"html-button-response","trial_index":110,"time_elapsed":320034,"internal_node_id":"0.0-4.0-1.51","subject_id":"5ee8b6dbac5fa1054ebd60a7","study_id":"60edd13110225f80f9f3709b","session_id":"6196c4a8e28ca26ab75a8961","condition":"contingent","relevant_dimensions":["wings","pattern"],"bee_group":{"antennae":"X","wings":"1","pattern":"D","legs":"X"},"bonus":1.320000000000001},{"rt":1085.9000000059605,"stimulus":"bees-with-color/bee-A2DM.svg","response":1,"trial_type":"image-button-response","trial_index":111,"time_elapsed":321122,"internal_node_id":"0.0-4.0-0.52","subject_id":"5ee8b6dbac5fa1054ebd60a7","study_id":"60edd13110225f80f9f3709b","session_id":"6196c4a8e28ca26ab75a8961","condition":"contingent","relevant_dimensions":["wings","pattern"],"bee_group":{"antennae":"X","wings":"1","pattern":"D","legs":"X"},"action":"avoid","summary":"bad-avoid","bonus":1.320000000000001},{"rt":669.1999999880791,"stimulus":"\n                    <p><b>Action: <em>avoid</em></b></p>\n                    <p>This is the bee that you just saw.</p>\n                    <img src=\"bees-with-color/bee-A2DM.svg\" width=\"200\">\n                    <p><br>Your bonus pay is unchanged, and remains at $0.92.</p>\n            ","response":0,"trial_type":"html-button-response","trial_index":112,"time_elapsed":321794,"internal_node_id":"0.0-4.0-1.52","subject_id":"5ee8b6dbac5fa1054ebd60a7","study_id":"60edd13110225f80f9f3709b","session_id":"6196c4a8e28ca26ab75a8961","condition":"contingent","relevant_dimensions":["wings","pattern"],"bee_group":{"antennae":"X","wings":"1","pattern":"D","legs":"X"},"bonus":1.320000000000001},{"rt":645.9000000059605,"stimulus":"bees-with-color/bee-A2SM.svg","response":0,"trial_type":"image-button-response","trial_index":113,"time_elapsed":322443,"internal_node_id":"0.0-4.0-0.53","subject_id":"5ee8b6dbac5fa1054ebd60a7","study_id":"60edd13110225f80f9f3709b","session_id":"6196c4a8e28ca26ab75a8961","condition":"contingent","relevant_dimensions":["wings","pattern"],"bee_group":{"antennae":"X","wings":"1","pattern":"D","legs":"X"},"action":"harvest","summary":"good-harvest","bonus":1.320000000000001},{"rt":684.4000000059605,"stimulus":"\n                    <p><b>Action: <em>harvest</em></b></p>\n                    <p>This is the bee that you just saw.</p>\n                    <img src=\"bees-with-color/bee-A2SM.svg\" width=\"200\">\n                    <p><span class=\"greenText\"><b>Successful harvest!</b></span><br>Your pay has increased by $0.02. Your bonus pay is now $0.94.</p>\n            ","response":0,"trial_type":"html-button-response","trial_index":114,"time_elapsed":323130,"internal_node_id":"0.0-4.0-1.53","subject_id":"5ee8b6dbac5fa1054ebd60a7","study_id":"60edd13110225f80f9f3709b","session_id":"6196c4a8e28ca26ab75a8961","condition":"contingent","relevant_dimensions":["wings","pattern"],"bee_group":{"antennae":"X","wings":"1","pattern":"D","legs":"X"},"bonus":1.320000000000001},{"rt":1188.7000000178814,"stimulus":"bees-with-color/bee-A1SF.svg","response":0,"trial_type":"image-button-response","trial_index":115,"time_elapsed":324322,"internal_node_id":"0.0-4.0-0.54","subject_id":"5ee8b6dbac5fa1054ebd60a7","study_id":"60edd13110225f80f9f3709b","session_id":"6196c4a8e28ca26ab75a8961","condition":"contingent","relevant_dimensions":["wings","pattern"],"bee_group":{"antennae":"X","wings":"1","pattern":"D","legs":"X"},"action":"harvest","summary":"good-harvest","bonus":1.320000000000001},{"rt":445.5,"stimulus":"\n                    <p><b>Action: <em>harvest</em></b></p>\n                    <p>This is the bee that you just saw.</p>\n                    <img src=\"bees-with-color/bee-A1SF.svg\" width=\"200\">\n                    <p><span class=\"greenText\"><b>Successful harvest!</b></span><br>Your pay has increased by $0.02. Your bonus pay is now $0.96.</p>\n            ","response":0,"trial_type":"html-button-response","trial_index":116,"time_elapsed":324770,"internal_node_id":"0.0-4.0-1.54","subject_id":"5ee8b6dbac5fa1054ebd60a7","study_id":"60edd13110225f80f9f3709b","session_id":"6196c4a8e28ca26ab75a8961","condition":"contingent","relevant_dimensions":["wings","pattern"],"bee_group":{"antennae":"X","wings":"1","pattern":"D","legs":"X"},"bonus":1.320000000000001},{"rt":965.5,"stimulus":"bees-with-color/bee-A1DF.svg","response":1,"trial_type":"image-button-response","trial_index":117,"time_elapsed":325738,"internal_node_id":"0.0-4.0-0.55","subject_id":"5ee8b6dbac5fa1054ebd60a7","study_id":"60edd13110225f80f9f3709b","session_id":"6196c4a8e28ca26ab75a8961","condition":"contingent","relevant_dimensions":["wings","pattern"],"bee_group":{"antennae":"X","wings":"1","pattern":"D","legs":"X"},"action":"avoid","summary":"good-avoid","bonus":1.320000000000001},{"rt":892.8000000119209,"stimulus":"\n                    <p><b>Action: <em>avoid</em></b></p>\n                    <p>This is the bee that you just saw.</p>\n                    <img src=\"bees-with-color/bee-A1DF.svg\" width=\"200\">\n                    <p><br>Your bonus pay is unchanged, and remains at $0.96.</p>\n            ","response":0,"trial_type":"html-button-response","trial_index":118,"time_elapsed":326634,"internal_node_id":"0.0-4.0-1.55","subject_id":"5ee8b6dbac5fa1054ebd60a7","study_id":"60edd13110225f80f9f3709b","session_id":"6196c4a8e28ca26ab75a8961","condition":"contingent","relevant_dimensions":["wings","pattern"],"bee_group":{"antennae":"X","wings":"1","pattern":"D","legs":"X"},"bonus":1.320000000000001},{"rt":1557.5999999940395,"stimulus":"bees-with-color/bee-A2DF.svg","response":1,"trial_type":"image-button-response","trial_index":119,"time_elapsed":328194,"internal_node_id":"0.0-4.0-0.56","subject_id":"5ee8b6dbac5fa1054ebd60a7","study_id":"60edd13110225f80f9f3709b","session_id":"6196c4a8e28ca26ab75a8961","condition":"contingent","relevant_dimensions":["wings","pattern"],"bee_group":{"antennae":"X","wings":"1","pattern":"D","legs":"X"},"action":"avoid","summary":"bad-avoid","bonus":1.320000000000001},{"rt":1180.800000011921,"stimulus":"\n                    <p><b>Action: <em>avoid</em></b></p>\n                    <p>This is the bee that you just saw.</p>\n                    <img src=\"bees-with-color/bee-A2DF.svg\" width=\"200\">\n                    <p><br>Your bonus pay is unchanged, and remains at $0.96.</p>\n            ","response":0,"trial_type":"html-button-response","trial_index":120,"time_elapsed":329378,"internal_node_id":"0.0-4.0-1.56","subject_id":"5ee8b6dbac5fa1054ebd60a7","study_id":"60edd13110225f80f9f3709b","session_id":"6196c4a8e28ca26ab75a8961","condition":"contingent","relevant_dimensions":["wings","pattern"],"bee_group":{"antennae":"X","wings":"1","pattern":"D","legs":"X"},"bonus":1.320000000000001},{"rt":1270,"stimulus":"bees-with-color/bee-A2SF.svg","response":0,"trial_type":"image-button-response","trial_index":121,"time_elapsed":330650,"internal_node_id":"0.0-4.0-0.57","subject_id":"5ee8b6dbac5fa1054ebd60a7","study_id":"60edd13110225f80f9f3709b","session_id":"6196c4a8e28ca26ab75a8961","condition":"contingent","relevant_dimensions":["wings","pattern"],"bee_group":{"antennae":"X","wings":"1","pattern":"D","legs":"X"},"action":"harvest","summary":"good-harvest","bonus":1.320000000000001},{"rt":789.5999999940395,"stimulus":"\n                    <p><b>Action: <em>harvest</em></b></p>\n                    <p>This is the bee that you just saw.</p>\n                    <img src=\"bees-with-color/bee-A2SF.svg\" width=\"200\">\n                    <p><span class=\"greenText\"><b>Successful harvest!</b></span><br>Your pay has increased by $0.02. Your bonus pay is now $0.98.</p>\n            ","response":0,"trial_type":"html-button-response","trial_index":122,"time_elapsed":331443,"internal_node_id":"0.0-4.0-1.57","subject_id":"5ee8b6dbac5fa1054ebd60a7","study_id":"60edd13110225f80f9f3709b","session_id":"6196c4a8e28ca26ab75a8961","condition":"contingent","relevant_dimensions":["wings","pattern"],"bee_group":{"antennae":"X","wings":"1","pattern":"D","legs":"X"},"bonus":1.320000000000001},{"rt":916.4000000059605,"stimulus":"bees-with-color/bee-B2DF.svg","response":1,"trial_type":"image-button-response","trial_index":123,"time_elapsed":332362,"internal_node_id":"0.0-4.0-0.58","subject_id":"5ee8b6dbac5fa1054ebd60a7","study_id":"60edd13110225f80f9f3709b","session_id":"6196c4a8e28ca26ab75a8961","condition":"contingent","relevant_dimensions":["wings","pattern"],"bee_group":{"antennae":"X","wings":"1","pattern":"D","legs":"X"},"action":"avoid","summary":"bad-avoid","bonus":1.320000000000001},{"rt":533.5,"stimulus":"\n                    <p><b>Action: <em>avoid</em></b></p>\n                    <p>This is the bee that you just saw.</p>\n                    <img src=\"bees-with-color/bee-B2DF.svg\" width=\"200\">\n                    <p><br>Your bonus pay is unchanged, and remains at $0.98.</p>\n            ","response":0,"trial_type":"html-button-response","trial_index":124,"time_elapsed":332898,"internal_node_id":"0.0-4.0-1.58","subject_id":"5ee8b6dbac5fa1054ebd60a7","study_id":"60edd13110225f80f9f3709b","session_id":"6196c4a8e28ca26ab75a8961","condition":"contingent","relevant_dimensions":["wings","pattern"],"bee_group":{"antennae":"X","wings":"1","pattern":"D","legs":"X"},"bonus":1.320000000000001},{"rt":821.1000000238419,"stimulus":"bees-with-color/bee-B2DM.svg","response":1,"trial_type":"image-button-response","trial_index":125,"time_elapsed":333722,"internal_node_id":"0.0-4.0-0.59","subject_id":"5ee8b6dbac5fa1054ebd60a7","study_id":"60edd13110225f80f9f3709b","session_id":"6196c4a8e28ca26ab75a8961","condition":"contingent","relevant_dimensions":["wings","pattern"],"bee_group":{"antennae":"X","wings":"1","pattern":"D","legs":"X"},"action":"avoid","summary":"bad-avoid","bonus":1.320000000000001},{"rt":485.89999997615814,"stimulus":"\n                    <p><b>Action: <em>avoid</em></b></p>\n                    <p>This is the bee that you just saw.</p>\n                    <img src=\"bees-with-color/bee-B2DM.svg\" width=\"200\">\n                    <p><br>Your bonus pay is unchanged, and remains at $0.98.</p>\n            ","response":0,"trial_type":"html-button-response","trial_index":126,"time_elapsed":334210,"internal_node_id":"0.0-4.0-1.59","subject_id":"5ee8b6dbac5fa1054ebd60a7","study_id":"60edd13110225f80f9f3709b","session_id":"6196c4a8e28ca26ab75a8961","condition":"contingent","relevant_dimensions":["wings","pattern"],"bee_group":{"antennae":"X","wings":"1","pattern":"D","legs":"X"},"bonus":1.320000000000001},{"rt":581.5,"stimulus":"bees-with-color/bee-A1DM.svg","response":1,"trial_type":"image-button-response","trial_index":127,"time_elapsed":334794,"internal_node_id":"0.0-4.0-0.60","subject_id":"5ee8b6dbac5fa1054ebd60a7","study_id":"60edd13110225f80f9f3709b","session_id":"6196c4a8e28ca26ab75a8961","condition":"contingent","relevant_dimensions":["wings","pattern"],"bee_group":{"antennae":"X","wings":"1","pattern":"D","legs":"X"},"action":"avoid","summary":"good-avoid","bonus":1.320000000000001},{"rt":484.2000000178814,"stimulus":"\n                    <p><b>Action: <em>avoid</em></b></p>\n                    <p>This is the bee that you just saw.</p>\n                    <img src=\"bees-with-color/bee-A1DM.svg\" width=\"200\">\n                    <p><br>Your bonus pay is unchanged, and remains at $0.98.</p>\n            ","response":0,"trial_type":"html-button-response","trial_index":128,"time_elapsed":335282,"internal_node_id":"0.0-4.0-1.60","subject_id":"5ee8b6dbac5fa1054ebd60a7","study_id":"60edd13110225f80f9f3709b","session_id":"6196c4a8e28ca26ab75a8961","condition":"contingent","relevant_dimensions":["wings","pattern"],"bee_group":{"antennae":"X","wings":"1","pattern":"D","legs":"X"},"bonus":1.320000000000001},{"rt":661.4000000059605,"stimulus":"bees-with-color/bee-B1DF.svg","response":1,"trial_type":"image-button-response","trial_index":129,"time_elapsed":335946,"internal_node_id":"0.0-4.0-0.61","subject_id":"5ee8b6dbac5fa1054ebd60a7","study_id":"60edd13110225f80f9f3709b","session_id":"6196c4a8e28ca26ab75a8961","condition":"contingent","relevant_dimensions":["wings","pattern"],"bee_group":{"antennae":"X","wings":"1","pattern":"D","legs":"X"},"action":"avoid","summary":"good-avoid","bonus":1.320000000000001},{"rt":532.5,"stimulus":"\n                    <p><b>Action: <em>avoid</em></b></p>\n                    <p>This is the bee that you just saw.</p>\n                    <img src=\"bees-with-color/bee-B1DF.svg\" width=\"200\">\n                    <p><br>Your bonus pay is unchanged, and remains at $0.98.</p>\n            ","response":0,"trial_type":"html-button-response","trial_index":130,"time_elapsed":336482,"internal_node_id":"0.0-4.0-1.61","subject_id":"5ee8b6dbac5fa1054ebd60a7","study_id":"60edd13110225f80f9f3709b","session_id":"6196c4a8e28ca26ab75a8961","condition":"contingent","relevant_dimensions":["wings","pattern"],"bee_group":{"antennae":"X","wings":"1","pattern":"D","legs":"X"},"bonus":1.320000000000001},{"rt":717.5,"stimulus":"bees-with-color/bee-B1SF.svg","response":1,"trial_type":"image-button-response","trial_index":131,"time_elapsed":337202,"internal_node_id":"0.0-4.0-0.62","subject_id":"5ee8b6dbac5fa1054ebd60a7","study_id":"60edd13110225f80f9f3709b","session_id":"6196c4a8e28ca26ab75a8961","condition":"contingent","relevant_dimensions":["wings","pattern"],"bee_group":{"antennae":"X","wings":"1","pattern":"D","legs":"X"},"action":"avoid","summary":"bad-avoid","bonus":1.320000000000001},{"rt":1229,"stimulus":"\n                    <p><b>Action: <em>avoid</em></b></p>\n                    <p>This is the bee that you just saw.</p>\n                    <img src=\"bees-with-color/bee-B1SF.svg\" width=\"200\">\n                    <p><br>Your bonus pay is unchanged, and remains at $0.98.</p>\n            ","response":0,"trial_type":"html-button-response","trial_index":132,"time_elapsed":338434,"internal_node_id":"0.0-4.0-1.62","subject_id":"5ee8b6dbac5fa1054ebd60a7","study_id":"60edd13110225f80f9f3709b","session_id":"6196c4a8e28ca26ab75a8961","condition":"contingent","relevant_dimensions":["wings","pattern"],"bee_group":{"antennae":"X","wings":"1","pattern":"D","legs":"X"},"bonus":1.320000000000001},{"rt":884.9000000059605,"stimulus":"bees-with-color/bee-B2SF.svg","response":0,"trial_type":"image-button-response","trial_index":133,"time_elapsed":339322,"internal_node_id":"0.0-4.0-0.63","subject_id":"5ee8b6dbac5fa1054ebd60a7","study_id":"60edd13110225f80f9f3709b","session_id":"6196c4a8e28ca26ab75a8961","condition":"contingent","relevant_dimensions":["wings","pattern"],"bee_group":{"antennae":"X","wings":"1","pattern":"D","legs":"X"},"action":"harvest","summary":"good-harvest","bonus":1.320000000000001},{"rt":869.3000000119209,"stimulus":"\n                    <p><b>Action: <em>harvest</em></b></p>\n                    <p>This is the bee that you just saw.</p>\n                    <img src=\"bees-with-color/bee-B2SF.svg\" width=\"200\">\n                    <p><span class=\"greenText\"><b>Successful harvest!</b></span><br>Your pay has increased by $0.02. Your bonus pay is now $1.00.</p>\n            ","response":0,"trial_type":"html-button-response","trial_index":134,"time_elapsed":340194,"internal_node_id":"0.0-4.0-1.63","subject_id":"5ee8b6dbac5fa1054ebd60a7","study_id":"60edd13110225f80f9f3709b","session_id":"6196c4a8e28ca26ab75a8961","condition":"contingent","relevant_dimensions":["wings","pattern"],"bee_group":{"antennae":"X","wings":"1","pattern":"D","legs":"X"},"bonus":1.320000000000001},{"rt":3485.2000000178814,"stimulus":"You have completed the first part of this experiment.<br><br>You will now begin a shorter second part, in which you will receive no feedback.<br>The same rules regarding bonus pay apply.<br><br>Press any key to begin.","response":" ","trial_type":"html-keyboard-response","trial_index":135,"time_elapsed":343683,"internal_node_id":"0.0-5.0","subject_id":"5ee8b6dbac5fa1054ebd60a7","study_id":"60edd13110225f80f9f3709b","session_id":"6196c4a8e28ca26ab75a8961","condition":"contingent","relevant_dimensions":["wings","pattern"],"bee_group":{"antennae":"X","wings":"1","pattern":"D","legs":"X"},"bonus":1.320000000000001},{"rt":2154.4000000059605,"stimulus":"bees-with-color/bee-B2SF.svg","response":0,"trial_type":"image-button-response","trial_index":136,"time_elapsed":345851,"internal_node_id":"0.0-6.0-0.0","subject_id":"5ee8b6dbac5fa1054ebd60a7","study_id":"60edd13110225f80f9f3709b","session_id":"6196c4a8e28ca26ab75a8961","condition":"contingent","relevant_dimensions":["wings","pattern"],"bee_group":{"antennae":"X","wings":"1","pattern":"D","legs":"X"},"bonus":1.320000000000001},{"rt":1291.800000011921,"stimulus":"bees-with-color/bee-A2SF.svg","response":0,"trial_type":"image-button-response","trial_index":137,"time_elapsed":347146,"internal_node_id":"0.0-6.0-0.1","subject_id":"5ee8b6dbac5fa1054ebd60a7","study_id":"60edd13110225f80f9f3709b","session_id":"6196c4a8e28ca26ab75a8961","condition":"contingent","relevant_dimensions":["wings","pattern"],"bee_group":{"antennae":"X","wings":"1","pattern":"D","legs":"X"},"bonus":1.320000000000001},{"rt":861.5999999940395,"stimulus":"bees-with-color/bee-A2SM.svg","response":0,"trial_type":"image-button-response","trial_index":138,"time_elapsed":348010,"internal_node_id":"0.0-6.0-0.2","subject_id":"5ee8b6dbac5fa1054ebd60a7","study_id":"60edd13110225f80f9f3709b","session_id":"6196c4a8e28ca26ab75a8961","condition":"contingent","relevant_dimensions":["wings","pattern"],"bee_group":{"antennae":"X","wings":"1","pattern":"D","legs":"X"},"bonus":1.320000000000001},{"rt":965.5999999940395,"stimulus":"bees-with-color/bee-B1DF.svg","response":1,"trial_type":"image-button-response","trial_index":139,"time_elapsed":348978,"internal_node_id":"0.0-6.0-0.3","subject_id":"5ee8b6dbac5fa1054ebd60a7","study_id":"60edd13110225f80f9f3709b","session_id":"6196c4a8e28ca26ab75a8961","condition":"contingent","relevant_dimensions":["wings","pattern"],"bee_group":{"antennae":"X","wings":"1","pattern":"D","legs":"X"},"bonus":1.320000000000001},{"rt":1285.1000000238419,"stimulus":"bees-with-color/bee-B1SM.svg","response":0,"trial_type":"image-button-response","trial_index":140,"time_elapsed":350266,"internal_node_id":"0.0-6.0-0.4","subject_id":"5ee8b6dbac5fa1054ebd60a7","study_id":"60edd13110225f80f9f3709b","session_id":"6196c4a8e28ca26ab75a8961","condition":"contingent","relevant_dimensions":["wings","pattern"],"bee_group":{"antennae":"X","wings":"1","pattern":"D","legs":"X"},"bonus":1.320000000000001},{"rt":1181,"stimulus":"bees-with-color/bee-A1SF.svg","response":0,"trial_type":"image-button-response","trial_index":141,"time_elapsed":351450,"internal_node_id":"0.0-6.0-0.5","subject_id":"5ee8b6dbac5fa1054ebd60a7","study_id":"60edd13110225f80f9f3709b","session_id":"6196c4a8e28ca26ab75a8961","condition":"contingent","relevant_dimensions":["wings","pattern"],"bee_group":{"antennae":"X","wings":"1","pattern":"D","legs":"X"},"bonus":1.320000000000001},{"rt":1093,"stimulus":"bees-with-color/bee-A1DF.svg","response":1,"trial_type":"image-button-response","trial_index":142,"time_elapsed":352546,"internal_node_id":"0.0-6.0-0.6","subject_id":"5ee8b6dbac5fa1054ebd60a7","study_id":"60edd13110225f80f9f3709b","session_id":"6196c4a8e28ca26ab75a8961","condition":"contingent","relevant_dimensions":["wings","pattern"],"bee_group":{"antennae":"X","wings":"1","pattern":"D","legs":"X"},"bonus":1.320000000000001},{"rt":2995.300000011921,"stimulus":"bees-with-color/bee-A1SM.svg","response":0,"trial_type":"image-button-response","trial_index":143,"time_elapsed":355545,"internal_node_id":"0.0-6.0-0.7","subject_id":"5ee8b6dbac5fa1054ebd60a7","study_id":"60edd13110225f80f9f3709b","session_id":"6196c4a8e28ca26ab75a8961","condition":"contingent","relevant_dimensions":["wings","pattern"],"bee_group":{"antennae":"X","wings":"1","pattern":"D","legs":"X"},"bonus":1.320000000000001},{"rt":2669.2000000178814,"stimulus":"bees-with-color/bee-B2SM.svg","response":0,"trial_type":"image-button-response","trial_index":144,"time_elapsed":358218,"internal_node_id":"0.0-6.0-0.8","subject_id":"5ee8b6dbac5fa1054ebd60a7","study_id":"60edd13110225f80f9f3709b","session_id":"6196c4a8e28ca26ab75a8961","condition":"contingent","relevant_dimensions":["wings","pattern"],"bee_group":{"antennae":"X","wings":"1","pattern":"D","legs":"X"},"bonus":1.320000000000001},{"rt":1755.6000000238419,"stimulus":"bees-with-color/bee-A2DM.svg","response":1,"trial_type":"image-button-response","trial_index":145,"time_elapsed":359978,"internal_node_id":"0.0-6.0-0.9","subject_id":"5ee8b6dbac5fa1054ebd60a7","study_id":"60edd13110225f80f9f3709b","session_id":"6196c4a8e28ca26ab75a8961","condition":"contingent","relevant_dimensions":["wings","pattern"],"bee_group":{"antennae":"X","wings":"1","pattern":"D","legs":"X"},"bonus":1.320000000000001},{"rt":1140.300000011921,"stimulus":"bees-with-color/bee-A1DM.svg","response":1,"trial_type":"image-button-response","trial_index":146,"time_elapsed":361122,"internal_node_id":"0.0-6.0-0.10","subject_id":"5ee8b6dbac5fa1054ebd60a7","study_id":"60edd13110225f80f9f3709b","session_id":"6196c4a8e28ca26ab75a8961","condition":"contingent","relevant_dimensions":["wings","pattern"],"bee_group":{"antennae":"X","wings":"1","pattern":"D","legs":"X"},"bonus":1.320000000000001},{"rt":923.6999999880791,"stimulus":"bees-with-color/bee-B1SF.svg","response":0,"trial_type":"image-button-response","trial_index":147,"time_elapsed":362051,"internal_node_id":"0.0-6.0-0.11","subject_id":"5ee8b6dbac5fa1054ebd60a7","study_id":"60edd13110225f80f9f3709b","session_id":"6196c4a8e28ca26ab75a8961","condition":"contingent","relevant_dimensions":["wings","pattern"],"bee_group":{"antennae":"X","wings":"1","pattern":"D","legs":"X"},"bonus":1.320000000000001},{"rt":1707.5999999940395,"stimulus":"bees-with-color/bee-A2DF.svg","response":1,"trial_type":"image-button-response","trial_index":148,"time_elapsed":363762,"internal_node_id":"0.0-6.0-0.12","subject_id":"5ee8b6dbac5fa1054ebd60a7","study_id":"60edd13110225f80f9f3709b","session_id":"6196c4a8e28ca26ab75a8961","condition":"contingent","relevant_dimensions":["wings","pattern"],"bee_group":{"antennae":"X","wings":"1","pattern":"D","legs":"X"},"bonus":1.320000000000001},{"rt":892.4000000059605,"stimulus":"bees-with-color/bee-B1DM.svg","response":1,"trial_type":"image-button-response","trial_index":149,"time_elapsed":364658,"internal_node_id":"0.0-6.0-0.13","subject_id":"5ee8b6dbac5fa1054ebd60a7","study_id":"60edd13110225f80f9f3709b","session_id":"6196c4a8e28ca26ab75a8961","condition":"contingent","relevant_dimensions":["wings","pattern"],"bee_group":{"antennae":"X","wings":"1","pattern":"D","legs":"X"},"bonus":1.320000000000001},{"rt":1827.5,"stimulus":"bees-with-color/bee-B2DM.svg","response":1,"trial_type":"image-button-response","trial_index":150,"time_elapsed":366491,"internal_node_id":"0.0-6.0-0.14","subject_id":"5ee8b6dbac5fa1054ebd60a7","study_id":"60edd13110225f80f9f3709b","session_id":"6196c4a8e28ca26ab75a8961","condition":"contingent","relevant_dimensions":["wings","pattern"],"bee_group":{"antennae":"X","wings":"1","pattern":"D","legs":"X"},"bonus":1.320000000000001},{"rt":747.9000000059605,"stimulus":"bees-with-color/bee-B2DF.svg","response":1,"trial_type":"image-button-response","trial_index":151,"time_elapsed":367242,"internal_node_id":"0.0-6.0-0.15","subject_id":"5ee8b6dbac5fa1054ebd60a7","study_id":"60edd13110225f80f9f3709b","session_id":"6196c4a8e28ca26ab75a8961","condition":"contingent","relevant_dimensions":["wings","pattern"],"bee_group":{"antennae":"X","wings":"1","pattern":"D","legs":"X"},"bonus":1.320000000000001},{"rt":804.3000000119209,"stimulus":"bees-with-color/bee-B1DM.svg","response":1,"trial_type":"image-button-response","trial_index":152,"time_elapsed":368050,"internal_node_id":"0.0-6.0-0.16","subject_id":"5ee8b6dbac5fa1054ebd60a7","study_id":"60edd13110225f80f9f3709b","session_id":"6196c4a8e28ca26ab75a8961","condition":"contingent","relevant_dimensions":["wings","pattern"],"bee_group":{"antennae":"X","wings":"1","pattern":"D","legs":"X"},"bonus":1.320000000000001},{"rt":1380.5999999940395,"stimulus":"bees-with-color/bee-A1SM.svg","response":0,"trial_type":"image-button-response","trial_index":153,"time_elapsed":369434,"internal_node_id":"0.0-6.0-0.17","subject_id":"5ee8b6dbac5fa1054ebd60a7","study_id":"60edd13110225f80f9f3709b","session_id":"6196c4a8e28ca26ab75a8961","condition":"contingent","relevant_dimensions":["wings","pattern"],"bee_group":{"antennae":"X","wings":"1","pattern":"D","legs":"X"},"bonus":1.320000000000001},{"rt":629.1000000238419,"stimulus":"bees-with-color/bee-A1SF.svg","response":0,"trial_type":"image-button-response","trial_index":154,"time_elapsed":370066,"internal_node_id":"0.0-6.0-0.18","subject_id":"5ee8b6dbac5fa1054ebd60a7","study_id":"60edd13110225f80f9f3709b","session_id":"6196c4a8e28ca26ab75a8961","condition":"contingent","relevant_dimensions":["wings","pattern"],"bee_group":{"antennae":"X","wings":"1","pattern":"D","legs":"X"},"bonus":1.320000000000001},{"rt":629.5,"stimulus":"bees-with-color/bee-B1SF.svg","response":0,"trial_type":"image-button-response","trial_index":155,"time_elapsed":370698,"internal_node_id":"0.0-6.0-0.19","subject_id":"5ee8b6dbac5fa1054ebd60a7","study_id":"60edd13110225f80f9f3709b","session_id":"6196c4a8e28ca26ab75a8961","condition":"contingent","relevant_dimensions":["wings","pattern"],"bee_group":{"antennae":"X","wings":"1","pattern":"D","legs":"X"},"bonus":1.320000000000001},{"rt":1029.0999999940395,"stimulus":"bees-with-color/bee-B2DF.svg","response":1,"trial_type":"image-button-response","trial_index":156,"time_elapsed":371731,"internal_node_id":"0.0-6.0-0.20","subject_id":"5ee8b6dbac5fa1054ebd60a7","study_id":"60edd13110225f80f9f3709b","session_id":"6196c4a8e28ca26ab75a8961","condition":"contingent","relevant_dimensions":["wings","pattern"],"bee_group":{"antennae":"X","wings":"1","pattern":"D","legs":"X"},"bonus":1.320000000000001},{"rt":987.6999999880791,"stimulus":"bees-with-color/bee-A1DM.svg","response":1,"trial_type":"image-button-response","trial_index":157,"time_elapsed":372722,"internal_node_id":"0.0-6.0-0.21","subject_id":"5ee8b6dbac5fa1054ebd60a7","study_id":"60edd13110225f80f9f3709b","session_id":"6196c4a8e28ca26ab75a8961","condition":"contingent","relevant_dimensions":["wings","pattern"],"bee_group":{"antennae":"X","wings":"1","pattern":"D","legs":"X"},"bonus":1.320000000000001},{"rt":995.8000000119209,"stimulus":"bees-with-color/bee-A2SM.svg","response":0,"trial_type":"image-button-response","trial_index":158,"time_elapsed":373722,"internal_node_id":"0.0-6.0-0.22","subject_id":"5ee8b6dbac5fa1054ebd60a7","study_id":"60edd13110225f80f9f3709b","session_id":"6196c4a8e28ca26ab75a8961","condition":"contingent","relevant_dimensions":["wings","pattern"],"bee_group":{"antennae":"X","wings":"1","pattern":"D","legs":"X"},"bonus":1.320000000000001},{"rt":971.5,"stimulus":"bees-with-color/bee-B2SM.svg","response":0,"trial_type":"image-button-response","trial_index":159,"time_elapsed":374698,"internal_node_id":"0.0-6.0-0.23","subject_id":"5ee8b6dbac5fa1054ebd60a7","study_id":"60edd13110225f80f9f3709b","session_id":"6196c4a8e28ca26ab75a8961","condition":"contingent","relevant_dimensions":["wings","pattern"],"bee_group":{"antennae":"X","wings":"1","pattern":"D","legs":"X"},"bonus":1.320000000000001},{"rt":956.7999999821186,"stimulus":"bees-with-color/bee-B2DM.svg","response":1,"trial_type":"image-button-response","trial_index":160,"time_elapsed":375658,"internal_node_id":"0.0-6.0-0.24","subject_id":"5ee8b6dbac5fa1054ebd60a7","study_id":"60edd13110225f80f9f3709b","session_id":"6196c4a8e28ca26ab75a8961","condition":"contingent","relevant_dimensions":["wings","pattern"],"bee_group":{"antennae":"X","wings":"1","pattern":"D","legs":"X"},"bonus":1.320000000000001},{"rt":972.0999999940395,"stimulus":"bees-with-color/bee-A2DF.svg","response":1,"trial_type":"image-button-response","trial_index":161,"time_elapsed":376634,"internal_node_id":"0.0-6.0-0.25","subject_id":"5ee8b6dbac5fa1054ebd60a7","study_id":"60edd13110225f80f9f3709b","session_id":"6196c4a8e28ca26ab75a8961","condition":"contingent","relevant_dimensions":["wings","pattern"],"bee_group":{"antennae":"X","wings":"1","pattern":"D","legs":"X"},"bonus":1.320000000000001},{"rt":492.2000000178814,"stimulus":"bees-with-color/bee-B1DF.svg","response":1,"trial_type":"image-button-response","trial_index":162,"time_elapsed":377130,"internal_node_id":"0.0-6.0-0.26","subject_id":"5ee8b6dbac5fa1054ebd60a7","study_id":"60edd13110225f80f9f3709b","session_id":"6196c4a8e28ca26ab75a8961","condition":"contingent","relevant_dimensions":["wings","pattern"],"bee_group":{"antennae":"X","wings":"1","pattern":"D","legs":"X"},"bonus":1.320000000000001},{"rt":493.2000000178814,"stimulus":"bees-with-color/bee-A1DF.svg","response":1,"trial_type":"image-button-response","trial_index":163,"time_elapsed":377627,"internal_node_id":"0.0-6.0-0.27","subject_id":"5ee8b6dbac5fa1054ebd60a7","study_id":"60edd13110225f80f9f3709b","session_id":"6196c4a8e28ca26ab75a8961","condition":"contingent","relevant_dimensions":["wings","pattern"],"bee_group":{"antennae":"X","wings":"1","pattern":"D","legs":"X"},"bonus":1.320000000000001},{"rt":523.0999999940395,"stimulus":"bees-with-color/bee-A2DM.svg","response":1,"trial_type":"image-button-response","trial_index":164,"time_elapsed":378154,"internal_node_id":"0.0-6.0-0.28","subject_id":"5ee8b6dbac5fa1054ebd60a7