[{"success":true,"trial_type":"fullscreen","trial_index":0,"time_elapsed":4659,"internal_node_id":"0.0-0.0","subject_id":"615ad782b354ec5d3cb3c7ae","study_id":"60edd13110225f80f9f3709b","session_id":"6196bb797f1fca18cd70c8a9","condition":"full-information","relevant_dimensions":["pattern","legs"],"bee_group":{"antennae":"X","wings":"X","pattern":"D","legs":"F"},"bonus":1.200000000000001},{"success":true,"timeout":false,"failed_images":[],"failed_audio":[],"failed_video":[],"trial_type":"preload","trial_index":1,"time_elapsed":8526,"internal_node_id":"0.0-1.0","subject_id":"615ad782b354ec5d3cb3c7ae","study_id":"60edd13110225f80f9f3709b","session_id":"6196bb797f1fca18cd70c8a9","condition":"full-information","relevant_dimensions":["pattern","legs"],"bee_group":{"antennae":"X","wings":"X","pattern":"D","legs":"F"},"bonus":1.200000000000001},{"rt":1762.0999999999767,"stimulus":"Welcome! Press any key to begin.","response":" ","trial_type":"html-keyboard-response","trial_index":2,"time_elapsed":10291,"internal_node_id":"0.0-2.0","subject_id":"615ad782b354ec5d3cb3c7ae","study_id":"60edd13110225f80f9f3709b","session_id":"6196bb797f1fca18cd70c8a9","condition":"full-information","relevant_dimensions":["pattern","legs"],"bee_group":{"antennae":"X","wings":"X","pattern":"D","legs":"F"},"bonus":1.200000000000001},{"view_history":[{"page_index":0,"viewing_time":11062.299999999988},{"page_index":1,"viewing_time":28578.599999999977},{"page_index":2,"viewing_time":21312.20000000001},{"page_index":3,"viewing_time":24708.400000000023},{"page_index":4,"viewing_time":11594.099999999977},{"page_index":5,"viewing_time":14942.299999999988},{"page_index":6,"viewing_time":14106.299999999988},{"page_index":7,"viewing_time":14387.200000000012},{"page_index":8,"viewing_time":7228.400000000023},{"page_index":9,"viewing_time":7409.599999999977},{"page_index":10,"viewing_time":5448.799999999988},{"page_index":11,"viewing_time":12977.900000000023},{"page_index":10,"viewing_time":1960.3000000000466},{"page_index":9,"viewing_time":1055.1999999999534},{"page_index":8,"viewing_time":744.0999999999767},{"page_index":7,"viewing_time":643.0999999999767},{"page_index":6,"viewing_time":8303.400000000023},{"page_index":7,"viewing_time":2221.5},{"page_index":6,"viewing_time":17912.20000000007},{"page_index":7,"viewing_time":11076.599999999977},{"page_index":8,"viewing_time":10813.900000000023},{"page_index":9,"viewing_time":5045.29999999993},{"page_index":10,"viewing_time":7256.099999999977},{"page_index":11,"viewing_time":4180.900000000023},{"page_index":12,"viewing_time":15637.599999999977},{"page_index":13,"viewing_time":2914.4000000000233},{"page_index":14,"viewing_time":4029.5999999999767}],"rt":267574.5,"trial_type":"instructions","trial_index":3,"time_elapsed":277871,"internal_node_id":"0.0-3.0-0.0","subject_id":"615ad782b354ec5d3cb3c7ae","study_id":"60edd13110225f80f9f3709b","session_id":"6196bb797f1fca18cd70c8a9","condition":"full-information","relevant_dimensions":["pattern","legs"],"bee_group":{"antennae":"X","wings":"X","pattern":"D","legs":"F"},"bonus":1.200000000000001},{"rt":30279.099999999977,"response":{"Q0":["Two or six legs","Stripes or spots on body","Single or double wings","Antennae or no antennae"]},"question_order":[0],"trial_type":"survey-multi-select","trial_index":4,"time_elapsed":308151,"internal_node_id":"0.0-3.0-1.0","subject_id":"615ad782b354ec5d3cb3c7ae","study_id":"60edd13110225f80f9f3709b","session_id":"6196bb797f1fca18cd70c8a9","condition":"full-information","relevant_dimensions":["pattern","legs"],"bee_group":{"antennae":"X","wings":"X","pattern":"D","legs":"F"},"correct":true,"bonus":1.200000000000001},{"rt":67518.69999999995,"response":{"Q1":"No.","Q2":"Based on the four features of the bee.","Q3":"You learn if it was friendly or dangerous, but do not alter your bonus."},"question_order":[0,1,2],"trial_type":"survey-multi-choice","trial_index":5,"time_elapsed":375679,"internal_node_id":"0.0-3.0-2.0","subject_id":"615ad782b354ec5d3cb3c7ae","study_id":"60edd13110225f80f9f3709b","session_id":"6196bb797f1fca18cd70c8a9","condition":"full-information","relevant_dimensions":["pattern","legs"],"bee_group":{"antennae":"X","wings":"X","pattern":"D","legs":"F"},"correct":true,"bonus":1.200000000000001},{"rt":4749.300000000047,"stimulus":"<p>Congrats, you got everything right<br>When you're ready, click the button below to continue to the experiment.</p>","response":0,"trial_type":"html-button-response","trial_index":6,"time_elapsed":380432,"internal_node_id":"0.0-3.0-3.0","subject_id":"615ad782b354ec5d3cb3c7ae","study_id":"60edd13110225f80f9f3709b","session_id":"6196bb797f1fca18cd70c8a9","condition":"full-information","relevant_dimensions":["pattern","legs"],"bee_group":{"antennae":"X","wings":"X","pattern":"D","legs":"F"},"bonus":1.200000000000001},{"rt":19209.5,"stimulus":"bees-with-color/bee-B1DM.svg","response":0,"trial_type":"image-button-response","trial_index":7,"time_elapsed":399644,"internal_node_id":"0.0-4.0-0.0","subject_id":"615ad782b354ec5d3cb3c7ae","study_id":"60edd13110225f80f9f3709b","session_id":"6196bb797f1fca18cd70c8a9","condition":"full-information","relevant_dimensions":["pattern","legs"],"bee_group":{"antennae":"X","wings":"X","pattern":"D","legs":"F"},"action":"harvest","summary":"good-harvest","bonus":1.200000000000001},{"rt":5724.5,"stimulus":"\n                    <p><b>Action: <em>harvest</em></b></p>\n                    <p>This is the bee that you just saw.</p>\n                    <img src=\"bees-with-color/bee-B1DM.svg\" width=\"200\">\n                    <p><span class=\"greenText\"><b>Successful harvest!</b></span><br>Your pay has increased by $0.02. Your bonus pay is now $0.56.</p>\n            ","response":0,"trial_type":"html-button-response","trial_index":8,"time_elapsed":405381,"internal_node_id":"0.0-4.0-1.0","subject_id":"615ad782b354ec5d3cb3c7ae","study_id":"60edd13110225f80f9f3709b","session_id":"6196bb797f1fca18cd70c8a9","condition":"full-information","relevant_dimensions":["pattern","legs"],"bee_group":{"antennae":"X","wings":"X","pattern":"D","legs":"F"},"bonus":1.200000000000001},{"rt":33716.90000000002,"stimulus":"bees-with-color/bee-B1SM.svg","response":1,"trial_type":"image-button-response","trial_index":9,"time_elapsed":439101,"internal_node_id":"0.0-4.0-0.1","subject_id":"615ad782b354ec5d3cb3c7ae","study_id":"60edd13110225f80f9f3709b","session_id":"6196bb797f1fca18cd70c8a9","condition":"full-information","relevant_dimensions":["pattern","legs"],"bee_group":{"antennae":"X","wings":"X","pattern":"D","legs":"F"},"action":"avoid","summary":"bad-avoid","bonus":1.200000000000001},{"rt":10690.800000000047,"stimulus":"\n                    <p><b>Action: <em>avoid</em></b></p>\n                    <p>This is the bee that you just saw.</p>\n                    <img src=\"bees-with-color/bee-B1SM.svg\" width=\"200\">\n                    <p><span class=\"redText\">Bad choice,</span> the bee was friendly.<br>Your bonus pay is unchanged, and remains at $0.56.</p>\n            ","response":0,"trial_type":"html-button-response","trial_index":10,"time_elapsed":449815,"internal_node_id":"0.0-4.0-1.1","subject_id":"615ad782b354ec5d3cb3c7ae","study_id":"60edd13110225f80f9f3709b","session_id":"6196bb797f1fca18cd70c8a9","condition":"full-information","relevant_dimensions":["pattern","legs"],"bee_group":{"antennae":"X","wings":"X","pattern":"D","legs":"F"},"bonus":1.200000000000001},{"rt":3665.20000000007,"stimulus":"bees-with-color/bee-B2SM.svg","response":1,"trial_type":"image-button-response","trial_index":11,"time_elapsed":453484,"internal_node_id":"0.0-4.0-0.2","subject_id":"615ad782b354ec5d3cb3c7ae","study_id":"60edd13110225f80f9f3709b","session_id":"6196bb797f1fca18cd70c8a9","condition":"full-information","relevant_dimensions":["pattern","legs"],"bee_group":{"antennae":"X","wings":"X","pattern":"D","legs":"F"},"action":"avoid","summary":"bad-avoid","bonus":1.200000000000001},{"rt":16763.599999999977,"stimulus":"\n                    <p><b>Action: <em>avoid</em></b></p>\n                    <p>This is the bee that you just saw.</p>\n                    <img src=\"bees-with-color/bee-B2SM.svg\" width=\"200\">\n                    <p><span class=\"redText\">Bad choice,</span> the bee was friendly.<br>Your bonus pay is unchanged, and remains at $0.56.</p>\n            ","response":0,"trial_type":"html-button-response","trial_index":12,"time_elapsed":470250,"internal_node_id":"0.0-4.0-1.2","subject_id":"615ad782b354ec5d3cb3c7ae","study_id":"60edd13110225f80f9f3709b","session_id":"6196bb797f1fca18cd70c8a9","condition":"full-information","relevant_dimensions":["pattern","legs"],"bee_group":{"antennae":"X","wings":"X","pattern":"D","legs":"F"},"bonus":1.200000000000001},{"rt":7785.20000000007,"stimulus":"bees-with-color/bee-A2SF.svg","response":1,"trial_type":"image-button-response","trial_index":13,"time_elapsed":478038,"internal_node_id":"0.0-4.0-0.3","subject_id":"615ad782b354ec5d3cb3c7ae","study_id":"60edd13110225f80f9f3709b","session_id":"6196bb797f1fca18cd70c8a9","condition":"full-information","relevant_dimensions":["pattern","legs"],"bee_group":{"antennae":"X","wings":"X","pattern":"D","legs":"F"},"action":"avoid","summary":"bad-avoid","bonus":1.200000000000001},{"rt":7975.79999999993,"stimulus":"\n                    <p><b>Action: <em>avoid</em></b></p>\n                    <p>This is the bee that you just saw.</p>\n                    <img src=\"bees-with-color/bee-A2SF.svg\" width=\"200\">\n                    <p><span class=\"redText\">Bad choice,</span> the bee was friendly.<br>Your bonus pay is unchanged, and remains at $0.56.</p>\n            ","response":0,"trial_type":"html-button-response","trial_index":14,"time_elapsed":486016,"internal_node_id":"0.0-4.0-1.3","subject_id":"615ad782b354ec5d3cb3c7ae","study_id":"60edd13110225f80f9f3709b","session_id":"6196bb797f1fca18cd70c8a9","condition":"full-information","relevant_dimensions":["pattern","legs"],"bee_group":{"antennae":"X","wings":"X","pattern":"D","legs":"F"},"bonus":1.200000000000001},{"rt":10718.199999999953,"stimulus":"bees-with-color/bee-A1SF.svg","response":1,"trial_type":"image-button-response","trial_index":15,"time_elapsed":496737,"internal_node_id":"0.0-4.0-0.4","subject_id":"615ad782b354ec5d3cb3c7ae","study_id":"60edd13110225f80f9f3709b","session_id":"6196bb797f1fca18cd70c8a9","condition":"full-information","relevant_dimensions":["pattern","legs"],"bee_group":{"antennae":"X","wings":"X","pattern":"D","legs":"F"},"action":"avoid","summary":"bad-avoid","bonus":1.200000000000001},{"rt":3353.5999999999767,"stimulus":"\n                    <p><b>Action: <em>avoid</em></b></p>\n                    <p>This is the bee that you just saw.</p>\n                    <img src=\"bees-with-color/bee-A1SF.svg\" width=\"200\">\n                    <p><span class=\"redText\">Bad choice,</span> the bee was friendly.<br>Your bonus pay is unchanged, and remains at $0.56.</p>\n            ","response":0,"trial_type":"html-button-response","trial_index":16,"time_elapsed":500093,"internal_node_id":"0.0-4.0-1.4","subject_id":"615ad782b354ec5d3cb3c7ae","study_id":"60edd13110225f80f9f3709b","session_id":"6196bb797f1fca18cd70c8a9","condition":"full-information","relevant_dimensions":["pattern","legs"],"bee_group":{"antennae":"X","wings":"X","pattern":"D","legs":"F"},"bonus":1.200000000000001},{"rt":14415.70000000007,"stimulus":"bees-with-color/bee-A2DF.svg","response":1,"trial_type":"image-button-response","trial_index":17,"time_elapsed":514512,"internal_node_id":"0.0-4.0-0.5","subject_id":"615ad782b354ec5d3cb3c7ae","study_id":"60edd13110225f80f9f3709b","session_id":"6196bb797f1fca18cd70c8a9","condition":"full-information","relevant_dimensions":["pattern","legs"],"bee_group":{"antennae":"X","wings":"X","pattern":"D","legs":"F"},"action":"avoid","summary":"good-avoid","bonus":1.200000000000001},{"rt":2529.79999999993,"stimulus":"\n                    <p><b>Action: <em>avoid</em></b></p>\n                    <p>This is the bee that you just saw.</p>\n                    <img src=\"bees-with-color/bee-A2DF.svg\" width=\"200\">\n                    <p><span class=\"greenText\">Good choice!</span>  This bee would have stung you.<br>Your bonus pay is unchanged, and remains at $0.56.</p>\n            ","response":0,"trial_type":"html-button-response","trial_index":18,"time_elapsed":517043,"internal_node_id":"0.0-4.0-1.5","subject_id":"615ad782b354ec5d3cb3c7ae","study_id":"60edd13110225f80f9f3709b","session_id":"6196bb797f1fca18cd70c8a9","condition":"full-information","relevant_dimensions":["pattern","legs"],"bee_group":{"antennae":"X","wings":"X","pattern":"D","legs":"F"},"bonus":1.200000000000001},{"rt":13722.20000000007,"stimulus":"bees-with-color/bee-B1DF.svg","response":0,"trial_type":"image-button-response","trial_index":19,"time_elapsed":530768,"internal_node_id":"0.0-4.0-0.6","subject_id":"615ad782b354ec5d3cb3c7ae","study_id":"60edd13110225f80f9f3709b","session_id":"6196bb797f1fca18cd70c8a9","condition":"full-information","relevant_dimensions":["pattern","legs"],"bee_group":{"antennae":"X","wings":"X","pattern":"D","legs":"F"},"action":"harvest","summary":"bad-harvest","bonus":1.200000000000001},{"rt":2569.9000000000233,"stimulus":"\n                    <p><b>Action: <em>harvest</em></b></p>\n                    <p>This is the bee that you just saw.</p>\n                    <img src=\"bees-with-color/bee-B1DF.svg\" width=\"200\">\n                    <p><span class=\"redText\">Bad choice, the bee was angry.</span><br><b>You have been stung!</b><br>Your pay has been decreased by $0.10. Your bonus pay is now $0.46.</p>\n            ","response":0,"trial_type":"html-button-response","trial_index":20,"time_elapsed":533340,"internal_node_id":"0.0-4.0-1.6","subject_id":"615ad782b354ec5d3cb3c7ae","study_id":"60edd13110225f80f9f3709b","session_id":"6196bb797f1fca18cd70c8a9","condition":"full-information","relevant_dimensions":["pattern","legs"],"bee_group":{"antennae":"X","wings":"X","pattern":"D","legs":"F"},"bonus":1.200000000000001},{"rt":16756,"stimulus":"bees-with-color/bee-A2DM.svg","response":0,"trial_type":"image-button-response","trial_index":21,"time_elapsed":550099,"internal_node_id":"0.0-4.0-0.7","subject_id":"615ad782b354ec5d3cb3c7ae","study_id":"60edd13110225f80f9f3709b","session_id":"6196bb797f1fca18cd70c8a9","condition":"full-information","relevant_dimensions":["pattern","legs"],"bee_group":{"antennae":"X","wings":"X","pattern":"D","legs":"F"},"action":"harvest","summary":"good-harvest","bonus":1.200000000000001},{"rt":5493.5,"stimulus":"\n                    <p><b>Action: <em>harvest</em></b></p>\n                    <p>This is the bee that you just saw.</p>\n                    <img src=\"bees-with-color/bee-A2DM.svg\" width=\"200\">\n                    <p><span class=\"greenText\"><b>Successful harvest!</b></span><br>Your pay has increased by $0.02. Your bonus pay is now $0.48.</p>\n            ","response":0,"trial_type":"html-button-response","trial_index":22,"time_elapsed":555595,"internal_node_id":"0.0-4.0-1.7","subject_id":"615ad782b354ec5d3cb3c7ae","study_id":"60edd13110225f80f9f3709b","session_id":"6196bb797f1fca18cd70c8a9","condition":"full-information","relevant_dimensions":["pattern","legs"],"bee_group":{"antennae":"X","wings":"X","pattern":"D","legs":"F"},"bonus":1.200000000000001},{"rt":38927.70000000007,"stimulus":"bees-with-color/bee-B2DF.svg","response":0,"trial_type":"image-button-response","trial_index":23,"time_elapsed":594527,"internal_node_id":"0.0-4.0-0.8","subject_id":"615ad782b354ec5d3cb3c7ae","study_id":"60edd13110225f80f9f3709b","session_id":"6196bb797f1fca18cd70c8a9","condition":"full-information","relevant_dimensions":["pattern","legs"],"bee_group":{"antennae":"X","wings":"X","pattern":"D","legs":"F"},"action":"harvest","summary":"bad-harvest","bonus":1.200000000000001},{"rt":9793.599999999977,"stimulus":"\n                    <p><b>Action: <em>harvest</em></b></p>\n                    <p>This is the bee that you just saw.</p>\n                    <img src=\"bees-with-color/bee-B2DF.svg\" width=\"200\">\n                    <p><span class=\"redText\">Bad choice, the bee was angry.</span><br><b>You have been stung!</b><br>Your pay has been decreased by $0.10. Your bonus pay is now $0.38.</p>\n            ","response":0,"trial_type":"html-button-response","trial_index":24,"time_elapsed":604323,"internal_node_id":"0.0-4.0-1.8","subject_id":"615ad782b354ec5d3cb3c7ae","study_id":"60edd13110225f80f9f3709b","session_id":"6196bb797f1fca18cd70c8a9","condition":"full-information","relevant_dimensions":["pattern","legs"],"bee_group":{"antennae":"X","wings":"X","pattern":"D","legs":"F"},"bonus":1.200000000000001},{"rt":4146.70000000007,"stimulus":"bees-with-color/bee-A1DF.svg","response":0,"trial_type":"image-button-response","trial_index":25,"time_elapsed":608473,"internal_node_id":"0.0-4.0-0.9","subject_id":"615ad782b354ec5d3cb3c7ae","study_id":"60edd13110225f80f9f3709b","session_id":"6196bb797f1fca18cd70c8a9","condition":"full-information","relevant_dimensions":["pattern","legs"],"bee_group":{"antennae":"X","wings":"X","pattern":"D","legs":"F"},"action":"harvest","summary":"bad-harvest","bonus":1.200000000000001},{"rt":5914.300000000047,"stimulus":"\n                    <p><b>Action: <em>harvest</em></b></p>\n                    <p>This is the bee that you just saw.</p>\n                    <img src=\"bees-with-color/bee-A1DF.svg\" width=\"200\">\n                    <p><span class=\"redText\">Bad choice, the bee was angry.</span><br><b>You have been stung!</b><br>Your pay has been decreased by $0.10. Your bonus pay is now $0.28.</p>\n            ","response":0,"trial_type":"html-button-response","trial_index":26,"time_elapsed":614390,"internal_node_id":"0.0-4.0-1.9","subject_id":"615ad782b354ec5d3cb3c7ae","study_id":"60edd13110225f80f9f3709b","session_id":"6196bb797f1fca18cd70c8a9","condition":"full-information","relevant_dimensions":["pattern","legs"],"bee_group":{"antennae":"X","wings":"X","pattern":"D","legs":"F"},"bonus":1.200000000000001},{"rt":6135.5,"stimulus":"bees-with-color/bee-A2SM.svg","response":1,"trial_type":"image-button-response","trial_index":27,"time_elapsed":620529,"internal_node_id":"0.0-4.0-0.10","subject_id":"615ad782b354ec5d3cb3c7ae","study_id":"60edd13110225f80f9f3709b","session_id":"6196bb797f1fca18cd70c8a9","condition":"full-information","relevant_dimensions":["pattern","legs"],"bee_group":{"antennae":"X","wings":"X","pattern":"D","legs":"F"},"action":"avoid","summary":"bad-avoid","bonus":1.200000000000001},{"rt":5422.79999999993,"stimulus":"\n                    <p><b>Action: <em>avoid</em></b></p>\n                    <p>This is the bee that you just saw.</p>\n                    <img src=\"bees-with-color/bee-A2SM.svg\" width=\"200\">\n                    <p><span class=\"redText\">Bad choice,</span> the bee was friendly.<br>Your bonus pay is unchanged, and remains at $0.28.</p>\n            ","response":0,"trial_type":"html-button-response","trial_index":28,"time_elapsed":625954,"internal_node_id":"0.0-4.0-1.10","subject_id":"615ad782b354ec5d3cb3c7ae","study_id":"60edd13110225f80f9f3709b","session_id":"6196bb797f1fca18cd70c8a9","condition":"full-information","relevant_dimensions":["pattern","legs"],"bee_group":{"antennae":"X","wings":"X","pattern":"D","legs":"F"},"bonus":1.200000000000001},{"rt":2890.3000000000466,"stimulus":"bees-with-color/bee-A1DM.svg","response":0,"trial_type":"image-button-response","trial_index":29,"time_elapsed":628847,"internal_node_id":"0.0-4.0-0.11","subject_id":"615ad782b354ec5d3cb3c7ae","study_id":"60edd13110225f80f9f3709b","session_id":"6196bb797f1fca18cd70c8a9","condition":"full-information","relevant_dimensions":["pattern","legs"],"bee_group":{"antennae":"X","wings":"X","pattern":"D","legs":"F"},"action":"harvest","summary":"good-harvest","bonus":1.200000000000001},{"rt":5462.5,"stimulus":"\n                    <p><b>Action: <em>harvest</em></b></p>\n                    <p>This is the bee that you just saw.</p>\n                    <img src=\"bees-with-color/bee-A1DM.svg\" width=\"200\">\n                    <p><span class=\"greenText\"><b>Successful harvest!</b></span><br>Your pay has increased by $0.02. Your bonus pay is now $0.30.</p>\n            ","response":0,"trial_type":"html-button-response","trial_index":30,"time_elapsed":634312,"internal_node_id":"0.0-4.0-1.11","subject_id":"615ad782b354ec5d3cb3c7ae","study_id":"60edd13110225f80f9f3709b","session_id":"6196bb797f1fca18cd70c8a9","condition":"full-information","relevant_dimensions":["pattern","legs"],"bee_group":{"antennae":"X","wings":"X","pattern":"D","legs":"F"},"bonus":1.200000000000001},{"rt":33856.69999999995,"stimulus":"bees-with-color/bee-B2DM.svg","response":0,"trial_type":"image-button-response","trial_index":31,"time_elapsed":668171,"internal_node_id":"0.0-4.0-0.12","subject_id":"615ad782b354ec5d3cb3c7ae","study_id":"60edd13110225f80f9f3709b","session_id":"6196bb797f1fca18cd70c8a9","condition":"full-information","relevant_dimensions":["pattern","legs"],"bee_group":{"antennae":"X","wings":"X","pattern":"D","legs":"F"},"action":"harvest","summary":"good-harvest","bonus":1.200000000000001},{"rt":6597.70000000007,"stimulus":"\n                    <p><b>Action: <em>harvest</em></b></p>\n                    <p>This is the bee that you just saw.</p>\n                    <img src=\"bees-with-color/bee-B2DM.svg\" width=\"200\">\n                    <p><span class=\"greenText\"><b>Successful harvest!</b></span><br>Your pay has increased by $0.02. Your bonus pay is now $0.32.</p>\n            ","response":0,"trial_type":"html-button-response","trial_index":32,"time_elapsed":674772,"internal_node_id":"0.0-4.0-1.12","subject_id":"615ad782b354ec5d3cb3c7ae","study_id":"60edd13110225f80f9f3709b","session_id":"6196bb797f1fca18cd70c8a9","condition":"full-information","relevant_dimensions":["pattern","legs"],"bee_group":{"antennae":"X","wings":"X","pattern":"D","legs":"F"},"bonus":1.200000000000001},{"rt":30321.099999999977,"stimulus":"bees-with-color/bee-A1SM.svg","response":1,"trial_type":"image-button-response","trial_index":33,"time_elapsed":705096,"internal_node_id":"0.0-4.0-0.13","subject_id":"615ad782b354ec5d3cb3c7ae","study_id":"60edd13110225f80f9f3709b","session_id":"6196bb797f1fca18cd70c8a9","condition":"full-information","relevant_dimensions":["pattern","legs"],"bee_group":{"antennae":"X","wings":"X","pattern":"D","legs":"F"},"action":"avoid","summary":"bad-avoid","bonus":1.200000000000001},{"rt":18197.5,"stimulus":"\n                    <p><b>Action: <em>avoid</em></b></p>\n                    <p>This is the bee that you just saw.</p>\n                    <img src=\"bees-with-color/bee-A1SM.svg\" width=\"200\">\n                    <p><span class=\"redText\">Bad choice,</span> the bee was friendly.<br>Your bonus pay is unchanged, and remains at $0.32.</p>\n            ","response":0,"trial_type":"html-button-response","trial_index":34,"time_elapsed":723296,"internal_node_id":"0.0-4.0-1.13","subject_id":"615ad782b354ec5d3cb3c7ae","study_id":"60edd13110225f80f9f3709b","session_id":"6196bb797f1fca18cd70c8a9","condition":"full-information","relevant_dimensions":["pattern","legs"],"bee_group":{"antennae":"X","wings":"X","pattern":"D","legs":"F"},"bonus":1.200000000000001},{"rt":28349.90000000014,"stimulus":"bees-with-color/bee-B1SF.svg","response":0,"trial_type":"image-button-response","trial_index":35,"time_elapsed":751649,"internal_node_id":"0.0-4.0-0.14","subject_id":"615ad782b354ec5d3cb3c7ae","study_id":"60edd13110225f80f9f3709b","session_id":"6196bb797f1fca18cd70c8a9","condition":"full-information","relevant_dimensions":["pattern","legs"],"bee_group":{"antennae":"X","wings":"X","pattern":"D","legs":"F"},"action":"harvest","summary":"good-harvest","bonus":1.200000000000001},{"rt":6217.800000000047,"stimulus":"\n                    <p><b>Action: <em>harvest</em></b></p>\n                    <p>This is the bee that you just saw.</p>\n                    <img src=\"bees-with-color/bee-B1SF.svg\" width=\"200\">\n                    <p><span class=\"greenText\"><b>Successful harvest!</b></span><br>Your pay has increased by $0.02. Your bonus pay is now $0.34.</p>\n            ","response":0,"trial_type":"html-button-response","trial_index":36,"time_elapsed":757870,"internal_node_id":"0.0-4.0-1.14","subject_id":"615ad782b354ec5d3cb3c7ae","study_id":"60edd13110225f80f9f3709b","session_id":"6196bb797f1fca18cd70c8a9","condition":"full-information","relevant_dimensions":["pattern","legs"],"bee_group":{"antennae":"X","wings":"X","pattern":"D","legs":"F"},"bonus":1.200000000000001},{"rt":40282,"stimulus":"bees-with-color/bee-B2SF.svg","response":0,"trial_type":"image-button-response","trial_index":37,"time_elapsed":798154,"internal_node_id":"0.0-4.0-0.15","subject_id":"615ad782b354ec5d3cb3c7ae","study_id":"60edd13110225f80f9f3709b","session_id":"6196bb797f1fca18cd70c8a9","condition":"full-information","relevant_dimensions":["pattern","legs"],"bee_group":{"antennae":"X","wings":"X","pattern":"D","legs":"F"},"action":"harvest","summary":"good-harvest","bonus":1.200000000000001},{"rt":6531,"stimulus":"\n                    <p><b>Action: <em>harvest</em></b></p>\n                    <p>This is the bee that you just saw.</p>\n                    <img src=\"bees-with-color/bee-B2SF.svg\" width=\"200\">\n                    <p><span class=\"greenText\"><b>Successful harvest!</b></span><br>Your pay has increased by $0.02. Your bonus pay is now $0.36.</p>\n            ","response":0,"trial_type":"html-button-response","trial_index":38,"time_elapsed":804687,"internal_node_id":"0.0-4.0-1.15","subject_id":"615ad782b354ec5d3cb3c7ae","study_id":"60edd13110225f80f9f3709b","session_id":"6196bb797f1fca18cd70c8a9","condition":"full-information","relevant_dimensions":["pattern","legs"],"bee_group":{"antennae":"X","wings":"X","pattern":"D","legs":"F"},"bonus":1.200000000000001},{"rt":11367.09999999986,"stimulus":"bees-with-color/bee-B1SF.svg","response":0,"trial_type":"image-button-response","trial_index":39,"time_elapsed":816056,"internal_node_id":"0.0-4.0-0.16","subject_id":"615ad782b354ec5d3cb3c7ae","study_id":"60edd13110225f80f9f3709b","session_id":"6196bb797f1fca18cd70c8a9","condition":"full-information","relevant_dimensions":["pattern","legs"],"bee_group":{"antennae":"X","wings":"X","pattern":"D","legs":"F"},"action":"harvest","summary":"good-harvest","bonus":1.200000000000001},{"rt":2259.3000000000466,"stimulus":"\n                    <p><b>Action: <em>harvest</em></b></p>\n                    <p>This is the bee that you just saw.</p>\n                    <img src=\"bees-with-color/bee-B1SF.svg\" width=\"200\">\n                    <p><span class=\"greenText\"><b>Successful harvest!</b></span><br>Your pay has increased by $0.02. Your bonus pay is now $0.38.</p>\n            ","response":0,"trial_type":"html-button-response","trial_index":40,"time_elapsed":818317,"internal_node_id":"0.0-4.0-1.16","subject_id":"615ad782b354ec5d3cb3c7ae","study_id":"60edd13110225f80f9f3709b","session_id":"6196bb797f1fca18cd70c8a9","condition":"full-information","relevant_dimensions":["pattern","legs"],"bee_group":{"antennae":"X","wings":"X","pattern":"D","legs":"F"},"bonus":1.200000000000001},{"rt":17454.299999999814,"stimulus":"bees-with-color/bee-A1DM.svg","response":0,"trial_type":"image-button-response","trial_index":41,"time_elapsed":835775,"internal_node_id":"0.0-4.0-0.17","subject_id":"615ad782b354ec5d3cb3c7ae","study_id":"60edd13110225f80f9f3709b","session_id":"6196bb797f1fca18cd70c8a9","condition":"full-information","relevant_dimensions":["pattern","legs"],"bee_group":{"antennae":"X","wings":"X","pattern":"D","legs":"F"},"action":"harvest","summary":"good-harvest","bonus":1.200000000000001},{"rt":4972.799999999814,"stimulus":"\n                    <p><b>Action: <em>harvest</em></b></p>\n                    <p>This is the bee that you just saw.</p>\n                    <img src=\"bees-with-color/bee-A1DM.svg\" width=\"200\">\n                    <p><span class=\"greenText\"><b>Successful harvest!</b></span><br>Your pay has increased by $0.02. Your bonus pay is now $0.40.</p>\n            ","response":0,"trial_type":"html-button-response","trial_index":42,"time_elapsed":840749,"internal_node_id":"0.0-4.0-1.17","subject_id":"615ad782b354ec5d3cb3c7ae","study_id":"60edd13110225f80f9f3709b","session_id":"6196bb797f1fca18cd70c8a9","condition":"full-information","relevant_dimensions":["pattern","legs"],"bee_group":{"antennae":"X","wings":"X","pattern":"D","legs":"F"},"bonus":1.200000000000001},{"rt":40841.19999999995,"stimulus":"bees-with-color/bee-B1DF.svg","response":1,"trial_type":"image-button-response","trial_index":43,"time_elapsed":881593,"internal_node_id":"0.0-4.0-0.18","subject_id":"615ad782b354ec5d3cb3c7ae","study_id":"60edd13110225f80f9f3709b","session_id":"6196bb797f1fca18cd70c8a9","condition":"full-information","relevant_dimensions":["pattern","legs"],"bee_group":{"antennae":"X","wings":"X","pattern":"D","legs":"F"},"action":"avoid","summary":"good-avoid","bonus":1.200000000000001},{"rt":6591.699999999953,"stimulus":"\n                    <p><b>Action: <em>avoid</em></b></p>\n                    <p>This is the bee that you just saw.</p>\n                    <img src=\"bees-with-color/bee-B1DF.svg\" width=\"200\">\n                    <p><span class=\"greenText\">Good choice!</span>  This bee would have stung you.<br>Your bonus pay is unchanged, and remains at $0.40.</p>\n            ","response":0,"trial_type":"html-button-response","trial_index":44,"time_elapsed":888186,"internal_node_id":"0.0-4.0-1.18","subject_id":"615ad782b354ec5d3cb3c7ae","study_id":"60edd13110225f80f9f3709b","session_id":"6196bb797f1fca18cd70c8a9","condition":"full-information","relevant_dimensions":["pattern","legs"],"bee_group":{"antennae":"X","wings":"X","pattern":"D","legs":"F"},"bonus":1.200000000000001},{"rt":17965.199999999953,"stimulus":"bees-with-color/bee-B1DM.svg","response":0,"trial_type":"image-button-response","trial_index":45,"time_elapsed":906154,"internal_node_id":"0.0-4.0-0.19","subject_id":"615ad782b354ec5d3cb3c7ae","study_id":"60edd13110225f80f9f3709b","session_id":"6196bb797f1fca18cd70c8a9","condition":"full-information","relevant_dimensions":["pattern","legs"],"bee_group":{"antennae":"X","wings":"X","pattern":"D","legs":"F"},"action":"harvest","summary":"good-harvest","bonus":1.200000000000001},{"rt":1867.6000000000931,"stimulus":"\n                    <p><b>Action: <em>harvest</em></b></p>\n                    <p>This is the bee that you just saw.</p>\n                    <img src=\"bees-with-color/bee-B1DM.svg\" width=\"200\">\n                    <p><span class=\"greenText\"><b>Successful harvest!</b></span><br>Your pay has increased by $0.02. Your bonus pay is now $0.42.</p>\n            ","response":0,"trial_type":"html-button-response","trial_index":46,"time_elapsed":908023,"internal_node_id":"0.0-4.0-1.19","subject_id":"615ad782b354ec5d3cb3c7ae","study_id":"60edd13110225f80f9f3709b","session_id":"6196bb797f1fca18cd70c8a9","condition":"full-information","relevant_dimensions":["pattern","legs"],"bee_group":{"antennae":"X","wings":"X","pattern":"D","legs":"F"},"bonus":1.200000000000001},{"rt":7293.399999999907,"stimulus":"bees-with-color/bee-A2DM.svg","response":1,"trial_type":"image-button-response","trial_index":47,"time_elapsed":915319,"internal_node_id":"0.0-4.0-0.20","subject_id":"615ad782b354ec5d3cb3c7ae","study_id":"60edd13110225f80f9f3709b","session_id":"6196bb797f1fca18cd70c8a9","condition":"full-information","relevant_dimensions":["pattern","legs"],"bee_group":{"antennae":"X","wings":"X","pattern":"D","legs":"F"},"action":"avoid","summary":"bad-avoid","bonus":1.200000000000001},{"rt":26869.300000000047,"stimulus":"\n                    <p><b>Action: <em>avoid</em></b></p>\n                    <p>This is the bee that you just saw.</p>\n                    <img src=\"bees-with-color/bee-A2DM.svg\" width=\"200\">\n                    <p><span class=\"redText\">Bad choice,</span> the bee was friendly.<br>Your bonus pay is unchanged, and remains at $0.42.</p>\n            ","response":0,"trial_type":"html-button-response","trial_index":48,"time_elapsed":942190,"internal_node_id":"0.0-4.0-1.20","subject_id":"615ad782b354ec5d3cb3c7ae","study_id":"60edd13110225f80f9f3709b","session_id":"6196bb797f1fca18cd70c8a9","condition":"full-information","relevant_dimensions":["pattern","legs"],"bee_group":{"antennae":"X","wings":"X","pattern":"D","legs":"F"},"bonus":1.200000000000001},{"rt":7485.899999999907,"stimulus":"bees-with-color/bee-B2SF.svg","response":0,"trial_type":"image-button-response","trial_index":49,"time_elapsed":949679,"internal_node_id":"0.0-4.0-0.21","subject_id":"615ad782b354ec5d3cb3c7ae","study_id":"60edd13110225f80f9f3709b","session_id":"6196bb797f1fca18cd70c8a9","condition":"full-information","relevant_dimensions":["pattern","legs"],"bee_group":{"antennae":"X","wings":"X","pattern":"D","legs":"F"},"action":"harvest","summary":"good-harvest","bonus":1.200000000000001},{"rt":1495,"stimulus":"\n                    <p><b>Action: <em>harvest</em></b></p>\n                    <p>This is the bee that you just saw.</p>\n                    <img src=\"bees-with-color/bee-B2SF.svg\" width=\"200\">\n                    <p><span class=\"greenText\"><b>Successful harvest!</b></span><br>Your pay has increased by $0.02. Your bonus pay is now $0.44.</p>\n            ","response":0,"trial_type":"html-button-response","trial_index":50,"time_elapsed":951176,"internal_node_id":"0.0-4.0-1.21","subject_id":"615ad782b354ec5d3cb3c7ae","study_id":"60edd13110225f80f9f3709b","session_id":"6196bb797f1fca18cd70c8a9","condition":"full-information","relevant_dimensions":["pattern","legs"],"bee_group":{"antennae":"X","wings":"X","pattern":"D","legs":"F"},"bonus":1.200000000000001},{"rt":16868.90000000014,"stimulus":"bees-with-color/bee-A1SF.svg","response":0,"trial_type":"image-button-response","trial_index":51,"time_elapsed":968047,"internal_node_id":"0.0-4.0-0.22","subject_id":"615ad782b354ec5d3cb3c7ae","study_id":"60edd13110225f80f9f3709b","session_id":"6196bb797f1fca18cd70c8a9","condition":"full-information","relevant_dimensions":["pattern","legs"],"bee_group":{"antennae":"X","wings":"X","pattern":"D","legs":"F"},"action":"harvest","summary":"good-harvest","bonus":1.200000000000001},{"rt":6025.699999999953,"stimulus":"\n                    <p><b>Action: <em>harvest</em></b></p>\n                    <p>This is the bee that you just saw.</p>\n                    <img src=\"bees-with-color/bee-A1SF.svg\" width=\"200\">\n                    <p><span class=\"greenText\"><b>Successful harvest!</b></span><br>Your pay has increased by $0.02. Your bonus pay is now $0.46.</p>\n            ","response":0,"trial_type":"html-button-response","trial_index":52,"time_elapsed":974074,"internal_node_id":"0.0-4.0-1.22","subject_id":"615ad782b354ec5d3cb3c7ae","study_id":"60edd13110225f80f9f3709b","session_id":"6196bb797f1fca18cd70c8a9","condition":"full-information","relevant_dimensions":["pattern","legs"],"bee_group":{"antennae":"X","wings":"X","pattern":"D","legs":"F"},"bonus":1.200000000000001},{"rt":20121.700000000186,"stimulus":"bees-with-color/bee-B2DF.svg","response":1,"trial_type":"image-button-response","trial_index":53,"time_elapsed":994198,"internal_node_id":"0.0-4.0-0.23","subject_id":"615ad782b354ec5d3cb3c7ae","study_id":"60edd13110225f80f9f3709b","session_id":"6196bb797f1fca18cd70c8a9","condition":"full-information","relevant_dimensions":["pattern","legs"],"bee_group":{"antennae":"X","wings":"X","pattern":"D","legs":"F"},"action":"avoid","summary":"good-avoid","bonus":1.200000000000001},{"rt":1706.1000000000931,"stimulus":"\n                    <p><b>Action: <em>avoid</em></b></p>\n                    <p>This is the bee that you just saw.</p>\n                    <img src=\"bees-with-color/bee-B2DF.svg\" width=\"200\">\n                    <p><span class=\"greenText\">Good choice!</span>  This bee would have stung you.<br>Your bonus pay is unchanged, and remains at $0.46.</p>\n            ","response":0,"trial_type":"html-button-response","trial_index":54,"time_elapsed":995906,"internal_node_id":"0.0-4.0-1.23","subject_id":"615ad782b354ec5d3cb3c7ae","study_id":"60edd13110225f80f9f3709b","session_id":"6196bb797f1fca18cd70c8a9","condition":"full-information","relevant_dimensions":["pattern","legs"],"bee_group":{"antennae":"X","wings":"X","pattern":"D","legs":"F"},"bonus":1.200000000000001},{"rt":17969.600000000093,"stimulus":"bees-with-color/bee-B2DM.svg","response":0,"trial_type":"image-button-response","trial_index":55,"time_elapsed":1013878,"internal_node_id":"0.0-4.0-0.24","subject_id":"615ad782b354ec5d3cb3c7ae","study_id":"60edd13110225f80f9f3709b","session_id":"6196bb797f1fca18cd70c8a9","condition":"full-information","relevant_dimensions":["pattern","legs"],"bee_group":{"antennae":"X","wings":"X","pattern":"D","legs":"F"},"action":"harvest","summary":"good-harvest","bonus":1.200000000000001},{"rt":1565.8000000000466,"stimulus":"\n                    <p><b>Action: <em>harvest</em></b></p>\n                    <p>This is the bee that you just saw.</p>\n                    <img src=\"bees-with-color/bee-B2DM.svg\" width=\"200\">\n                    <p><span class=\"greenText\"><b>Successful harvest!</b></span><br>Your pay has increased by $0.02. Your bonus pay is now $0.48.</p>\n            ","response":0,"trial_type":"html-button-response","trial_index":56,"time_elapsed":1015446,"internal_node_id":"0.0-4.0-1.24","subject_id":"615ad782b354ec5d3cb3c7ae","study_id":"60edd13110225f80f9f3709b","session_id":"6196bb797f1fca18cd70c8a9","condition":"full-information","relevant_dimensions":["pattern","legs"],"bee_group":{"antennae":"X","wings":"X","pattern":"D","legs":"F"},"bonus":1.200000000000001},{"rt":33154.30000000016,"stimulus":"bees-with-color/bee-A2DF.svg","response":0,"trial_type":"image-button-response","trial_index":57,"time_elapsed":1048603,"internal_node_id":"0.0-4.0-0.25","subject_id":"615ad782b354ec5d3cb3c7ae","study_id":"60edd13110225f80f9f3709b","session_id":"6196bb797f1fca18cd70c8a9","condition":"full-information","relevant_dimensions":["pattern","legs"],"bee_group":{"antennae":"X","wings":"X","pattern":"D","legs":"F"},"action":"harvest","summary":"bad-harvest","bonus":1.200000000000001},{"rt":9524.299999999814,"stimulus":"\n                    <p><b>Action: <em>harvest</em></b></p>\n                    <p>This is the bee that you just saw.</p>\n                    <img src=\"bees-with-color/bee-A2DF.svg\" width=\"200\">\n                    <p><span class=\"redText\">Bad choice, the bee was angry.</span><br><b>You have been stung!</b><br>Your pay has been decreased by $0.10. Your bonus pay is now $0.38.</p>\n            ","response":0,"trial_type":"html-button-response","trial_index":58,"time_elapsed":1058129,"internal_node_id":"0.0-4.0-1.25","subject_id":"615ad782b354ec5d3cb3c7ae","study_id":"60edd13110225f80f9f3709b","session_id":"6196bb797f1fca18cd70c8a9","condition":"full-information","relevant_dimensions":["pattern","legs"],"bee_group":{"antennae":"X","wings":"X","pattern":"D","legs":"F"},"bonus":1.200000000000001},{"rt":30858.600000000093,"stimulus":"bees-with-color/bee-B1SM.svg","response":1,"trial_type":"image-button-response","trial_index":59,"time_elapsed":1088990,"internal_node_id":"0.0-4.0-0.26","subject_id":"615ad782b354ec5d3cb3c7ae","study_id":"60edd13110225f80f9f3709b","session_id":"6196bb797f1fca18cd70c8a9","condition":"full-information","relevant_dimensions":["pattern","legs"],"bee_group":{"antennae":"X","wings":"X","pattern":"D","legs":"F"},"action":"avoid","summary":"bad-avoid","bonus":1.200000000000001},{"rt":6399.600000000093,"stimulus":"\n                    <p><b>Action: <em>avoid</em></b></p>\n                    <p>This is the bee that you just saw.</p>\n                    <img src=\"bees-with-color/bee-B1SM.svg\" width=\"200\">\n                    <p><span class=\"redText\">Bad choice,</span> the bee was friendly.<br>Your bonus pay is unchanged, and remains at $0.38.</p>\n            ","response":0,"trial_type":"html-button-response","trial_index":60,"time_elapsed":1095392,"internal_node_id":"0.0-4.0-1.26","subject_id":"615ad782b354ec5d3cb3c7ae","study_id":"60edd13110225f80f9f3709b","session_id":"6196bb797f1fca18cd70c8a9","condition":"full-information","relevant_dimensions":["pattern","legs"],"bee_group":{"antennae":"X","wings":"X","pattern":"D","legs":"F"},"bonus":1.200000000000001},{"rt":20415.600000000093,"stimulus":"bees-with-color/bee-A2SM.svg","response":1,"trial_type":"image-button-response","trial_index":61,"time_elapsed":1115811,"internal_node_id":"0.0-4.0-0.27","subject_id":"615ad782b354ec5d3cb3c7ae","study_id":"60edd13110225f80f9f3709b","session_id":"6196bb797f1fca18cd70c8a9","condition":"full-information","relevant_dimensions":["pattern","legs"],"bee_group":{"antennae":"X","wings":"X","pattern":"D","legs":"F"},"action":"avoid","summary":"bad-avoid","bonus":1.200000000000001},{"rt":6598.699999999721,"stimulus":"\n                    <p><b>Action: <em>avoid</em></b></p>\n                    <p>This is the bee that you just saw.</p>\n                    <img src=\"bees-with-color/bee-A2SM.svg\" width=\"200\">\n                    <p><span class=\"redText\">Bad choice,</span> the bee was friendly.<br>Your bonus pay is unchanged, and remains at $0.38.</p>\n            ","response":0,"trial_type":"html-button-response","trial_index":62,"time_elapsed":1122412,"internal_node_id":"0.0-4.0-1.27","subject_id":"615ad782b354ec5d3cb3c7ae","study_id":"60edd13110225f80f9f3709b","session_id":"6196bb797f1fca18cd70c8a9","condition":"full-information","relevant_dimensions":["pattern","legs"],"bee_group":{"antennae":"X","wings":"X","pattern":"D","legs":"F"},"bonus":1.200000000000001},{"rt":14740.599999999627,"stimulus":"bees-with-color/bee-A2SF.svg","response":0,"trial_type":"image-button-response","trial_index":63,"time_elapsed":1137155,"internal_node_id":"0.0-4.0-0.28","subject_id":"615ad782b354ec5d3cb3c7ae","study_id":"60edd13110225f80f9f3709b","session_id":"6196bb797f1fca18cd70c8a9","condition":"full-information","relevant_dimensions":["pattern","legs"],"bee_group":{"antennae":"X","wings":"X","pattern":"D","legs":"F"},"action":"harvest","summary":"good-harvest","bonus":1.200000000000001},{"rt":6377.600000000093,"stimulus":"\n                    <p><b>Action: <em>harvest</em></b></p>\n                    <p>This is the bee that you just saw.</p>\n                    <img src=\"bees-with-color/bee-A2SF.svg\" width=\"200\">\n                    <p><span class=\"greenText\"><b>Successful harvest!</b></span><br>Your pay has increased by $0.02. Your bonus pay is now $0.40.</p>\n            ","response":0,"trial_type":"html-button-response","trial_index":64,"time_elapsed":1143535,"internal_node_id":"0.0-4.0-1.28","subject_id":"615ad782b354ec5d3cb3c7ae","study_id":"60edd13110225f80f9f3709b","session_id":"6196bb797f1fca18cd70c8a9","condition":"full-information","relevant_dimensions":["pattern","legs"],"bee_group":{"antennae":"X","wings":"X","pattern":"D","legs":"F"},"bonus":1.200000000000001},{"rt":40238.299999999814,"stimulus":"bees-with-color/bee-B2SM.svg","response":1,"trial_type":"image-button-response","trial_index":65,"time_elapsed":1183776,"internal_node_id":"0.0-4.0-0.29","subject_id":"615ad782b354ec5d3cb3c7ae","study_id":"60edd13110225f80f9f3709b","session_id":"6196bb797f1fca18cd70c8a9","condition":"full-information","relevant_dimensions":["pattern","legs"],"bee_group":{"antennae":"X","wings":"X","pattern":"D","legs":"F"},"action":"avoid","summary":"bad-avoid","bonus":1.200000000000001},{"rt":5726.399999999907,"stimulus":"\n                    <p><b>Action: <em>avoid</em></b></p>\n                    <p>This is the bee that you just saw.</p>\n                    <img src=\"bees-with-color/bee-B2SM.svg\" width=\"200\">\n                    <p><span class=\"redText\">Bad choice,</span> the bee was friendly.<br>Your bonus pay is unchanged, and remains at $0.40.</p>\n            ","response":0,"trial_type":"html-button-response","trial_index":66,"time_elapsed":1189505,"internal_node_id":"0.0-4.0-1.29","subject_id":"615ad782b354ec5d3cb3c7ae","study_id":"60edd13110225f80f9f3709b","session_id":"6196bb797f1fca18cd70c8a9","condition":"full-information","relevant_dimensions":["pattern","legs"],"bee_group":{"antennae":"X","wings":"X","pattern":"D","legs":"F"},"bonus":1.200000000000001},{"rt":13556.700000000186,"stimulus":"bees-with-color/bee-A1DF.svg","response":1,"trial_type":"image-button-response","trial_index":67,"time_elapsed":1203064,"internal_node_id":"0.0-4.0-0.30","subject_id":"615ad782b354ec5d3cb3c7ae","study_id":"60edd13110225f80f9f3709b","session_id":"6196bb797f1fca18cd70c8a9","condition":"full-information","relevant_dimensions":["pattern","legs"],"bee_group":{"antennae":"X","wings":"X","pattern":"D","legs":"F"},"action":"avoid","summary":"good-avoid","bonus":1.200000000000001},{"rt":1525.1000000000931,"stimulus":"\n                    <p><b>Action: <em>avoid</em></b></p>\n                    <p>This is the bee that you just saw.</p>\n                    <img src=\"bees-with-color/bee-A1DF.svg\" width=\"200\">\n                    <p><span class=\"greenText\">Good choice!</span>  This bee would have stung you.<br>Your bonus pay is unchanged, and remains at $0.40.</p>\n            ","response":0,"trial_type":"html-button-response","trial_index":68,"time_elapsed":1204592,"internal_node_id":"0.0-4.0-1.30","subject_id":"615ad782b354ec5d3cb3c7ae","study_id":"60edd13110225f80f9f3709b","session_id":"6196bb797f1fca18cd70c8a9","condition":"full-information","relevant_dimensions":["pattern","legs"],"bee_group":{"antennae":"X","wings":"X","pattern":"D","legs":"F"},"bonus":1.200000000000001},{"rt":38948.60000000009,"stimulus":"bees-with-color/bee-A1SM.svg","response":0,"trial_type":"image-button-response","trial_index":69,"time_elapsed":1243543,"internal_node_id":"0.0-4.0-0.31","subject_id":"615ad782b354ec5d3cb3c7ae","study_id":"60edd13110225f80f9f3709b","session_id":"6196bb797f1fca18cd70c8a9","condition":"full-information","relevant_dimensions":["pattern","legs"],"bee_group":{"antennae":"X","wings":"X","pattern":"D","legs":"F"},"action":"harvest","summary":"good-harvest","bonus":1.200000000000001},{"rt":1737,"stimulus":"\n                    <p><b>Action: <em>harvest</em></b></p>\n                    <p>This is the bee that you just saw.</p>\n                    <img src=\"bees-with-color/bee-A1SM.svg\" width=\"200\">\n                    <p><span class=\"greenText\"><b>Successful harvest!</b></span><br>Your pay has increased by $0.02. Your bonus pay is now $0.42.</p>\n            ","response":0,"trial_type":"html-button-response","trial_index":70,"time_elapsed":1245282,"internal_node_id":"0.0-4.0-1.31","subject_id":"615ad782b354ec5d3cb3c7ae","study_id":"60edd13110225f80f9f3709b","session_id":"6196bb797f1fca18cd70c8a9","condition":"full-information","relevant_dimensions":["pattern","legs"],"bee_group":{"antennae":"X","wings":"X","pattern":"D","legs":"F"},"bonus":1.200000000000001},{"rt":24815.899999999907,"stimulus":"bees-with-color/bee-A1SF.svg","response":1,"trial_type":"image-button-response","trial_index":71,"time_elapsed":1270099,"internal_node_id":"0.0-4.0-0.32","subject_id":"615ad782b354ec5d3cb3c7ae","study_id":"60edd13110225f80f9f3709b","session_id":"6196bb797f1fca18cd70c8a9","condition":"full-information","relevant_dimensions":["pattern","legs"],"bee_group":{"antennae":"X","wings":"X","pattern":"D","legs":"F"},"action":"avoid","summary":"bad-avoid","bonus":1.200000000000001},{"rt":5747.199999999721,"stimulus":"\n                    <p><b>Action: <em>avoid</em></b></p>\n                    <p>This is the bee that you just saw.</p>\n                    <img src=\"bees-with-color/bee-A1SF.svg\" width=\"200\">\n                    <p><span class=\"redText\">Bad choice,</span> the bee was friendly.<br>Your bonus pay is unchanged, and remains at $0.42.</p>\n            ","response":0,"trial_type":"html-button-response","trial_index":72,"time_elapsed":1275848,"internal_node_id":"0.0-4.0-1.32","subject_id":"615ad782b354ec5d3cb3c7ae","study_id":"60edd13110225f80f9f3709b","session_id":"6196bb797f1fca18cd70c8a9","condition":"full-information","relevant_dimensions":["pattern","legs"],"bee_group":{"antennae":"X","wings":"X","pattern":"D","legs":"F"},"bonus":1.200000000000001},{"rt":16615.5,"stimulus":"bees-with-color/bee-B1DM.svg","response":0,"trial_type":"image-button-response","trial_index":73,"time_elapsed":1292467,"internal_node_id":"0.0-4.0-0.33","subject_id":"615ad782b354ec5d3cb3c7ae","study_id":"60edd13110225f80f9f3709b","session_id":"6196bb797f1fca18cd70c8a9","condition":"full-information","relevant_dimensions":["pattern","legs"],"bee_group":{"antennae":"X","wings":"X","pattern":"D","legs":"F"},"action":"harvest","summary":"good-harvest","bonus":1.200000000000001},{"rt":5423.300000000279,"stimulus":"\n                    <p><b>Action: <em>harvest</em></b></p>\n                    <p>This is the bee that you just saw.</p>\n                    <img src=\"bees-with-color/bee-B1DM.svg\" width=\"200\">\n                    <p><span class=\"greenText\"><b>Successful harvest!</b></span><br>Your pay has increased by $0.02. Your bonus pay is now $0.44.</p>\n            ","response":0,"trial_type":"html-button-response","trial_index":74,"time_elapsed":1297892,"internal_node_id":"0.0-4.0-1.33","subject_id":"615ad782b354ec5d3cb3c7ae","study_id":"60edd13110225f80f9f3709b","session_id":"6196bb797f1fca18cd70c8a9","condition":"full-information","relevant_dimensions":["pattern","legs"],"bee_group":{"antennae":"X","wings":"X","pattern":"D","legs":"F"},"bonus":1.200000000000001},{"rt":12479.899999999907,"stimulus":"bees-with-color/bee-B2DM.svg","response":0,"trial_type":"image-button-response","trial_index":75,"time_elapsed":1310374,"internal_node_id":"0.0-4.0-0.34","subject_id":"615ad782b354ec5d3cb3c7ae","study_id":"60edd13110225f80f9f3709b","session_id":"6196bb797f1fca18cd70c8a9","condition":"full-information","relevant_dimensions":["pattern","legs"],"bee_group":{"antennae":"X","wings":"X","pattern":"D","legs":"F"},"action":"harvest","summary":"good-harvest","bonus":1.200000000000001},{"rt":1756.2999999998137,"stimulus":"\n                    <p><b>Action: <em>harvest</em></b></p>\n                    <p>This is the bee that you just saw.</p>\n                    <img src=\"bees-with-color/bee-B2DM.svg\" width=\"200\">\n                    <p><span class=\"greenText\"><b>Successful harvest!</b></span><br>Your pay has increased by $0.02. Your bonus pay is now $0.46.</p>\n            ","response":0,"trial_type":"html-button-response","trial_index":76,"time_elapsed":1312132,"internal_node_id":"0.0-4.0-1.34","subject_id":"615ad782b354ec5d3cb3c7ae","study_id":"60edd13110225f80f9f3709b","session_id":"6196bb797f1fca18cd70c8a9","condition":"full-information","relevant_dimensions":["pattern","legs"],"bee_group":{"antennae":"X","wings":"X","pattern":"D","legs":"F"},"bonus":1.200000000000001},{"rt":7944.0999999996275,"stimulus":"bees-with-color/bee-A2SF.svg","response":0,"trial_type":"image-button-response","trial_index":77,"time_elapsed":1320078,"internal_node_id":"0.0-4.0-0.35","subject_id":"615ad782b354ec5d3cb3c7ae","study_id":"60edd13110225f80f9f3709b","session_id":"6196bb797f1fca18cd70c8a9","condition":"full-information","relevant_dimensions":["pattern","legs"],"bee_group":{"antennae":"X","wings":"X","pattern":"D","legs":"F"},"action":"harvest","summary":"good-harvest","bonus":1.200000000000001},{"rt":1464.6999999997206,"stimulus":"\n                    <p><b>Action: <em>harvest</em></b></p>\n                    <p>This is the bee that you just saw.</p>\n                    <img src=\"bees-with-color/bee-A2SF.svg\" width=\"200\">\n                    <p><span class=\"greenText\"><b>Successful harvest!</b></span><br>Your pay has increased by $0.02. Your bonus pay is now $0.48.</p>\n            ","response":0,"trial_type":"html-button-response","trial_index":78,"time_elapsed":1321545,"internal_node_id":"0.0-4.0-1.35","subject_id":"615ad782b354ec5d3cb3c7ae","study_id":"60edd13110225f80f9f3709b","session_id":"6196bb797f1fca18cd70c8a9","condition":"full-information","relevant_dimensions":["pattern","legs"],"bee_group":{"antennae":"X","wings":"X","pattern":"D","legs":"F"},"bonus":1.200000000000001},{"rt":9022.200000000186,"stimulus":"bees-with-color/bee-A2DF.svg","response":1,"trial_type":"image-button-response","trial_index":79,"time_elapsed":1330569,"internal_node_id":"0.0-4.0-0.36","subject_id":"615ad782b354ec5d3cb3c7ae","study_id":"60edd13110225f80f9f3709b","session_id":"6196bb797f1fca18cd70c8a9","condition":"full-information","relevant_dimensions":["pattern","legs"],"bee_group":{"antennae":"X","wings":"X","pattern":"D","legs":"F"},"action":"avoid","summary":"good-avoid","bonus":1.200000000000001},{"rt":5613.399999999907,"stimulus":"\n                    <p><b>Action: <em>avoid</em></b></p>\n                    <p>This is the bee that you just saw.</p>\n                    <img src=\"bees-with-color/bee-A2DF.svg\" width=\"200\">\n                    <p><span class=\"greenText\">Good choice!</span>  This bee would have stung you.<br>Your bonus pay is unchanged, and remains at $0.48.</p>\n            ","response":0,"trial_type":"html-button-response","trial_index":80,"time_elapsed":1336184,"internal_node_id":"0.0-4.0-1.36","subject_id":"615ad782b354ec5d3cb3c7ae","study_id":"60edd13110225f80f9f3709b","session_id":"6196bb797f1fca18cd70c8a9","condition":"full-information","relevant_dimensions":["pattern","legs"],"bee_group":{"antennae":"X","wings":"X","pattern":"D","legs":"F"},"bonus":1.200000000000001},{"rt":23418.30000000028,"stimulus":"bees-with-color/bee-B2SF.svg","response":0,"trial_type":"image-button-response","trial_index":81,"time_elapsed":1359605,"internal_node_id":"0.0-4.0-0.37","subject_id":"615ad782b354ec5d3cb3c7ae","study_id":"60edd13110225f80f9f3709b","session_id":"6196bb797f1fca18cd70c8a9","condition":"full-information","relevant_dimensions":["pattern","legs"],"bee_group":{"antennae":"X","wings":"X","pattern":"D","legs":"F"},"action":"harvest","summary":"good-harvest","bonus":1.200000000000001},{"rt":1525.3999999999069,"stimulus":"\n                    <p><b>Action: <em>harvest</em></b></p>\n                    <p>This is the bee that you just saw.</p>\n                    <img src=\"bees-with-color/bee-B2SF.svg\" width=\"200\">\n                    <p><span class=\"greenText\"><b>Successful harvest!</b></span><br>Your pay has increased by $0.02. Your bonus pay is now $0.50.</p>\n            ","response":0,"trial_type":"html-button-response","trial_index":82,"time_elapsed":1361132,"internal_node_id":"0.0-4.0-1.37","subject_id":"615ad782b354ec5d3cb3c7ae","study_id":"60edd13110225f80f9f3709b","session_id":"6196bb797f1fca18cd70c8a9","condition":"full-information","relevant_dimensions":["pattern","legs"],"bee_group":{"antennae":"X","wings":"X","pattern":"D","legs":"F"},"bonus":1.200000000000001},{"rt":8327.299999999814,"stimulus":"bees-with-color/bee-B2DF.svg","response":1,"trial_type":"image-button-response","trial_index":83,"time_elapsed":1369462,"internal_node_id":"0.0-4.0-0.38","subject_id":"615ad782b354ec5d3cb3c7ae","study_id":"60edd13110225f80f9f3709b","session_id":"6196bb797f1fca18cd70c8a9","condition":"full-information","relevant_dimensions":["pattern","legs"],"bee_group":{"antennae":"X","wings":"X","pattern":"D","legs":"F"},"action":"avoid","summary":"good-avoid","bonus":1.200000000000001},{"rt":5805.200000000186,"stimulus":"\n                    <p><b>Action: <em>avoid</em></b></p>\n                    <p>This is the bee that you just saw.</p>\n                    <img src=\"bees-with-color/bee-B2DF.svg\" width=\"200\">\n                    <p><span class=\"greenText\">Good choice!</span>  This bee would have stung you.<br>Your bonus pay is unchanged, and remains at $0.50.</p>\n            ","response":0,"trial_type":"html-button-response","trial_index":84,"time_elapsed":1375269,"internal_node_id":"0.0-4.0-1.38","subject_id":"615ad782b354ec5d3cb3c7ae","study_id":"60edd13110225f80f9f3709b","session_id":"6196bb797f1fca18cd70c8a9","condition":"full-information","relevant_dimensions":["pattern","legs"],"bee_group":{"antennae":"X","wings":"X","pattern":"D","legs":"F"},"bonus":1.200000000000001},{"rt":25018.599999999627,"stimulus":"bees-with-color/bee-B1SF.svg","response":0,"trial_type":"image-button-response","trial_index":85,"time_elapsed":1400290,"internal_node_id":"0.0-4.0-0.39","subject_id":"615ad782b354ec5d3cb3c7ae","study_id":"60edd13110225f80f9f3709b","session_id":"6196bb797f1fca18cd70c8a9","condition":"full-information","relevant_dimensions":["pattern","legs"],"bee_group":{"antennae":"X","wings":"X","pattern":"D","legs":"F"},"action":"harvest","summary":"good-harvest","bonus":1.200000000000001},{"rt":1495.2000000001863,"stimulus":"\n                    <p><b>Action: <em>harvest</em></b></p>\n                    <p>This is the bee that you just saw.</p>\n                    <img src=\"bees-with-color/bee-B1SF.svg\" width=\"200\">\n                    <p><span class=\"greenText\"><b>Successful harvest!</b></span><br>Your pay has increased by $0.02. Your bonus pay is now $0.52.</p>\n            ","response":0,"trial_type":"html-button-response","trial_index":86,"time_elapsed":1401787,"internal_node_id":"0.0-4.0-1.39","subject_id":"615ad782b354ec5d3cb3c7ae","study_id":"60edd13110225f80f9f3709b","session_id":"6196bb797f1fca18cd70c8a9","condition":"full-information","relevant_dimensions":["pattern","legs"],"bee_group":{"antennae":"X","wings":"X","pattern":"D","legs":"F"},"bonus":1.200000000000001},{"rt":15847.600000000093,"stimulus":"bees-with-color/bee-B1DF.svg","response":1,"trial_type":"image-button-response","trial_index":87,"time_elapsed":1417638,"internal_node_id":"0.0-4.0-0.40","subject_id":"615ad782b354ec5d3cb3c7ae","study_id":"60edd13110225f80f9f3709b","session_id":"6196bb797f1fca18cd70c8a9","condition":"full-information","relevant_dimensions":["pattern","legs"],"bee_group":{"antennae":"X","wings":"X","pattern":"D","legs":"F"},"action":"avoid","summary":"good-avoid","bonus":1.200000000000001},{"rt":1464.8999999999069,"stimulus":"\n                    <p><b>Action: <em>avoid</em></b></p>\n                    <p>This is the bee that you just saw.</p>\n                    <img src=\"bees-with-color/bee-B1DF.svg\" width=\"200\">\n                    <p><span class=\"greenText\">Good choice!</span>  This bee would have stung you.<br>Your bonus pay is unchanged, and remains at $0.52.</p>\n            ","response":0,"trial_type":"html-button-response","trial_index":88,"time_elapsed":1419104,"internal_node_id":"0.0-4.0-1.40","subject_id":"615ad782b354ec5d3cb3c7ae","study_id":"60edd13110225f80f9f3709b","session_id":"6196bb797f1fca18cd70c8a9","condition":"full-information","relevant_dimensions":["pattern","legs"],"bee_group":{"antennae":"X","wings":"X","pattern":"D","legs":"F"},"bonus":1.200000000000001},{"rt":11958.899999999907,"stimulus":"bees-with-color/bee-B2SM.svg","response":0,"trial_type":"image-button-response","trial_index":89,"time_elapsed":1431065,"internal_node_id":"0.0-4.0-0.41","subject_id":"615ad782b354ec5d3cb3c7ae","study_id":"60edd13110225f80f9f3709b","session_id":"6196bb797f1fca18cd70c8a9","condition":"full-information","relevant_dimensions":["pattern","legs"],"bee_group":{"antennae":"X","wings":"X","pattern":"D","legs":"F"},"action":"harvest","summary":"good-harvest","bonus":1.200000000000001},{"rt":1414.6000000000931,"stimulus":"\n                    <p><b>Action: <em>harvest</em></b></p>\n                    <p>This is the bee that you just saw.</p>\n                    <img src=\"bees-with-color/bee-B2SM.svg\" width=\"200\">\n                    <p><span class=\"greenText\"><b>Successful harvest!</b></span><br>Your pay has increased by $0.02. Your bonus pay is now $0.54.</p>\n            ","response":0,"trial_type":"html-button-response","trial_index":90,"time_elapsed":1432482,"internal_node_id":"0.0-4.0-1.41","subject_id":"615ad782b354ec5d3cb3c7ae","study_id":"60edd13110225f80f9f3709b","session_id":"6196bb797f1fca18cd70c8a9","condition":"full-information","relevant_dimensions":["pattern","legs"],"bee_group":{"antennae":"X","wings":"X","pattern":"D","legs":"F"},"bonus":1.200000000000001},{"rt":18196.399999999907,"stimulus":"bees-with-color/bee-A1SM.svg","response":1,"trial_type":"image-button-response","trial_index":91,"time_elapsed":1450681,"internal_node_id":"0.0-4.0-0.42","subject_id":"615ad782b354ec5d3cb3c7ae","study_id":"60edd13110225f80f9f3709b","session_id":"6196bb797f1fca18cd70c8a9","condition":"full-information","relevant_dimensions":["pattern","legs"],"bee_group":{"antennae":"X","wings":"X","pattern":"D","legs":"F"},"action":"avoid","summary":"bad-avoid","bonus":1.200000000000001},{"rt":7361.200000000186,"stimulus":"\n                    <p><b>Action: <em>avoid</em></b></p>\n                    <p>This is the bee that you just saw.</p>\n                    <img src=\"bees-with-color/bee-A1SM.svg\" width=\"200\">\n                    <p><span class=\"redText\">Bad choice,</span> the bee was friendly.<br>Your bonus pay is unchanged, and remains at $0.54.</p>\n            ","response":0,"trial_type":"html-button-response","trial_index":92,"time_elapsed":1458044,"internal_node_id":"0.0-4.0-1.42","subject_id":"615ad782b354ec5d3cb3c7ae","study_id":"60edd13110225f80f9f3709b","session_id":"6196bb797f1fca18cd70c8a9","condition":"full-information","relevant_dimensions":["pattern","legs"],"bee_group":{"antennae":"X","wings":"X","pattern":"D","legs":"F"},"bonus":1.200000000000001},{"rt":16639,"stimulus":"bees-with-color/bee-B1SM.svg","response":0,"trial_type":"image-button-response","trial_index":93,"time_elapsed":1474686,"internal_node_id":"0.0-4.0-0.43","subject_id":"615ad782b354ec5d3cb3c7ae","study_id":"60edd13110225f80f9f3709b","session_id":"6196bb797f1fca18cd70c8a9","condition":"full-information","relevant_dimensions":["pattern","legs"],"bee_group":{"antennae":"X","wings":"X","pattern":"D","legs":"F"},"action":"harvest","summary":"good-harvest","bonus":1.200000000000001},{"rt":1424.2000000001863,"stimulus":"\n                    <p><b>Action: <em>harvest</em></b></p>\n                    <p>This is the bee that you just saw.</p>\n                    <img src=\"bees-with-color/bee-B1SM.svg\" width=\"200\">\n                    <p><span class=\"greenText\"><b>Successful harvest!</b></span><br>Your pay has increased by $0.02. Your bonus pay is now $0.56.</p>\n            ","response":0,"trial_type":"html-button-response","trial_index":94,"time_elapsed":1476112,"internal_node_id":"0.0-4.0-1.43","subject_id":"615ad782b354ec5d3cb3c7ae","study_id":"60edd13110225f80f9f3709b","session_id":"6196bb797f1fca18cd70c8a9","condition":"full-information","relevant_dimensions":["pattern","legs"],"bee_group":{"antennae":"X","wings":"X","pattern":"D","legs":"F"},"bonus":1.200000000000001},{"rt":15531.399999999907,"stimulus":"bees-with-color/bee-A1DF.svg","response":1,"trial_type":"image-button-response","trial_index":95,"time_elapsed":1491639,"internal_node_id":"0.0-4.0-0.44","subject_id":"615ad782b354ec5d3cb3c7ae","study_id":"60edd13110225f80f9f3709b","session_id":"6196bb797f1fca18cd70c8a9","condition":"full-information","relevant_dimensions":["pattern","legs"],"bee_group":{"antennae":"X","wings":"X","pattern":"D","legs":"F"},"action":"avoid","summary":"good-avoid","bonus":1.200000000000001},{"rt":1193.3999999999069,"stimulus":"\n                    <p><b>Action: <em>avoid</em></b></p>\n                    <p>This is the bee that you just saw.</p>\n                    <img src=\"bees-with-color/bee-A1DF.svg\" width=\"200\">\n                    <p><span class=\"greenText\">Good choice!</span>  This bee would have stung you.<br>Your bonus pay is unchanged, and remains at $0.56.</p>\n            ","response":0,"trial_type":"html-button-response","trial_index":96,"time_elapsed":1492835,"internal_node_id":"0.0-4.0-1.44","subject_id":"615ad782b354ec5d3cb3c7ae","study_id":"60edd13110225f80f9f3709b","session_id":"6196bb797f1fca18cd70c8a9","condition":"full-information","relevant_dimensions":["pattern","legs"],"bee_group":{"antennae":"X","wings":"X","pattern":"D","legs":"F"},"bonus":1.200000000000001},{"rt":23060.100000000093,"stimulus":"bees-with-color/bee-A2DM.svg","response":0,"trial_type":"image-button-response","trial_index":97,"time_elapsed":1515897,"internal_node_id":"0.0-4.0-0.45","subject_id":"615ad782b354ec5d3cb3c7ae","study_id":"60edd13110225f80f9f3709b","session_id":"6196bb797f1fca18cd70c8a9","condition":"full-information","relevant_dimensions":["pattern","legs"],"bee_group":{"antennae":"X","wings":"X","pattern":"D","legs":"F"},"action":"harvest","summary":"good-harvest","bonus":1.200000000000001},{"rt":1605,"stimulus":"\n                    <p><b>Action: <em>harvest</em></b></p>\n                    <p>This is the bee that you just saw.</p>\n                    <img src=\"bees-with-color/bee-A2DM.svg\" width=\"200\">\n                    <p><span class=\"greenText\"><b>Successful harvest!</b></span><br>Your pay has increased by $0.02. Your bonus pay is now $0.58.</p>\n            ","response":0,"trial_type":"html-button-response","trial_index":98,"time_elapsed":1517505,"internal_node_id":"0.0-4.0-1.45","subject_id":"615ad782b354ec5d3cb3c7ae","study_id":"60edd13110225f80f9f3709b","session_id":"6196bb797f1fca18cd70c8a9","condition":"full-information","relevant_dimensions":["pattern","legs"],"bee_group":{"antennae":"X","wings":"X","pattern":"D","legs":"F"},"bonus":1.200000000000001},{"rt":13761.899999999907,"stimulus":"bees-with-color/bee-A2SM.svg","response":0,"trial_type":"image-button-response","trial_index":99,"time_elapsed":1531269,"internal_node_id":"0.0-4.0-0.46","subject_id":"615ad782b354ec5d3cb3c7ae","study_id":"60edd13110225f80f9f3709b","session_id":"6196bb797f1fca18cd70c8a9","condition":"full-information","relevant_dimensions":["pattern","legs"],"bee_group":{"antennae":"X","wings":"X","pattern":"D","legs":"F"},"action":"harvest","summary":"good-harvest","bonus":1.200000000000001},{"rt":1775.8999999999069,"stimulus":"\n                    <p><b>Action: <em>harvest</em></b></p>\n                    <p>This is the bee that you just saw.</p>\n                    <img src=\"bees-with-color/bee-A2SM.svg\" width=\"200\">\n                    <p><span class=\"greenText\"><b>Successful harvest!</b></span><br>Your pay has increased by $0.02. Your bonus pay is now $0.60.</p>\n            ","response":0,"trial_type":"html-button-response","trial_index":100,"time_elapsed":1533047,"internal_node_id":"0.0-4.0-1.46","subject_id":"615ad782b354ec5d3cb3c7ae","study_id":"60edd13110225f80f9f3709b","session_id":"6196bb797f1fca18cd70c8a9","condition":"full-information","relevant_dimensions":["pattern","legs"],"bee_group":{"antennae":"X","wings":"X","pattern":"D","legs":"F"},"bonus":1.200000000000001},{"rt":35321.39999999991,"stimulus":"bees-with-color/bee-A1DM.svg","response":0,"trial_type":"image-button-response","trial_index":101,"time_elapsed":1568378,"internal_node_id":"0.0-4.0-0.47","subject_id":"615ad782b354ec5d3cb3c7ae","study_id":"60edd13110225f80f9f3709b","session_id":"6196bb797f1fca18cd70c8a9","condition":"full-information","relevant_dimensions":["pattern","legs"],"bee_group":{"antennae":"X","wings":"X","pattern":"D","legs":"F"},"action":"harvest","summary":"good-harvest","bonus":1.200000000000001},{"rt":5635.300000000279,"stimulus":"\n                    <p><b>Action: <em>harvest</em></b></p>\n                    <p>This is the bee that you just saw.</p>\n                    <img src=\"bees-with-color/bee-A1DM.svg\" width=\"200\">\n                    <p><span class=\"greenText\"><b>Successful harvest!</b></span><br>Your pay has increased by $0.02. Your bonus pay is now $0.62.</p>\n            ","response":0,"trial_type":"html-button-response","trial_index":102,"time_elapsed":1574015,"internal_node_id":"0.0-4.0-1.47","subject_id":"615ad782b354ec5d3cb3c7ae","study_id":"60edd13110225f80f9f3709b","session_id":"6196bb797f1fca18cd70c8a9","condition":"full-information","relevant_dimensions":["pattern","legs"],"bee_group":{"antennae":"X","wings":"X","pattern":"D","legs":"F"},"bonus":1.200000000000001},{"rt":20742.599999999627,"stimulus":"bees-with-color/bee-B1DF.svg","response":1,"trial_type":"image-button-response","trial_index":103,"time_elapsed":1594760,"internal_node_id":"0.0-4.0-0.48","subject_id":"615ad782b354ec5d3cb3c7ae","study_id":"60edd13110225f80f9f3709b","session_id":"6196bb797f1fca18cd70c8a9","condition":"full-information","relevant_dimensions":["pattern","legs"],"bee_group":{"antennae":"X","wings":"X","pattern":"D","legs":"F"},"action":"avoid","summary":"good-avoid","bonus":1.200000000000001},{"rt":1596.3000000002794,"stimulus":"\n                    <p><b>Action: <em>avoid</em></b></p>\n                    <p>This is the bee that you just saw.</p>\n                    <img src=\"bees-with-color/bee-B1DF.svg\" width=\"200\">\n                    <p><span class=\"greenText\">Good choice!</span>  This bee would have stung you.<br>Your bonus pay is unchanged, and remains at $0.62.</p>\n            ","response":0,"trial_type":"html-button-response","trial_index":104,"time_elapsed":1596358,"internal_node_id":"0.0-4.0-1.48","subject_id":"615ad782b354ec5d3cb3c7ae","study_id":"60edd13110225f80f9f3709b","session_id":"6196bb797f1fca18cd70c8a9","condition":"full-information","relevant_dimensions":["pattern","legs"],"bee_group":{"antennae":"X","wings":"X","pattern":"D","legs":"F"},"bonus":1.200000000000001},{"rt":26295.299999999814,"stimulus":"bees-with-color/bee-A1SF.svg","response":0,"trial_type":"image-button-response","trial_index":105,"time_elapsed":1622655,"internal_node_id":"0.0-4.0-0.49","subject_id":"615ad782b354ec5d3cb3c7ae","study_id":"60edd13110225f80f9f3709b","session_id":"6196bb797f1fca18cd70c8a9","condition":"full-information","relevant_dimensions":["pattern","legs"],"bee_group":{"antennae":"X","wings":"X","pattern":"D","legs":"F"},"action":"harvest","summary":"good-harvest","bonus":1.200000000000001},{"rt":2681.5,"stimulus":"\n                    <p><b>Action: <em>harvest</em></b></p>\n                    <p>This is the bee that you just saw.</p>\n                    <img src=\"bees-with-color/bee-A1SF.svg\" width=\"200\">\n                    <p><span class=\"greenText\"><b>Successful harvest!</b></span><br>Your pay has increased by $0.02. Your bonus pay is now $0.64.</p>\n            ","response":0,"trial_type":"html-button-response","trial_index":106,"time_elapsed":1625338,"internal_node_id":"0.0-4.0-1.49","subject_id":"615ad782b354ec5d3cb3c7ae","study_id":"60edd13110225f80f9f3709b","session_id":"6196bb797f1fca18cd70c8a9","condition":"full-information","relevant_dimensions":["pattern","legs"],"bee_group":{"antennae":"X","wings":"X","pattern":"D","legs":"F"},"bonus":1.200000000000001},{"rt":22307.100000000093,"stimulus":"bees-with-color/bee-B1DM.svg","response":1,"trial_type":"image-button-response","trial_index":107,"time_elapsed":1647647,"internal_node_id":"0.0-4.0-0.50","subject_id":"615ad782b354ec5d3cb3c7ae","study_id":"60edd13110225f80f9f3709b","session_id":"6196bb797f1fca18cd70c8a9","condition":"full-information","relevant_dimensions":["pattern","legs"],"bee_group":{"antennae":"X","wings":"X","pattern":"D","legs":"F"},"action":"avoid","summary":"bad-avoid","bonus":1.200000000000001},{"rt":6116,"stimulus":"\n                    <p><b>Action: <em>avoid</em></b></p>\n                    <p>This is the bee that you just saw.</p>\n                    <img src=\"bees-with-color/bee-B1DM.svg\" width=\"200\">\n                    <p><span class=\"redText\">Bad choice,</span> the bee was friendly.<br>Your bonus pay is unchanged, and remains at $0.64.</p>\n            ","response":0,"trial_type":"html-button-response","trial_index":108,"time_elapsed":1653765,"internal_node_id":"0.0-4.0-1.50","subject_id":"615ad782b354ec5d3cb3c7ae","study_id":"60edd13110225f80f9f3709b","session_id":"6196bb797f1fca18cd70c8a9","condition":"full-information","relevant_dimensions":["pattern","legs"],"bee_group":{"antennae":"X","wings":"X","pattern":"D","legs":"F"},"bonus":1.200000000000001},{"rt":27785.200000000186,"stimulus":"bees-with-color/bee-B2SF.svg","response":0,"trial_type":"image-button-response","trial_index":109,"time_elapsed":1681552,"internal_node_id":"0.0-4.0-0.51","subject_id":"615ad782b354ec5d3cb3c7ae","study_id":"60edd13110225f80f9f3709b","session_id":"6196bb797f1fca18cd70c8a9","condition":"full-information","relevant_dimensions":["pattern","legs"],"bee_group":{"antennae":"X","wings":"X","pattern":"D","legs":"F"},"action":"harvest","summary":"good-harvest","bonus":1.200000000000001},{"rt":1324.7000000001863,"stimulus":"\n                    <p><b>Action: <em>harvest</em></b></p>\n                    <p>This is the bee that you just saw.</p>\n                    <img src=\"bees-with-color/bee-B2SF.svg\" width=\"200\">\n                    <p><span class=\"greenText\"><b>Successful harvest!</b></span><br>Your pay has increased by $0.02. Your bonus pay is now $0.66.</p>\n            ","response":0,"trial_type":"html-button-response","trial_index":110,"time_elapsed":1682879,"internal_node_id":"0.0-4.0-1.51","subject_id":"615ad782b354ec5d3cb3c7ae","study_id":"60edd13110225f80f9f3709b","session_id":"6196bb797f1fca18cd70c8a9","condition":"full-information","relevant_dimensions":["pattern","legs"],"bee_group":{"antennae":"X","wings":"X","pattern":"D","legs":"F"},"bonus":1.200000000000001},{"rt":22583.900000000373,"stimulus":"bees-with-color/bee-A1DF.svg","response":0,"trial_type":"image-button-response","trial_index":111,"time_elapsed":1705465,"internal_node_id":"0.0-4.0-0.52","subject_id":"615ad782b354ec5d3cb3c7ae","study_id":"60edd13110225f80f9f3709b","session_id":"6196bb797f1fca18cd70c8a9","condition":"full-information","relevant_dimensions":["pattern","legs"],"bee_group":{"antennae":"X","wings":"X","pattern":"D","legs":"F"},"action":"harvest","summary":"bad-harvest","bonus":1.200000000000001},{"rt":5776,"stimulus":"\n                    <p><b>Action: <em>harvest</em></b></p>\n                    <p>This is the bee that you just saw.</p>\n                    <img src=\"bees-with-color/bee-A1DF.svg\" width=\"200\">\n                    <p><span class=\"redText\">Bad choice, the bee was angry.</span><br><b>You have been stung!</b><br>Your pay has been decreased by $0.10. Your bonus pay is now $0.56.</p>\n            ","response":0,"trial_type":"html-button-response","trial_index":112,"time_elapsed":1711243,"internal_node_id":"0.0-4.0-1.52","subject_id":"615ad782b354ec5d3cb3c7ae","study_id":"60edd13110225f80f9f3709b","session_id":"6196bb797f1fca18cd70c8a9","condition":"full-information","relevant_dimensions":["pattern","legs"],"bee_group":{"antennae":"X","wings":"X","pattern":"D","legs":"F"},"bonus":1.200000000000001},{"rt":9074.399999999907,"stimulus":"bees-with-color/bee-A1DM.svg","response":0,"trial_type":"image-button-response","trial_index":113,"time_elapsed":1720319,"internal_node_id":"0.0-4.0-0.53","subject_id":"615ad782b354ec5d3cb3c7ae","study_id":"60edd13110225f80f9f3709b","session_id":"6196bb797f1fca18cd70c8a9","condition":"full-information","relevant_dimensions":["pattern","legs"],"bee_group":{"antennae":"X","wings":"X","pattern":"D","legs":"F"},"action":"harvest","summary":"good-harvest","bonus":1.200000000000001},{"rt":1445,"stimulus":"\n                    <p><b>Action: <em>harvest</em></b></p>\n                    <p>This is the bee that you just saw.</p>\n                    <img src=\"bees-with-color/bee-A1DM.svg\" width=\"200\">\n                    <p><span class=\"greenText\"><b>Successful harvest!</b></span><br>Your pay has increased by $0.02. Your bonus pay is now $0.58.</p>\n            ","response":0,"trial_type":"html-button-response","trial_index":114,"time_elapsed":1721766,"internal_node_id":"0.0-4.0-1.53","subject_id":"615ad782b354ec5d3cb3c7ae","study_id":"60edd13110225f80f9f3709b","session_id":"6196bb797f1fca18cd70c8a9","condition":"full-information","relevant_dimensions":["pattern","legs"],"bee_group":{"antennae":"X","wings":"X","pattern":"D","legs":"F"},"bonus":1.200000000000001},{"rt":52738.80000000028,"stimulus":"bees-with-color/bee-B2DM.svg","response":0,"trial_type":"image-button-response","trial_index":115,"time_elapsed":1774507,"internal_node_id":"0.0-4.0-0.54","subject_id":"615ad782b354ec5d3cb3c7ae","study_id":"60edd13110225f80f9f3709b","session_id":"6196bb797f1fca18cd70c8a9","condition":"full-information","relevant_dimensions":["pattern","legs"],"bee_group":{"antennae":"X","wings":"X","pattern":"D","legs":"F"},"action":"harvest","summary":"good-harvest","bonus":1.200000000000001},{"rt":1173.2999999998137,"stimulus":"\n                    <p><b>Action: <em>harvest</em></b></p>\n                    <p>This is the bee that you just saw.</p>\n                    <img src=\"bees-with-color/bee-B2DM.svg\" width=\"200\">\n                    <p><span class=\"greenText\"><b>Successful harvest!</b></span><br>Your pay has increased by $0.02. Your bonus pay is now $0.60.</p>\n            ","response":0,"trial_type":"html-button-response","trial_index":116,"time_elapsed":1775682,"internal_node_id":"0.0-4.0-1.54","subject_id":"615ad782b354ec5d3cb3c7ae","study_id":"60edd13110225f80f9f3709b","session_id":"6196bb797f1fca18cd70c8a9","condition":"full-information","relevant_dimensions":["pattern","legs"],"bee_group":{"antennae":"X","wings":"X","pattern":"D","legs":"F"},"bonus":1.200000000000001},{"rt":9552,"stimulus":"bees-with-color/bee-B2SM.svg","response":0,"trial_type":"image-button-response","trial_index":117,"time_elapsed":1785236,"internal_node_id":"0.0-4.0-0.55","subject_id":"615ad782b354ec5d3cb3c7ae","study_id":"60edd13110225f80f9f3709b","session_id":"6196bb797f1fca18cd70c8a9","condition":"full-information","relevant_dimensions":["pattern","legs"],"bee_group":{"antennae":"X","wings":"X","pattern":"D","legs":"F"},"action":"harvest","summary":"good-harvest","bonus":1.200000000000001},{"rt":7160.699999999721,"stimulus":"\n                    <p><b>Action: <em>harvest</em></b></p>\n                    <p>This is the bee that you just saw.</p>\n                    <img src=\"bees-with-color/bee-B2SM.svg\" width=\"200\">\n                    <p><span class=\"greenText\"><b>Successful harvest!</b></span><br>Your pay has increased by $0.02. Your bonus pay is now $0.62.</p>\n            ","response":0,"trial_type":"html-button-response","trial_index":118,"time_elapsed":1792399,"internal_node_id":"0.0-4.0-1.55","subject_id":"615ad782b354ec5d3cb3c7ae","study_id":"60edd13110225f80f9f3709b","session_id":"6196bb797f1fca18cd70c8a9","condition":"full-information","relevant_dimensions":["pattern","legs"],"bee_group":{"antennae":"X","wings":"X","pattern":"D","legs":"F"},"bonus":1.200000000000001},{"rt":28670.299999999814,"stimulus":"bees-with-color/bee-A2SM.svg","response":0,"trial_type":"image-button-response","trial_index":119,"time_elapsed":1821071,"internal_node_id":"0.0-4.0-0.56","subject_id":"615ad782b354ec5d3cb3c7ae","study_id":"60edd13110225f80f9f3709b","session_id":"6196bb797f1fca18cd70c8a9","condition":"full-information","relevant_dimensions":["pattern","legs"],"bee_group":{"antennae":"X","wings":"X","pattern":"D","legs":"F"},"action":"harvest","summary":"good-harvest","bonus":1.200000000000001},{"rt":1314,"stimulus":"\n                    <p><b>Action: <em>harvest</em></b></p>\n                    <p>This is the bee that you just saw.</p>\n                    <img src=\"bees-with-color/bee-A2SM.svg\" width=\"200\">\n                    <p><span class=\"greenText\"><b>Successful harvest!</b></span><br>Your pay has increased by $0.02. Your bonus pay is now $0.64.</p>\n            ","response":0,"trial_type":"html-button-response","trial_index":120,"time_elapsed":1822387,"internal_node_id":"0.0-4.0-1.56","subject_id":"615ad782b354ec5d3cb3c7ae","study_id":"60edd13110225f80f9f3709b","session_id":"6196bb797f1fca18cd70c8a9","condition":"full-information","relevant_dimensions":["pattern","legs"],"bee_group":{"antennae":"X","wings":"X","pattern":"D","legs":"F"},"bonus":1.200000000000001},{"rt":4167.199999999721,"stimulus":"bees-with-color/bee-B1SM.svg","response":0,"trial_type":"image-button-response","trial_index":121,"time_elapsed":1826556,"internal_node_id":"0.0-4.0-0.57","subject_id":"615ad782b354ec5d3cb3c7ae","study_id":"60edd13110225f80f9f3709b","session_id":"6196bb797f1fca18cd70c8a9","condition":"full-information","relevant_dimensions":["pattern","legs"],"bee_group":{"antennae":"X","wings":"X","pattern":"D","legs":"F"},"action":"harvest","summary":"good-harvest","bonus":1.200000000000001},{"rt":1987,"stimulus":"\n                    <p><b>Action: <em>harvest</em></b></p>\n                    <p>This is the bee that you just saw.</p>\n                    <img src=\"bees-with-color/bee-B1SM.svg\" width=\"200\">\n                    <p><span class=\"greenText\"><b>Successful harvest!</b></span><br>Your pay has increased by $0.02. Your bonus pay is now $0.66.</p>\n            ","response":0,"trial_type":"html-button-response","trial_index":122,"time_elapsed":1828545,"internal_node_id":"0.0-4.0-1.57","subject_id":"615ad782b354ec5d3cb3c7ae","study_id":"60edd13110225f80f9f3709b","session_id":"6196bb797f1fca18cd70c8a9","condition":"full-information","relevant_dimensions":["pattern","legs"],"bee_group":{"antennae":"X","wings":"X","pattern":"D","legs":"F"},"bonus":1.200000000000001},{"rt":10981.80000000028,"stimulus":"bees-with-color/bee-A2DM.svg","response":0,"trial_type":"image-button-response","trial_index":123,"time_elapsed":1839529,"internal_node_id":"0.0-4.0-0.58","subject_id":"615ad782b354ec5d3cb3c7ae","study_id":"60edd13110225f80f9f3709b","session_id":"6196bb797f1fca18cd70c8a9","condition":"full-information","relevant_dimensions":["pattern","legs"],"bee_group":{"antennae":"X","wings":"X","pattern":"D","legs":"F"},"action":"harvest","summary":"good-harvest","bonus":1.200000000000001},{"rt":1223.5,"stimulus":"\n                    <p><b>Action: <em>harvest</em></b></p>\n                    <p>This is the bee that you just saw.</p>\n                    <img src=\"bees-with-color/bee-A2DM.svg\" width=\"200\">\n                    <p><span class=\"greenText\"><b>Successful harvest!</b></span><br>Your pay has increased by $0.02. Your bonus pay is now $0.68.</p>\n            ","response":0,"trial_type":"html-button-response","trial_index":124,"time_elapsed":1840755,"internal_node_id":"0.0-4.0-1.58","subject_id":"615ad782b354ec5d3cb3c7ae","study_id":"60edd13110225f80f9f3709b","session_id":"6196bb797f1fca18cd70c8a9","condition":"full-information","relevant_dimensions":["pattern","legs"],"bee_group":{"antennae":"X","wings":"X","pattern":"D","legs":"F"},"bonus":1.200000000000001},{"rt":12477,"stimulus":"bees-with-color/bee-B2DF.svg","response":1,"trial_type":"image-button-response","trial_index":125,"time_elapsed":1853235,"internal_node_id":"0.0-4.0-0.59","subject_id":"615ad782b354ec5d3cb3c7ae","study_id":"60edd13110225f80f9f3709b","session_id":"6196bb797f1fca18cd70c8a9","condition":"full-information","relevant_dimensions":["pattern","legs"],"bee_group":{"antennae":"X","wings":"X","pattern":"D","legs":"F"},"action":"avoid","summary":"good-avoid","bonus":1.200000000000001},{"rt":1354.1000000000931,"stimulus":"\n                    <p><b>Action: <em>avoid</em></b></p>\n                    <p>This is the bee that you just saw.</p>\n                    <img src=\"bees-with-color/bee-B2DF.svg\" width=\"200\">\n                    <p><span class=\"greenText\">Good choice!</span>  This bee would have stung you.<br>Your bonus pay is unchanged, and remains at $0.68.</p>\n            ","response":0,"trial_type":"html-button-response","trial_index":126,"time_elapsed":1854591,"internal_node_id":"0.0-4.0-1.59","subject_id":"615ad782b354ec5d3cb3c7ae","study_id":"60edd13110225f80f9f3709b","session_id":"6196bb797f1fca18cd70c8a9","condition":"full-information","relevant_dimensions":["pattern","legs"],"bee_group":{"antennae":"X","wings":"X","pattern":"D","legs":"F"},"bonus":1.200000000000001},{"rt":41200.5,"stimulus":"bees-with-color/bee-A2DF.svg","response":1,"trial_type":"image-button-response","trial_index":127,"time_elapsed":1895793,"internal_node_id":"0.0-4.0-0.60","subject_id":"615ad782b354ec5d3cb3c7ae","study_id":"60edd13110225f80f9f3709b","session_id":"6196bb797f1fca18cd70c8a9","condition":"full-information","relevant_dimensions":["pattern","legs"],"bee_group":{"antennae":"X","wings":"X","pattern":"D","legs":"F"},"action":"avoid","summary":"good-avoid","bonus":1.200000000000001},{"rt":1001.2999999998137,"stimulus":"\n                    <p><b>Action: <em>avoid</em></b></p>\n                    <p>This is the bee that you just saw.</p>\n                    <img src=\"bees-with-color/bee-A2DF.svg\" width=\"200\">\n                    <p><span class=\"greenText\">Good choice!</span>  This bee would have stung you.<br>Your bonus pay is unchanged, and remains at $0.68.</p>\n            ","response":0,"trial_type":"html-button-response","trial_index":128,"time_elapsed":1896797,"internal_node_id":"0.0-4.0-1.60","subject_id":"615ad782b354ec5d3cb3c7ae","study_id":"60edd13110225f80f9f3709b","session_id":"6196bb797f1fca18cd70c8a9","condition":"full-information","relevant_dimensions":["pattern","legs"],"bee_group":{"antennae":"X","wings":"X","pattern":"D","legs":"F"},"bonus":1.200000000000001},{"rt":19331.30000000028,"stimulus":"bees-with-color/bee-A1SM.svg","response":0,"trial_type":"image-button-response","trial_index":129,"time_elapsed":1916131,"internal_node_id":"0.0-4.0-0.61","subject_id":"615ad782b354ec5d3cb3c7ae","study_id":"60edd13110225f80f9f3709b","session_id":"6196bb797f1fca18cd70c8a9","condition":"full-information","relevant_dimensions":["pattern","legs"],"bee_group":{"antennae":"X","wings":"X","pattern":"D","legs":"F"},"action":"harvest","summary":"good-harvest","bonus":1.200000000000001},{"rt":1172.7999999998137,"stimulus":"\n                    <p><b>Action: <em>harvest</em></b></p>\n                    <p>This is the bee that you just saw.</p>\n                    <img src=\"bees-with-color/bee-A1SM.svg\" width=\"200\">\n                    <p><span class=\"greenText\"><b>Successful harvest!</b></span><br>Your pay has increased by $0.02. Your bonus pay is now $0.70.</p>\n            ","response":0,"trial_type":"html-button-response","trial_index":130,"time_elapsed":1917306,"internal_node_id":"0.0-4.0-1.61","subject_id":"615ad782b354ec5d3cb3c7ae","study_id":"60edd13110225f80f9f3709b","session_id":"6196bb797f1fca18cd70c8a9","condition":"full-information","relevant_dimensions":["pattern","legs"],"bee_group":{"antennae":"X","wings":"X","pattern":"D","legs":"F"},"bonus":1.200000000000001},{"rt":24496.600000000093,"stimulus":"bees-with-color/bee-A2SF.svg","response":0,"trial_type":"image-button-response","trial_index":131,"time_elapsed":1941805,"internal_node_id":"0.0-4.0-0.62","subject_id":"615ad782b354ec5d3cb3c7ae","study_id":"60edd13110225f80f9f3709b","session_id":"6196bb797f1fca18cd70c8a9","condition":"full-information","relevant_dimensions":["pattern","legs"],"bee_group":{"antennae":"X","wings":"X","pattern":"D","legs":"F"},"action":"harvest","summary":"good-harvest","bonus":1.200000000000001},{"rt":1082.1000000000931,"stimulus":"\n                    <p><b>Action: <em>harvest</em></b></p>\n                    <p>This is the bee that you just saw.</p>\n                    <img src=\"bees-with-color/bee-A2SF.svg\" width=\"200\">\n                    <p><span class=\"greenText\"><b>Successful harvest!</b></span><br>Your pay has increased by $0.02. Your bonus pay is now $0.72.</p>\n            ","response":0,"trial_type":"html-button-response","trial_index":132,"time_elapsed":1942890,"internal_node_id":"0.0-4.0-1.62","subject_id":"615ad782b354ec5d3cb3c7ae","study_id":"60edd13110225f80f9f3709b","session_id":"6196bb797f1fca18cd70c8a9","condition":"full-information","relevant_dimensions":["pattern","legs"],"bee_group":{"antennae":"X","wings":"X","pattern":"D","legs":"F"},"bonus":1.200000000000001},{"rt":17147.700000000186,"stimulus":"bees-with-color/bee-B1SF.svg","response":0,"trial_type":"image-button-response","trial_index":133,"time_elapsed":1960041,"internal_node_id":"0.0-4.0-0.63","subject_id":"615ad782b354ec5d3cb3c7ae","study_id":"60edd13110225f80f9f3709b","session_id":"6196bb797f1fca18cd70c8a9","condition":"full-information","relevant_dimensions":["pattern","legs"],"bee_group":{"antennae":"X","wings":"X","pattern":"D","legs":"F"},"action":"harvest","summary":"good-harvest","bonus":1.200000000000001},{"rt":1133.5,"stimulus":"\n                    <p><b>Action: <em>harvest</em></b></p>\n                    <p>This is the bee that you just saw.</p>\n                    <img src=\"bees-with-color/bee-B1SF.svg\" width=\"200\">\n                    <p><span class=\"greenText\"><b>Successful harvest!</b></span><br>Your pay has increased by $0.02. Your bonus pay is now $0.74.</p>\n            ","response":0,"trial_type":"html-button-response","trial_index":134,"time_elapsed":1961176,"internal_node_id":"0.0-4.0-1.63","subject_id":"615ad782b354ec5d3cb3c7ae","study_id":"60edd13110225f80f9f3709b","session_id":"6196bb797f1fca18cd70c8a9","condition":"full-information","relevant_dimensions":["pattern","legs"],"bee_group":{"antennae":"X","wings":"X","pattern":"D","legs":"F"},"bonus":1.200000000000001},{"rt":2429.600000000093,"stimulus":"You have completed the first part of this experiment.<br><br>You will now begin a shorter second part, in which you will receive no feedback.<br>The same rules regarding bonus pay apply.<br><br>Press any key to begin.","response":" ","trial_type":"html-keyboard-response","trial_index":135,"time_elapsed":1963608,"internal_node_id":"0.0-5.0","subject_id":"615ad782b354ec5d3cb3c7ae","study_id":"60edd13110225f80f9f3709b","session_id":"6196bb797f1fca18cd70c8a9","condition":"full-information","relevant_dimensions":["pattern","legs"],"bee_group":{"antennae":"X","wings":"X","pattern":"D","legs":"F"},"bonus":1.200000000000001},{"rt":13307,"stimulus":"bees-with-color/bee-A2DF.svg","response":1,"trial_type":"image-button-response","trial_index":136,"time_elapsed":1976936,"internal_node_id":"0.0-6.0-0.0","subject_id":"615ad782b354ec5d3cb3c7ae","study_id":"60edd13110225f80f9f3709b","session_id":"6196bb797f1fca18cd70c8a9","condition":"full-information","relevant_dimensions":["pattern","legs"],"bee_group":{"antennae":"X","wings":"X","pattern":"D","legs":"F"},"bonus":1.200000000000001},{"rt":27892,"stimulus":"bees-with-color/bee-A2SF.svg","response":0,"trial_type":"image-button-response","trial_index":137,"time_elapsed":2004831,"internal_node_id":"0.0-6.0-0.1","subject_id":"615ad782b354ec5d3cb3c7ae","study_id":"60edd13110225f80f9f3709b","session_id":"6196bb797f1fca18cd70c8a9","condition":"full-information","relevant_dimensions":["pattern","legs"],"bee_group":{"antennae":"X","wings":"X","pattern":"D","legs":"F"},"bonus":1.200000000000001},{"rt":13516,"stimulus":"bees-with-color/bee-A1SM.svg","response":0,"trial_type":"image-button-response","trial_index":138,"time_elapsed":2018350,"internal_node_id":"0.0-6.0-0.2","subject_id":"615ad782b354ec5d3cb3c7ae","study_id":"60edd13110225f80f9f3709b","session_id":"6196bb797f1fca18cd70c8a9","condition":"full-information","relevant_dimensions":["pattern","legs"],"bee_group":{"antennae":"X","wings":"X","pattern":"D","legs":"F"},"bonus":1.200000000000001},{"rt":21433.399999999907,"stimulus":"bees-with-color/bee-B2DF.svg","response":1,"trial_type":"image-button-response","trial_index":139,"time_elapsed":2039786,"internal_node_id":"0.0-6.0-0.3","subject_id":"615ad782b354ec5d3cb3c7ae","study_id":"60edd13110225f80f9f3709b","session_id":"6196bb797f1fca18cd70c8a9","condition":"full-information","relevant_dimensions":["pattern","legs"],"bee_group":{"antennae":"X","wings":"X","pattern":"D","legs":"F"},"bonus":1.200000000000001},{"rt":33002.200000000186,"stimulus":"bees-with-color/bee-A2SM.svg","response":0,"trial_type":"image-button-response","trial_index":140,"time_elapsed":2072791,"internal_node_id":"0.0-6.0-0.4","subject_id":"615ad782b354ec5d3cb3c7ae","study_id":"60edd13110225f80f9f3709b","session_id":"6196bb797f1fca18cd70c8a9","condition":"full-information","relevant_dimensions":["pattern","legs"],"bee_group":{"antennae":"X","wings":"X","pattern":"D","legs":"F"},"bonus":1.200000000000001},{"rt":55593.10000000009,"stimulus":"bees-with-color/bee-B2SM.svg","response":0,"trial_type":"image-button-response","trial_index":141,"time_elapsed":2128390,"internal_node_id":"0.0-6.0-0.5","subject_id":"615ad782b354ec5d3cb3c7ae","study_id":"60edd13110225f80f9f3709b","session_id":"6196bb797f1fca18cd70c8a9","condition":"full-information","relevant_dimensions":["pattern","legs"],"bee_group":{"antennae":"X","wings":"X","pattern":"D","legs":"F"},"bonus":1.200000000000001},{"rt":38322.89999999991,"stimulus":"bees-with-color/bee-B1SM.svg","response":0,"trial_type":"image-button-response","trial_index":142,"time_elapsed":2166716,"internal_node_id":"0.0-6.0-0.6","subject_id":"615ad782b354ec5d3cb3c7ae","study_id":"60edd13110225f80f9f3709b","session_id":"6196bb797f1fca18cd70c8a9","condition":"full-information","relevant_dimensions":["pattern","legs"],"bee_group":{"antennae":"X","wings":"X","pattern":"D","legs":"F"},"bonus":1.200000000000001},{"rt":58778.5,"stimulus":"bees-with-color/bee-B2DM.svg","response":0,"trial_type":"image-button-response","trial_index":143,"time_elapsed":2225493,"internal_node_id":"0.0-6.0-0.7","subject_id":"615ad782b354ec5d3cb3c7ae","study_id":"60edd13110225f80f9f3709b","session_id":"6196bb797f1fca18cd70c8a9","condition":"full-information","relevant_dimensions":["pattern","legs"],"bee_group":{"antennae":"X","wings":"X","pattern":"D","legs":"F"},"bonus":1.200000000000001},{"rt":22558.200000000186,"stimulus":"bees-with-color/bee-B1DF.svg","response":1,"trial_type":"image-button-response","trial_index":144,"time_elapsed":2248056,"internal_node_id":"0.0-6.0-0.8","subject_id":"615ad782b354ec5d3cb3c7ae","study_id":"60edd13110225f80f9f3709b","session_id":"6196bb797f1fca18cd70c8a9","condition":"full-information","relevant_dimensions":["pattern","legs"],"bee_group":{"antennae":"X","wings":"X","pattern":"D","legs":"F"},"bonus":1.200000000000001},{"rt":8327.700000000186,"stimulus":"bees-with-color/bee-A2DM.svg","response":0,"trial_type":"image-button-response","trial_index":145,"time_elapsed":2256386,"internal_node_id":"0.0-6.0-0.9","subject_id":"615ad782b354ec5d3cb3c7ae","study_id":"60edd13110225f80f9f3709b","session_id":"6196bb797f1fca18cd70c8a9","condition":"full-information","relevant_dimensions":["pattern","legs"],"bee_group":{"antennae":"X","wings":"X","pattern":"D","legs":"F"},"bonus":1.200000000000001},{"rt":36405.700000000186,"stimulus":"bees-with-color/bee-B1DM.svg","response":1,"trial_type":"image-button-response","trial_index":146,"time_elapsed":2292800,"internal_node_id":"0.0-6.0-0.10","subject_id":"615ad782b354ec5d3cb3c7ae","study_id":"60edd13110225f80f9f3709b","session_id":"6196bb797f1fca18cd70c8a9","condition":"full-information","relevant_dimensions":["pattern","legs"],"bee_group":{"antennae":"X","wings":"X","pattern":"D","legs":"F"},"bonus":1.200000000000001},{"rt":13526.899999999907,"stimulus":"bees-with-color/bee-A1DM.svg","response":0,"trial_type":"image-button-response","trial_index":147,"time_elapsed":2306330,"internal_node_id":"0.0-6.0-0.11","subject_id":"615ad782b354ec5d3cb3c7ae","study_id":"60edd13110225f80f9f3709b","session_id":"6196bb797f1fca18cd70c8a9","condition":"full-information","relevant_dimensions":["pattern","legs"],"bee_group":{"antennae":"X","wings":"X","pattern":"D","legs":"F"},"bonus":1.200000000000001},{"rt":43443.40000000037,"stimulus":"bees-with-color/bee-B2SF.svg","response":0,"trial_type":"image-button-response","trial_index":148,"time_elapsed":2349777,"internal_node_id":"0.0-6.0-0.12","subject_id":"615ad782b354ec5d3cb3c7ae","study_id":"60edd13110225f80f9f3709b","session_id":"6196bb797f1fca18cd70c8a9","condition":"full-information","relevant_dimensions":["pattern","legs"],"bee_group":{"antennae":"X","wings":"X","pattern":"D","legs":"F"},"bonus":1.200000000000001},{"rt":3683.100000000093,"stimulus":"bees-with-color/bee-B1SF.svg","response":0,"trial_type":"image-button-response","trial_index":149,"time_elapsed":2353462,"internal_node_id":"0.0-6.0-0.13","subject_id":"615ad782b354ec5d3cb3c7ae","study_id":"60edd13110225f80f9f3709b","session_id":"6196bb797f1fca18cd70c8a9","condition":"full-information","relevant_dimensions":["pattern","legs"],"bee_group":{"antennae":"X","wings":"X","pattern":"D","legs":"F"},"bonus":1.200000000000001},{"rt":23111.200000000186,"stimulus":"bees-with-color/bee-A1SF.svg","response":0,"trial_type":"image-button-response","trial_index":150,"time_elapsed":2376576,"internal_node_id":"0.0-6.0-0.14","subject_id":"615ad782b354ec5d3cb3c7ae","study_id":"60edd13110225f80f9f3709b","session_id":"6196bb797f1fca18cd70c8a9","condition":"full-information","relevant_dimensions":["pattern","legs"],"bee_group":{"antennae":"X","wings":"X","pattern":"D","legs":"F"},"bonus":1.200000000000001},{"rt":20856.899999999907,"stimulus":"bees-with-color/bee-A1DF.svg","response":1,"trial_type":"image-button-response","trial_index":151,"time_elapsed":2397436,"internal_node_id":"0.0-6.0-0.15","subject_id":"615ad782b354ec5d3cb3c7ae","study_id":"60edd13110225f80f9f3709b","session_id":"6196bb797f1fca18cd70c8a9","condition":"full-information","relevant_dimensions":["pattern","legs"],"bee_group":{"antennae":"X","wings":"X","pattern":"D","legs":"F"},"bonus":1.200000000000001},{"rt":27794,"stimulus":"bees-with-color/bee-B2SM.svg","response":0,"trial_type":"image-button-response","trial_index":152,"time_elapsed":2425234,"internal_node_id":"0.0-6.0-0.16","subject_id":"615ad782b354ec5d3cb3c7ae","study_id":"60edd13110225f80f9f3709b","session_id":"6196bb797f1fca18cd70c8a9","condition":"full-information","relevant_dimensions":["pattern","legs"],"bee_group":{"antennae":"X","wings":"X","pattern":"D","legs":"F"},"bonus":1.200000000000001},{"rt":31967.600000000093,"stimulus":"bees-with-color/bee-B1DF.svg","response":1,"trial_type":"image-button-response","trial_index":153,"time_elapsed":2457205,"internal_node_id":"0.0-6.0-0.17","subject_id":"615ad782b354ec5d3cb3c7ae","study_id":"60edd13110225f80f9f3709b","session_id":"6196bb797f1fca18cd70c8a9","condition":"full-information","relevant_dimensions":["pattern","legs"],"bee_group":{"antennae":"X","wings":"X","pattern":"D","legs":"F"},"bonus":1.200000000000001},{"rt":11939.200000000186,"stimulus":"bees-with-color/bee-A2SF.svg","response":0,"trial_type":"image-button-response","trial_index":154,"time_elapsed":2469146,"internal_node_id":"0.0-6.0-0.18","subject_id":"615ad782b354ec5d3cb3c7ae","study_id":"60edd13110225f80f9f3709b","session_id":"6196bb797f1fca18cd70c8a9","condition":"full-information","relevant_dimensions":["pattern","legs"],"bee_group":{"antennae":"X","wings":"X","pattern":"D","legs":"F"},"bonus":1.200000000000001},{"rt":34500.5,"stimulus":"bees-with-color/bee-B2SF.svg","response":0,"trial_type":"image-button-response","trial_index":155,"time_elapsed":2503649,"internal_node_id":"0.0-6.0-0.19","subject_id":"615ad782b354ec5d3cb3c7ae","study_id":"60edd13110225f80f9f3709b","session_id":"6196bb797f1fca18cd70c8a9","condition":"full-information","relevant_dimensions":["pattern","legs"],"bee_group":{"antennae":"X","wings":"X","pattern":"D","legs":"F"},"bonus":1.200000000000001},{"rt":6372.0999999996275,"stimulus":"bees-with-color/bee-B1SF.svg","response":0,"trial_type":"image-button-response","trial_index":156,"time_elapsed":2510025,"internal_node_id":"0.0-6.0-0.20","subject_id":"615ad782b354ec5d3cb3c7ae","study_id":"60edd13110225f80f9f3709b","session_id":"6196bb797f1fca18cd70