[{"success":true,"trial_type":"fullscreen","trial_index":0,"time_elapsed":3085,"internal_node_id":"0.0-0.0","subject_id":"5b9c28c460e5f700017c0636","study_id":"6197b3f67c2b5cd3b6d9596a","session_id":"619beefca59a5a266350b606","condition":"contingent","relevant_dimensions":["pattern","legs"],"bee_group":{"antennae":"X","wings":"X","pattern":"S","legs":"F"},"bonus":1.2600000000000011},{"success":true,"timeout":false,"failed_images":[],"failed_audio":[],"failed_video":[],"trial_type":"preload","trial_index":1,"time_elapsed":4655,"internal_node_id":"0.0-1.0","subject_id":"5b9c28c460e5f700017c0636","study_id":"6197b3f67c2b5cd3b6d9596a","session_id":"619beefca59a5a266350b606","condition":"contingent","relevant_dimensions":["pattern","legs"],"bee_group":{"antennae":"X","wings":"X","pattern":"S","legs":"F"},"bonus":1.2600000000000011},{"rt":1603.8999999761581,"stimulus":"Welcome! Press any key to begin.","response":"v","trial_type":"html-keyboard-response","trial_index":2,"time_elapsed":6260,"internal_node_id":"0.0-2.0","subject_id":"5b9c28c460e5f700017c0636","study_id":"6197b3f67c2b5cd3b6d9596a","session_id":"619beefca59a5a266350b606","condition":"contingent","relevant_dimensions":["pattern","legs"],"bee_group":{"antennae":"X","wings":"X","pattern":"S","legs":"F"},"bonus":1.2600000000000011},{"view_history":[{"page_index":0,"viewing_time":4053.4000000953674},{"page_index":1,"viewing_time":29140.5},{"page_index":2,"viewing_time":10058.399999976158},{"page_index":3,"viewing_time":12208.5},{"page_index":4,"viewing_time":7859.5},{"page_index":5,"viewing_time":17147.199999928474},{"page_index":6,"viewing_time":7233.200000047684},{"page_index":7,"viewing_time":5736.399999976158},{"page_index":8,"viewing_time":4657},{"page_index":9,"viewing_time":1883.2000000476837},{"page_index":10,"viewing_time":2395.399999976158},{"page_index":11,"viewing_time":9334.399999976158},{"page_index":12,"viewing_time":22792.800000071526},{"page_index":13,"viewing_time":1038.0999999046326},{"page_index":14,"viewing_time":2657.5}],"rt":138195.70000004768,"trial_type":"instructions","trial_index":3,"time_elapsed":144457,"internal_node_id":"0.0-3.0-0.0","subject_id":"5b9c28c460e5f700017c0636","study_id":"6197b3f67c2b5cd3b6d9596a","session_id":"619beefca59a5a266350b606","condition":"contingent","relevant_dimensions":["pattern","legs"],"bee_group":{"antennae":"X","wings":"X","pattern":"S","legs":"F"},"bonus":1.2600000000000011},{"rt":10361.5,"response":{"Q0":["Two or six legs","Stripes or spots on body","Single or double wings","Antennae or no antennae"]},"question_order":[0],"trial_type":"survey-multi-select","trial_index":4,"time_elapsed":154821,"internal_node_id":"0.0-3.0-1.0","subject_id":"5b9c28c460e5f700017c0636","study_id":"6197b3f67c2b5cd3b6d9596a","session_id":"619beefca59a5a266350b606","condition":"contingent","relevant_dimensions":["pattern","legs"],"bee_group":{"antennae":"X","wings":"X","pattern":"S","legs":"F"},"correct":true,"bonus":1.2600000000000011},{"rt":38942.300000071526,"response":{"Q1":"No.","Q2":"Based on the four features of the bee.","Q3":"You learn if it was friendly or dangerous, but do not alter your bonus."},"question_order":[0,1,2],"trial_type":"survey-multi-choice","trial_index":5,"time_elapsed":193767,"internal_node_id":"0.0-3.0-2.0","subject_id":"5b9c28c460e5f700017c0636","study_id":"6197b3f67c2b5cd3b6d9596a","session_id":"619beefca59a5a266350b606","condition":"contingent","relevant_dimensions":["pattern","legs"],"bee_group":{"antennae":"X","wings":"X","pattern":"S","legs":"F"},"correct":false,"bonus":1.2600000000000011},{"rt":5266.699999928474,"stimulus":"<p>You did not answer all comprehension questions correctly.<br>Press <b>continue</b> to review the instructions again.</p>","response":0,"trial_type":"html-button-response","trial_index":6,"time_elapsed":199037,"internal_node_id":"0.0-3.0-3.0","subject_id":"5b9c28c460e5f700017c0636","study_id":"6197b3f67c2b5cd3b6d9596a","session_id":"619beefca59a5a266350b606","condition":"contingent","relevant_dimensions":["pattern","legs"],"bee_group":{"antennae":"X","wings":"X","pattern":"S","legs":"F"},"bonus":1.2600000000000011},{"view_history":[{"page_index":0,"viewing_time":1251.7999999523163},{"page_index":1,"viewing_time":596.6000000238419},{"page_index":2,"viewing_time":708.7000000476837},{"page_index":3,"viewing_time":466.89999997615814},{"page_index":4,"viewing_time":826.3999999761581},{"page_index":5,"viewing_time":377.2000000476837},{"page_index":6,"viewing_time":517.6999999284744},{"page_index":7,"viewing_time":764.2000000476837},{"page_index":8,"viewing_time":182},{"page_index":9,"viewing_time":167.89999997615814},{"page_index":10,"viewing_time":159},{"page_index":11,"viewing_time":724.7000000476837},{"page_index":12,"viewing_time":742.5},{"page_index":13,"viewing_time":735.1999999284744},{"page_index":14,"viewing_time":369.2000000476837}],"rt":8590.199999928474,"trial_type":"instructions","trial_index":7,"time_elapsed":207627,"internal_node_id":"0.0-3.0-4.0-0.0","subject_id":"5b9c28c460e5f700017c0636","study_id":"6197b3f67c2b5cd3b6d9596a","session_id":"619beefca59a5a266350b606","condition":"contingent","relevant_dimensions":["pattern","legs"],"bee_group":{"antennae":"X","wings":"X","pattern":"S","legs":"F"},"bonus":1.2600000000000011},{"rt":6298,"response":{"Q0":["Two or six legs","Stripes or spots on body","Single or double wings","Antennae or no antennae"]},"question_order":[0],"trial_type":"survey-multi-select","trial_index":8,"time_elapsed":213927,"internal_node_id":"0.0-3.0-4.0-1.0","subject_id":"5b9c28c460e5f700017c0636","study_id":"6197b3f67c2b5cd3b6d9596a","session_id":"619beefca59a5a266350b606","condition":"contingent","relevant_dimensions":["pattern","legs"],"bee_group":{"antennae":"X","wings":"X","pattern":"S","legs":"F"},"correct":true,"bonus":1.2600000000000011},{"rt":5873.399999976158,"response":{"Q1":"No.","Q2":"Based on the four features of the bee.","Q3":"You do not learn if it was friendly or dangerous, and do not alter your bonus."},"question_order":[0,1,2],"trial_type":"survey-multi-choice","trial_index":9,"time_elapsed":219803,"internal_node_id":"0.0-3.0-4.0-2.0","subject_id":"5b9c28c460e5f700017c0636","study_id":"6197b3f67c2b5cd3b6d9596a","session_id":"619beefca59a5a266350b606","condition":"contingent","relevant_dimensions":["pattern","legs"],"bee_group":{"antennae":"X","wings":"X","pattern":"S","legs":"F"},"correct":true,"bonus":1.2600000000000011},{"rt":947.1000000238419,"stimulus":"<p>Congrats, you got everything right<br>When you're ready, click the button below to continue to the experiment.</p>","response":0,"trial_type":"html-button-response","trial_index":10,"time_elapsed":220752,"internal_node_id":"0.0-3.0-4.0-3.0","subject_id":"5b9c28c460e5f700017c0636","study_id":"6197b3f67c2b5cd3b6d9596a","session_id":"619beefca59a5a266350b606","condition":"contingent","relevant_dimensions":["pattern","legs"],"bee_group":{"antennae":"X","wings":"X","pattern":"S","legs":"F"},"bonus":1.2600000000000011},{"rt":4108.899999976158,"stimulus":"bees-with-color/bee-B2DF.svg","response":0,"trial_type":"image-button-response","trial_index":11,"time_elapsed":224863,"internal_node_id":"0.0-4.0-0.0","subject_id":"5b9c28c460e5f700017c0636","study_id":"6197b3f67c2b5cd3b6d9596a","session_id":"619beefca59a5a266350b606","condition":"contingent","relevant_dimensions":["pattern","legs"],"bee_group":{"antennae":"X","wings":"X","pattern":"S","legs":"F"},"action":"harvest","summary":"good-harvest","bonus":1.2600000000000011},{"rt":10753.399999976158,"stimulus":"\n                    <p><b>Action: <em>harvest</em></b></p>\n                    <p>This is the bee that you just saw.</p>\n                    <img src=\"bees-with-color/bee-B2DF.svg\" width=\"200\">\n                    <p><span class=\"greenText\"><b>Successful harvest!</b></span><br>Your pay has increased by $0.02. Your bonus pay is now $0.56.</p>\n            ","response":0,"trial_type":"html-button-response","trial_index":12,"time_elapsed":235618,"internal_node_id":"0.0-4.0-1.0","subject_id":"5b9c28c460e5f700017c0636","study_id":"6197b3f67c2b5cd3b6d9596a","session_id":"619beefca59a5a266350b606","condition":"contingent","relevant_dimensions":["pattern","legs"],"bee_group":{"antennae":"X","wings":"X","pattern":"S","legs":"F"},"bonus":1.2600000000000011},{"rt":2344.899999976158,"stimulus":"bees-with-color/bee-B2SF.svg","response":0,"trial_type":"image-button-response","trial_index":13,"time_elapsed":237964,"internal_node_id":"0.0-4.0-0.1","subject_id":"5b9c28c460e5f700017c0636","study_id":"6197b3f67c2b5cd3b6d9596a","session_id":"619beefca59a5a266350b606","condition":"contingent","relevant_dimensions":["pattern","legs"],"bee_group":{"antennae":"X","wings":"X","pattern":"S","legs":"F"},"action":"harvest","summary":"bad-harvest","bonus":1.2600000000000011},{"rt":5863.5,"stimulus":"\n                    <p><b>Action: <em>harvest</em></b></p>\n                    <p>This is the bee that you just saw.</p>\n                    <img src=\"bees-with-color/bee-B2SF.svg\" width=\"200\">\n                    <p><span class=\"redText\">Bad choice, the bee was angry.</span><br><b>You have been stung!</b><br>Your pay has been decreased by $0.10. Your bonus pay is now $0.46.</p>\n            ","response":0,"trial_type":"html-button-response","trial_index":14,"time_elapsed":243829,"internal_node_id":"0.0-4.0-1.1","subject_id":"5b9c28c460e5f700017c0636","study_id":"6197b3f67c2b5cd3b6d9596a","session_id":"619beefca59a5a266350b606","condition":"contingent","relevant_dimensions":["pattern","legs"],"bee_group":{"antennae":"X","wings":"X","pattern":"S","legs":"F"},"bonus":1.2600000000000011},{"rt":3395.2000000476837,"stimulus":"bees-with-color/bee-B1DF.svg","response":0,"trial_type":"image-button-response","trial_index":15,"time_elapsed":247225,"internal_node_id":"0.0-4.0-0.2","subject_id":"5b9c28c460e5f700017c0636","study_id":"6197b3f67c2b5cd3b6d9596a","session_id":"619beefca59a5a266350b606","condition":"contingent","relevant_dimensions":["pattern","legs"],"bee_group":{"antennae":"X","wings":"X","pattern":"S","legs":"F"},"action":"harvest","summary":"good-harvest","bonus":1.2600000000000011},{"rt":2700.4000000953674,"stimulus":"\n                    <p><b>Action: <em>harvest</em></b></p>\n                    <p>This is the bee that you just saw.</p>\n                    <img src=\"bees-with-color/bee-B1DF.svg\" width=\"200\">\n                    <p><span class=\"greenText\"><b>Successful harvest!</b></span><br>Your pay has increased by $0.02. Your bonus pay is now $0.48.</p>\n            ","response":0,"trial_type":"html-button-response","trial_index":16,"time_elapsed":249927,"internal_node_id":"0.0-4.0-1.2","subject_id":"5b9c28c460e5f700017c0636","study_id":"6197b3f67c2b5cd3b6d9596a","session_id":"619beefca59a5a266350b606","condition":"contingent","relevant_dimensions":["pattern","legs"],"bee_group":{"antennae":"X","wings":"X","pattern":"S","legs":"F"},"bonus":1.2600000000000011},{"rt":3907.600000023842,"stimulus":"bees-with-color/bee-A2SM.svg","response":0,"trial_type":"image-button-response","trial_index":17,"time_elapsed":253836,"internal_node_id":"0.0-4.0-0.3","subject_id":"5b9c28c460e5f700017c0636","study_id":"6197b3f67c2b5cd3b6d9596a","session_id":"619beefca59a5a266350b606","condition":"contingent","relevant_dimensions":["pattern","legs"],"bee_group":{"antennae":"X","wings":"X","pattern":"S","legs":"F"},"action":"harvest","summary":"good-harvest","bonus":1.2600000000000011},{"rt":1092.3999999761581,"stimulus":"\n                    <p><b>Action: <em>harvest</em></b></p>\n                    <p>This is the bee that you just saw.</p>\n                    <img src=\"bees-with-color/bee-A2SM.svg\" width=\"200\">\n                    <p><span class=\"greenText\"><b>Successful harvest!</b></span><br>Your pay has increased by $0.02. Your bonus pay is now $0.50.</p>\n            ","response":0,"trial_type":"html-button-response","trial_index":18,"time_elapsed":254929,"internal_node_id":"0.0-4.0-1.3","subject_id":"5b9c28c460e5f700017c0636","study_id":"6197b3f67c2b5cd3b6d9596a","session_id":"619beefca59a5a266350b606","condition":"contingent","relevant_dimensions":["pattern","legs"],"bee_group":{"antennae":"X","wings":"X","pattern":"S","legs":"F"},"bonus":1.2600000000000011},{"rt":1737.7000000476837,"stimulus":"bees-with-color/bee-A1DF.svg","response":0,"trial_type":"image-button-response","trial_index":19,"time_elapsed":256668,"internal_node_id":"0.0-4.0-0.4","subject_id":"5b9c28c460e5f700017c0636","study_id":"6197b3f67c2b5cd3b6d9596a","session_id":"619beefca59a5a266350b606","condition":"contingent","relevant_dimensions":["pattern","legs"],"bee_group":{"antennae":"X","wings":"X","pattern":"S","legs":"F"},"action":"harvest","summary":"good-harvest","bonus":1.2600000000000011},{"rt":823.2000000476837,"stimulus":"\n                    <p><b>Action: <em>harvest</em></b></p>\n                    <p>This is the bee that you just saw.</p>\n                    <img src=\"bees-with-color/bee-A1DF.svg\" width=\"200\">\n                    <p><span class=\"greenText\"><b>Successful harvest!</b></span><br>Your pay has increased by $0.02. Your bonus pay is now $0.52.</p>\n            ","response":0,"trial_type":"html-button-response","trial_index":20,"time_elapsed":257492,"internal_node_id":"0.0-4.0-1.4","subject_id":"5b9c28c460e5f700017c0636","study_id":"6197b3f67c2b5cd3b6d9596a","session_id":"619beefca59a5a266350b606","condition":"contingent","relevant_dimensions":["pattern","legs"],"bee_group":{"antennae":"X","wings":"X","pattern":"S","legs":"F"},"bonus":1.2600000000000011},{"rt":1148.1000000238419,"stimulus":"bees-with-color/bee-A1SM.svg","response":0,"trial_type":"image-button-response","trial_index":21,"time_elapsed":258641,"internal_node_id":"0.0-4.0-0.5","subject_id":"5b9c28c460e5f700017c0636","study_id":"6197b3f67c2b5cd3b6d9596a","session_id":"619beefca59a5a266350b606","condition":"contingent","relevant_dimensions":["pattern","legs"],"bee_group":{"antennae":"X","wings":"X","pattern":"S","legs":"F"},"action":"harvest","summary":"good-harvest","bonus":1.2600000000000011},{"rt":692.1000000238419,"stimulus":"\n                    <p><b>Action: <em>harvest</em></b></p>\n                    <p>This is the bee that you just saw.</p>\n                    <img src=\"bees-with-color/bee-A1SM.svg\" width=\"200\">\n                    <p><span class=\"greenText\"><b>Successful harvest!</b></span><br>Your pay has increased by $0.02. Your bonus pay is now $0.54.</p>\n            ","response":0,"trial_type":"html-button-response","trial_index":22,"time_elapsed":259334,"internal_node_id":"0.0-4.0-1.5","subject_id":"5b9c28c460e5f700017c0636","study_id":"6197b3f67c2b5cd3b6d9596a","session_id":"619beefca59a5a266350b606","condition":"contingent","relevant_dimensions":["pattern","legs"],"bee_group":{"antennae":"X","wings":"X","pattern":"S","legs":"F"},"bonus":1.2600000000000011},{"rt":1315.3000000715256,"stimulus":"bees-with-color/bee-B1SM.svg","response":0,"trial_type":"image-button-response","trial_index":23,"time_elapsed":260651,"internal_node_id":"0.0-4.0-0.6","subject_id":"5b9c28c460e5f700017c0636","study_id":"6197b3f67c2b5cd3b6d9596a","session_id":"619beefca59a5a266350b606","condition":"contingent","relevant_dimensions":["pattern","legs"],"bee_group":{"antennae":"X","wings":"X","pattern":"S","legs":"F"},"action":"harvest","summary":"good-harvest","bonus":1.2600000000000011},{"rt":616.1000000238419,"stimulus":"\n                    <p><b>Action: <em>harvest</em></b></p>\n                    <p>This is the bee that you just saw.</p>\n                    <img src=\"bees-with-color/bee-B1SM.svg\" width=\"200\">\n                    <p><span class=\"greenText\"><b>Successful harvest!</b></span><br>Your pay has increased by $0.02. Your bonus pay is now $0.56.</p>\n            ","response":0,"trial_type":"html-button-response","trial_index":24,"time_elapsed":261268,"internal_node_id":"0.0-4.0-1.6","subject_id":"5b9c28c460e5f700017c0636","study_id":"6197b3f67c2b5cd3b6d9596a","session_id":"619beefca59a5a266350b606","condition":"contingent","relevant_dimensions":["pattern","legs"],"bee_group":{"antennae":"X","wings":"X","pattern":"S","legs":"F"},"bonus":1.2600000000000011},{"rt":2043.5,"stimulus":"bees-with-color/bee-A2SF.svg","response":1,"trial_type":"image-button-response","trial_index":25,"time_elapsed":263312,"internal_node_id":"0.0-4.0-0.7","subject_id":"5b9c28c460e5f700017c0636","study_id":"6197b3f67c2b5cd3b6d9596a","session_id":"619beefca59a5a266350b606","condition":"contingent","relevant_dimensions":["pattern","legs"],"bee_group":{"antennae":"X","wings":"X","pattern":"S","legs":"F"},"action":"avoid","summary":"good-avoid","bonus":1.2600000000000011},{"rt":913.5,"stimulus":"\n                    <p><b>Action: <em>avoid</em></b></p>\n                    <p>This is the bee that you just saw.</p>\n                    <img src=\"bees-with-color/bee-A2SF.svg\" width=\"200\">\n                    <p><br>Your bonus pay is unchanged, and remains at $0.56.</p>\n            ","response":0,"trial_type":"html-button-response","trial_index":26,"time_elapsed":264227,"internal_node_id":"0.0-4.0-1.7","subject_id":"5b9c28c460e5f700017c0636","study_id":"6197b3f67c2b5cd3b6d9596a","session_id":"619beefca59a5a266350b606","condition":"contingent","relevant_dimensions":["pattern","legs"],"bee_group":{"antennae":"X","wings":"X","pattern":"S","legs":"F"},"bonus":1.2600000000000011},{"rt":1062.2999999523163,"stimulus":"bees-with-color/bee-A2DM.svg","response":0,"trial_type":"image-button-response","trial_index":27,"time_elapsed":265290,"internal_node_id":"0.0-4.0-0.8","subject_id":"5b9c28c460e5f700017c0636","study_id":"6197b3f67c2b5cd3b6d9596a","session_id":"619beefca59a5a266350b606","condition":"contingent","relevant_dimensions":["pattern","legs"],"bee_group":{"antennae":"X","wings":"X","pattern":"S","legs":"F"},"action":"harvest","summary":"good-harvest","bonus":1.2600000000000011},{"rt":704.8000000715256,"stimulus":"\n                    <p><b>Action: <em>harvest</em></b></p>\n                    <p>This is the bee that you just saw.</p>\n                    <img src=\"bees-with-color/bee-A2DM.svg\" width=\"200\">\n                    <p><span class=\"greenText\"><b>Successful harvest!</b></span><br>Your pay has increased by $0.02. Your bonus pay is now $0.58.</p>\n            ","response":0,"trial_type":"html-button-response","trial_index":28,"time_elapsed":265996,"internal_node_id":"0.0-4.0-1.8","subject_id":"5b9c28c460e5f700017c0636","study_id":"6197b3f67c2b5cd3b6d9596a","session_id":"619beefca59a5a266350b606","condition":"contingent","relevant_dimensions":["pattern","legs"],"bee_group":{"antennae":"X","wings":"X","pattern":"S","legs":"F"},"bonus":1.2600000000000011},{"rt":903.3999999761581,"stimulus":"bees-with-color/bee-A1DM.svg","response":0,"trial_type":"image-button-response","trial_index":29,"time_elapsed":266900,"internal_node_id":"0.0-4.0-0.9","subject_id":"5b9c28c460e5f700017c0636","study_id":"6197b3f67c2b5cd3b6d9596a","session_id":"619beefca59a5a266350b606","condition":"contingent","relevant_dimensions":["pattern","legs"],"bee_group":{"antennae":"X","wings":"X","pattern":"S","legs":"F"},"action":"harvest","summary":"good-harvest","bonus":1.2600000000000011},{"rt":538.2000000476837,"stimulus":"\n                    <p><b>Action: <em>harvest</em></b></p>\n                    <p>This is the bee that you just saw.</p>\n                    <img src=\"bees-with-color/bee-A1DM.svg\" width=\"200\">\n                    <p><span class=\"greenText\"><b>Successful harvest!</b></span><br>Your pay has increased by $0.02. Your bonus pay is now $0.60.</p>\n            ","response":0,"trial_type":"html-button-response","trial_index":30,"time_elapsed":267439,"internal_node_id":"0.0-4.0-1.9","subject_id":"5b9c28c460e5f700017c0636","study_id":"6197b3f67c2b5cd3b6d9596a","session_id":"619beefca59a5a266350b606","condition":"contingent","relevant_dimensions":["pattern","legs"],"bee_group":{"antennae":"X","wings":"X","pattern":"S","legs":"F"},"bonus":1.2600000000000011},{"rt":3342.1999999284744,"stimulus":"bees-with-color/bee-A1SF.svg","response":0,"trial_type":"image-button-response","trial_index":31,"time_elapsed":270783,"internal_node_id":"0.0-4.0-0.10","subject_id":"5b9c28c460e5f700017c0636","study_id":"6197b3f67c2b5cd3b6d9596a","session_id":"619beefca59a5a266350b606","condition":"contingent","relevant_dimensions":["pattern","legs"],"bee_group":{"antennae":"X","wings":"X","pattern":"S","legs":"F"},"action":"harvest","summary":"bad-harvest","bonus":1.2600000000000011},{"rt":4547.399999976158,"stimulus":"\n                    <p><b>Action: <em>harvest</em></b></p>\n                    <p>This is the bee that you just saw.</p>\n                    <img src=\"bees-with-color/bee-A1SF.svg\" width=\"200\">\n                    <p><span class=\"redText\">Bad choice, the bee was angry.</span><br><b>You have been stung!</b><br>Your pay has been decreased by $0.10. Your bonus pay is now $0.50.</p>\n            ","response":0,"trial_type":"html-button-response","trial_index":32,"time_elapsed":275331,"internal_node_id":"0.0-4.0-1.10","subject_id":"5b9c28c460e5f700017c0636","study_id":"6197b3f67c2b5cd3b6d9596a","session_id":"619beefca59a5a266350b606","condition":"contingent","relevant_dimensions":["pattern","legs"],"bee_group":{"antennae":"X","wings":"X","pattern":"S","legs":"F"},"bonus":1.2600000000000011},{"rt":1151.5,"stimulus":"bees-with-color/bee-B1SF.svg","response":0,"trial_type":"image-button-response","trial_index":33,"time_elapsed":276484,"internal_node_id":"0.0-4.0-0.11","subject_id":"5b9c28c460e5f700017c0636","study_id":"6197b3f67c2b5cd3b6d9596a","session_id":"619beefca59a5a266350b606","condition":"contingent","relevant_dimensions":["pattern","legs"],"bee_group":{"antennae":"X","wings":"X","pattern":"S","legs":"F"},"action":"harvest","summary":"bad-harvest","bonus":1.2600000000000011},{"rt":673.1000000238419,"stimulus":"\n                    <p><b>Action: <em>harvest</em></b></p>\n                    <p>This is the bee that you just saw.</p>\n                    <img src=\"bees-with-color/bee-B1SF.svg\" width=\"200\">\n                    <p><span class=\"redText\">Bad choice, the bee was angry.</span><br><b>You have been stung!</b><br>Your pay has been decreased by $0.10. Your bonus pay is now $0.40.</p>\n            ","response":0,"trial_type":"html-button-response","trial_index":34,"time_elapsed":277158,"internal_node_id":"0.0-4.0-1.11","subject_id":"5b9c28c460e5f700017c0636","study_id":"6197b3f67c2b5cd3b6d9596a","session_id":"619beefca59a5a266350b606","condition":"contingent","relevant_dimensions":["pattern","legs"],"bee_group":{"antennae":"X","wings":"X","pattern":"S","legs":"F"},"bonus":1.2600000000000011},{"rt":1559.8999999761581,"stimulus":"bees-with-color/bee-B2DM.svg","response":0,"trial_type":"image-button-response","trial_index":35,"time_elapsed":278719,"internal_node_id":"0.0-4.0-0.12","subject_id":"5b9c28c460e5f700017c0636","study_id":"6197b3f67c2b5cd3b6d9596a","session_id":"619beefca59a5a266350b606","condition":"contingent","relevant_dimensions":["pattern","legs"],"bee_group":{"antennae":"X","wings":"X","pattern":"S","legs":"F"},"action":"harvest","summary":"good-harvest","bonus":1.2600000000000011},{"rt":493,"stimulus":"\n                    <p><b>Action: <em>harvest</em></b></p>\n                    <p>This is the bee that you just saw.</p>\n                    <img src=\"bees-with-color/bee-B2DM.svg\" width=\"200\">\n                    <p><span class=\"greenText\"><b>Successful harvest!</b></span><br>Your pay has increased by $0.02. Your bonus pay is now $0.42.</p>\n            ","response":0,"trial_type":"html-button-response","trial_index":36,"time_elapsed":279213,"internal_node_id":"0.0-4.0-1.12","subject_id":"5b9c28c460e5f700017c0636","study_id":"6197b3f67c2b5cd3b6d9596a","session_id":"619beefca59a5a266350b606","condition":"contingent","relevant_dimensions":["pattern","legs"],"bee_group":{"antennae":"X","wings":"X","pattern":"S","legs":"F"},"bonus":1.2600000000000011},{"rt":1451.4000000953674,"stimulus":"bees-with-color/bee-B2SM.svg","response":0,"trial_type":"image-button-response","trial_index":37,"time_elapsed":280665,"internal_node_id":"0.0-4.0-0.13","subject_id":"5b9c28c460e5f700017c0636","study_id":"6197b3f67c2b5cd3b6d9596a","session_id":"619beefca59a5a266350b606","condition":"contingent","relevant_dimensions":["pattern","legs"],"bee_group":{"antennae":"X","wings":"X","pattern":"S","legs":"F"},"action":"harvest","summary":"good-harvest","bonus":1.2600000000000011},{"rt":505.6999999284744,"stimulus":"\n                    <p><b>Action: <em>harvest</em></b></p>\n                    <p>This is the bee that you just saw.</p>\n                    <img src=\"bees-with-color/bee-B2SM.svg\" width=\"200\">\n                    <p><span class=\"greenText\"><b>Successful harvest!</b></span><br>Your pay has increased by $0.02. Your bonus pay is now $0.44.</p>\n            ","response":0,"trial_type":"html-button-response","trial_index":38,"time_elapsed":281172,"internal_node_id":"0.0-4.0-1.13","subject_id":"5b9c28c460e5f700017c0636","study_id":"6197b3f67c2b5cd3b6d9596a","session_id":"619beefca59a5a266350b606","condition":"contingent","relevant_dimensions":["pattern","legs"],"bee_group":{"antennae":"X","wings":"X","pattern":"S","legs":"F"},"bonus":1.2600000000000011},{"rt":842.6999999284744,"stimulus":"bees-with-color/bee-B1DM.svg","response":0,"trial_type":"image-button-response","trial_index":39,"time_elapsed":282016,"internal_node_id":"0.0-4.0-0.14","subject_id":"5b9c28c460e5f700017c0636","study_id":"6197b3f67c2b5cd3b6d9596a","session_id":"619beefca59a5a266350b606","condition":"contingent","relevant_dimensions":["pattern","legs"],"bee_group":{"antennae":"X","wings":"X","pattern":"S","legs":"F"},"action":"harvest","summary":"good-harvest","bonus":1.2600000000000011},{"rt":623.9000000953674,"stimulus":"\n                    <p><b>Action: <em>harvest</em></b></p>\n                    <p>This is the bee that you just saw.</p>\n                    <img src=\"bees-with-color/bee-B1DM.svg\" width=\"200\">\n                    <p><span class=\"greenText\"><b>Successful harvest!</b></span><br>Your pay has increased by $0.02. Your bonus pay is now $0.46.</p>\n            ","response":0,"trial_type":"html-button-response","trial_index":40,"time_elapsed":282640,"internal_node_id":"0.0-4.0-1.14","subject_id":"5b9c28c460e5f700017c0636","study_id":"6197b3f67c2b5cd3b6d9596a","session_id":"619beefca59a5a266350b606","condition":"contingent","relevant_dimensions":["pattern","legs"],"bee_group":{"antennae":"X","wings":"X","pattern":"S","legs":"F"},"bonus":1.2600000000000011},{"rt":755,"stimulus":"bees-with-color/bee-A2DF.svg","response":0,"trial_type":"image-button-response","trial_index":41,"time_elapsed":283396,"internal_node_id":"0.0-4.0-0.15","subject_id":"5b9c28c460e5f700017c0636","study_id":"6197b3f67c2b5cd3b6d9596a","session_id":"619beefca59a5a266350b606","condition":"contingent","relevant_dimensions":["pattern","legs"],"bee_group":{"antennae":"X","wings":"X","pattern":"S","legs":"F"},"action":"harvest","summary":"good-harvest","bonus":1.2600000000000011},{"rt":653.3999999761581,"stimulus":"\n                    <p><b>Action: <em>harvest</em></b></p>\n                    <p>This is the bee that you just saw.</p>\n                    <img src=\"bees-with-color/bee-A2DF.svg\" width=\"200\">\n                    <p><span class=\"greenText\"><b>Successful harvest!</b></span><br>Your pay has increased by $0.02. Your bonus pay is now $0.48.</p>\n            ","response":0,"trial_type":"html-button-response","trial_index":42,"time_elapsed":284051,"internal_node_id":"0.0-4.0-1.15","subject_id":"5b9c28c460e5f700017c0636","study_id":"6197b3f67c2b5cd3b6d9596a","session_id":"619beefca59a5a266350b606","condition":"contingent","relevant_dimensions":["pattern","legs"],"bee_group":{"antennae":"X","wings":"X","pattern":"S","legs":"F"},"bonus":1.2600000000000011},{"rt":794.6999999284744,"stimulus":"bees-with-color/bee-A1SF.svg","response":1,"trial_type":"image-button-response","trial_index":43,"time_elapsed":284846,"internal_node_id":"0.0-4.0-0.16","subject_id":"5b9c28c460e5f700017c0636","study_id":"6197b3f67c2b5cd3b6d9596a","session_id":"619beefca59a5a266350b606","condition":"contingent","relevant_dimensions":["pattern","legs"],"bee_group":{"antennae":"X","wings":"X","pattern":"S","legs":"F"},"action":"avoid","summary":"good-avoid","bonus":1.2600000000000011},{"rt":520.8000000715256,"stimulus":"\n                    <p><b>Action: <em>avoid</em></b></p>\n                    <p>This is the bee that you just saw.</p>\n                    <img src=\"bees-with-color/bee-A1SF.svg\" width=\"200\">\n                    <p><br>Your bonus pay is unchanged, and remains at $0.48.</p>\n            ","response":0,"trial_type":"html-button-response","trial_index":44,"time_elapsed":285368,"internal_node_id":"0.0-4.0-1.16","subject_id":"5b9c28c460e5f700017c0636","study_id":"6197b3f67c2b5cd3b6d9596a","session_id":"619beefca59a5a266350b606","condition":"contingent","relevant_dimensions":["pattern","legs"],"bee_group":{"antennae":"X","wings":"X","pattern":"S","legs":"F"},"bonus":1.2600000000000011},{"rt":1002.7000000476837,"stimulus":"bees-with-color/bee-A2DF.svg","response":0,"trial_type":"image-button-response","trial_index":45,"time_elapsed":286371,"internal_node_id":"0.0-4.0-0.17","subject_id":"5b9c28c460e5f700017c0636","study_id":"6197b3f67c2b5cd3b6d9596a","session_id":"619beefca59a5a266350b606","condition":"contingent","relevant_dimensions":["pattern","legs"],"bee_group":{"antennae":"X","wings":"X","pattern":"S","legs":"F"},"action":"harvest","summary":"good-harvest","bonus":1.2600000000000011},{"rt":643,"stimulus":"\n                    <p><b>Action: <em>harvest</em></b></p>\n                    <p>This is the bee that you just saw.</p>\n                    <img src=\"bees-with-color/bee-A2DF.svg\" width=\"200\">\n                    <p><span class=\"greenText\"><b>Successful harvest!</b></span><br>Your pay has increased by $0.02. Your bonus pay is now $0.50.</p>\n            ","response":0,"trial_type":"html-button-response","trial_index":46,"time_elapsed":287015,"internal_node_id":"0.0-4.0-1.17","subject_id":"5b9c28c460e5f700017c0636","study_id":"6197b3f67c2b5cd3b6d9596a","session_id":"619beefca59a5a266350b606","condition":"contingent","relevant_dimensions":["pattern","legs"],"bee_group":{"antennae":"X","wings":"X","pattern":"S","legs":"F"},"bonus":1.2600000000000011},{"rt":867.1000000238419,"stimulus":"bees-with-color/bee-B1DF.svg","response":0,"trial_type":"image-button-response","trial_index":47,"time_elapsed":287883,"internal_node_id":"0.0-4.0-0.18","subject_id":"5b9c28c460e5f700017c0636","study_id":"6197b3f67c2b5cd3b6d9596a","session_id":"619beefca59a5a266350b606","condition":"contingent","relevant_dimensions":["pattern","legs"],"bee_group":{"antennae":"X","wings":"X","pattern":"S","legs":"F"},"action":"harvest","summary":"good-harvest","bonus":1.2600000000000011},{"rt":327.10000002384186,"stimulus":"\n                    <p><b>Action: <em>harvest</em></b></p>\n                    <p>This is the bee that you just saw.</p>\n                    <img src=\"bees-with-color/bee-B1DF.svg\" width=\"200\">\n                    <p><span class=\"greenText\"><b>Successful harvest!</b></span><br>Your pay has increased by $0.02. Your bonus pay is now $0.52.</p>\n            ","response":0,"trial_type":"html-button-response","trial_index":48,"time_elapsed":288211,"internal_node_id":"0.0-4.0-1.18","subject_id":"5b9c28c460e5f700017c0636","study_id":"6197b3f67c2b5cd3b6d9596a","session_id":"619beefca59a5a266350b606","condition":"contingent","relevant_dimensions":["pattern","legs"],"bee_group":{"antennae":"X","wings":"X","pattern":"S","legs":"F"},"bonus":1.2600000000000011},{"rt":759.3999999761581,"stimulus":"bees-with-color/bee-A1SM.svg","response":1,"trial_type":"image-button-response","trial_index":49,"time_elapsed":288971,"internal_node_id":"0.0-4.0-0.19","subject_id":"5b9c28c460e5f700017c0636","study_id":"6197b3f67c2b5cd3b6d9596a","session_id":"619beefca59a5a266350b606","condition":"contingent","relevant_dimensions":["pattern","legs"],"bee_group":{"antennae":"X","wings":"X","pattern":"S","legs":"F"},"action":"avoid","summary":"bad-avoid","bonus":1.2600000000000011},{"rt":386.2000000476837,"stimulus":"\n                    <p><b>Action: <em>avoid</em></b></p>\n                    <p>This is the bee that you just saw.</p>\n                    <img src=\"bees-with-color/bee-A1SM.svg\" width=\"200\">\n                    <p><br>Your bonus pay is unchanged, and remains at $0.52.</p>\n            ","response":0,"trial_type":"html-button-response","trial_index":50,"time_elapsed":289358,"internal_node_id":"0.0-4.0-1.19","subject_id":"5b9c28c460e5f700017c0636","study_id":"6197b3f67c2b5cd3b6d9596a","session_id":"619beefca59a5a266350b606","condition":"contingent","relevant_dimensions":["pattern","legs"],"bee_group":{"antennae":"X","wings":"X","pattern":"S","legs":"F"},"bonus":1.2600000000000011},{"rt":1816.4000000953674,"stimulus":"bees-with-color/bee-B1SM.svg","response":0,"trial_type":"image-button-response","trial_index":51,"time_elapsed":291175,"internal_node_id":"0.0-4.0-0.20","subject_id":"5b9c28c460e5f700017c0636","study_id":"6197b3f67c2b5cd3b6d9596a","session_id":"619beefca59a5a266350b606","condition":"contingent","relevant_dimensions":["pattern","legs"],"bee_group":{"antennae":"X","wings":"X","pattern":"S","legs":"F"},"action":"harvest","summary":"good-harvest","bonus":1.2600000000000011},{"rt":438.10000002384186,"stimulus":"\n                    <p><b>Action: <em>harvest</em></b></p>\n                    <p>This is the bee that you just saw.</p>\n                    <img src=\"bees-with-color/bee-B1SM.svg\" width=\"200\">\n                    <p><span class=\"greenText\"><b>Successful harvest!</b></span><br>Your pay has increased by $0.02. Your bonus pay is now $0.54.</p>\n            ","response":0,"trial_type":"html-button-response","trial_index":52,"time_elapsed":291614,"internal_node_id":"0.0-4.0-1.20","subject_id":"5b9c28c460e5f700017c0636","study_id":"6197b3f67c2b5cd3b6d9596a","session_id":"619beefca59a5a266350b606","condition":"contingent","relevant_dimensions":["pattern","legs"],"bee_group":{"antennae":"X","wings":"X","pattern":"S","legs":"F"},"bonus":1.2600000000000011},{"rt":1241.7999999523163,"stimulus":"bees-with-color/bee-A2SM.svg","response":0,"trial_type":"image-button-response","trial_index":53,"time_elapsed":292857,"internal_node_id":"0.0-4.0-0.21","subject_id":"5b9c28c460e5f700017c0636","study_id":"6197b3f67c2b5cd3b6d9596a","session_id":"619beefca59a5a266350b606","condition":"contingent","relevant_dimensions":["pattern","legs"],"bee_group":{"antennae":"X","wings":"X","pattern":"S","legs":"F"},"action":"harvest","summary":"good-harvest","bonus":1.2600000000000011},{"rt":613.7999999523163,"stimulus":"\n                    <p><b>Action: <em>harvest</em></b></p>\n                    <p>This is the bee that you just saw.</p>\n                    <img src=\"bees-with-color/bee-A2SM.svg\" width=\"200\">\n                    <p><span class=\"greenText\"><b>Successful harvest!</b></span><br>Your pay has increased by $0.02. Your bonus pay is now $0.56.</p>\n            ","response":0,"trial_type":"html-button-response","trial_index":54,"time_elapsed":293472,"internal_node_id":"0.0-4.0-1.21","subject_id":"5b9c28c460e5f700017c0636","study_id":"6197b3f67c2b5cd3b6d9596a","session_id":"619beefca59a5a266350b606","condition":"contingent","relevant_dimensions":["pattern","legs"],"bee_group":{"antennae":"X","wings":"X","pattern":"S","legs":"F"},"bonus":1.2600000000000011},{"rt":2322.7999999523163,"stimulus":"bees-with-color/bee-A2SF.svg","response":1,"trial_type":"image-button-response","trial_index":55,"time_elapsed":295795,"internal_node_id":"0.0-4.0-0.22","subject_id":"5b9c28c460e5f700017c0636","study_id":"6197b3f67c2b5cd3b6d9596a","session_id":"619beefca59a5a266350b606","condition":"contingent","relevant_dimensions":["pattern","legs"],"bee_group":{"antennae":"X","wings":"X","pattern":"S","legs":"F"},"action":"avoid","summary":"good-avoid","bonus":1.2600000000000011},{"rt":667.5,"stimulus":"\n                    <p><b>Action: <em>avoid</em></b></p>\n                    <p>This is the bee that you just saw.</p>\n                    <img src=\"bees-with-color/bee-A2SF.svg\" width=\"200\">\n                    <p><br>Your bonus pay is unchanged, and remains at $0.56.</p>\n            ","response":0,"trial_type":"html-button-response","trial_index":56,"time_elapsed":296464,"internal_node_id":"0.0-4.0-1.22","subject_id":"5b9c28c460e5f700017c0636","study_id":"6197b3f67c2b5cd3b6d9596a","session_id":"619beefca59a5a266350b606","condition":"contingent","relevant_dimensions":["pattern","legs"],"bee_group":{"antennae":"X","wings":"X","pattern":"S","legs":"F"},"bonus":1.2600000000000011},{"rt":1021.6999999284744,"stimulus":"bees-with-color/bee-A1DF.svg","response":0,"trial_type":"image-button-response","trial_index":57,"time_elapsed":297486,"internal_node_id":"0.0-4.0-0.23","subject_id":"5b9c28c460e5f700017c0636","study_id":"6197b3f67c2b5cd3b6d9596a","session_id":"619beefca59a5a266350b606","condition":"contingent","relevant_dimensions":["pattern","legs"],"bee_group":{"antennae":"X","wings":"X","pattern":"S","legs":"F"},"action":"harvest","summary":"good-harvest","bonus":1.2600000000000011},{"rt":426.39999997615814,"stimulus":"\n                    <p><b>Action: <em>harvest</em></b></p>\n                    <p>This is the bee that you just saw.</p>\n                    <img src=\"bees-with-color/bee-A1DF.svg\" width=\"200\">\n                    <p><span class=\"greenText\"><b>Successful harvest!</b></span><br>Your pay has increased by $0.02. Your bonus pay is now $0.58.</p>\n            ","response":0,"trial_type":"html-button-response","trial_index":58,"time_elapsed":297914,"internal_node_id":"0.0-4.0-1.23","subject_id":"5b9c28c460e5f700017c0636","study_id":"6197b3f67c2b5cd3b6d9596a","session_id":"619beefca59a5a266350b606","condition":"contingent","relevant_dimensions":["pattern","legs"],"bee_group":{"antennae":"X","wings":"X","pattern":"S","legs":"F"},"bonus":1.2600000000000011},{"rt":1763.1000000238419,"stimulus":"bees-with-color/bee-B1SF.svg","response":1,"trial_type":"image-button-response","trial_index":59,"time_elapsed":299678,"internal_node_id":"0.0-4.0-0.24","subject_id":"5b9c28c460e5f700017c0636","study_id":"6197b3f67c2b5cd3b6d9596a","session_id":"619beefca59a5a266350b606","condition":"contingent","relevant_dimensions":["pattern","legs"],"bee_group":{"antennae":"X","wings":"X","pattern":"S","legs":"F"},"action":"avoid","summary":"good-avoid","bonus":1.2600000000000011},{"rt":400.1999999284744,"stimulus":"\n                    <p><b>Action: <em>avoid</em></b></p>\n                    <p>This is the bee that you just saw.</p>\n                    <img src=\"bees-with-color/bee-B1SF.svg\" width=\"200\">\n                    <p><br>Your bonus pay is unchanged, and remains at $0.58.</p>\n            ","response":0,"trial_type":"html-button-response","trial_index":60,"time_elapsed":300079,"internal_node_id":"0.0-4.0-1.24","subject_id":"5b9c28c460e5f700017c0636","study_id":"6197b3f67c2b5cd3b6d9596a","session_id":"619beefca59a5a266350b606","condition":"contingent","relevant_dimensions":["pattern","legs"],"bee_group":{"antennae":"X","wings":"X","pattern":"S","legs":"F"},"bonus":1.2600000000000011},{"rt":1873.2999999523163,"stimulus":"bees-with-color/bee-B2SM.svg","response":1,"trial_type":"image-button-response","trial_index":61,"time_elapsed":301953,"internal_node_id":"0.0-4.0-0.25","subject_id":"5b9c28c460e5f700017c0636","study_id":"6197b3f67c2b5cd3b6d9596a","session_id":"619beefca59a5a266350b606","condition":"contingent","relevant_dimensions":["pattern","legs"],"bee_group":{"antennae":"X","wings":"X","pattern":"S","legs":"F"},"action":"avoid","summary":"bad-avoid","bonus":1.2600000000000011},{"rt":361.89999997615814,"stimulus":"\n                    <p><b>Action: <em>avoid</em></b></p>\n                    <p>This is the bee that you just saw.</p>\n                    <img src=\"bees-with-color/bee-B2SM.svg\" width=\"200\">\n                    <p><br>Your bonus pay is unchanged, and remains at $0.58.</p>\n            ","response":0,"trial_type":"html-button-response","trial_index":62,"time_elapsed":302316,"internal_node_id":"0.0-4.0-1.25","subject_id":"5b9c28c460e5f700017c0636","study_id":"6197b3f67c2b5cd3b6d9596a","session_id":"619beefca59a5a266350b606","condition":"contingent","relevant_dimensions":["pattern","legs"],"bee_group":{"antennae":"X","wings":"X","pattern":"S","legs":"F"},"bonus":1.2600000000000011},{"rt":1778.2999999523163,"stimulus":"bees-with-color/bee-A2DM.svg","response":0,"trial_type":"image-button-response","trial_index":63,"time_elapsed":304095,"internal_node_id":"0.0-4.0-0.26","subject_id":"5b9c28c460e5f700017c0636","study_id":"6197b3f67c2b5cd3b6d9596a","session_id":"619beefca59a5a266350b606","condition":"contingent","relevant_dimensions":["pattern","legs"],"bee_group":{"antennae":"X","wings":"X","pattern":"S","legs":"F"},"action":"harvest","summary":"good-harvest","bonus":1.2600000000000011},{"rt":1054.3999999761581,"stimulus":"\n                    <p><b>Action: <em>harvest</em></b></p>\n                    <p>This is the bee that you just saw.</p>\n                    <img src=\"bees-with-color/bee-A2DM.svg\" width=\"200\">\n                    <p><span class=\"greenText\"><b>Successful harvest!</b></span><br>Your pay has increased by $0.02. Your bonus pay is now $0.60.</p>\n            ","response":0,"trial_type":"html-button-response","trial_index":64,"time_elapsed":305150,"internal_node_id":"0.0-4.0-1.26","subject_id":"5b9c28c460e5f700017c0636","study_id":"6197b3f67c2b5cd3b6d9596a","session_id":"619beefca59a5a266350b606","condition":"contingent","relevant_dimensions":["pattern","legs"],"bee_group":{"antennae":"X","wings":"X","pattern":"S","legs":"F"},"bonus":1.2600000000000011},{"rt":842.2999999523163,"stimulus":"bees-with-color/bee-A1DM.svg","response":0,"trial_type":"image-button-response","trial_index":65,"time_elapsed":305993,"internal_node_id":"0.0-4.0-0.27","subject_id":"5b9c28c460e5f700017c0636","study_id":"6197b3f67c2b5cd3b6d9596a","session_id":"619beefca59a5a266350b606","condition":"contingent","relevant_dimensions":["pattern","legs"],"bee_group":{"antennae":"X","wings":"X","pattern":"S","legs":"F"},"action":"harvest","summary":"good-harvest","bonus":1.2600000000000011},{"rt":321.6999999284744,"stimulus":"\n                    <p><b>Action: <em>harvest</em></b></p>\n                    <p>This is the bee that you just saw.</p>\n                    <img src=\"bees-with-color/bee-A1DM.svg\" width=\"200\">\n                    <p><span class=\"greenText\"><b>Successful harvest!</b></span><br>Your pay has increased by $0.02. Your bonus pay is now $0.62.</p>\n            ","response":0,"trial_type":"html-button-response","trial_index":66,"time_elapsed":306316,"internal_node_id":"0.0-4.0-1.27","subject_id":"5b9c28c460e5f700017c0636","study_id":"6197b3f67c2b5cd3b6d9596a","session_id":"619beefca59a5a266350b606","condition":"contingent","relevant_dimensions":["pattern","legs"],"bee_group":{"antennae":"X","wings":"X","pattern":"S","legs":"F"},"bonus":1.2600000000000011},{"rt":1176.5,"stimulus":"bees-with-color/bee-B2SF.svg","response":1,"trial_type":"image-button-response","trial_index":67,"time_elapsed":307493,"internal_node_id":"0.0-4.0-0.28","subject_id":"5b9c28c460e5f700017c0636","study_id":"6197b3f67c2b5cd3b6d9596a","session_id":"619beefca59a5a266350b606","condition":"contingent","relevant_dimensions":["pattern","legs"],"bee_group":{"antennae":"X","wings":"X","pattern":"S","legs":"F"},"action":"avoid","summary":"good-avoid","bonus":1.2600000000000011},{"rt":340.39999997615814,"stimulus":"\n                    <p><b>Action: <em>avoid</em></b></p>\n                    <p>This is the bee that you just saw.</p>\n                    <img src=\"bees-with-color/bee-B2SF.svg\" width=\"200\">\n                    <p><br>Your bonus pay is unchanged, and remains at $0.62.</p>\n            ","response":0,"trial_type":"html-button-response","trial_index":68,"time_elapsed":307835,"internal_node_id":"0.0-4.0-1.28","subject_id":"5b9c28c460e5f700017c0636","study_id":"6197b3f67c2b5cd3b6d9596a","session_id":"619beefca59a5a266350b606","condition":"contingent","relevant_dimensions":["pattern","legs"],"bee_group":{"antennae":"X","wings":"X","pattern":"S","legs":"F"},"bonus":1.2600000000000011},{"rt":666.2999999523163,"stimulus":"bees-with-color/bee-B1DM.svg","response":0,"trial_type":"image-button-response","trial_index":69,"time_elapsed":308502,"internal_node_id":"0.0-4.0-0.29","subject_id":"5b9c28c460e5f700017c0636","study_id":"6197b3f67c2b5cd3b6d9596a","session_id":"619beefca59a5a266350b606","condition":"contingent","relevant_dimensions":["pattern","legs"],"bee_group":{"antennae":"X","wings":"X","pattern":"S","legs":"F"},"action":"harvest","summary":"good-harvest","bonus":1.2600000000000011},{"rt":447.89999997615814,"stimulus":"\n                    <p><b>Action: <em>harvest</em></b></p>\n                    <p>This is the bee that you just saw.</p>\n                    <img src=\"bees-with-color/bee-B1DM.svg\" width=\"200\">\n                    <p><span class=\"greenText\"><b>Successful harvest!</b></span><br>Your pay has increased by $0.02. Your bonus pay is now $0.64.</p>\n            ","response":0,"trial_type":"html-button-response","trial_index":70,"time_elapsed":308951,"internal_node_id":"0.0-4.0-1.29","subject_id":"5b9c28c460e5f700017c0636","study_id":"6197b3f67c2b5cd3b6d9596a","session_id":"619beefca59a5a266350b606","condition":"contingent","relevant_dimensions":["pattern","legs"],"bee_group":{"antennae":"X","wings":"X","pattern":"S","legs":"F"},"bonus":1.2600000000000011},{"rt":678.7000000476837,"stimulus":"bees-with-color/bee-B2DM.svg","response":0,"trial_type":"image-button-response","trial_index":71,"time_elapsed":309630,"internal_node_id":"0.0-4.0-0.30","subject_id":"5b9c28c460e5f700017c0636","study_id":"6197b3f67c2b5cd3b6d9596a","session_id":"619beefca59a5a266350b606","condition":"contingent","relevant_dimensions":["pattern","legs"],"bee_group":{"antennae":"X","wings":"X","pattern":"S","legs":"F"},"action":"harvest","summary":"good-harvest","bonus":1.2600000000000011},{"rt":626.9000000953674,"stimulus":"\n                    <p><b>Action: <em>harvest</em></b></p>\n                    <p>This is the bee that you just saw.</p>\n                    <img src=\"bees-with-color/bee-B2DM.svg\" width=\"200\">\n                    <p><span class=\"greenText\"><b>Successful harvest!</b></span><br>Your pay has increased by $0.02. Your bonus pay is now $0.66.</p>\n            ","response":0,"trial_type":"html-button-response","trial_index":72,"time_elapsed":310258,"internal_node_id":"0.0-4.0-1.30","subject_id":"5b9c28c460e5f700017c0636","study_id":"6197b3f67c2b5cd3b6d9596a","session_id":"619beefca59a5a266350b606","condition":"contingent","relevant_dimensions":["pattern","legs"],"bee_group":{"antennae":"X","wings":"X","pattern":"S","legs":"F"},"bonus":1.2600000000000011},{"rt":521.1000000238419,"stimulus":"bees-with-color/bee-B2DF.svg","response":0,"trial_type":"image-button-response","trial_index":73,"time_elapsed":310780,"internal_node_id":"0.0-4.0-0.31","subject_id":"5b9c28c460e5f700017c0636","study_id":"6197b3f67c2b5cd3b6d9596a","session_id":"619beefca59a5a266350b606","condition":"contingent","relevant_dimensions":["pattern","legs"],"bee_group":{"antennae":"X","wings":"X","pattern":"S","legs":"F"},"action":"harvest","summary":"good-harvest","bonus":1.2600000000000011},{"rt":481.2000000476837,"stimulus":"\n                    <p><b>Action: <em>harvest</em></b></p>\n                    <p>This is the bee that you just saw.</p>\n                    <img src=\"bees-with-color/bee-B2DF.svg\" width=\"200\">\n                    <p><span class=\"greenText\"><b>Successful harvest!</b></span><br>Your pay has increased by $0.02. Your bonus pay is now $0.68.</p>\n            ","response":0,"trial_type":"html-button-response","trial_index":74,"time_elapsed":311262,"internal_node_id":"0.0-4.0-1.31","subject_id":"5b9c28c460e5f700017c0636","study_id":"6197b3f67c2b5cd3b6d9596a","session_id":"619beefca59a5a266350b606","condition":"contingent","relevant_dimensions":["pattern","legs"],"bee_group":{"antennae":"X","wings":"X","pattern":"S","legs":"F"},"bonus":1.2600000000000011},{"rt":906.3999999761581,"stimulus":"bees-with-color/bee-A2SF.svg","response":0,"trial_type":"image-button-response","trial_index":75,"time_elapsed":312169,"internal_node_id":"0.0-4.0-0.32","subject_id":"5b9c28c460e5f700017c0636","study_id":"6197b3f67c2b5cd3b6d9596a","session_id":"619beefca59a5a266350b606","condition":"contingent","relevant_dimensions":["pattern","legs"],"bee_group":{"antennae":"X","wings":"X","pattern":"S","legs":"F"},"action":"harvest","summary":"bad-harvest","bonus":1.2600000000000011},{"rt":496.89999997615814,"stimulus":"\n                    <p><b>Action: <em>harvest</em></b></p>\n                    <p>This is the bee that you just saw.</p>\n                    <img src=\"bees-with-color/bee-A2SF.svg\" width=\"200\">\n                    <p><span class=\"redText\">Bad choice, the bee was angry.</span><br><b>You have been stung!</b><br>Your pay has been decreased by $0.10. Your bonus pay is now $0.58.</p>\n            ","response":0,"trial_type":"html-button-response","trial_index":76,"time_elapsed":312667,"internal_node_id":"0.0-4.0-1.32","subject_id":"5b9c28c460e5f700017c0636","study_id":"6197b3f67c2b5cd3b6d9596a","session_id":"619beefca59a5a266350b606","condition":"contingent","relevant_dimensions":["pattern","legs"],"bee_group":{"antennae":"X","wings":"X","pattern":"S","legs":"F"},"bonus":1.2600000000000011},{"rt":1141.7999999523163,"stimulus":"bees-with-color/bee-A2DF.svg","response":0,"trial_type":"image-button-response","trial_index":77,"time_elapsed":313810,"internal_node_id":"0.0-4.0-0.33","subject_id":"5b9c28c460e5f700017c0636","study_id":"6197b3f67c2b5cd3b6d9596a","session_id":"619beefca59a5a266350b606","condition":"contingent","relevant_dimensions":["pattern","legs"],"bee_group":{"antennae":"X","wings":"X","pattern":"S","legs":"F"},"action":"harvest","summary":"good-harvest","bonus":1.2600000000000011},{"rt":296.39999997615814,"stimulus":"\n                    <p><b>Action: <em>harvest</em></b></p>\n                    <p>This is the bee that you just saw.</p>\n                    <img src=\"bees-with-color/bee-A2DF.svg\" width=\"200\">\n                    <p><span class=\"greenText\"><b>Successful harvest!</b></span><br>Your pay has increased by $0.02. Your bonus pay is now $0.60.</p>\n            ","response":0,"trial_type":"html-button-response","trial_index":78,"time_elapsed":314107,"internal_node_id":"0.0-4.0-1.33","subject_id":"5b9c28c460e5f700017c0636","study_id":"6197b3f67c2b5cd3b6d9596a","session_id":"619beefca59a5a266350b606","condition":"contingent","relevant_dimensions":["pattern","legs"],"bee_group":{"antennae":"X","wings":"X","pattern":"S","legs":"F"},"bonus":1.2600000000000011},{"rt":551.8999999761581,"stimulus":"bees-with-color/bee-A2DM.svg","response":0,"trial_type":"image-button-response","trial_index":79,"time_elapsed":314660,"internal_node_id":"0.0-4.0-0.34","subject_id":"5b9c28c460e5f700017c0636","study_id":"6197b3f67c2b5cd3b6d9596a","session_id":"619beefca59a5a266350b606","condition":"contingent","relevant_dimensions":["pattern","legs"],"bee_group":{"antennae":"X","wings":"X","pattern":"S","legs":"F"},"action":"harvest","summary":"good-harvest","bonus":1.2600000000000011},{"rt":332.3000000715256,"stimulus":"\n                    <p><b>Action: <em>harvest</em></b></p>\n                    <p>This is the bee that you just saw.</p>\n                    <img src=\"bees-with-color/bee-A2DM.svg\" width=\"200\">\n                    <p><span class=\"greenText\"><b>Successful harvest!</b></span><br>Your pay has increased by $0.02. Your bonus pay is now $0.62.</p>\n            ","response":0,"trial_type":"html-button-response","trial_index":80,"time_elapsed":314993,"internal_node_id":"0.0-4.0-1.34","subject_id":"5b9c28c460e5f700017c0636","study_id":"6197b3f67c2b5cd3b6d9596a","session_id":"619beefca59a5a266350b606","condition":"contingent","relevant_dimensions":["pattern","legs"],"bee_group":{"antennae":"X","wings":"X","pattern":"S","legs":"F"},"bonus":1.2600000000000011},{"rt":1274.7999999523163,"stimulus":"bees-with-color/bee-A1SM.svg","response":0,"trial_type":"image-button-response","trial_index":81,"time_elapsed":316268,"internal_node_id":"0.0-4.0-0.35","subject_id":"5b9c28c460e5f700017c0636","study_id":"6197b3f67c2b5cd3b6d9596a","session_id":"619beefca59a5a266350b606","condition":"contingent","relevant_dimensions":["pattern","legs"],"bee_group":{"antennae":"X","wings":"X","pattern":"S","legs":"F"},"action":"harvest","summary":"good-harvest","bonus":1.2600000000000011},{"rt":363.5,"stimulus":"\n                    <p><b>Action: <em>harvest</em></b></p>\n                    <p>This is the bee that you just saw.</p>\n                    <img src=\"bees-with-color/bee-A1SM.svg\" width=\"200\">\n                    <p><span class=\"greenText\"><b>Successful harvest!</b></span><br>Your pay has increased by $0.02. Your bonus pay is now $0.64.</p>\n            ","response":0,"trial_type":"html-button-response","trial_index":82,"time_elapsed":316633,"internal_node_id":"0.0-4.0-1.35","subject_id":"5b9c28c460e5f700017c0636","study_id":"6197b3f67c2b5cd3b6d9596a","session_id":"619beefca59a5a266350b606","condition":"contingent","relevant_dimensions":["pattern","legs"],"bee_group":{"antennae":"X","wings":"X","pattern":"S","legs":"F"},"bonus":1.2600000000000011},{"rt":1719.6000000238419,"stimulus":"bees-with-color/bee-B1SM.svg","response":1,"trial_type":"image-button-response","trial_index":83,"time_elapsed":318353,"internal_node_id":"0.0-4.0-0.36","subject_id":"5b9c28c460e5f700017c0636","study_id":"6197b3f67c2b5cd3b6d9596a","session_id":"619beefca59a5a266350b606","condition":"contingent","relevant_dimensions":["pattern","legs"],"bee_group":{"antennae":"X","wings":"X","pattern":"S","legs":"F"},"action":"avoid","summary":"bad-avoid","bonus":1.2600000000000011},{"rt":383.5,"stimulus":"\n                    <p><b>Action: <em>avoid</em></b></p>\n                    <p>This is the bee that you just saw.</p>\n                    <img src=\"bees-with-color/bee-B1SM.svg\" width=\"200\">\n                    <p><br>Your bonus pay is unchanged, and remains at $0.64.</p>\n            ","response":0,"trial_type":"html-button-response","trial_index":84,"time_elapsed":318738,"internal_node_id":"0.0-4.0-1.36","subject_id":"5b9c28c460e5f700017c0636","study_id":"6197b3f67c2b5cd3b6d9596a","session_id":"619beefca59a5a266350b606","condition":"contingent","relevant_dimensions":["pattern","legs"],"bee_group":{"antennae":"X","wings":"X","pattern":"S","legs":"F"},"bonus":1.2600000000000011},{"rt":692.8999999761581,"stimulus":"bees-with-color/bee-B1DM.svg","response":0,"trial_type":"image-button-response","trial_index":85,"time_elapsed":319432,"internal_node_id":"0.0-4.0-0.37","subject_id":"5b9c28c460e5f700017c0636","study_id":"6197b3f67c2b5cd3b6d9596a","session_id":"619beefca59a5a266350b606","condition":"contingent","relevant_dimensions":["pattern","legs"],"bee_group":{"antennae":"X","wings":"X","pattern":"S","legs":"F"},"action":"harvest","summary":"good-harvest","bonus":1.2600000000000011},{"rt":334.60000002384186,"stimulus":"\n                    <p><b>Action: <em>harvest</em></b></p>\n                    <p>This is the bee that you just saw.</p>\n                    <img src=\"bees-with-color/bee-B1DM.svg\" width=\"200\">\n                    <p><span class=\"greenText\"><b>Successful harvest!</b></span><br>Your pay has increased by $0.02. Your bonus pay is now $0.66.</p>\n            ","response":0,"trial_type":"html-button-response","trial_index":86,"time_elapsed":319767,"internal_node_id":"0.0-4.0-1.37","subject_id":"5b9c28c460e5f700017c0636","study_id":"6197b3f67c2b5cd3b6d9596a","session_id":"619beefca59a5a266350b606","condition":"contingent","relevant_dimensions":["pattern","legs"],"bee_group":{"antennae":"X","wings":"X","pattern":"S","legs":"F"},"bonus":1.2600000000000011},{"rt":1170.8999999761581,"stimulus":"bees-with-color/bee-B2SF.svg","response":0,"trial_type":"image-button-response","trial_index":87,"time_elapsed":320939,"internal_node_id":"0.0-4.0-0.38","subject_id":"5b9c28c460e5f700017c0636","study_id":"6197b3f67c2b5cd3b6d9596a","session_id":"619beefca59a5a266350b606","condition":"contingent","relevant_dimensions":["pattern","legs"],"bee_group":{"antennae":"X","wings":"X","pattern":"S","legs":"F"},"action":"harvest","summary":"bad-harvest","bonus":1.2600000000000011},{"rt":578.7999999523163,"stimulus":"\n                    <p><b>Action: <em>harvest</em></b></p>\n                    <p>This is the bee that you just saw.</p>\n                    <img src=\"bees-with-color/bee-B2SF.svg\" width=\"200\">\n                    <p><span class=\"redText\">Bad choice, the bee was angry.</span><br><b>You have been stung!</b><br>Your pay has been decreased by $0.10. Your bonus pay is now $0.56.</p>\n            ","response":0,"trial_type":"html-button-response","trial_index":88,"time_elapsed":321519,"internal_node_id":"0.0-4.0-1.38","subject_id":"5b9c28c460e5f700017c0636","study_id":"6197b3f67c2b5cd3b6d9596a","session_id":"619beefca59a5a266350b606","condition":"contingent","relevant_dimensions":["pattern","legs"],"bee_group":{"antennae":"X","wings":"X","pattern":"S","legs":"F"},"bonus":1.2600000000000011},{"rt":723.7999999523163,"stimulus":"bees-with-color/bee-B2DF.svg","response":0,"trial_type":"image-button-response","trial_index":89,"time_elapsed":322244,"internal_node_id":"0.0-4.0-0.39","subject_id":"5b9c28c460e5f700017c0636","study_id":"6197b3f67c2b5cd3b6d9596a","session_id":"619beefca59a5a266350b606","condition":"contingent","relevant_dimensions":["pattern","legs"],"bee_group":{"antennae":"X","wings":"X","pattern":"S","legs":"F"},"action":"harvest","summary":"good-harvest","bonus":1.2600000000000011},{"rt":338.39999997615814,"stimulus":"\n                    <p><b>Action: <em>harvest</em></b></p>\n                    <p>This is the bee that you just saw.</p>\n                    <img src=\"bees-with-color/bee-B2DF.svg\" width=\"200\">\n                    <p><span class=\"greenText\"><b>Successful harvest!</b></span><br>Your pay has increased by $0.02. Your bonus pay is now $0.58.</p>\n            ","response":0,"trial_type":"html-button-response","trial_index":90,"time_elapsed":322583,"internal_node_id":"0.0-4.0-1.39","subject_id":"5b9c28c460e5f700017c0636","study_id":"6197b3f67c2b5cd3b6d9596a","session_id":"619beefca59a5a266350b606","condition":"contingent","relevant_dimensions":["pattern","legs"],"bee_group":{"antennae":"X","wings":"X","pattern":"S","legs":"F"},"bonus":1.2600000000000011},{"rt":724.8999999761581,"stimulus":"bees-with-color/bee-B2SM.svg","response":1,"trial_type":"image-button-response","trial_index":91,"time_elapsed":323309,"internal_node_id":"0.0-4.0-0.40","subject_id":"5b9c28c460e5f700017c0636","study_id":"6197b3f67c2b5cd3b6d9596a","session_id":"619beefca59a5a266350b606","condition":"contingent","relevant_dimensions":["pattern","legs"],"bee_group":{"antennae":"X","wings":"X","pattern":"S","legs":"F"},"action":"avoid","summary":"bad-avoid","bonus":1.2600000000000011},{"rt":303.59999990463257,"stimulus":"\n                    <p><b>Action: <em>avoid</em></b></p>\n                    <p>This is the bee that you just saw.</p>\n                    <img src=\"bees-with-color/bee-B2SM.svg\" width=\"200\">\n                    <p><br>Your bonus pay is unchanged, and remains at $0.58.</p>\n            ","response":0,"trial_type":"html-button-response","trial_index":92,"time_elapsed":323613,"internal_node_id":"0.0-4.0-1.40","subject_id":"5b9c28c460e5f700017c0636","study_id":"6197b3f67c2b5cd3b6d9596a","session_id":"619beefca59a5a266350b606","condition":"contingent","relevant_dimensions":["pattern","legs"],"bee_group":{"antennae":"X","wings":"X","pattern":"S","legs":"F"},"bonus":1.2600000000000011},{"rt":1415.3999999761581,"stimulus":"bees-with-color/bee-B1DF.svg","response":0,"trial_type":"image-button-response","trial_index":93,"time_elapsed":325030,"internal_node_id":"0.0-4.0-0.41","subject_id":"5b9c28c460e5f700017c0636","study_id":"6197b3f67c2b5cd3b6d9596a","session_id":"619beefca59a5a266350b606","condition":"contingent","relevant_dimensions":["pattern","legs"],"bee_group":{"antennae":"X","wings":"X","pattern":"S","legs":"F"},"action":"harvest","summary":"good-harvest","bonus":1.2600000000000011},{"rt":353.60000002384186,"stimulus":"\n                    <p><b>Action: <em>harvest</em></b></p>\n                    <p>This is the bee that you just saw.</p>\n                    <img src=\"bees-with-color/bee-B1DF.svg\" width=\"200\">\n                    <p><span class=\"greenText\"><b>Successful harvest!</b></span><br>Your pay has increased by $0.02. Your bonus pay is now $0.60.</p>\n            ","response":0,"trial_type":"html-button-response","trial_index":94,"time_elapsed":325384,"internal_node_id":"0.0-4.0-1.41","subject_id":"5b9c28c460e5f700017c0636","study_id":"6197b3f67c2b5cd3b6d9596a","session_id":"619beefca59a5a266350b606","condition":"contingent","relevant_dimensions":["pattern","legs"],"bee_group":{"antennae":"X","wings":"X","pattern":"S","legs":"F"},"bonus":1.2600000000000011},{"rt":1717.2999999523163,"stimulus":"bees-with-color/bee-A1DM.svg","response":0,"trial_type":"image-button-response","trial_index":95,"time_elapsed":327102,"internal_node_id":"0.0-4.0-0.42","subject_id":"5b9c28c460e5f700017c0636","study_id":"6197b3f67c2b5cd3b6d9596a","session_id":"619beefca59a5a266350b606","condition":"contingent","relevant_dimensions":["pattern","legs"],"bee_group":{"antennae":"X","wings":"X","pattern":"S","legs":"F"},"action":"harvest","summary":"good-harvest","bonus":1.2600000000000011},{"rt":332.90000009536743,"stimulus":"\n                    <p><b>Action: <em>harvest</em></b></p>\n                    <p>This is the bee that you just saw.</p>\n                    <img src=\"bees-with-color/bee-A1DM.svg\" width=\"200\">\n                    <p><span class=\"greenText\"><b>Successful harvest!</b></span><br>Your pay has increased by $0.02. Your bonus pay is now $0.62.</p>\n            ","response":0,"trial_type":"html-button-response","trial_index":96,"time_elapsed":327436,"internal_node_id":"0.0-4.0-1.42","subject_id":"5b9c28c460e5f700017c0636","study_id":"6197b3f67c2b5cd3b6d9596a","session_id":"619beefca59a5a266350b606","condition":"contingent","relevant_dimensions":["pattern","legs"],"bee_group":{"antennae":"X","wings":"X","pattern":"S","legs":"F"},"bonus":1.2600000000000011},{"rt":1035.3999999761581,"stimulus":"bees-with-color/bee-A1SF.svg","response":1,"trial_type":"image-button-response","trial_index":97,"time_elapsed":328472,"internal_node_id":"0.0-4.0-0.43","subject_id":"5b9c28c460e5f700017c0636","study_id":"6197b3f67c2b5cd3b6d9596a","session_id":"619beefca59a5a266350b606","condition":"contingent","relevant_dimensions":["pattern","legs"],"bee_group":{"antennae":"X","wings":"X","pattern":"S","legs":"F"},"action":"avoid","summary":"good-avoid","bonus":1.2600000000000011},{"rt":336.6999999284744,"stimulus":"\n                    <p><b>Action: <em>avoid</em></b></p>\n                    <p>This is the bee that you just saw.</p>\n                    <img src=\"bees-with-color/bee-A1SF.svg\" width=\"200\">\n                    <p><br>Your bonus pay is unchanged, and remains at $0.62.</p>\n            ","response":0,"trial_type":"html-button-response","trial_index":98,"time_elapsed":328810,"internal_node_id":"0.0-4.0-1.43","subject_id":"5b9c28c460e5f700017c0636","study_id":"6197b3f67c2b5cd3b6d9596a","session_id":"619beefca59a5a266350b606","condition":"contingent","relevant_dimensions":["pattern","legs"],"bee_group":{"antennae":"X","wings":"X","pattern":"S","legs":"F"},"bonus":1.2600000000000011},{"rt":886,"stimulus":"bees-with-color/bee-A1DF.svg","response":0,"trial_type":"image-button-response","trial_index":99,"time_elapsed":329696,"internal_node_id":"0.0-4.0-0.44","subject_id":"5b9c28c460e5f700017c0636","study_id":"6197b3f67c2b5cd3b6d9596a","session_id":"619beefca59a5a266350b606","condition":"contingent","relevant_dimensions":["pattern","legs"],"bee_group":{"antennae":"X","wings":"X","pattern":"S","legs":"F"},"action":"harvest","summary":"good-harvest","bonus":1.2600000000000011},{"rt":288.7000000476837,"stimulus":"\n                    <p><b>Action: <em>harvest</em></b></p>\n                    <p>This is the bee that you just saw.</p>\n                    <img src=\"bees-with-color/bee-A1DF.svg\" width=\"200\">\n                    <p><span class=\"greenText\"><b>Successful harvest!</b></span><br>Your pay has increased by $0.02. Your bonus pay is now $0.64.</p>\n            ","response":0,"trial_type":"html-button-response","trial_index":100,"time_elapsed":329986,"internal_node_id":"0.0-4.0-1.44","subject_id":"5b9c28c460e5f700017c0636","study_id":"6197b3f67c2b5cd3b6d9596a","session_id":"619beefca59a5a266350b606","condition":"contingent","relevant_dimensions":["pattern","legs"],"bee_group":{"antennae":"X","wings":"X","pattern":"S","legs":"F"},"bonus":1.2600000000000011},{"rt":2127.2000000476837,"stimulus":"bees-with-color/bee-B1SF.svg","response":1,"trial_type":"image-button-response","trial_index":101,"time_elapsed":332114,"internal_node_id":"0.0-4.0-0.45","subject_id":"5b9c28c460e5f700017c0636","study_id":"6197b3f67c2b5cd3b6d9596a","session_id":"619beefca59a5a266350b606","condition":"contingent","relevant_dimensions":["pattern","legs"],"bee_group":{"antennae":"X","wings":"X","pattern":"S","legs":"F"},"action":"avoid","summary":"good-avoid","bonus":1.2600000000000011},{"rt":357.5,"stimulus":"\n                    <p><b>Action: <em>avoid</em></b></p>\n                    <p>This is the bee that you just saw.</p>\n                    <img src=\"bees-with-color/bee-B1SF.svg\" width=\"200\">\n                    <p><br>Your bonus pay is unchanged, and remains at $0.64.</p>\n            ","response":0,"trial_type":"html-button-response","trial_index":102,"time_elapsed":332472,"internal_node_id":"0.0-4.0-1.45","subject_id":"5b9c28c460e5f700017c0636","study_id":"6197b3f67c2b5cd3b6d9596a","session_id":"619beefca59a5a266350b606","condition":"contingent","relevant_dimensions":["pattern","legs"],"bee_group":{"antennae":"X","wings":"X","pattern":"S","legs":"F"},"bonus":1.2600000000000011},{"rt":983,"stimulus":"bees-with-color/bee-A2SM.svg","response":0,"trial_type":"image-button-response","trial_index":103,"time_elapsed":333456,"internal_node_id":"0.0-4.0-0.46","subject_id":"5b9c28c460e5f700017c0636","study_id":"6197b3f67c2b5cd3b6d9596a","session_id":"619beefca59a5a266350b606","condition":"contingent","relevant_dimensions":["pattern","legs"],"bee_group":{"antennae":"X","wings":"X","pattern":"S","legs":"F"},"action":"harvest","summary":"good-harvest","bonus":1.2600000000000011},{"rt":354.10000002384186,"stimulus":"\n                    <p><b>Action: <em>harvest</em></b></p>\n                    <p>This is the bee that you just saw.</p>\n                    <img src=\"bees-with-color/bee-A2SM.svg\" width=\"200\">\n                    <p><span class=\"greenText\"><b>Successful harvest!</b></span><br>Your pay has increased by $0.02. Your bonus pay is now $0.66.</p>\n            ","response":0,"trial_type":"html-button-response","trial_index":104,"time_elapsed":333811,"internal_node_id":"0.0-4.0-1.46","subject_id":"5b9c28c460e5f700017c0636","study_id":"6197b3f67c2b5cd3b6d9596a","session_id":"619beefca59a5a266350b606","condition":"contingent","relevant_dimensions":["pattern","legs"],"bee_group":{"antennae":"X","wings":"X","pattern":"S","legs":"F"},"bonus":1.2600000000000011},{"rt":703.8999999761581,"stimulus":"bees-with-color/bee-B2DM.svg","response":0,"trial_type":"image-button-response","trial_index":105,"time_elapsed":334516,"internal_node_id":"0.0-4.0-0.47","subject_id":"5b9c28c460e5f700017c0636","study_id":"6197b3f67c2b5cd3b6d9596a","session_id":"619beefca59a5a266350b606","condition":"contingent","relevant_dimensions":["pattern","legs"],"bee_group":{"antennae":"X","wings":"X","pattern":"S","legs":"F"},"action":"harvest","summary":"good-harvest","bonus":1.2600000000000011},{"rt":292.89999997615814,"stimulus":"\n                    <p><b>Action: <em>harvest</em></b></p>\n                    <p>This is the bee that you just saw.</p>\n                    <img src=\"bees-with-color/bee-B2DM.svg\" width=\"200\">\n                    <p><span class=\"greenText\"><b>Successful harvest!</b></span><br>Your pay has increased by $0.02. Your bonus pay is now $0.68.</p>\n            ","response":0,"trial_type":"html-button-response","trial_index":106,"time_elapsed":334810,"internal_node_id":"0.0-4.0-1.47","subject_id":"5b9c28c460e5f700017c0636","study_id":"6197b3f67c2b5cd3b6d9596a","session_id":"619beefca59a5a266350b606","condition":"contingent","relevant_dimensions":["pattern","legs"],"bee_group":{"antennae":"X","wings":"X","pattern":"S","legs":"F"},"bonus":1.2600000000000011},{"rt":483,"stimulus":"bees-with-color/bee-A2DF.svg","response":0,"trial_type":"image-button-response","trial_index":107,"time_elapsed":335294,"internal_node_id":"0.0-4.0-0.48","subject_id":"5b9c28c460e5f700017c0636","study_id":"6197b3f67c2b5cd3b6d9596a","session_id":"619beefca59a5a266350b606","condition":"contingent","relevant_dimensions":["pattern","legs"],"bee_group":{"antennae":"X","wings":"X","pattern":"S","legs":"F"},"action":"harvest","summary":"good-harvest","bonus":1.2600000000000011},{"rt":491.5,"stimulus":"\n                    <p><b>Action: <em>harvest</em></b></p>\n                    <p>This is the bee that you just saw.</p>\n                    <img src=\"bees-with-color/bee-A2DF.svg\" width=\"200\">\n                    <p><span class=\"greenText\"><b>Successful harvest!</b></span><br>Your pay has increased by $0.02. Your bonus pay is now $0.70.</p>\n            ","response":0,"trial_type":"html-button-response","trial_index":108,"time_elapsed":335786,"internal_node_id":"0.0-4.0-1.48","subject_id":"5b9c28c460e5f700017c0636","study_id":"6197b3f67c2b5cd3b6d9596a","session_id":"619beefca59a5a266350b606","condition":"contingent","relevant_dimensions":["pattern","legs"],"bee_group":{"antennae":"X","wings":"X","pattern":"S","legs":"F"},"bonus":1.2600000000000011},{"rt":1201.1999999284744,"stimulus":"bees-with-color/bee-B1SF.svg","response":1,"trial_type":"image-button-response","trial_index":109,"time_elapsed":336988,"internal_node_id":"0.0-4.0-0.49","subject_id":"5b9c28c460e5f700017c0636","study_id":"6197b3f67c2b5cd3b6d9596a","session_id":"619beefca59a5a266350b606","condition":"contingent","relevant_dimensions":["pattern","legs"],"bee_group":{"antennae":"X","wings":"X","pattern":"S","legs":"F"},"action":"avoid","summary":"good-avoid","bonus":1.2600000000000011},{"rt":275.60000002384186,"stimulus":"\n                    <p><b>Action: <em>avoid</em></b></p>\n                    <p>This is the bee that you just saw.</p>\n                    <img src=\"bees-with-color/bee-B1SF.svg\" width=\"200\">\n                    <p><br>Your bonus pay is unchanged, and remains at $0.70.</p>\n            ","response":0,"trial_type":"html-button-response","trial_index":110,"time_elapsed":337264,"internal_node_id":"0.0-4.0-1.49","subject_id":"5b9c28c460e5f700017c0636","study_id":"6197b3f67c2b5cd3b6d9596a","session_id":"619beefca59a5a266350b606","condition":"contingent","relevant_dimensions":["pattern","legs"],"bee_group":{"antennae":"X","wings":"X","pattern":"S","legs":"F"},"bonus":1.2600000000000011},{"rt":623.7000000476837,"stimulus":"bees-with-color/bee-A1DM.svg","response":0,"trial_type":"image-button-response","trial_index":111,"time_elapsed":337889,"internal_node_id":"0.0-4.0-0.50","subject_id":"5b9c28c460e5f700017c0636","study_id":"6197b3f67c2b5cd3b6d9596a","session_id":"619beefca59a5a266350b606","condition":"contingent","relevant_dimensions":["pattern","legs"],"bee_group":{"antennae":"X","wings":"X","pattern":"S","legs":"F"},"action":"harvest","summary":"good-harvest","bonus":1.2600000000000011},{"rt":338.7000000476837,"stimulus":"\n                    <p><b>Action: <em>harvest</em></b></p>\n                    <p>This is the bee that you just saw.</p>\n                    <img src=\"bees-with-color/bee-A1DM.svg\" width=\"200\">\n                    <p><span class=\"greenText\"><b>Successful harvest!</b></span><br>Your pay has increased by $0.02. Your bonus pay is now $0.72.</p>\n            ","response":0,"trial_type":"html-button-response","trial_index":112,"time_elapsed":338229,"internal_node_id":"0.0-4.0-1.50","subject_id":"5b9c28c460e5f700017c0636","study_id":"6197b3f67c2b5cd3b6d9596a","session_id":"619beefca59a5a266350b606","condition":"contingent","relevant_dimensions":["pattern","legs"],"bee_group":{"antennae":"X","wings":"X","pattern":"S","legs":"F"},"bonus":1.2600000000000011},{"rt":2178.5999999046326,"stimulus":"bees-with-color/bee-B1SM.svg","response":1,"trial_type":"image-button-response","trial_index":113,"time_elapsed":340408,"internal_node_id":"0.0-4.0-0.51","subject_id":"5b9c28c460e5f700017c0636","study_id":"6197b3f67c2b5cd3b6d9596a","session_id":"619beefca59a5a266350b606","condition":"contingent","relevant_dimensions":["pattern","legs"],"bee_group":{"antennae":"X","wings":"X","pattern":"S","legs":"F"},"action":"avoid","summary":"bad-avoid","bonus":1.2600000000000011},{"rt":975,"stimulus":"\n                    <p><b>Action: <em>avoid</em></b></p>\n                    <p>This is the bee that you just saw.</p>\n                    <img src=\"bees-with-color/bee-B1SM.svg\" width=\"200\">\n                    <p><br>Your bonus pay is unchanged, and remains at $0.72.</p>\n            ","response":0,"trial_type":"html-button-response","trial_index":114,"time_elapsed":341384,"internal_node_id":"0.0-4.0-1.51","subject_id":"5b9c28c460e5f700017c0636","study_id":"6197b3f67c2b5cd3b6d9596a","session_id":"619beefca59a5a266350b606","condition":"contingent","relevant_dimensions":["pattern","legs"],"bee_group":{"antennae":"X","wings":"X","pattern":"S","legs":"F"},"bonus":1.2600000000000011},{"rt":1539.1000000238419,"stimulus":"bees-with-color/bee-A2SM.svg","response":0,"trial_type":"image-button-response","trial_index":115,"time_elapsed":342924,"internal_node_id":"0.0-4.0-0.52","subject_id":"5b9c28c460e5f700017c0636","study_id":"6197b3f67c2b5cd3b6d9596a","session_id":"619beefca59a5a266350b606","condition":"contingent","relevant_dimensions":["pattern","legs"],"bee_group":{"antennae":"X","wings":"X","pattern":"S","legs":"F"},"action":"harvest","summary":"good-harvest","bonus":1.2600000000000011},{"rt":302.60000002384186,"stimulus":"\n                    <p><b>Action: <em>harvest</em></b></p>\n                    <p>This is the bee that you just saw.</p>\n                    <img src=\"bees-with-color/bee-A2SM.svg\" width=\"200\">\n                    <p><span class=\"greenText\"><b>Successful harvest!</b></span><br>Your pay has increased by $0.02. Your bonus pay is now $0.74.</p>\n            ","response":0,"trial_type":"html-button-response","trial_index":116,"time_elapsed":343227,"internal_node_id":"0.0-4.0-1.52","subject_id":"5b9c28c460e5f700017c0636","study_id":"6197b3f67c2b5cd3b6d9596a","session_id":"619beefca59a5a266350b606","condition":"contingent","relevant_dimensions":["pattern","legs"],"bee_group":{"antennae":"X","wings":"X","pattern":"S","legs":"F"},"bonus":1.2600000000000011},{"rt":836,"stimulus":"bees-with-color/bee-B1DF.svg","response":0,"trial_type":"image-button-response","trial_index":117,"time_elapsed":344064,"internal_node_id":"0.0-4.0-0.53","subject_id":"5b9c28c460e5f700017c0636","study_id":"6197b3f67c2b5cd3b6d9596a","session_id":"619beefca59a5a266350b606","condition":"contingent","relevant_dimensions":["pattern","legs"],"bee_group":{"antennae":"X","wings":"X","pattern":"S","legs":"F"},"action":"harvest","summary":"good-harvest","bonus":1.2600000000000011},{"rt":282,"stimulus":"\n                    <p><b>Action: <em>harvest</em></b></p>\n                    <p>This is the bee that you just saw.</p>\n                    <img src=\"bees-with-color/bee-B1DF.svg\" width=\"200\">\n                    <p><span class=\"greenText\"><b>Successful harvest!</b></span><br>Your pay has increased by $0.02. Your bonus pay is now $0.76.</p>\n            ","response":0,"trial_type":"html-button-response","trial_index":118,"time_elapsed":344347,"internal_node_id":"0.0-4.0-1.53","subject_id":"5b9c28c460e5f700017c0636","study_id":"6197b3f67c2b5cd3b6d9596a","session_id":"619beefca59a5a266350b606","condition":"contingent","relevant_dimensions":["pattern","legs"],"bee_group":{"antennae":"X","wings":"X","pattern":"S","legs":"F"},"bonus":1.2600000000000011},{"rt":857.2000000476837,"stimulus":"bees-with-color/bee-B2DM.svg","response":0,"trial_type":"image-button-response","trial_index":119,"time_elapsed":345205,"internal_node_id":"0.0-4.0-0.54","subject_id":"5b9c28c460e5f700017c0636","study_id":"6197b3f67c2b5cd3b6d9596a","session_id":"619beefca59a5a266350b606","condition":"contingent","relevant_dimensions":["pattern","legs"],"bee_group":{"antennae":"X","wings":"X","pattern":"S","legs":"F"},"action":"harvest","summary":"good-harvest","bonus":1.2600000000000011},{"rt":291.2999999523163,"stimulus":"\n                    <p><b>Action: <em>harvest</em></b></p>\n                    <p>This is the bee that you just saw.</p>\n                    <img src=\"bees-with-color/bee-B2DM.svg\" width=\"200\">\n                    <p><span class=\"greenText\"><b>Successful harvest!</b></span><br>Your pay has increased by $0.02. Your bonus pay is now $0.78.</p>\n            ","response":0,"trial_type":"html-button-response","trial_index":120,"time_elapsed":345498,"internal_node_id":"0.0-4.0-1.54","subject_id":"5b9c28c460e5f700017c0636","study_id":"6197b3f67c2b5cd3b6d9596a","session_id":"619beefca59a5a266350b606","condition":"contingent","relevant_dimensions":["pattern","legs"],"bee_group":{"antennae":"X","wings":"X","pattern":"S","legs":"F"},"bonus":1.2600000000000011},{"rt":1574.2999999523163,"stimulus":"bees-with-color/bee-A2SF.svg","response":1,"trial_type":"image-button-response","trial_index":121,"time_elapsed":347073,"internal_node_id":"0.0-4.0-0.55","subject_id":"5b9c28c460e5f700017c0636","study_id":"6197b3f67c2b5cd3b6d9596a","session_id":"619beefca59a5a266350b606","condition":"contingent","relevant_dimensions":["pattern","legs"],"bee_group":{"antennae":"X","wings":"X","pattern":"S","legs":"F"},"action":"avoid","summary":"good-avoid","bonus":1.2600000000000011},{"rt":345,"stimulus":"\n                    <p><b>Action: <em>avoid</em></b></p>\n                    <p>This is the bee that you just saw.</p>\n                    <img src=\"bees-with-color/bee-A2SF.svg\" width=\"200\">\n                    <p><br>Your bonus pay is unchanged, and remains at $0.78.</p>\n            ","response":0,"trial_type":"html-button-response","trial_index":122,"time_elapsed":347419,"internal_node_id":"0.0-4.0-1.55","subject_id":"5b9c28c460e5f700017c0636","study_id":"6197b3f67c2b5cd3b6d9596a","session_id":"619beefca59a5a266350b606","condition":"contingent","relevant_dimensions":["pattern","legs"],"bee_group":{"antennae":"X","wings":"X","pattern":"S","legs":"F"},"bonus":1.2600000000000011},{"rt":599.3999999761581,"stimulus":"bees-with-color/bee-B2DF.svg","response":0,"trial_type":"image-button-response","trial_index":123,"time_elapsed":348019,"internal_node_id":"0.0-4.0-0.56","subject_id":"5b9c28c460e5f700017c0636","study_id":"6197b3f67c2b5cd3b6d9596a","session_id":"619beefca59a5a266350b606","condition":"contingent","relevant_dimensions":["pattern","legs"],"bee_group":{"antennae":"X","wings":"X","pattern":"S","legs":"F"},"action":"harvest","summary":"good-harvest","bonus":1.2600000000000011},{"rt":304.7000000476837,"stimulus":"\n                    <p><b>Action: <em>harvest</em></b></p>\n                    <p>This is the bee that you just saw.</p>\n                    <img src=\"bees-with-color/bee-B2DF.svg\" width=\"200\">\n                    <p><span class=\"greenText\"><b>Successful harvest!</b></span><br>Your pay has increased by $0.02. Your bonus pay is now $0.80.</p>\n            ","response":0,"trial_type":"html-button-response","trial_index":124,"time_elapsed":348324,"internal_node_id":"0.0-4.0-1.56","subject_id":"5b9c28c460e5f700017c0636","study_id":"6197b3f67c2b5cd3b6d9596a","session_id":"619beefca59a5a266350b606","condition":"contingent","relevant_dimensions":["pattern","legs"],"bee_group":{"antennae":"X","wings":"X","pattern":"S","legs":"F"},"bonus":1.2600000000000011},{"rt":914.5,"stimulus":"bees-with-color/bee-B2SM.svg","response":1,"trial_type":"image-button-response","trial_index":125,"time_elapsed":349240,"internal_node_id":"0.0-4.0-0.57","subject_id":"5b9c28c460e5f700017c0636","study_id":"6197b3f67c2b5cd3b6d9596a","session_id":"619beefca59a5a266350b606","condition":"contingent","relevant_dimensions":["pattern","legs"],"bee_group":{"antennae":"X","wings":"X","pattern":"S","legs":"F"},"action":"avoid","summary":"bad-avoid","bonus":1.2600000000000011},{"rt":328.89999997615814,"stimulus":"\n                    <p><b>Action: <em>avoid</em></b></p>\n                    <p>This is the bee that you just saw.</p>\n                    <img src=\"bees-with-color/bee-B2SM.svg\" width=\"200\">\n                    <p><br>Your bonus pay is unchanged, and remains at $0.80.</p>\n            ","response":0,"trial_type":"html-button-response","trial_index":126,"time_elapsed":349569,"internal_node_id":"0.0-4.0-1.57","subject_id":"5b9c28c460e5f700017c0636","study_id":"6197b3f67c2b5cd3b6d9596a","session_id":"619beefca59a5a266350b606","condition":"contingent","relevant_dimensions":["pattern","legs"],"bee_group":{"antennae":"X","wings":"X","pattern":"S","legs":"F"},"bonus":1.2600000000000011},{"rt":866,"stimulus":"bees-with-color/bee-A1SM.svg","response":1,"trial_type":"image-button-response","trial_index":127,"time_elapsed":350436,"internal_node_id":"0.0-4.0-0.58","subject_id":"5b9c28c460e5f700017c0636","study_id":"6197b3f67c2b5cd3b6d9596a","session_id":"619beefca59a5a266350b606","condition":"contingent","relevant_dimensions":["pattern","legs"],"bee_group":{"antennae":"X","wings":"X","pattern":"S","legs":"F"},"action":"avoid","summary":"bad-avoid","bonus":1.2600000000000011},{"rt":249.39999997615814,"stimulus":"\n                    <p><b>Action: <em>avoid</em></b></p>\n                    <p>This is the bee that you just saw.</p>\n                    <img src=\"bees-with-color/bee-A1SM.svg\" width=\"200\">\n                    <p><br>Your bonus pay is unchanged, and remains at $0.80.</p>\n            ","response":0,"trial_type":"html-button-response","trial_index":128,"time_elapsed":350686,"internal_node_id":"0.0-4.0-1.58","subject_id":"5b9c28c460e5f700017c0636","study_id":"6197b3f67c2b5cd3b6d9596a","session_id":"619beefca59a5a266350b606","condition":"contingent","relevant_dimensions":["pattern","legs"],"bee_group":{"antennae":"X","wings":"X","pattern":"S","legs":"F"},"bonus":1.2600000000000011},{"rt":814.6999999284744,"stimulus":"bees-with-color/bee-B2SF.svg","response":1,"trial_type":"image-button-response","trial_index":129,"time_elapsed":351502,"internal_node_id":"0.0-4.0-0.59","subject_id":"5b9c28c460e5f700017c0636","study_id":"6197b3f67c2b5cd3b6d9596a","session_id":"619beefca59a5a266350b606","condition":"contingent","relevant_dimensions":["pattern","legs"],"bee_group":{"antennae":"X","wings":"X","pattern":"S","legs":"F"},"action":"avoid","summary":"good-avoid","bonus":1.2600000000000011},{"rt":560.7000000476837,"stimulus":"\n                    <p><b>Action: <em>avoid</em></b></p>\n                    <p>This is the bee that you just saw.</p>\n                    <img src=\"bees-with-color/bee-B2SF.svg\" width=\"200\">\n                    <p><br>Your bonus pay is unchanged, and remains at $0.80.</p>\n            ","response":0,"trial_type":"html-button-response","trial_index":130,"time_elapsed":352063,"internal_node_id":"0.0-4.0-1.59","subject_id":"5b9c28c460e5f700017c0636","study_id":"6197b3f67c2b5cd3b6d9596a","session_id":"619beefca59a5a266350b606","condition":"contingent","relevant_dimensions":["pattern","legs"],"bee_group":{"antennae":"X","wings":"X","pattern":"S","legs":"F"},"bonus":1.2600000000000011},{"rt":646.6000000238419,"stimulus":"bees-with-color/bee-B1DM.svg","response":0,"trial_type":"image-button-response","trial_index":131,"time_elapsed":352711,"internal_node_id":"0.0-4.0-0.60","subject_id":"5b9c28c460e5f700017c0636","study_id":"6197b3f67c2b5cd3b6d9596a","session_id":"619beefca59a5a266350b606","condition":"contingent","relevant_dimensions":["pattern","legs"],"bee_group":{"antennae":"X","wings":"X","pattern":"S","legs":"F"},"action":"harvest","summary":"good-harvest","bonus":1.2600000000000011},{"rt":258,"stimulus":"\n                    <p><b>Action: <em>harvest</em></b></p>\n                    <p>This is the bee that you just saw.</p>\n                    <img src=\"bees-with-color/bee-B1DM.svg\" width=\"200\">\n                    <p><span class=\"greenText\"><b>Successful harvest!</b></span><br>Your pay has increased by $0.02. Your bonus pay is now $0.82.</p>\n            ","response":0,"trial_type":"html-button-response","trial_index":132,"time_elapsed":352970,"internal_node_id":"0.0-4.0-1.60","subject_id":"5b9c28c460e5f700017c0636","study_id":"6197b3f67c2b5cd3b6d9596a","session_id":"619beefca59a5a266350b606","condition":"contingent","relevant_dimensions":["pattern","legs"],"bee_group":{"antennae":"X","wings":"X","pattern":"S","legs":"F"},"bonus":1.2600000000000011},{"rt":807.2000000476837,"stimulus":"bees-with-color/bee-A1SF.svg","response":1,"trial_type":"image-button-response","trial_index":133,"time_elapsed":353778,"internal_node_id":"0.0-4.0-0.61","subject_id":"5b9c28c460e5f700017c0636","study_id":"6197b3f67c2b5cd3b6d9596a","session_id":"619beefca59a5a266350b606","condition":"contingent","relevant_dimensions":["pattern","legs"],"bee_group":{"antennae":"X","wings":"X","pattern":"S","legs":"F"},"action":"avoid","summary":"good-avoid","bonus":1.2600000000000011},{"rt":271.7000000476837,"stimulus":"\n                    <p><b>Action: <em>avoid</em></b></p>\n                    <p>This is the bee that you just saw.</p>\n                    <img src=\"bees-with-color/bee-A1SF.svg\" width=\"200\">\n                    <p><br>Your bonus pay is unchanged, and remains at $0.82.</p>\n            ","response":0,"trial_type":"html-button-response","trial_index":134,"time_elapsed":354051,"internal_node_id":"0.0-4.0-1.61","subject_id":"5b9c28c460e5f700017c0636","study_id":"6197b3f67c2b5cd3b6d9596a","session_id":"619beefca59a5a266350b606","condition":"contingent","relevant_dimensions":["pattern","legs"],"bee_group":{"antennae":"X","wings":"X","pattern":"S","legs":"F"},"bonus":1.2600000000000011},{"rt":480.10000002384186,"stimulus":"bees-with-color/bee-A1DF.svg","response":0,"trial_type":"image-button-response","trial_index":135,"time_elapsed":354532,"internal_node_id":"0.0-4.0-0.62","subject_id":"5b9c28c460e5f700017c0636","study_id":"6197b3f67c2b5cd3b6d9596a","session_id":"619beefca59a5a266350b606","condition":"contingent","relevant_dimensions":["pattern","legs"],"bee_group":{"antennae":"X","wings":"X","pattern":"S","legs":"F"},"action":"harvest","summary":"good-harvest","bonus":1.2600000000000011},{"rt":254.09999990463257,"stimulus":"\n                    <p><b>Action: <em>harvest</em></b></p>\n                    <p>This is the bee that you just saw.</p>\n                    <img src=\"bees-with-color/bee-A1DF.svg\" width=\"200\">\n                    <p><span class=\"greenText\"><b>Successful harvest!</b></span><br>Your pay has increased by $0.02. Your bonus pay is now $0.84.</p>\n            ","response":0,"trial_type":"html-button-response","trial_index":136,"time_elapsed":354787,"internal_node_id":"0.0-4.0-1.62","subject_id":"5b9c28c460e5f700017c0636","study_id":"6197b3f67c2b5cd3b6d9596a","session_id":"619beefca59a5a266350b606","condition":"contingent","relevant_dimensions":["pattern","legs"],"bee_group":{"antennae":"X","wings":"X","pattern":"S","legs":"F"},"bonus":1.2600000000000011},{"rt":939.8999999761581,"stimulus":"bees-with-color/bee-A2DM.svg","response":0,"trial_type":"image-button-response","trial_index":137,"time_elapsed":355727,"internal_node_id":"0.0-4.0-0.63","subject_id":"5b9c28c460e5f700017c0636","study_id":"6197b3f67c2b5cd3b6d9596a","session_id":"619beefca59a5a266350b606","condition":"contingent","relevant_dimensions":["pattern","legs"],"bee_group":{"antennae":"X","wings":"X","pattern":"S","legs":"F"},"action":"harvest","summary":"good-harvest","bonus":1.2600000000000011},{"rt":298.2000000476837,"stimulus":"\n                    <p><b>Action: <em>harvest</em></b></p>\n                    <p>This is the bee that you just saw.</p>\n                    <img src=\"bees-with-color/bee-A2DM.svg\" width=\"200\">\n                    <p><span class=\"greenText\"><b>Successful harvest!</b></span><br>Your pay has increased by $0.02. Your bonus pay is now $0.86.</p>\n            ","response":0,"trial_type":"html-button-response","trial_index":138,"time_elapsed":356026,"internal_node_id":"0.0-4.0-1.63","subject_id":"5b9c28c460e5f700017c0636","study_id":"6197b3f67c2b5cd3b6d9596a","session_id":"619beefca59a5a266350b606","condition":"contingent","relevant_dimensions":["pattern","legs"],"bee_group":{"antennae":"X","wings":"X","pattern":"S","legs":"F"},"bonus":1.2600000000000011},{"rt":3673.2999999523163,"stimulus":"You have completed the first part of this experiment.<br><br>You will now begin a shorter second part, in which you will receive no feedback.<br>The same rules regarding bonus pay apply.<br><br>Press any key to begin.","response":"m","trial_type":"html-keyboard-response","trial_index":139,"time_elapsed":359701,"internal_node_id":"0.0-5.0","subject_id":"5b9c28c460e5f700017c0636","study_id":"6197b3f67c2b5cd3b6d9596a","session_id":"619beefca59a5a266350b606","condition":"contingent","relevant_dimensions":["pattern","legs"],"bee_group":{"antennae":"X","wings":"X","pattern":"S","legs":"F"},"bonus":1.2600000000000011},{"rt":2754.399999976158,"stimulus":"bees-with-color/bee-B2DF.svg","response":0,"trial_type":"image-button-response","trial_index":140,"time_elapsed":362461,"internal_node_id":"0.0-6.0-0.0","subject_id":"5b9c28c460e5f700017c0636","study_id":"6197b3f67c2b5cd3b6d9596a","session_id":"619beefca59a5a266350b606","condition":"contingent","relevant_dimensions":["pattern","legs"],"bee_group":{"antennae":"X","wings":"X","pattern":"S","legs":"F"},"bonus":1.2600000000000011},{"rt":2295.600000023842,"stimulus":"bees-with-color/bee-B1SF.svg","response":1,"trial_type":"image-button-response","trial_index":141,"time_elapsed":364758,"internal_node_id":"0.0-6.0-0.1","subject_id":"5b9c28c460e5f700017c0636","study_id":"6197b3f67c2b5cd3b6d9596a","session_id":"619beefca59a5a266350b606","condition":"contingent","relevant_dimensions":["pattern","legs"],"bee_group":{"antennae":"X","wings":"X","pattern":"S","legs":"F"},"bonus":1.2600000000000011},{"rt":641.5999999046326,"stimulus":"bees-with-color/bee-A1DM.svg","response":0,"trial_type":"image-button-response","trial_index":142,"time_elapsed":365401,"internal_node_id":"0.0-6.0-0.2","subject_id":"5b9c28c460e5f700017c0636","study_id":"6197b3f67c2b5cd3b6d9596a","session_id":"619beefca59a5a266350b606","condition":"contingent","relevant_dimensions":["pattern","legs"],"bee_group":{"antennae":"X","wings":"X","pattern":"S","legs":"F"},"bonus":1.2600000000000011},{"rt":1803.5,"stimulus":"bees-with-color/bee-A2SF.svg","response":1,"trial_type":"image-button-response","trial_index":143,"time_elapsed":367205,"internal_node_id":"0.0-6.0-0.3","subject_id":"5b9c28c460e5f700017c0636","study_id":"6197b3f67c2b5cd3b6d9596a","session_id":"619beefca59a5a266350b606","condition":"contingent","relevant_dimensions":["pattern","legs"],"bee_group":{"antennae":"X","wings":"X","pattern":"S","legs":"F"},"bonus":1.2600000000000011},{"rt":1165.2999999523163,"stimulus":"bees-with-color/bee-B1SM.svg","response":1,"trial_type":"image-button-response","trial_index":144,"time_elapsed":368372,"internal_node_id":"0.0-6.0-0.4","subject_id":"5b9c28c460e5f700017c0636","study_id":"6197b3f67c2b5cd3b6d9596a","session_id":"619beefca59a5a266350b606","condition":"contingent","relevant_dimensions":["pattern","legs"],"bee_group":{"antennae":"X","wings":"X","pattern":"S","legs":"F"},"bonus":1.2600000000000011},{"rt":495.60000002384186,"stimulus":"bees-with-color/bee-A1DF.svg","response":0,"trial_type":"image-button-response","trial_index":145,"time_elapsed":368868,"internal_node_id":"0.0-6.0-0.5","subject_id":"5b9c28c460e5f700017c0636","study_id":"6197b3f67c2b5cd3b6d9596a","session_id":"619beefca59a5a266350b606","condition":"contingent","relevant_dimensions":["pattern","legs"],"bee_group":{"antennae":"X","wings":"X","pattern":"S","legs":"F"},"bonus":1.2600000000000011},{"rt":657.7000000476837,"stimulus":"bees-with-color/bee-B1DM.svg","response":0,"trial_type":"image-button-response","trial_index":146,"time_elapsed":369527,"internal_node_id":"0.0-6.0-0.6","subject_id":"5b9c28c460e5f700017c0636","study_id":"6197b3f67c2b5cd3b6d9596a","session_id":"619beefca59a5a266350b606","condition":"contingent","relevant_dimensions":["pattern","legs"],"bee_group":{"antennae":"X","wings":"X","pattern":"S","legs":"F"},"bonus":1.2600000000000011},{"rt":855.3999999761581,"stimulus":"bees-with-color/bee-A2SM.svg","response":0,"trial_type":"image-button-response","trial_index":147,"time_elapsed":370384,"internal_node_id":"0.0-6.0-0.7","subject_id":"5b9c28c460e5f700017c0636","study_id":"6197b3f67c2b5cd3b6d9596a","session_id":"619beefca59a5a266350b606","condition":"contingent","relevant_dimensions":["pattern","legs"],"bee_group":{"antennae":"X","wings":"X","pattern":"S","legs":"F"},"bonus":1.2600000000000011},{"rt":937.3999999761581,"stimulus":"bees-with-color/bee-A1SF.svg","response":1,"trial_type":"image-button-response","trial_index":148,"time_elapsed":371323,"internal_node_id":"0.0-6.0-0.8","subject_id":"5b9c28c460e5f700017c0636","study_id":"6197b3f67c2b5cd3b6d9596a","session_id":"619beefca59a5a266350b606","condition":"contingent","relevant_dimensions":["pattern","legs"],"bee_group":{"antennae":"X","wings":"X","pattern":"S","legs":"F"},"bonus":1.2600000000000011},{"rt":539.5,"stimulus":"bees-with-color/bee-A2DF.svg","response":0,"trial_type":"image-button-response","trial_index":149,"time_elapsed":371864,"internal_node_id":"0.0-6.0-0.9","subject_id":"5b9c28c460e5f700017c0636","study_id":"6197b3f67c2b5cd3b6d9596a","session_id":"619beefca59a5a266350b606","condition":"contingent","relevant_dimensions":["pattern","legs"],"bee_group":{"antennae":"X","wings":"X","pattern":"S","legs":"F"},"bonus":1.2600000000000011},{"rt":798.3999999761581,"stimulus":"bees-with-color/bee-B2SF.svg","response":1,"trial_type":"image-button-response","trial_index":150,"time_elapsed":372663,"internal_node_id":"0.0-6.0-0.10","subject_id":"5b9c28c460e5f700017c0636","study_id":"6197b3f67c2b5cd3b6d9596a","session_id":"619beefca59a5a266350b606","condition":"contingent","relevant_dimensions":["pattern","legs"],"bee_group":{"antennae":"X","wings":"X","pattern":"S","legs":"F"},"bonus":1.2600000000000011},{"rt":483.89999997615814,"stimulus":"bees-with-color/bee-B2DM.svg","response":0,"trial_type":"image-button-response","trial_index":151,"time_elapsed":373149,"internal_node_id":"0.0-6.0-0.11","subject_id":"5b9c28c460e5f700017c0636","study_id":"6197b3f67c2b5cd3b6d9596a","session_id":"619beefca59a5a266350b606","condition":"contingent","relevant_dimensions":["pattern","legs"],"bee_group":{"antennae":"X","wings":"X","pattern":"S","legs":"F"},"bonus":1.2600000000000011},{"rt":451.7000000476837,"stimulus":"bees-with-color/bee-A2DM.svg","response":0,"trial_type":"image-button-response","trial_index":152,"time_elapsed":373601,"internal_node_id":"0.0-6.0-0.12","subject_id":"5b9c28c460e5f700017c0636","study_id":"6197b3f67c2b5cd3b6d9596a","session_id":"619beefca59a5a266350b606","condition":"contingent","relevant_dimensions":["pattern","legs"],"bee_group":{"antennae":"X","wings":"X","pattern":"S","legs":"F"},"bonus":1.2600000000000011},{"rt":413.59999990463257,"stimulus":"bees-with-color/bee-B1DF.svg","response":0,"trial_type":"image-button-response","trial_index":153,"time_elapsed":374016,"internal_node_id":"0.0-6.0-0.13","subject_id":"5b9c28c460e5f700017c0636","study_id":"6197b3f67c2b5cd3b6d9596a","session_id":"619beefca59a5a266350b606","condition":"contingent","relevant_dimensions":["pattern","legs"],"bee_group":{"antennae":"X","wings":"X","pattern":"S","legs":"F"},"bonus":1.2600000000000011},{"rt":1205.8999999761581,"stimulus":"bees-with-color/bee-A1SM.svg","response":0,"trial_type":"image-button-response","trial_index":154,"time_elapsed":375223,"internal_node_id":"0.0-6.0-0.14","subject_id":"5b9c28c460e5f700017c0636","study_id":"6197b3f67c2b5cd3b6d9596a","session_id":"619beefca59a5a266350b606","condition":"contingent","relevant_dimensions":["pattern","legs"],"bee_group":{"antennae":"X","wings":"X","pattern":"S","legs":"F"},"bonus":1.2600000000000011},{"rt":803.1000000238419,"stimulus":"bees-with-color/bee-B2SM.svg","response":1,"trial_type":"image-button-response","trial_index":155,"time_elapsed":376028,"internal_node_id":"0.0-6.0-0.15","subject_id":"5b9c28c460e5f700017c0636","study_id":"6197b3f67c2b5cd3b6d9596a","session_id":"619beefca59a5a266350b606","condition":"contingent","relevant_dimensions":["pattern","legs"],"bee_group":{"antennae":"X","wings":"X","pattern":"S","legs":"F"},"bonus":1.2600000000000011},{"rt":586.8999999761581,"stimulus":"bees-with-color/bee-A2DF.svg","response":0,"trial_type":"image-button-response","trial_index":156,"time_elapsed":376616,"internal_node_id":"0.0-6.0-0.16","subject_id":"5b9c28c460e5f700017c0636","study_id":"6197b3f67c2b5cd3b6d9596a","session_id":"619beefca59a5a266350b606","condition":"contingent","relevant_dimensions":["pattern","legs"],"bee_group":{"antennae":"X","wings":"X","pattern":"S","legs":"F"},"bonus":1.2600000000000011},{"rt":884,"stimulus":"bees-with-color/bee-B1SF.svg","response":1,"trial_type":"image-button-response","trial_index":157,"time_elapsed":377501,"internal_node_id":"0.0-6.0-0.17","subject_id":"5b9c28c460e5f700017c0636","study_id":"6197b3f67c2b5cd3b6d9596a","session_id":"619beefca59a5a266350b606","condition":"contingent","relevant_dimensions":["pattern","legs"],"bee_group":{"antennae":"X","wings":"X","pattern":"S","legs":"F"},"bonus":1.2600000000000011},{"rt":458.2000000476837,"stimulus":"bees-with-color/bee-B2DF.svg","response":0,"trial_type":"image-button-response","trial_index":158,"time_elapsed":377960,"internal_node_id":"0.0-6.0-0.18","subject_id":"5b9c28c460e5f700017c0636","study_id":"6197b3f67c2b5cd3b6d9596a","session_id":"619beefca59a5a266350b606","condition":"contingent","relevant_dimensions":["pattern","legs"],"bee_group":{"antennae":"X","wings":"X","pattern":"S","legs":"F"},"bonus":1.2600000000000011},{"rt":569.3999999761581,"stimulus":"bees-with-color/bee-A1DF.svg","response":0,"trial_type":"image-button-response","trial_index":159,"time_elapsed":378530,"internal_node_id":"0.0-6.0-0.19","subject_id":"5b9c28c460e5f700017c0636","study_id":"6197b3f67c2b5cd3b6d9596a","session_id":"619beefca59a5a266350b606","condition":"contingent","relevant_dimensions":["pattern","legs"],"bee_group":{"antennae":"X","wings":"X","pattern":"S","legs":"F"},"bonus":1.2600000000000011},{"rt":444.89999997615814,"stimulus":"bees-with-color/bee-B1DF.svg","response":0,"trial_type":"image-button-response","trial_index":160,"time_elapsed":378976