[{"success":true,"trial_type":"fullscreen","trial_index":0,"time_elapsed":6978,"internal_node_id":"0.0-0.0","subject_id":"612fe64ec0e4e3b001e553ef","study_id":"6197b3f67c2b5cd3b6d9596a","session_id":"6197b88f2ecd4c080592c03f","condition":"full-information","relevant_dimensions":["antennae","legs"],"bee_group":{"antennae":"B","wings":"X","pattern":"X","legs":"F"},"bonus":1.3000000000000007},{"success":true,"timeout":false,"failed_images":[],"failed_audio":[],"failed_video":[],"trial_type":"preload","trial_index":1,"time_elapsed":8321,"internal_node_id":"0.0-1.0","subject_id":"612fe64ec0e4e3b001e553ef","study_id":"6197b3f67c2b5cd3b6d9596a","session_id":"6197b88f2ecd4c080592c03f","condition":"full-information","relevant_dimensions":["antennae","legs"],"bee_group":{"antennae":"B","wings":"X","pattern":"X","legs":"F"},"bonus":1.3000000000000007},{"rt":1306.7000000476837,"stimulus":"Welcome! Press any key to begin.","response":"enter","trial_type":"html-keyboard-response","trial_index":2,"time_elapsed":9629,"internal_node_id":"0.0-2.0","subject_id":"612fe64ec0e4e3b001e553ef","study_id":"6197b3f67c2b5cd3b6d9596a","session_id":"6197b88f2ecd4c080592c03f","condition":"full-information","relevant_dimensions":["antennae","legs"],"bee_group":{"antennae":"B","wings":"X","pattern":"X","legs":"F"},"bonus":1.3000000000000007},{"view_history":[{"page_index":0,"viewing_time":4934.5},{"page_index":1,"viewing_time":13538.200000047684},{"page_index":2,"viewing_time":16997.099999964237},{"page_index":3,"viewing_time":17211.30000001192},{"page_index":4,"viewing_time":9165.300000011921},{"page_index":5,"viewing_time":7967.5},{"page_index":6,"viewing_time":10625.699999988079},{"page_index":7,"viewing_time":7875.399999976158},{"page_index":8,"viewing_time":5297.400000035763},{"page_index":9,"viewing_time":3354.199999988079},{"page_index":10,"viewing_time":3687.199999988079},{"page_index":11,"viewing_time":12705.699999988079},{"page_index":12,"viewing_time":7571.5},{"page_index":13,"viewing_time":1086.1000000238419},{"page_index":14,"viewing_time":2522.100000023842}],"rt":124540,"trial_type":"instructions","trial_index":3,"time_elapsed":134170,"internal_node_id":"0.0-3.0-0.0","subject_id":"612fe64ec0e4e3b001e553ef","study_id":"6197b3f67c2b5cd3b6d9596a","session_id":"6197b88f2ecd4c080592c03f","condition":"full-information","relevant_dimensions":["antennae","legs"],"bee_group":{"antennae":"B","wings":"X","pattern":"X","legs":"F"},"bonus":1.3000000000000007},{"rt":14139.699999988079,"response":{"Q0":["Two or six legs","Stripes or spots on body","Single or double wings","Antennae or no antennae"]},"question_order":[0],"trial_type":"survey-multi-select","trial_index":4,"time_elapsed":148315,"internal_node_id":"0.0-3.0-1.0","subject_id":"612fe64ec0e4e3b001e553ef","study_id":"6197b3f67c2b5cd3b6d9596a","session_id":"6197b88f2ecd4c080592c03f","condition":"full-information","relevant_dimensions":["antennae","legs"],"bee_group":{"antennae":"B","wings":"X","pattern":"X","legs":"F"},"correct":true,"bonus":1.3000000000000007},{"rt":26048,"response":{"Q1":"No.","Q2":"Based on the four features of the bee.","Q3":"You learn if it was friendly or dangerous, but do not alter your bonus."},"question_order":[0,1,2],"trial_type":"survey-multi-choice","trial_index":5,"time_elapsed":174366,"internal_node_id":"0.0-3.0-2.0","subject_id":"612fe64ec0e4e3b001e553ef","study_id":"6197b3f67c2b5cd3b6d9596a","session_id":"6197b88f2ecd4c080592c03f","condition":"full-information","relevant_dimensions":["antennae","legs"],"bee_group":{"antennae":"B","wings":"X","pattern":"X","legs":"F"},"correct":true,"bonus":1.3000000000000007},{"rt":2983.2999999523163,"stimulus":"<p>Congrats, you got everything right<br>When you're ready, click the button below to continue to the experiment.</p>","response":0,"trial_type":"html-button-response","trial_index":6,"time_elapsed":177354,"internal_node_id":"0.0-3.0-3.0","subject_id":"612fe64ec0e4e3b001e553ef","study_id":"6197b3f67c2b5cd3b6d9596a","session_id":"6197b88f2ecd4c080592c03f","condition":"full-information","relevant_dimensions":["antennae","legs"],"bee_group":{"antennae":"B","wings":"X","pattern":"X","legs":"F"},"bonus":1.3000000000000007},{"rt":3953.5,"stimulus":"bees-with-color/bee-B2SF.svg","response":1,"trial_type":"image-button-response","trial_index":7,"time_elapsed":181310,"internal_node_id":"0.0-4.0-0.0","subject_id":"612fe64ec0e4e3b001e553ef","study_id":"6197b3f67c2b5cd3b6d9596a","session_id":"6197b88f2ecd4c080592c03f","condition":"full-information","relevant_dimensions":["antennae","legs"],"bee_group":{"antennae":"B","wings":"X","pattern":"X","legs":"F"},"action":"avoid","summary":"good-avoid","bonus":1.3000000000000007},{"rt":40340.69999998808,"stimulus":"\n                    <p><b>Action: <em>avoid</em></b></p>\n                    <p>This is the bee that you just saw.</p>\n                    <img src=\"bees-with-color/bee-B2SF.svg\" width=\"200\">\n                    <p><span class=\"greenText\">Good choice!</span>  This bee would have stung you.<br>Your bonus pay is unchanged, and remains at $0.54.</p>\n            ","response":0,"trial_type":"html-button-response","trial_index":8,"time_elapsed":221653,"internal_node_id":"0.0-4.0-1.0","subject_id":"612fe64ec0e4e3b001e553ef","study_id":"6197b3f67c2b5cd3b6d9596a","session_id":"6197b88f2ecd4c080592c03f","condition":"full-information","relevant_dimensions":["antennae","legs"],"bee_group":{"antennae":"B","wings":"X","pattern":"X","legs":"F"},"bonus":1.3000000000000007},{"rt":1704.1000000238419,"stimulus":"bees-with-color/bee-B1SF.svg","response":1,"trial_type":"image-button-response","trial_index":9,"time_elapsed":223359,"internal_node_id":"0.0-4.0-0.1","subject_id":"612fe64ec0e4e3b001e553ef","study_id":"6197b3f67c2b5cd3b6d9596a","session_id":"6197b88f2ecd4c080592c03f","condition":"full-information","relevant_dimensions":["antennae","legs"],"bee_group":{"antennae":"B","wings":"X","pattern":"X","legs":"F"},"action":"avoid","summary":"good-avoid","bonus":1.3000000000000007},{"rt":19437.400000035763,"stimulus":"\n                    <p><b>Action: <em>avoid</em></b></p>\n                    <p>This is the bee that you just saw.</p>\n                    <img src=\"bees-with-color/bee-B1SF.svg\" width=\"200\">\n                    <p><span class=\"greenText\">Good choice!</span>  This bee would have stung you.<br>Your bonus pay is unchanged, and remains at $0.54.</p>\n            ","response":0,"trial_type":"html-button-response","trial_index":10,"time_elapsed":242799,"internal_node_id":"0.0-4.0-1.1","subject_id":"612fe64ec0e4e3b001e553ef","study_id":"6197b3f67c2b5cd3b6d9596a","session_id":"6197b88f2ecd4c080592c03f","condition":"full-information","relevant_dimensions":["antennae","legs"],"bee_group":{"antennae":"B","wings":"X","pattern":"X","legs":"F"},"bonus":1.3000000000000007},{"rt":2175.300000011921,"stimulus":"bees-with-color/bee-B1DM.svg","response":1,"trial_type":"image-button-response","trial_index":11,"time_elapsed":244976,"internal_node_id":"0.0-4.0-0.2","subject_id":"612fe64ec0e4e3b001e553ef","study_id":"6197b3f67c2b5cd3b6d9596a","session_id":"6197b88f2ecd4c080592c03f","condition":"full-information","relevant_dimensions":["antennae","legs"],"bee_group":{"antennae":"B","wings":"X","pattern":"X","legs":"F"},"action":"avoid","summary":"bad-avoid","bonus":1.3000000000000007},{"rt":22729.899999976158,"stimulus":"\n                    <p><b>Action: <em>avoid</em></b></p>\n                    <p>This is the bee that you just saw.</p>\n                    <img src=\"bees-with-color/bee-B1DM.svg\" width=\"200\">\n                    <p><span class=\"redText\">Bad choice,</span> the bee was friendly.<br>Your bonus pay is unchanged, and remains at $0.54.</p>\n            ","response":0,"trial_type":"html-button-response","trial_index":12,"time_elapsed":267707,"internal_node_id":"0.0-4.0-1.2","subject_id":"612fe64ec0e4e3b001e553ef","study_id":"6197b3f67c2b5cd3b6d9596a","session_id":"6197b88f2ecd4c080592c03f","condition":"full-information","relevant_dimensions":["antennae","legs"],"bee_group":{"antennae":"B","wings":"X","pattern":"X","legs":"F"},"bonus":1.3000000000000007},{"rt":5629.699999988079,"stimulus":"bees-with-color/bee-A2SF.svg","response":1,"trial_type":"image-button-response","trial_index":13,"time_elapsed":273339,"internal_node_id":"0.0-4.0-0.3","subject_id":"612fe64ec0e4e3b001e553ef","study_id":"6197b3f67c2b5cd3b6d9596a","session_id":"6197b88f2ecd4c080592c03f","condition":"full-information","relevant_dimensions":["antennae","legs"],"bee_group":{"antennae":"B","wings":"X","pattern":"X","legs":"F"},"action":"avoid","summary":"bad-avoid","bonus":1.3000000000000007},{"rt":13297.099999964237,"stimulus":"\n                    <p><b>Action: <em>avoid</em></b></p>\n                    <p>This is the bee that you just saw.</p>\n                    <img src=\"bees-with-color/bee-A2SF.svg\" width=\"200\">\n                    <p><span class=\"redText\">Bad choice,</span> the bee was friendly.<br>Your bonus pay is unchanged, and remains at $0.54.</p>\n            ","response":0,"trial_type":"html-button-response","trial_index":14,"time_elapsed":286638,"internal_node_id":"0.0-4.0-1.3","subject_id":"612fe64ec0e4e3b001e553ef","study_id":"6197b3f67c2b5cd3b6d9596a","session_id":"6197b88f2ecd4c080592c03f","condition":"full-information","relevant_dimensions":["antennae","legs"],"bee_group":{"antennae":"B","wings":"X","pattern":"X","legs":"F"},"bonus":1.3000000000000007},{"rt":8074.5,"stimulus":"bees-with-color/bee-B1SM.svg","response":1,"trial_type":"image-button-response","trial_index":15,"time_elapsed":294714,"internal_node_id":"0.0-4.0-0.4","subject_id":"612fe64ec0e4e3b001e553ef","study_id":"6197b3f67c2b5cd3b6d9596a","session_id":"6197b88f2ecd4c080592c03f","condition":"full-information","relevant_dimensions":["antennae","legs"],"bee_group":{"antennae":"B","wings":"X","pattern":"X","legs":"F"},"action":"avoid","summary":"bad-avoid","bonus":1.3000000000000007},{"rt":28470,"stimulus":"\n                    <p><b>Action: <em>avoid</em></b></p>\n                    <p>This is the bee that you just saw.</p>\n                    <img src=\"bees-with-color/bee-B1SM.svg\" width=\"200\">\n                    <p><span class=\"redText\">Bad choice,</span> the bee was friendly.<br>Your bonus pay is unchanged, and remains at $0.54.</p>\n            ","response":0,"trial_type":"html-button-response","trial_index":16,"time_elapsed":323185,"internal_node_id":"0.0-4.0-1.4","subject_id":"612fe64ec0e4e3b001e553ef","study_id":"6197b3f67c2b5cd3b6d9596a","session_id":"6197b88f2ecd4c080592c03f","condition":"full-information","relevant_dimensions":["antennae","legs"],"bee_group":{"antennae":"B","wings":"X","pattern":"X","legs":"F"},"bonus":1.3000000000000007},{"rt":25754.899999976158,"stimulus":"bees-with-color/bee-A1SM.svg","response":1,"trial_type":"image-button-response","trial_index":17,"time_elapsed":348942,"internal_node_id":"0.0-4.0-0.5","subject_id":"612fe64ec0e4e3b001e553ef","study_id":"6197b3f67c2b5cd3b6d9596a","session_id":"6197b88f2ecd4c080592c03f","condition":"full-information","relevant_dimensions":["antennae","legs"],"bee_group":{"antennae":"B","wings":"X","pattern":"X","legs":"F"},"action":"avoid","summary":"bad-avoid","bonus":1.3000000000000007},{"rt":2298.5,"stimulus":"\n                    <p><b>Action: <em>avoid</em></b></p>\n                    <p>This is the bee that you just saw.</p>\n                    <img src=\"bees-with-color/bee-A1SM.svg\" width=\"200\">\n                    <p><span class=\"redText\">Bad choice,</span> the bee was friendly.<br>Your bonus pay is unchanged, and remains at $0.54.</p>\n            ","response":0,"trial_type":"html-button-response","trial_index":18,"time_elapsed":351242,"internal_node_id":"0.0-4.0-1.5","subject_id":"612fe64ec0e4e3b001e553ef","study_id":"6197b3f67c2b5cd3b6d9596a","session_id":"6197b88f2ecd4c080592c03f","condition":"full-information","relevant_dimensions":["antennae","legs"],"bee_group":{"antennae":"B","wings":"X","pattern":"X","legs":"F"},"bonus":1.3000000000000007},{"rt":19530.69999998808,"stimulus":"bees-with-color/bee-A1DF.svg","response":1,"trial_type":"image-button-response","trial_index":19,"time_elapsed":370774,"internal_node_id":"0.0-4.0-0.6","subject_id":"612fe64ec0e4e3b001e553ef","study_id":"6197b3f67c2b5cd3b6d9596a","session_id":"6197b88f2ecd4c080592c03f","condition":"full-information","relevant_dimensions":["antennae","legs"],"bee_group":{"antennae":"B","wings":"X","pattern":"X","legs":"F"},"action":"avoid","summary":"bad-avoid","bonus":1.3000000000000007},{"rt":2890.699999988079,"stimulus":"\n                    <p><b>Action: <em>avoid</em></b></p>\n                    <p>This is the bee that you just saw.</p>\n                    <img src=\"bees-with-color/bee-A1DF.svg\" width=\"200\">\n                    <p><span class=\"redText\">Bad choice,</span> the bee was friendly.<br>Your bonus pay is unchanged, and remains at $0.54.</p>\n            ","response":0,"trial_type":"html-button-response","trial_index":20,"time_elapsed":373666,"internal_node_id":"0.0-4.0-1.6","subject_id":"612fe64ec0e4e3b001e553ef","study_id":"6197b3f67c2b5cd3b6d9596a","session_id":"6197b88f2ecd4c080592c03f","condition":"full-information","relevant_dimensions":["antennae","legs"],"bee_group":{"antennae":"B","wings":"X","pattern":"X","legs":"F"},"bonus":1.3000000000000007},{"rt":12650,"stimulus":"bees-with-color/bee-A1DM.svg","response":1,"trial_type":"image-button-response","trial_index":21,"time_elapsed":386318,"internal_node_id":"0.0-4.0-0.7","subject_id":"612fe64ec0e4e3b001e553ef","study_id":"6197b3f67c2b5cd3b6d9596a","session_id":"6197b88f2ecd4c080592c03f","condition":"full-information","relevant_dimensions":["antennae","legs"],"bee_group":{"antennae":"B","wings":"X","pattern":"X","legs":"F"},"action":"avoid","summary":"bad-avoid","bonus":1.3000000000000007},{"rt":12721.199999988079,"stimulus":"\n                    <p><b>Action: <em>avoid</em></b></p>\n                    <p>This is the bee that you just saw.</p>\n                    <img src=\"bees-with-color/bee-A1DM.svg\" width=\"200\">\n                    <p><span class=\"redText\">Bad choice,</span> the bee was friendly.<br>Your bonus pay is unchanged, and remains at $0.54.</p>\n            ","response":0,"trial_type":"html-button-response","trial_index":22,"time_elapsed":399041,"internal_node_id":"0.0-4.0-1.7","subject_id":"612fe64ec0e4e3b001e553ef","study_id":"6197b3f67c2b5cd3b6d9596a","session_id":"6197b88f2ecd4c080592c03f","condition":"full-information","relevant_dimensions":["antennae","legs"],"bee_group":{"antennae":"B","wings":"X","pattern":"X","legs":"F"},"bonus":1.3000000000000007},{"rt":12015.800000011921,"stimulus":"bees-with-color/bee-A2DF.svg","response":1,"trial_type":"image-button-response","trial_index":23,"time_elapsed":411058,"internal_node_id":"0.0-4.0-0.8","subject_id":"612fe64ec0e4e3b001e553ef","study_id":"6197b3f67c2b5cd3b6d9596a","session_id":"6197b88f2ecd4c080592c03f","condition":"full-information","relevant_dimensions":["antennae","legs"],"bee_group":{"antennae":"B","wings":"X","pattern":"X","legs":"F"},"action":"avoid","summary":"bad-avoid","bonus":1.3000000000000007},{"rt":12269.299999952316,"stimulus":"\n                    <p><b>Action: <em>avoid</em></b></p>\n                    <p>This is the bee that you just saw.</p>\n                    <img src=\"bees-with-color/bee-A2DF.svg\" width=\"200\">\n                    <p><span class=\"redText\">Bad choice,</span> the bee was friendly.<br>Your bonus pay is unchanged, and remains at $0.54.</p>\n            ","response":0,"trial_type":"html-button-response","trial_index":24,"time_elapsed":423329,"internal_node_id":"0.0-4.0-1.8","subject_id":"612fe64ec0e4e3b001e553ef","study_id":"6197b3f67c2b5cd3b6d9596a","session_id":"6197b88f2ecd4c080592c03f","condition":"full-information","relevant_dimensions":["antennae","legs"],"bee_group":{"antennae":"B","wings":"X","pattern":"X","legs":"F"},"bonus":1.3000000000000007},{"rt":7652,"stimulus":"bees-with-color/bee-B2SM.svg","response":1,"trial_type":"image-button-response","trial_index":25,"time_elapsed":430983,"internal_node_id":"0.0-4.0-0.9","subject_id":"612fe64ec0e4e3b001e553ef","study_id":"6197b3f67c2b5cd3b6d9596a","session_id":"6197b88f2ecd4c080592c03f","condition":"full-information","relevant_dimensions":["antennae","legs"],"bee_group":{"antennae":"B","wings":"X","pattern":"X","legs":"F"},"action":"avoid","summary":"bad-avoid","bonus":1.3000000000000007},{"rt":17535.19999998808,"stimulus":"\n                    <p><b>Action: <em>avoid</em></b></p>\n                    <p>This is the bee that you just saw.</p>\n                    <img src=\"bees-with-color/bee-B2SM.svg\" width=\"200\">\n                    <p><span class=\"redText\">Bad choice,</span> the bee was friendly.<br>Your bonus pay is unchanged, and remains at $0.54.</p>\n            ","response":0,"trial_type":"html-button-response","trial_index":26,"time_elapsed":448520,"internal_node_id":"0.0-4.0-1.9","subject_id":"612fe64ec0e4e3b001e553ef","study_id":"6197b3f67c2b5cd3b6d9596a","session_id":"6197b88f2ecd4c080592c03f","condition":"full-information","relevant_dimensions":["antennae","legs"],"bee_group":{"antennae":"B","wings":"X","pattern":"X","legs":"F"},"bonus":1.3000000000000007},{"rt":12489.899999976158,"stimulus":"bees-with-color/bee-A2DM.svg","response":1,"trial_type":"image-button-response","trial_index":27,"time_elapsed":461011,"internal_node_id":"0.0-4.0-0.10","subject_id":"612fe64ec0e4e3b001e553ef","study_id":"6197b3f67c2b5cd3b6d9596a","session_id":"6197b88f2ecd4c080592c03f","condition":"full-information","relevant_dimensions":["antennae","legs"],"bee_group":{"antennae":"B","wings":"X","pattern":"X","legs":"F"},"action":"avoid","summary":"bad-avoid","bonus":1.3000000000000007},{"rt":13973.300000011921,"stimulus":"\n                    <p><b>Action: <em>avoid</em></b></p>\n                    <p>This is the bee that you just saw.</p>\n                    <img src=\"bees-with-color/bee-A2DM.svg\" width=\"200\">\n                    <p><span class=\"redText\">Bad choice,</span> the bee was friendly.<br>Your bonus pay is unchanged, and remains at $0.54.</p>\n            ","response":0,"trial_type":"html-button-response","trial_index":28,"time_elapsed":474986,"internal_node_id":"0.0-4.0-1.10","subject_id":"612fe64ec0e4e3b001e553ef","study_id":"6197b3f67c2b5cd3b6d9596a","session_id":"6197b88f2ecd4c080592c03f","condition":"full-information","relevant_dimensions":["antennae","legs"],"bee_group":{"antennae":"B","wings":"X","pattern":"X","legs":"F"},"bonus":1.3000000000000007},{"rt":22950.799999952316,"stimulus":"bees-with-color/bee-B2DM.svg","response":1,"trial_type":"image-button-response","trial_index":29,"time_elapsed":497939,"internal_node_id":"0.0-4.0-0.11","subject_id":"612fe64ec0e4e3b001e553ef","study_id":"6197b3f67c2b5cd3b6d9596a","session_id":"6197b88f2ecd4c080592c03f","condition":"full-information","relevant_dimensions":["antennae","legs"],"bee_group":{"antennae":"B","wings":"X","pattern":"X","legs":"F"},"action":"avoid","summary":"bad-avoid","bonus":1.3000000000000007},{"rt":13474.300000011921,"stimulus":"\n                    <p><b>Action: <em>avoid</em></b></p>\n                    <p>This is the bee that you just saw.</p>\n                    <img src=\"bees-with-color/bee-B2DM.svg\" width=\"200\">\n                    <p><span class=\"redText\">Bad choice,</span> the bee was friendly.<br>Your bonus pay is unchanged, and remains at $0.54.</p>\n            ","response":0,"trial_type":"html-button-response","trial_index":30,"time_elapsed":511415,"internal_node_id":"0.0-4.0-1.11","subject_id":"612fe64ec0e4e3b001e553ef","study_id":"6197b3f67c2b5cd3b6d9596a","session_id":"6197b88f2ecd4c080592c03f","condition":"full-information","relevant_dimensions":["antennae","legs"],"bee_group":{"antennae":"B","wings":"X","pattern":"X","legs":"F"},"bonus":1.3000000000000007},{"rt":16066.699999988079,"stimulus":"bees-with-color/bee-A2SM.svg","response":1,"trial_type":"image-button-response","trial_index":31,"time_elapsed":527484,"internal_node_id":"0.0-4.0-0.12","subject_id":"612fe64ec0e4e3b001e553ef","study_id":"6197b3f67c2b5cd3b6d9596a","session_id":"6197b88f2ecd4c080592c03f","condition":"full-information","relevant_dimensions":["antennae","legs"],"bee_group":{"antennae":"B","wings":"X","pattern":"X","legs":"F"},"action":"avoid","summary":"bad-avoid","bonus":1.3000000000000007},{"rt":11621.199999988079,"stimulus":"\n                    <p><b>Action: <em>avoid</em></b></p>\n                    <p>This is the bee that you just saw.</p>\n                    <img src=\"bees-with-color/bee-A2SM.svg\" width=\"200\">\n                    <p><span class=\"redText\">Bad choice,</span> the bee was friendly.<br>Your bonus pay is unchanged, and remains at $0.54.</p>\n            ","response":0,"trial_type":"html-button-response","trial_index":32,"time_elapsed":539107,"internal_node_id":"0.0-4.0-1.12","subject_id":"612fe64ec0e4e3b001e553ef","study_id":"6197b3f67c2b5cd3b6d9596a","session_id":"6197b88f2ecd4c080592c03f","condition":"full-information","relevant_dimensions":["antennae","legs"],"bee_group":{"antennae":"B","wings":"X","pattern":"X","legs":"F"},"bonus":1.3000000000000007},{"rt":17343.099999964237,"stimulus":"bees-with-color/bee-B2DF.svg","response":1,"trial_type":"image-button-response","trial_index":33,"time_elapsed":556451,"internal_node_id":"0.0-4.0-0.13","subject_id":"612fe64ec0e4e3b001e553ef","study_id":"6197b3f67c2b5cd3b6d9596a","session_id":"6197b88f2ecd4c080592c03f","condition":"full-information","relevant_dimensions":["antennae","legs"],"bee_group":{"antennae":"B","wings":"X","pattern":"X","legs":"F"},"action":"avoid","summary":"good-avoid","bonus":1.3000000000000007},{"rt":13448.400000035763,"stimulus":"\n                    <p><b>Action: <em>avoid</em></b></p>\n                    <p>This is the bee that you just saw.</p>\n                    <img src=\"bees-with-color/bee-B2DF.svg\" width=\"200\">\n                    <p><span class=\"greenText\">Good choice!</span>  This bee would have stung you.<br>Your bonus pay is unchanged, and remains at $0.54.</p>\n            ","response":0,"trial_type":"html-button-response","trial_index":34,"time_elapsed":569901,"internal_node_id":"0.0-4.0-1.13","subject_id":"612fe64ec0e4e3b001e553ef","study_id":"6197b3f67c2b5cd3b6d9596a","session_id":"6197b88f2ecd4c080592c03f","condition":"full-information","relevant_dimensions":["antennae","legs"],"bee_group":{"antennae":"B","wings":"X","pattern":"X","legs":"F"},"bonus":1.3000000000000007},{"rt":24134.599999964237,"stimulus":"bees-with-color/bee-A1SF.svg","response":1,"trial_type":"image-button-response","trial_index":35,"time_elapsed":594038,"internal_node_id":"0.0-4.0-0.14","subject_id":"612fe64ec0e4e3b001e553ef","study_id":"6197b3f67c2b5cd3b6d9596a","session_id":"6197b88f2ecd4c080592c03f","condition":"full-information","relevant_dimensions":["antennae","legs"],"bee_group":{"antennae":"B","wings":"X","pattern":"X","legs":"F"},"action":"avoid","summary":"bad-avoid","bonus":1.3000000000000007},{"rt":15681.300000011921,"stimulus":"\n                    <p><b>Action: <em>avoid</em></b></p>\n                    <p>This is the bee that you just saw.</p>\n                    <img src=\"bees-with-color/bee-A1SF.svg\" width=\"200\">\n                    <p><span class=\"redText\">Bad choice,</span> the bee was friendly.<br>Your bonus pay is unchanged, and remains at $0.54.</p>\n            ","response":0,"trial_type":"html-button-response","trial_index":36,"time_elapsed":609721,"internal_node_id":"0.0-4.0-1.14","subject_id":"612fe64ec0e4e3b001e553ef","study_id":"6197b3f67c2b5cd3b6d9596a","session_id":"6197b88f2ecd4c080592c03f","condition":"full-information","relevant_dimensions":["antennae","legs"],"bee_group":{"antennae":"B","wings":"X","pattern":"X","legs":"F"},"bonus":1.3000000000000007},{"rt":24330.5,"stimulus":"bees-with-color/bee-B1DF.svg","response":1,"trial_type":"image-button-response","trial_index":37,"time_elapsed":634053,"internal_node_id":"0.0-4.0-0.15","subject_id":"612fe64ec0e4e3b001e553ef","study_id":"6197b3f67c2b5cd3b6d9596a","session_id":"6197b88f2ecd4c080592c03f","condition":"full-information","relevant_dimensions":["antennae","legs"],"bee_group":{"antennae":"B","wings":"X","pattern":"X","legs":"F"},"action":"avoid","summary":"good-avoid","bonus":1.3000000000000007},{"rt":14722,"stimulus":"\n                    <p><b>Action: <em>avoid</em></b></p>\n                    <p>This is the bee that you just saw.</p>\n                    <img src=\"bees-with-color/bee-B1DF.svg\" width=\"200\">\n                    <p><span class=\"greenText\">Good choice!</span>  This bee would have stung you.<br>Your bonus pay is unchanged, and remains at $0.54.</p>\n            ","response":0,"trial_type":"html-button-response","trial_index":38,"time_elapsed":648777,"internal_node_id":"0.0-4.0-1.15","subject_id":"612fe64ec0e4e3b001e553ef","study_id":"6197b3f67c2b5cd3b6d9596a","session_id":"6197b88f2ecd4c080592c03f","condition":"full-information","relevant_dimensions":["antennae","legs"],"bee_group":{"antennae":"B","wings":"X","pattern":"X","legs":"F"},"bonus":1.3000000000000007},{"rt":60438.5,"stimulus":"bees-with-color/bee-B1SF.svg","response":1,"trial_type":"image-button-response","trial_index":39,"time_elapsed":709218,"internal_node_id":"0.0-4.0-0.16","subject_id":"612fe64ec0e4e3b001e553ef","study_id":"6197b3f67c2b5cd3b6d9596a","session_id":"6197b88f2ecd4c080592c03f","condition":"full-information","relevant_dimensions":["antennae","legs"],"bee_group":{"antennae":"B","wings":"X","pattern":"X","legs":"F"},"action":"avoid","summary":"good-avoid","bonus":1.3000000000000007},{"rt":916.3999999761581,"stimulus":"\n                    <p><b>Action: <em>avoid</em></b></p>\n                    <p>This is the bee that you just saw.</p>\n                    <img src=\"bees-with-color/bee-B1SF.svg\" width=\"200\">\n                    <p><span class=\"greenText\">Good choice!</span>  This bee would have stung you.<br>Your bonus pay is unchanged, and remains at $0.54.</p>\n            ","response":0,"trial_type":"html-button-response","trial_index":40,"time_elapsed":710136,"internal_node_id":"0.0-4.0-1.16","subject_id":"612fe64ec0e4e3b001e553ef","study_id":"6197b3f67c2b5cd3b6d9596a","session_id":"6197b88f2ecd4c080592c03f","condition":"full-information","relevant_dimensions":["antennae","legs"],"bee_group":{"antennae":"B","wings":"X","pattern":"X","legs":"F"},"bonus":1.3000000000000007},{"rt":11806.100000023842,"stimulus":"bees-with-color/bee-B2SM.svg","response":0,"trial_type":"image-button-response","trial_index":41,"time_elapsed":721944,"internal_node_id":"0.0-4.0-0.17","subject_id":"612fe64ec0e4e3b001e553ef","study_id":"6197b3f67c2b5cd3b6d9596a","session_id":"6197b88f2ecd4c080592c03f","condition":"full-information","relevant_dimensions":["antennae","legs"],"bee_group":{"antennae":"B","wings":"X","pattern":"X","legs":"F"},"action":"harvest","summary":"good-harvest","bonus":1.3000000000000007},{"rt":1100.300000011921,"stimulus":"\n                    <p><b>Action: <em>harvest</em></b></p>\n                    <p>This is the bee that you just saw.</p>\n                    <img src=\"bees-with-color/bee-B2SM.svg\" width=\"200\">\n                    <p><span class=\"greenText\"><b>Successful harvest!</b></span><br>Your pay has increased by $0.02. Your bonus pay is now $0.56.</p>\n            ","response":0,"trial_type":"html-button-response","trial_index":42,"time_elapsed":723046,"internal_node_id":"0.0-4.0-1.17","subject_id":"612fe64ec0e4e3b001e553ef","study_id":"6197b3f67c2b5cd3b6d9596a","session_id":"6197b88f2ecd4c080592c03f","condition":"full-information","relevant_dimensions":["antennae","legs"],"bee_group":{"antennae":"B","wings":"X","pattern":"X","legs":"F"},"bonus":1.3000000000000007},{"rt":12907,"stimulus":"bees-with-color/bee-A2SM.svg","response":0,"trial_type":"image-button-response","trial_index":43,"time_elapsed":735955,"internal_node_id":"0.0-4.0-0.18","subject_id":"612fe64ec0e4e3b001e553ef","study_id":"6197b3f67c2b5cd3b6d9596a","session_id":"6197b88f2ecd4c080592c03f","condition":"full-information","relevant_dimensions":["antennae","legs"],"bee_group":{"antennae":"B","wings":"X","pattern":"X","legs":"F"},"action":"harvest","summary":"good-harvest","bonus":1.3000000000000007},{"rt":20137.69999998808,"stimulus":"\n                    <p><b>Action: <em>harvest</em></b></p>\n                    <p>This is the bee that you just saw.</p>\n                    <img src=\"bees-with-color/bee-A2SM.svg\" width=\"200\">\n                    <p><span class=\"greenText\"><b>Successful harvest!</b></span><br>Your pay has increased by $0.02. Your bonus pay is now $0.58.</p>\n            ","response":0,"trial_type":"html-button-response","trial_index":44,"time_elapsed":756095,"internal_node_id":"0.0-4.0-1.18","subject_id":"612fe64ec0e4e3b001e553ef","study_id":"6197b3f67c2b5cd3b6d9596a","session_id":"6197b88f2ecd4c080592c03f","condition":"full-information","relevant_dimensions":["antennae","legs"],"bee_group":{"antennae":"B","wings":"X","pattern":"X","legs":"F"},"bonus":1.3000000000000007},{"rt":30325.80000001192,"stimulus":"bees-with-color/bee-B1SM.svg","response":1,"trial_type":"image-button-response","trial_index":45,"time_elapsed":786422,"internal_node_id":"0.0-4.0-0.19","subject_id":"612fe64ec0e4e3b001e553ef","study_id":"6197b3f67c2b5cd3b6d9596a","session_id":"6197b88f2ecd4c080592c03f","condition":"full-information","relevant_dimensions":["antennae","legs"],"bee_group":{"antennae":"B","wings":"X","pattern":"X","legs":"F"},"action":"avoid","summary":"bad-avoid","bonus":1.3000000000000007},{"rt":9395.899999976158,"stimulus":"\n                    <p><b>Action: <em>avoid</em></b></p>\n                    <p>This is the bee that you just saw.</p>\n                    <img src=\"bees-with-color/bee-B1SM.svg\" width=\"200\">\n                    <p><span class=\"redText\">Bad choice,</span> the bee was friendly.<br>Your bonus pay is unchanged, and remains at $0.58.</p>\n            ","response":0,"trial_type":"html-button-response","trial_index":46,"time_elapsed":795820,"internal_node_id":"0.0-4.0-1.19","subject_id":"612fe64ec0e4e3b001e553ef","study_id":"6197b3f67c2b5cd3b6d9596a","session_id":"6197b88f2ecd4c080592c03f","condition":"full-information","relevant_dimensions":["antennae","legs"],"bee_group":{"antennae":"B","wings":"X","pattern":"X","legs":"F"},"bonus":1.3000000000000007},{"rt":12106,"stimulus":"bees-with-color/bee-A2DF.svg","response":0,"trial_type":"image-button-response","trial_index":47,"time_elapsed":807928,"internal_node_id":"0.0-4.0-0.20","subject_id":"612fe64ec0e4e3b001e553ef","study_id":"6197b3f67c2b5cd3b6d9596a","session_id":"6197b88f2ecd4c080592c03f","condition":"full-information","relevant_dimensions":["antennae","legs"],"bee_group":{"antennae":"B","wings":"X","pattern":"X","legs":"F"},"action":"harvest","summary":"good-harvest","bonus":1.3000000000000007},{"rt":745.3999999761581,"stimulus":"\n                    <p><b>Action: <em>harvest</em></b></p>\n                    <p>This is the bee that you just saw.</p>\n                    <img src=\"bees-with-color/bee-A2DF.svg\" width=\"200\">\n                    <p><span class=\"greenText\"><b>Successful harvest!</b></span><br>Your pay has increased by $0.02. Your bonus pay is now $0.60.</p>\n            ","response":0,"trial_type":"html-button-response","trial_index":48,"time_elapsed":808675,"internal_node_id":"0.0-4.0-1.20","subject_id":"612fe64ec0e4e3b001e553ef","study_id":"6197b3f67c2b5cd3b6d9596a","session_id":"6197b88f2ecd4c080592c03f","condition":"full-information","relevant_dimensions":["antennae","legs"],"bee_group":{"antennae":"B","wings":"X","pattern":"X","legs":"F"},"bonus":1.3000000000000007},{"rt":9265.800000011921,"stimulus":"bees-with-color/bee-B2SF.svg","response":1,"trial_type":"image-button-response","trial_index":49,"time_elapsed":817942,"internal_node_id":"0.0-4.0-0.21","subject_id":"612fe64ec0e4e3b001e553ef","study_id":"6197b3f67c2b5cd3b6d9596a","session_id":"6197b88f2ecd4c080592c03f","condition":"full-information","relevant_dimensions":["antennae","legs"],"bee_group":{"antennae":"B","wings":"X","pattern":"X","legs":"F"},"action":"avoid","summary":"good-avoid","bonus":1.3000000000000007},{"rt":732.5,"stimulus":"\n                    <p><b>Action: <em>avoid</em></b></p>\n                    <p>This is the bee that you just saw.</p>\n                    <img src=\"bees-with-color/bee-B2SF.svg\" width=\"200\">\n                    <p><span class=\"greenText\">Good choice!</span>  This bee would have stung you.<br>Your bonus pay is unchanged, and remains at $0.60.</p>\n            ","response":0,"trial_type":"html-button-response","trial_index":50,"time_elapsed":818676,"internal_node_id":"0.0-4.0-1.21","subject_id":"612fe64ec0e4e3b001e553ef","study_id":"6197b3f67c2b5cd3b6d9596a","session_id":"6197b88f2ecd4c080592c03f","condition":"full-information","relevant_dimensions":["antennae","legs"],"bee_group":{"antennae":"B","wings":"X","pattern":"X","legs":"F"},"bonus":1.3000000000000007},{"rt":4526.399999976158,"stimulus":"bees-with-color/bee-A2DM.svg","response":0,"trial_type":"image-button-response","trial_index":51,"time_elapsed":823204,"internal_node_id":"0.0-4.0-0.22","subject_id":"612fe64ec0e4e3b001e553ef","study_id":"6197b3f67c2b5cd3b6d9596a","session_id":"6197b88f2ecd4c080592c03f","condition":"full-information","relevant_dimensions":["antennae","legs"],"bee_group":{"antennae":"B","wings":"X","pattern":"X","legs":"F"},"action":"harvest","summary":"good-harvest","bonus":1.3000000000000007},{"rt":1046.699999988079,"stimulus":"\n                    <p><b>Action: <em>harvest</em></b></p>\n                    <p>This is the bee that you just saw.</p>\n                    <img src=\"bees-with-color/bee-A2DM.svg\" width=\"200\">\n                    <p><span class=\"greenText\"><b>Successful harvest!</b></span><br>Your pay has increased by $0.02. Your bonus pay is now $0.62.</p>\n            ","response":0,"trial_type":"html-button-response","trial_index":52,"time_elapsed":824252,"internal_node_id":"0.0-4.0-1.22","subject_id":"612fe64ec0e4e3b001e553ef","study_id":"6197b3f67c2b5cd3b6d9596a","session_id":"6197b88f2ecd4c080592c03f","condition":"full-information","relevant_dimensions":["antennae","legs"],"bee_group":{"antennae":"B","wings":"X","pattern":"X","legs":"F"},"bonus":1.3000000000000007},{"rt":2967.699999988079,"stimulus":"bees-with-color/bee-B1DM.svg","response":0,"trial_type":"image-button-response","trial_index":53,"time_elapsed":827221,"internal_node_id":"0.0-4.0-0.23","subject_id":"612fe64ec0e4e3b001e553ef","study_id":"6197b3f67c2b5cd3b6d9596a","session_id":"6197b88f2ecd4c080592c03f","condition":"full-information","relevant_dimensions":["antennae","legs"],"bee_group":{"antennae":"B","wings":"X","pattern":"X","legs":"F"},"action":"harvest","summary":"good-harvest","bonus":1.3000000000000007},{"rt":702.8000000119209,"stimulus":"\n                    <p><b>Action: <em>harvest</em></b></p>\n                    <p>This is the bee that you just saw.</p>\n                    <img src=\"bees-with-color/bee-B1DM.svg\" width=\"200\">\n                    <p><span class=\"greenText\"><b>Successful harvest!</b></span><br>Your pay has increased by $0.02. Your bonus pay is now $0.64.</p>\n            ","response":0,"trial_type":"html-button-response","trial_index":54,"time_elapsed":827925,"internal_node_id":"0.0-4.0-1.23","subject_id":"612fe64ec0e4e3b001e553ef","study_id":"6197b3f67c2b5cd3b6d9596a","session_id":"6197b88f2ecd4c080592c03f","condition":"full-information","relevant_dimensions":["antennae","legs"],"bee_group":{"antennae":"B","wings":"X","pattern":"X","legs":"F"},"bonus":1.3000000000000007},{"rt":2800.300000011921,"stimulus":"bees-with-color/bee-B2DM.svg","response":0,"trial_type":"image-button-response","trial_index":55,"time_elapsed":830727,"internal_node_id":"0.0-4.0-0.24","subject_id":"612fe64ec0e4e3b001e553ef","study_id":"6197b3f67c2b5cd3b6d9596a","session_id":"6197b88f2ecd4c080592c03f","condition":"full-information","relevant_dimensions":["antennae","legs"],"bee_group":{"antennae":"B","wings":"X","pattern":"X","legs":"F"},"action":"harvest","summary":"good-harvest","bonus":1.3000000000000007},{"rt":786.6999999880791,"stimulus":"\n                    <p><b>Action: <em>harvest</em></b></p>\n                    <p>This is the bee that you just saw.</p>\n                    <img src=\"bees-with-color/bee-B2DM.svg\" width=\"200\">\n                    <p><span class=\"greenText\"><b>Successful harvest!</b></span><br>Your pay has increased by $0.02. Your bonus pay is now $0.66.</p>\n            ","response":0,"trial_type":"html-button-response","trial_index":56,"time_elapsed":831516,"internal_node_id":"0.0-4.0-1.24","subject_id":"612fe64ec0e4e3b001e553ef","study_id":"6197b3f67c2b5cd3b6d9596a","session_id":"6197b88f2ecd4c080592c03f","condition":"full-information","relevant_dimensions":["antennae","legs"],"bee_group":{"antennae":"B","wings":"X","pattern":"X","legs":"F"},"bonus":1.3000000000000007},{"rt":7559.799999952316,"stimulus":"bees-with-color/bee-A2SF.svg","response":0,"trial_type":"image-button-response","trial_index":57,"time_elapsed":839077,"internal_node_id":"0.0-4.0-0.25","subject_id":"612fe64ec0e4e3b001e553ef","study_id":"6197b3f67c2b5cd3b6d9596a","session_id":"6197b88f2ecd4c080592c03f","condition":"full-information","relevant_dimensions":["antennae","legs"],"bee_group":{"antennae":"B","wings":"X","pattern":"X","legs":"F"},"action":"harvest","summary":"good-harvest","bonus":1.3000000000000007},{"rt":810.6000000238419,"stimulus":"\n                    <p><b>Action: <em>harvest</em></b></p>\n                    <p>This is the bee that you just saw.</p>\n                    <img src=\"bees-with-color/bee-A2SF.svg\" width=\"200\">\n                    <p><span class=\"greenText\"><b>Successful harvest!</b></span><br>Your pay has increased by $0.02. Your bonus pay is now $0.68.</p>\n            ","response":0,"trial_type":"html-button-response","trial_index":58,"time_elapsed":839889,"internal_node_id":"0.0-4.0-1.25","subject_id":"612fe64ec0e4e3b001e553ef","study_id":"6197b3f67c2b5cd3b6d9596a","session_id":"6197b88f2ecd4c080592c03f","condition":"full-information","relevant_dimensions":["antennae","legs"],"bee_group":{"antennae":"B","wings":"X","pattern":"X","legs":"F"},"bonus":1.3000000000000007},{"rt":6869.5,"stimulus":"bees-with-color/bee-B2DF.svg","response":1,"trial_type":"image-button-response","trial_index":59,"time_elapsed":846760,"internal_node_id":"0.0-4.0-0.26","subject_id":"612fe64ec0e4e3b001e553ef","study_id":"6197b3f67c2b5cd3b6d9596a","session_id":"6197b88f2ecd4c080592c03f","condition":"full-information","relevant_dimensions":["antennae","legs"],"bee_group":{"antennae":"B","wings":"X","pattern":"X","legs":"F"},"action":"avoid","summary":"good-avoid","bonus":1.3000000000000007},{"rt":1210.6000000238419,"stimulus":"\n                    <p><b>Action: <em>avoid</em></b></p>\n                    <p>This is the bee that you just saw.</p>\n                    <img src=\"bees-with-color/bee-B2DF.svg\" width=\"200\">\n                    <p><span class=\"greenText\">Good choice!</span>  This bee would have stung you.<br>Your bonus pay is unchanged, and remains at $0.68.</p>\n            ","response":0,"trial_type":"html-button-response","trial_index":60,"time_elapsed":847973,"internal_node_id":"0.0-4.0-1.26","subject_id":"612fe64ec0e4e3b001e553ef","study_id":"6197b3f67c2b5cd3b6d9596a","session_id":"6197b88f2ecd4c080592c03f","condition":"full-information","relevant_dimensions":["antennae","legs"],"bee_group":{"antennae":"B","wings":"X","pattern":"X","legs":"F"},"bonus":1.3000000000000007},{"rt":4405.300000011921,"stimulus":"bees-with-color/bee-A1DM.svg","response":0,"trial_type":"image-button-response","trial_index":61,"time_elapsed":852380,"internal_node_id":"0.0-4.0-0.27","subject_id":"612fe64ec0e4e3b001e553ef","study_id":"6197b3f67c2b5cd3b6d9596a","session_id":"6197b88f2ecd4c080592c03f","condition":"full-information","relevant_dimensions":["antennae","legs"],"bee_group":{"antennae":"B","wings":"X","pattern":"X","legs":"F"},"action":"harvest","summary":"good-harvest","bonus":1.3000000000000007},{"rt":978.5,"stimulus":"\n                    <p><b>Action: <em>harvest</em></b></p>\n                    <p>This is the bee that you just saw.</p>\n                    <img src=\"bees-with-color/bee-A1DM.svg\" width=\"200\">\n                    <p><span class=\"greenText\"><b>Successful harvest!</b></span><br>Your pay has increased by $0.02. Your bonus pay is now $0.70.</p>\n            ","response":0,"trial_type":"html-button-response","trial_index":62,"time_elapsed":853360,"internal_node_id":"0.0-4.0-1.27","subject_id":"612fe64ec0e4e3b001e553ef","study_id":"6197b3f67c2b5cd3b6d9596a","session_id":"6197b88f2ecd4c080592c03f","condition":"full-information","relevant_dimensions":["antennae","legs"],"bee_group":{"antennae":"B","wings":"X","pattern":"X","legs":"F"},"bonus":1.3000000000000007},{"rt":7468,"stimulus":"bees-with-color/bee-B1DF.svg","response":1,"trial_type":"image-button-response","trial_index":63,"time_elapsed":860829,"internal_node_id":"0.0-4.0-0.28","subject_id":"612fe64ec0e4e3b001e553ef","study_id":"6197b3f67c2b5cd3b6d9596a","session_id":"6197b88f2ecd4c080592c03f","condition":"full-information","relevant_dimensions":["antennae","legs"],"bee_group":{"antennae":"B","wings":"X","pattern":"X","legs":"F"},"action":"avoid","summary":"good-avoid","bonus":1.3000000000000007},{"rt":940.6999999880791,"stimulus":"\n                    <p><b>Action: <em>avoid</em></b></p>\n                    <p>This is the bee that you just saw.</p>\n                    <img src=\"bees-with-color/bee-B1DF.svg\" width=\"200\">\n                    <p><span class=\"greenText\">Good choice!</span>  This bee would have stung you.<br>Your bonus pay is unchanged, and remains at $0.70.</p>\n            ","response":0,"trial_type":"html-button-response","trial_index":64,"time_elapsed":861771,"internal_node_id":"0.0-4.0-1.28","subject_id":"612fe64ec0e4e3b001e553ef","study_id":"6197b3f67c2b5cd3b6d9596a","session_id":"6197b88f2ecd4c080592c03f","condition":"full-information","relevant_dimensions":["antennae","legs"],"bee_group":{"antennae":"B","wings":"X","pattern":"X","legs":"F"},"bonus":1.3000000000000007},{"rt":5745.5,"stimulus":"bees-with-color/bee-A1SF.svg","response":0,"trial_type":"image-button-response","trial_index":65,"time_elapsed":867519,"internal_node_id":"0.0-4.0-0.29","subject_id":"612fe64ec0e4e3b001e553ef","study_id":"6197b3f67c2b5cd3b6d9596a","session_id":"6197b88f2ecd4c080592c03f","condition":"full-information","relevant_dimensions":["antennae","legs"],"bee_group":{"antennae":"B","wings":"X","pattern":"X","legs":"F"},"action":"harvest","summary":"good-harvest","bonus":1.3000000000000007},{"rt":836.5,"stimulus":"\n                    <p><b>Action: <em>harvest</em></b></p>\n                    <p>This is the bee that you just saw.</p>\n                    <img src=\"bees-with-color/bee-A1SF.svg\" width=\"200\">\n                    <p><span class=\"greenText\"><b>Successful harvest!</b></span><br>Your pay has increased by $0.02. Your bonus pay is now $0.72.</p>\n            ","response":0,"trial_type":"html-button-response","trial_index":66,"time_elapsed":868357,"internal_node_id":"0.0-4.0-1.29","subject_id":"612fe64ec0e4e3b001e553ef","study_id":"6197b3f67c2b5cd3b6d9596a","session_id":"6197b88f2ecd4c080592c03f","condition":"full-information","relevant_dimensions":["antennae","legs"],"bee_group":{"antennae":"B","wings":"X","pattern":"X","legs":"F"},"bonus":1.3000000000000007},{"rt":1400.300000011921,"stimulus":"bees-with-color/bee-A1SM.svg","response":0,"trial_type":"image-button-response","trial_index":67,"time_elapsed":869759,"internal_node_id":"0.0-4.0-0.30","subject_id":"612fe64ec0e4e3b001e553ef","study_id":"6197b3f67c2b5cd3b6d9596a","session_id":"6197b88f2ecd4c080592c03f","condition":"full-information","relevant_dimensions":["antennae","legs"],"bee_group":{"antennae":"B","wings":"X","pattern":"X","legs":"F"},"action":"harvest","summary":"good-harvest","bonus":1.3000000000000007},{"rt":834.5,"stimulus":"\n                    <p><b>Action: <em>harvest</em></b></p>\n                    <p>This is the bee that you just saw.</p>\n                    <img src=\"bees-with-color/bee-A1SM.svg\" width=\"200\">\n                    <p><span class=\"greenText\"><b>Successful harvest!</b></span><br>Your pay has increased by $0.02. Your bonus pay is now $0.74.</p>\n            ","response":0,"trial_type":"html-button-response","trial_index":68,"time_elapsed":870595,"internal_node_id":"0.0-4.0-1.30","subject_id":"612fe64ec0e4e3b001e553ef","study_id":"6197b3f67c2b5cd3b6d9596a","session_id":"6197b88f2ecd4c080592c03f","condition":"full-information","relevant_dimensions":["antennae","legs"],"bee_group":{"antennae":"B","wings":"X","pattern":"X","legs":"F"},"bonus":1.3000000000000007},{"rt":770.8999999761581,"stimulus":"bees-with-color/bee-A1DF.svg","response":0,"trial_type":"image-button-response","trial_index":69,"time_elapsed":871367,"internal_node_id":"0.0-4.0-0.31","subject_id":"612fe64ec0e4e3b001e553ef","study_id":"6197b3f67c2b5cd3b6d9596a","session_id":"6197b88f2ecd4c080592c03f","condition":"full-information","relevant_dimensions":["antennae","legs"],"bee_group":{"antennae":"B","wings":"X","pattern":"X","legs":"F"},"action":"harvest","summary":"good-harvest","bonus":1.3000000000000007},{"rt":2154.600000023842,"stimulus":"\n                    <p><b>Action: <em>harvest</em></b></p>\n                    <p>This is the bee that you just saw.</p>\n                    <img src=\"bees-with-color/bee-A1DF.svg\" width=\"200\">\n                    <p><span class=\"greenText\"><b>Successful harvest!</b></span><br>Your pay has increased by $0.02. Your bonus pay is now $0.76.</p>\n            ","response":0,"trial_type":"html-button-response","trial_index":70,"time_elapsed":873523,"internal_node_id":"0.0-4.0-1.31","subject_id":"612fe64ec0e4e3b001e553ef","study_id":"6197b3f67c2b5cd3b6d9596a","session_id":"6197b88f2ecd4c080592c03f","condition":"full-information","relevant_dimensions":["antennae","legs"],"bee_group":{"antennae":"B","wings":"X","pattern":"X","legs":"F"},"bonus":1.3000000000000007},{"rt":4619.599999964237,"stimulus":"bees-with-color/bee-B2DF.svg","response":1,"trial_type":"image-button-response","trial_index":71,"time_elapsed":878145,"internal_node_id":"0.0-4.0-0.32","subject_id":"612fe64ec0e4e3b001e553ef","study_id":"6197b3f67c2b5cd3b6d9596a","session_id":"6197b88f2ecd4c080592c03f","condition":"full-information","relevant_dimensions":["antennae","legs"],"bee_group":{"antennae":"B","wings":"X","pattern":"X","legs":"F"},"action":"avoid","summary":"good-avoid","bonus":1.3000000000000007},{"rt":988.5,"stimulus":"\n                    <p><b>Action: <em>avoid</em></b></p>\n                    <p>This is the bee that you just saw.</p>\n                    <img src=\"bees-with-color/bee-B2DF.svg\" width=\"200\">\n                    <p><span class=\"greenText\">Good choice!</span>  This bee would have stung you.<br>Your bonus pay is unchanged, and remains at $0.76.</p>\n            ","response":0,"trial_type":"html-button-response","trial_index":72,"time_elapsed":879135,"internal_node_id":"0.0-4.0-1.32","subject_id":"612fe64ec0e4e3b001e553ef","study_id":"6197b3f67c2b5cd3b6d9596a","session_id":"6197b88f2ecd4c080592c03f","condition":"full-information","relevant_dimensions":["antennae","legs"],"bee_group":{"antennae":"B","wings":"X","pattern":"X","legs":"F"},"bonus":1.3000000000000007},{"rt":3848.5,"stimulus":"bees-with-color/bee-A1DF.svg","response":0,"trial_type":"image-button-response","trial_index":73,"time_elapsed":882985,"internal_node_id":"0.0-4.0-0.33","subject_id":"612fe64ec0e4e3b001e553ef","study_id":"6197b3f67c2b5cd3b6d9596a","session_id":"6197b88f2ecd4c080592c03f","condition":"full-information","relevant_dimensions":["antennae","legs"],"bee_group":{"antennae":"B","wings":"X","pattern":"X","legs":"F"},"action":"harvest","summary":"good-harvest","bonus":1.3000000000000007},{"rt":886.5,"stimulus":"\n                    <p><b>Action: <em>harvest</em></b></p>\n                    <p>This is the bee that you just saw.</p>\n                    <img src=\"bees-with-color/bee-A1DF.svg\" width=\"200\">\n                    <p><span class=\"greenText\"><b>Successful harvest!</b></span><br>Your pay has increased by $0.02. Your bonus pay is now $0.78.</p>\n            ","response":0,"trial_type":"html-button-response","trial_index":74,"time_elapsed":883873,"internal_node_id":"0.0-4.0-1.33","subject_id":"612fe64ec0e4e3b001e553ef","study_id":"6197b3f67c2b5cd3b6d9596a","session_id":"6197b88f2ecd4c080592c03f","condition":"full-information","relevant_dimensions":["antennae","legs"],"bee_group":{"antennae":"B","wings":"X","pattern":"X","legs":"F"},"bonus":1.3000000000000007},{"rt":5633.799999952316,"stimulus":"bees-with-color/bee-B1DF.svg","response":1,"trial_type":"image-button-response","trial_index":75,"time_elapsed":889509,"internal_node_id":"0.0-4.0-0.34","subject_id":"612fe64ec0e4e3b001e553ef","study_id":"6197b3f67c2b5cd3b6d9596a","session_id":"6197b88f2ecd4c080592c03f","condition":"full-information","relevant_dimensions":["antennae","legs"],"bee_group":{"antennae":"B","wings":"X","pattern":"X","legs":"F"},"action":"avoid","summary":"good-avoid","bonus":1.3000000000000007},{"rt":788.6000000238419,"stimulus":"\n                    <p><b>Action: <em>avoid</em></b></p>\n                    <p>This is the bee that you just saw.</p>\n                    <img src=\"bees-with-color/bee-B1DF.svg\" width=\"200\">\n                    <p><span class=\"greenText\">Good choice!</span>  This bee would have stung you.<br>Your bonus pay is unchanged, and remains at $0.78.</p>\n            ","response":0,"trial_type":"html-button-response","trial_index":76,"time_elapsed":890299,"internal_node_id":"0.0-4.0-1.34","subject_id":"612fe64ec0e4e3b001e553ef","study_id":"6197b3f67c2b5cd3b6d9596a","session_id":"6197b88f2ecd4c080592c03f","condition":"full-information","relevant_dimensions":["antennae","legs"],"bee_group":{"antennae":"B","wings":"X","pattern":"X","legs":"F"},"bonus":1.3000000000000007},{"rt":11068.900000035763,"stimulus":"bees-with-color/bee-B1DM.svg","response":0,"trial_type":"image-button-response","trial_index":77,"time_elapsed":901369,"internal_node_id":"0.0-4.0-0.35","subject_id":"612fe64ec0e4e3b001e553ef","study_id":"6197b3f67c2b5cd3b6d9596a","session_id":"6197b88f2ecd4c080592c03f","condition":"full-information","relevant_dimensions":["antennae","legs"],"bee_group":{"antennae":"B","wings":"X","pattern":"X","legs":"F"},"action":"harvest","summary":"good-harvest","bonus":1.3000000000000007},{"rt":824.5,"stimulus":"\n                    <p><b>Action: <em>harvest</em></b></p>\n                    <p>This is the bee that you just saw.</p>\n                    <img src=\"bees-with-color/bee-B1DM.svg\" width=\"200\">\n                    <p><span class=\"greenText\"><b>Successful harvest!</b></span><br>Your pay has increased by $0.02. Your bonus pay is now $0.80.</p>\n            ","response":0,"trial_type":"html-button-response","trial_index":78,"time_elapsed":902195,"internal_node_id":"0.0-4.0-1.35","subject_id":"612fe64ec0e4e3b001e553ef","study_id":"6197b3f67c2b5cd3b6d9596a","session_id":"6197b88f2ecd4c080592c03f","condition":"full-information","relevant_dimensions":["antennae","legs"],"bee_group":{"antennae":"B","wings":"X","pattern":"X","legs":"F"},"bonus":1.3000000000000007},{"rt":4298.5,"stimulus":"bees-with-color/bee-A2DF.svg","response":0,"trial_type":"image-button-response","trial_index":79,"time_elapsed":906495,"internal_node_id":"0.0-4.0-0.36","subject_id":"612fe64ec0e4e3b001e553ef","study_id":"6197b3f67c2b5cd3b6d9596a","session_id":"6197b88f2ecd4c080592c03f","condition":"full-information","relevant_dimensions":["antennae","legs"],"bee_group":{"antennae":"B","wings":"X","pattern":"X","legs":"F"},"action":"harvest","summary":"good-harvest","bonus":1.3000000000000007},{"rt":880.7000000476837,"stimulus":"\n                    <p><b>Action: <em>harvest</em></b></p>\n                    <p>This is the bee that you just saw.</p>\n                    <img src=\"bees-with-color/bee-A2DF.svg\" width=\"200\">\n                    <p><span class=\"greenText\"><b>Successful harvest!</b></span><br>Your pay has increased by $0.02. Your bonus pay is now $0.82.</p>\n            ","response":0,"trial_type":"html-button-response","trial_index":80,"time_elapsed":907378,"internal_node_id":"0.0-4.0-1.36","subject_id":"612fe64ec0e4e3b001e553ef","study_id":"6197b3f67c2b5cd3b6d9596a","session_id":"6197b88f2ecd4c080592c03f","condition":"full-information","relevant_dimensions":["antennae","legs"],"bee_group":{"antennae":"B","wings":"X","pattern":"X","legs":"F"},"bonus":1.3000000000000007},{"rt":1916.4000000357628,"stimulus":"bees-with-color/bee-B2DM.svg","response":0,"trial_type":"image-button-response","trial_index":81,"time_elapsed":909296,"internal_node_id":"0.0-4.0-0.37","subject_id":"612fe64ec0e4e3b001e553ef","study_id":"6197b3f67c2b5cd3b6d9596a","session_id":"6197b88f2ecd4c080592c03f","condition":"full-information","relevant_dimensions":["antennae","legs"],"bee_group":{"antennae":"B","wings":"X","pattern":"X","legs":"F"},"action":"harvest","summary":"good-harvest","bonus":1.3000000000000007},{"rt":957.5,"stimulus":"\n                    <p><b>Action: <em>harvest</em></b></p>\n                    <p>This is the bee that you just saw.</p>\n                    <img src=\"bees-with-color/bee-B2DM.svg\" width=\"200\">\n                    <p><span class=\"greenText\"><b>Successful harvest!</b></span><br>Your pay has increased by $0.02. Your bonus pay is now $0.84.</p>\n            ","response":0,"trial_type":"html-button-response","trial_index":82,"time_elapsed":910255,"internal_node_id":"0.0-4.0-1.37","subject_id":"612fe64ec0e4e3b001e553ef","study_id":"6197b3f67c2b5cd3b6d9596a","session_id":"6197b88f2ecd4c080592c03f","condition":"full-information","relevant_dimensions":["antennae","legs"],"bee_group":{"antennae":"B","wings":"X","pattern":"X","legs":"F"},"bonus":1.3000000000000007},{"rt":1908.199999988079,"stimulus":"bees-with-color/bee-A1DM.svg","response":0,"trial_type":"image-button-response","trial_index":83,"time_elapsed":912165,"internal_node_id":"0.0-4.0-0.38","subject_id":"612fe64ec0e4e3b001e553ef","study_id":"6197b3f67c2b5cd3b6d9596a","session_id":"6197b88f2ecd4c080592c03f","condition":"full-information","relevant_dimensions":["antennae","legs"],"bee_group":{"antennae":"B","wings":"X","pattern":"X","legs":"F"},"action":"harvest","summary":"good-harvest","bonus":1.3000000000000007},{"rt":802.5,"stimulus":"\n                    <p><b>Action: <em>harvest</em></b></p>\n                    <p>This is the bee that you just saw.</p>\n                    <img src=\"bees-with-color/bee-A1DM.svg\" width=\"200\">\n                    <p><span class=\"greenText\"><b>Successful harvest!</b></span><br>Your pay has increased by $0.02. Your bonus pay is now $0.86.</p>\n            ","response":0,"trial_type":"html-button-response","trial_index":84,"time_elapsed":912969,"internal_node_id":"0.0-4.0-1.38","subject_id":"612fe64ec0e4e3b001e553ef","study_id":"6197b3f67c2b5cd3b6d9596a","session_id":"6197b88f2ecd4c080592c03f","condition":"full-information","relevant_dimensions":["antennae","legs"],"bee_group":{"antennae":"B","wings":"X","pattern":"X","legs":"F"},"bonus":1.3000000000000007},{"rt":4226.900000035763,"stimulus":"bees-with-color/bee-A1SF.svg","response":0,"trial_type":"image-button-response","trial_index":85,"time_elapsed":917197,"internal_node_id":"0.0-4.0-0.39","subject_id":"612fe64ec0e4e3b001e553ef","study_id":"6197b3f67c2b5cd3b6d9596a","session_id":"6197b88f2ecd4c080592c03f","condition":"full-information","relevant_dimensions":["antennae","legs"],"bee_group":{"antennae":"B","wings":"X","pattern":"X","legs":"F"},"action":"harvest","summary":"good-harvest","bonus":1.3000000000000007},{"rt":905.3999999761581,"stimulus":"\n                    <p><b>Action: <em>harvest</em></b></p>\n                    <p>This is the bee that you just saw.</p>\n                    <img src=\"bees-with-color/bee-A1SF.svg\" width=\"200\">\n                    <p><span class=\"greenText\"><b>Successful harvest!</b></span><br>Your pay has increased by $0.02. Your bonus pay is now $0.88.</p>\n            ","response":0,"trial_type":"html-button-response","trial_index":86,"time_elapsed":918104,"internal_node_id":"0.0-4.0-1.39","subject_id":"612fe64ec0e4e3b001e553ef","study_id":"6197b3f67c2b5cd3b6d9596a","session_id":"6197b88f2ecd4c080592c03f","condition":"full-information","relevant_dimensions":["antennae","legs"],"bee_group":{"antennae":"B","wings":"X","pattern":"X","legs":"F"},"bonus":1.3000000000000007},{"rt":7009,"stimulus":"bees-with-color/bee-B1SF.svg","response":1,"trial_type":"image-button-response","trial_index":87,"time_elapsed":925115,"internal_node_id":"0.0-4.0-0.40","subject_id":"612fe64ec0e4e3b001e553ef","study_id":"6197b3f67c2b5cd3b6d9596a","session_id":"6197b88f2ecd4c080592c03f","condition":"full-information","relevant_dimensions":["antennae","legs"],"bee_group":{"antennae":"B","wings":"X","pattern":"X","legs":"F"},"action":"avoid","summary":"good-avoid","bonus":1.3000000000000007},{"rt":728.6000000238419,"stimulus":"\n                    <p><b>Action: <em>avoid</em></b></p>\n                    <p>This is the bee that you just saw.</p>\n                    <img src=\"bees-with-color/bee-B1SF.svg\" width=\"200\">\n                    <p><span class=\"greenText\">Good choice!</span>  This bee would have stung you.<br>Your bonus pay is unchanged, and remains at $0.88.</p>\n            ","response":0,"trial_type":"html-button-response","trial_index":88,"time_elapsed":925845,"internal_node_id":"0.0-4.0-1.40","subject_id":"612fe64ec0e4e3b001e553ef","study_id":"6197b3f67c2b5cd3b6d9596a","session_id":"6197b88f2ecd4c080592c03f","condition":"full-information","relevant_dimensions":["antennae","legs"],"bee_group":{"antennae":"B","wings":"X","pattern":"X","legs":"F"},"bonus":1.3000000000000007},{"rt":2243.100000023842,"stimulus":"bees-with-color/bee-B1SM.svg","response":0,"trial_type":"image-button-response","trial_index":89,"time_elapsed":928090,"internal_node_id":"0.0-4.0-0.41","subject_id":"612fe64ec0e4e3b001e553ef","study_id":"6197b3f67c2b5cd3b6d9596a","session_id":"6197b88f2ecd4c080592c03f","condition":"full-information","relevant_dimensions":["antennae","legs"],"bee_group":{"antennae":"B","wings":"X","pattern":"X","legs":"F"},"action":"harvest","summary":"good-harvest","bonus":1.3000000000000007},{"rt":770.5999999642372,"stimulus":"\n                    <p><b>Action: <em>harvest</em></b></p>\n                    <p>This is the bee that you just saw.</p>\n                    <img src=\"bees-with-color/bee-B1SM.svg\" width=\"200\">\n                    <p><span class=\"greenText\"><b>Successful harvest!</b></span><br>Your pay has increased by $0.02. Your bonus pay is now $0.90.</p>\n            ","response":0,"trial_type":"html-button-response","trial_index":90,"time_elapsed":928862,"internal_node_id":"0.0-4.0-1.41","subject_id":"612fe64ec0e4e3b001e553ef","study_id":"6197b3f67c2b5cd3b6d9596a","session_id":"6197b88f2ecd4c080592c03f","condition":"full-information","relevant_dimensions":["antennae","legs"],"bee_group":{"antennae":"B","wings":"X","pattern":"X","legs":"F"},"bonus":1.3000000000000007},{"rt":4644.600000023842,"stimulus":"bees-with-color/bee-B2SF.svg","response":1,"trial_type":"image-button-response","trial_index":91,"time_elapsed":933508,"internal_node_id":"0.0-4.0-0.42","subject_id":"612fe64ec0e4e3b001e553ef","study_id":"6197b3f67c2b5cd3b6d9596a","session_id":"6197b88f2ecd4c080592c03f","condition":"full-information","relevant_dimensions":["antennae","legs"],"bee_group":{"antennae":"B","wings":"X","pattern":"X","legs":"F"},"action":"avoid","summary":"good-avoid","bonus":1.3000000000000007},{"rt":1008.5,"stimulus":"\n                    <p><b>Action: <em>avoid</em></b></p>\n                    <p>This is the bee that you just saw.</p>\n                    <img src=\"bees-with-color/bee-B2SF.svg\" width=\"200\">\n                    <p><span class=\"greenText\">Good choice!</span>  This bee would have stung you.<br>Your bonus pay is unchanged, and remains at $0.90.</p>\n            ","response":0,"trial_type":"html-button-response","trial_index":92,"time_elapsed":934518,"internal_node_id":"0.0-4.0-1.42","subject_id":"612fe64ec0e4e3b001e553ef","study_id":"6197b3f67c2b5cd3b6d9596a","session_id":"6197b88f2ecd4c080592c03f","condition":"full-information","relevant_dimensions":["antennae","legs"],"bee_group":{"antennae":"B","wings":"X","pattern":"X","legs":"F"},"bonus":1.3000000000000007},{"rt":1601.300000011921,"stimulus":"bees-with-color/bee-A2SM.svg","response":0,"trial_type":"image-button-response","trial_index":93,"time_elapsed":936121,"internal_node_id":"0.0-4.0-0.43","subject_id":"612fe64ec0e4e3b001e553ef","study_id":"6197b3f67c2b5cd3b6d9596a","session_id":"6197b88f2ecd4c080592c03f","condition":"full-information","relevant_dimensions":["antennae","legs"],"bee_group":{"antennae":"B","wings":"X","pattern":"X","legs":"F"},"action":"harvest","summary":"good-harvest","bonus":1.3000000000000007},{"rt":660.5,"stimulus":"\n                    <p><b>Action: <em>harvest</em></b></p>\n                    <p>This is the bee that you just saw.</p>\n                    <img src=\"bees-with-color/bee-A2SM.svg\" width=\"200\">\n                    <p><span class=\"greenText\"><b>Successful harvest!</b></span><br>Your pay has increased by $0.02. Your bonus pay is now $0.92.</p>\n            ","response":0,"trial_type":"html-button-response","trial_index":94,"time_elapsed":936784,"internal_node_id":"0.0-4.0-1.43","subject_id":"612fe64ec0e4e3b001e553ef","study_id":"6197b3f67c2b5cd3b6d9596a","session_id":"6197b88f2ecd4c080592c03f","condition":"full-information","relevant_dimensions":["antennae","legs"],"bee_group":{"antennae":"B","wings":"X","pattern":"X","legs":"F"},"bonus":1.3000000000000007},{"rt":1098.4000000357628,"stimulus":"bees-with-color/bee-A1SM.svg","response":0,"trial_type":"image-button-response","trial_index":95,"time_elapsed":937883,"internal_node_id":"0.0-4.0-0.44","subject_id":"612fe64ec0e4e3b001e553ef","study_id":"6197b3f67c2b5cd3b6d9596a","session_id":"6197b88f2ecd4c080592c03f","condition":"full-information","relevant_dimensions":["antennae","legs"],"bee_group":{"antennae":"B","wings":"X","pattern":"X","legs":"F"},"action":"harvest","summary":"good-harvest","bonus":1.3000000000000007},{"rt":826.6999999880791,"stimulus":"\n                    <p><b>Action: <em>harvest</em></b></p>\n                    <p>This is the bee that you just saw.</p>\n                    <img src=\"bees-with-color/bee-A1SM.svg\" width=\"200\">\n                    <p><span class=\"greenText\"><b>Successful harvest!</b></span><br>Your pay has increased by $0.02. Your bonus pay is now $0.94.</p>\n            ","response":0,"trial_type":"html-button-response","trial_index":96,"time_elapsed":938711,"internal_node_id":"0.0-4.0-1.44","subject_id":"612fe64ec0e4e3b001e553ef","study_id":"6197b3f67c2b5cd3b6d9596a","session_id":"6197b88f2ecd4c080592c03f","condition":"full-information","relevant_dimensions":["antennae","legs"],"bee_group":{"antennae":"B","wings":"X","pattern":"X","legs":"F"},"bonus":1.3000000000000007},{"rt":998.3999999761581,"stimulus":"bees-with-color/bee-A2SF.svg","response":0,"trial_type":"image-button-response","trial_index":97,"time_elapsed":939711,"internal_node_id":"0.0-4.0-0.45","subject_id":"612fe64ec0e4e3b001e553ef","study_id":"6197b3f67c2b5cd3b6d9596a","session_id":"6197b88f2ecd4c080592c03f","condition":"full-information","relevant_dimensions":["antennae","legs"],"bee_group":{"antennae":"B","wings":"X","pattern":"X","legs":"F"},"action":"harvest","summary":"good-harvest","bonus":1.3000000000000007},{"rt":436.19999998807907,"stimulus":"\n                    <p><b>Action: <em>harvest</em></b></p>\n                    <p>This is the bee that you just saw.</p>\n                    <img src=\"bees-with-color/bee-A2SF.svg\" width=\"200\">\n                    <p><span class=\"greenText\"><b>Successful harvest!</b></span><br>Your pay has increased by $0.02. Your bonus pay is now $0.96.</p>\n            ","response":0,"trial_type":"html-button-response","trial_index":98,"time_elapsed":940149,"internal_node_id":"0.0-4.0-1.45","subject_id":"612fe64ec0e4e3b001e553ef","study_id":"6197b3f67c2b5cd3b6d9596a","session_id":"6197b88f2ecd4c080592c03f","condition":"full-information","relevant_dimensions":["antennae","legs"],"bee_group":{"antennae":"B","wings":"X","pattern":"X","legs":"F"},"bonus":1.3000000000000007},{"rt":2392.899999976158,"stimulus":"bees-with-color/bee-B2SM.svg","response":0,"trial_type":"image-button-response","trial_index":99,"time_elapsed":942543,"internal_node_id":"0.0-4.0-0.46","subject_id":"612fe64ec0e4e3b001e553ef","study_id":"6197b3f67c2b5cd3b6d9596a","session_id":"6197b88f2ecd4c080592c03f","condition":"full-information","relevant_dimensions":["antennae","legs"],"bee_group":{"antennae":"B","wings":"X","pattern":"X","legs":"F"},"action":"harvest","summary":"good-harvest","bonus":1.3000000000000007},{"rt":884.6000000238419,"stimulus":"\n                    <p><b>Action: <em>harvest</em></b></p>\n                    <p>This is the bee that you just saw.</p>\n                    <img src=\"bees-with-color/bee-B2SM.svg\" width=\"200\">\n                    <p><span class=\"greenText\"><b>Successful harvest!</b></span><br>Your pay has increased by $0.02. Your bonus pay is now $0.98.</p>\n            ","response":0,"trial_type":"html-button-response","trial_index":100,"time_elapsed":943429,"internal_node_id":"0.0-4.0-1.46","subject_id":"612fe64ec0e4e3b001e553ef","study_id":"6197b3f67c2b5cd3b6d9596a","session_id":"6197b88f2ecd4c080592c03f","condition":"full-information","relevant_dimensions":["antennae","legs"],"bee_group":{"antennae":"B","wings":"X","pattern":"X","legs":"F"},"bonus":1.3000000000000007},{"rt":1167.3999999761581,"stimulus":"bees-with-color/bee-A2DM.svg","response":0,"trial_type":"image-button-response","trial_index":101,"time_elapsed":944598,"internal_node_id":"0.0-4.0-0.47","subject_id":"612fe64ec0e4e3b001e553ef","study_id":"6197b3f67c2b5cd3b6d9596a","session_id":"6197b88f2ecd4c080592c03f","condition":"full-information","relevant_dimensions":["antennae","legs"],"bee_group":{"antennae":"B","wings":"X","pattern":"X","legs":"F"},"action":"harvest","summary":"good-harvest","bonus":1.3000000000000007},{"rt":808.5999999642372,"stimulus":"\n                    <p><b>Action: <em>harvest</em></b></p>\n                    <p>This is the bee that you just saw.</p>\n                    <img src=\"bees-with-color/bee-A2DM.svg\" width=\"200\">\n                    <p><span class=\"greenText\"><b>Successful harvest!</b></span><br>Your pay has increased by $0.02. Your bonus pay is now $1.00.</p>\n            ","response":0,"trial_type":"html-button-response","trial_index":102,"time_elapsed":945408,"internal_node_id":"0.0-4.0-1.47","subject_id":"612fe64ec0e4e3b001e553ef","study_id":"6197b3f67c2b5cd3b6d9596a","session_id":"6197b88f2ecd4c080592c03f","condition":"full-information","relevant_dimensions":["antennae","legs"],"bee_group":{"antennae":"B","wings":"X","pattern":"X","legs":"F"},"bonus":1.3000000000000007},{"rt":2176.900000035763,"stimulus":"bees-with-color/bee-B2SF.svg","response":1,"trial_type":"image-button-response","trial_index":103,"time_elapsed":947586,"internal_node_id":"0.0-4.0-0.48","subject_id":"612fe64ec0e4e3b001e553ef","study_id":"6197b3f67c2b5cd3b6d9596a","session_id":"6197b88f2ecd4c080592c03f","condition":"full-information","relevant_dimensions":["antennae","legs"],"bee_group":{"antennae":"B","wings":"X","pattern":"X","legs":"F"},"action":"avoid","summary":"good-avoid","bonus":1.3000000000000007},{"rt":676.6000000238419,"stimulus":"\n                    <p><b>Action: <em>avoid</em></b></p>\n                    <p>This is the bee that you just saw.</p>\n                    <img src=\"bees-with-color/bee-B2SF.svg\" width=\"200\">\n                    <p><span class=\"greenText\">Good choice!</span>  This bee would have stung you.<br>Your bonus pay is unchanged, and remains at $1.00.</p>\n            ","response":0,"trial_type":"html-button-response","trial_index":104,"time_elapsed":948265,"internal_node_id":"0.0-4.0-1.48","subject_id":"612fe64ec0e4e3b001e553ef","study_id":"6197b3f67c2b5cd3b6d9596a","session_id":"6197b88f2ecd4c080592c03f","condition":"full-information","relevant_dimensions":["antennae","legs"],"bee_group":{"antennae":"B","wings":"X","pattern":"X","legs":"F"},"bonus":1.3000000000000007},{"rt":1388.3999999761581,"stimulus":"bees-with-color/bee-B2DF.svg","response":1,"trial_type":"image-button-response","trial_index":105,"time_elapsed":949655,"internal_node_id":"0.0-4.0-0.49","subject_id":"612fe64ec0e4e3b001e553ef","study_id":"6197b3f67c2b5cd3b6d9596a","session_id":"6197b88f2ecd4c080592c03f","condition":"full-information","relevant_dimensions":["antennae","legs"],"bee_group":{"antennae":"B","wings":"X","pattern":"X","legs":"F"},"action":"avoid","summary":"good-avoid","bonus":1.3000000000000007},{"rt":668.5999999642372,"stimulus":"\n                    <p><b>Action: <em>avoid</em></b></p>\n                    <p>This is the bee that you just saw.</p>\n                    <img src=\"bees-with-color/bee-B2DF.svg\" width=\"200\">\n                    <p><span class=\"greenText\">Good choice!</span>  This bee would have stung you.<br>Your bonus pay is unchanged, and remains at $1.00.</p>\n            ","response":0,"trial_type":"html-button-response","trial_index":106,"time_elapsed":950325,"internal_node_id":"0.0-4.0-1.49","subject_id":"612fe64ec0e4e3b001e553ef","study_id":"6197b3f67c2b5cd3b6d9596a","session_id":"6197b88f2ecd4c080592c03f","condition":"full-information","relevant_dimensions":["antennae","legs"],"bee_group":{"antennae":"B","wings":"X","pattern":"X","legs":"F"},"bonus":1.3000000000000007},{"rt":1117.300000011921,"stimulus":"bees-with-color/bee-B1SM.svg","response":0,"trial_type":"image-button-response","trial_index":107,"time_elapsed":951444,"internal_node_id":"0.0-4.0-0.50","subject_id":"612fe64ec0e4e3b001e553ef","study_id":"6197b3f67c2b5cd3b6d9596a","session_id":"6197b88f2ecd4c080592c03f","condition":"full-information","relevant_dimensions":["antennae","legs"],"bee_group":{"antennae":"B","wings":"X","pattern":"X","legs":"F"},"action":"harvest","summary":"good-harvest","bonus":1.3000000000000007},{"rt":600.8000000119209,"stimulus":"\n                    <p><b>Action: <em>harvest</em></b></p>\n                    <p>This is the bee that you just saw.</p>\n                    <img src=\"bees-with-color/bee-B1SM.svg\" width=\"200\">\n                    <p><span class=\"greenText\"><b>Successful harvest!</b></span><br>Your pay has increased by $0.02. Your bonus pay is now $1.02.</p>\n            ","response":0,"trial_type":"html-button-response","trial_index":108,"time_elapsed":952046,"internal_node_id":"0.0-4.0-1.50","subject_id":"612fe64ec0e4e3b001e553ef","study_id":"6197b3f67c2b5cd3b6d9596a","session_id":"6197b88f2ecd4c080592c03f","condition":"full-information","relevant_dimensions":["antennae","legs"],"bee_group":{"antennae":"B","wings":"X","pattern":"X","legs":"F"},"bonus":1.3000000000000007},{"rt":806,"stimulus":"bees-with-color/bee-B1DM.svg","response":0,"trial_type":"image-button-response","trial_index":109,"time_elapsed":952854,"internal_node_id":"0.0-4.0-0.51","subject_id":"612fe64ec0e4e3b001e553ef","study_id":"6197b3f67c2b5cd3b6d9596a","session_id":"6197b88f2ecd4c080592c03f","condition":"full-information","relevant_dimensions":["antennae","legs"],"bee_group":{"antennae":"B","wings":"X","pattern":"X","legs":"F"},"action":"harvest","summary":"good-harvest","bonus":1.3000000000000007},{"rt":482.5999999642372,"stimulus":"\n                    <p><b>Action: <em>harvest</em></b></p>\n                    <p>This is the bee that you just saw.</p>\n                    <img src=\"bees-with-color/bee-B1DM.svg\" width=\"200\">\n                    <p><span class=\"greenText\"><b>Successful harvest!</b></span><br>Your pay has increased by $0.02. Your bonus pay is now $1.04.</p>\n            ","response":0,"trial_type":"html-button-response","trial_index":110,"time_elapsed":953338,"internal_node_id":"0.0-4.0-1.51","subject_id":"612fe64ec0e4e3b001e553ef","study_id":"6197b3f67c2b5cd3b6d9596a","session_id":"6197b88f2ecd4c080592c03f","condition":"full-information","relevant_dimensions":["antennae","legs"],"bee_group":{"antennae":"B","wings":"X","pattern":"X","legs":"F"},"bonus":1.3000000000000007},{"rt":1368.699999988079,"stimulus":"bees-with-color/bee-A2DF.svg","response":0,"trial_type":"image-button-response","trial_index":111,"time_elapsed":954708,"internal_node_id":"0.0-4.0-0.52","subject_id":"612fe64ec0e4e3b001e553ef","study_id":"6197b3f67c2b5cd3b6d9596a","session_id":"6197b88f2ecd4c080592c03f","condition":"full-information","relevant_dimensions":["antennae","legs"],"bee_group":{"antennae":"B","wings":"X","pattern":"X","legs":"F"},"action":"harvest","summary":"good-harvest","bonus":1.3000000000000007},{"rt":492.0999999642372,"stimulus":"\n                    <p><b>Action: <em>harvest</em></b></p>\n                    <p>This is the bee that you just saw.</p>\n                    <img src=\"bees-with-color/bee-A2DF.svg\" width=\"200\">\n                    <p><span class=\"greenText\"><b>Successful harvest!</b></span><br>Your pay has increased by $0.02. Your bonus pay is now $1.06.</p>\n            ","response":0,"trial_type":"html-button-response","trial_index":112,"time_elapsed":955202,"internal_node_id":"0.0-4.0-1.52","subject_id":"612fe64ec0e4e3b001e553ef","study_id":"6197b3f67c2b5cd3b6d9596a","session_id":"6197b88f2ecd4c080592c03f","condition":"full-information","relevant_dimensions":["antennae","legs"],"bee_group":{"antennae":"B","wings":"X","pattern":"X","legs":"F"},"bonus":1.3000000000000007},{"rt":716.5,"stimulus":"bees-with-color/bee-A1DF.svg","response":0,"trial_type":"image-button-response","trial_index":113,"time_elapsed":955920,"internal_node_id":"0.0-4.0-0.53","subject_id":"612fe64ec0e4e3b001e553ef","study_id":"6197b3f67c2b5cd3b6d9596a","session_id":"6197b88f2ecd4c080592c03f","condition":"full-information","relevant_dimensions":["antennae","legs"],"bee_group":{"antennae":"B","wings":"X","pattern":"X","legs":"F"},"action":"harvest","summary":"good-harvest","bonus":1.3000000000000007},{"rt":492.30000001192093,"stimulus":"\n                    <p><b>Action: <em>harvest</em></b></p>\n                    <p>This is the bee that you just saw.</p>\n                    <img src=\"bees-with-color/bee-A1DF.svg\" width=\"200\">\n                    <p><span class=\"greenText\"><b>Successful harvest!</b></span><br>Your pay has increased by $0.02. Your bonus pay is now $1.08.</p>\n            ","response":0,"trial_type":"html-button-response","trial_index":114,"time_elapsed":956414,"internal_node_id":"0.0-4.0-1.53","subject_id":"612fe64ec0e4e3b001e553ef","study_id":"6197b3f67c2b5cd3b6d9596a","session_id":"6197b88f2ecd4c080592c03f","condition":"full-information","relevant_dimensions":["antennae","legs"],"bee_group":{"antennae":"B","wings":"X","pattern":"X","legs":"F"},"bonus":1.3000000000000007},{"rt":613.1999999880791,"stimulus":"bees-with-color/bee-A2DM.svg","response":0,"trial_type":"image-button-response","trial_index":115,"time_elapsed":957028,"internal_node_id":"0.0-4.0-0.54","subject_id":"612fe64ec0e4e3b001e553ef","study_id":"6197b3f67c2b5cd3b6d9596a","session_id":"6197b88f2ecd4c080592c03f","condition":"full-information","relevant_dimensions":["antennae","legs"],"bee_group":{"antennae":"B","wings":"X","pattern":"X","legs":"F"},"action":"harvest","summary":"good-harvest","bonus":1.3000000000000007},{"rt":450.39999997615814,"stimulus":"\n                    <p><b>Action: <em>harvest</em></b></p>\n                    <p>This is the bee that you just saw.</p>\n                    <img src=\"bees-with-color/bee-A2DM.svg\" width=\"200\">\n                    <p><span class=\"greenText\"><b>Successful harvest!</b></span><br>Your pay has increased by $0.02. Your bonus pay is now $1.10.</p>\n            ","response":0,"trial_type":"html-button-response","trial_index":116,"time_elapsed":957480,"internal_node_id":"0.0-4.0-1.54","subject_id":"612fe64ec0e4e3b001e553ef","study_id":"6197b3f67c2b5cd3b6d9596a","session_id":"6197b88f2ecd4c080592c03f","condition":"full-information","relevant_dimensions":["antennae","legs"],"bee_group":{"antennae":"B","wings":"X","pattern":"X","legs":"F"},"bonus":1.3000000000000007},{"rt":730.6999999880791,"stimulus":"bees-with-color/bee-A1SM.svg","response":0,"trial_type":"image-button-response","trial_index":117,"time_elapsed":958212,"internal_node_id":"0.0-4.0-0.55","subject_id":"612fe64ec0e4e3b001e553ef","study_id":"6197b3f67c2b5cd3b6d9596a","session_id":"6197b88f2ecd4c080592c03f","condition":"full-information","relevant_dimensions":["antennae","legs"],"bee_group":{"antennae":"B","wings":"X","pattern":"X","legs":"F"},"action":"harvest","summary":"good-harvest","bonus":1.3000000000000007},{"rt":506.60000002384186,"stimulus":"\n                    <p><b>Action: <em>harvest</em></b></p>\n                    <p>This is the bee that you just saw.</p>\n                    <img src=\"bees-with-color/bee-A1SM.svg\" width=\"200\">\n                    <p><span class=\"greenText\"><b>Successful harvest!</b></span><br>Your pay has increased by $0.02. Your bonus pay is now $1.12.</p>\n            ","response":0,"trial_type":"html-button-response","trial_index":118,"time_elapsed":958720,"internal_node_id":"0.0-4.0-1.55","subject_id":"612fe64ec0e4e3b001e553ef","study_id":"6197b3f67c2b5cd3b6d9596a","session_id":"6197b88f2ecd4c080592c03f","condition":"full-information","relevant_dimensions":["antennae","legs"],"bee_group":{"antennae":"B","wings":"X","pattern":"X","legs":"F"},"bonus":1.3000000000000007},{"rt":680.6999999880791,"stimulus":"bees-with-color/bee-A1DM.svg","response":0,"trial_type":"image-button-response","trial_index":119,"time_elapsed":959402,"internal_node_id":"0.0-4.0-0.56","subject_id":"612fe64ec0e4e3b001e553ef","study_id":"6197b3f67c2b5cd3b6d9596a","session_id":"6197b88f2ecd4c080592c03f","condition":"full-information","relevant_dimensions":["antennae","legs"],"bee_group":{"antennae":"B","wings":"X","pattern":"X","legs":"F"},"action":"harvest","summary":"good-harvest","bonus":1.3000000000000007},{"rt":509.60000002384186,"stimulus":"\n                    <p><b>Action: <em>harvest</em></b></p>\n                    <p>This is the bee that you just saw.</p>\n                    <img src=\"bees-with-color/bee-A1DM.svg\" width=\"200\">\n                    <p><span class=\"greenText\"><b>Successful harvest!</b></span><br>Your pay has increased by $0.02. Your bonus pay is now $1.14.</p>\n            ","response":0,"trial_type":"html-button-response","trial_index":120,"time_elapsed":959913,"internal_node_id":"0.0-4.0-1.56","subject_id":"612fe64ec0e4e3b001e553ef","study_id":"6197b3f67c2b5cd3b6d9596a","session_id":"6197b88f2ecd4c080592c03f","condition":"full-information","relevant_dimensions":["antennae","legs"],"bee_group":{"antennae":"B","wings":"X","pattern":"X","legs":"F"},"bonus":1.3000000000000007},{"rt":5045,"stimulus":"bees-with-color/bee-B1DF.svg","response":1,"trial_type":"image-button-response","trial_index":121,"time_elapsed":964960,"internal_node_id":"0.0-4.0-0.57","subject_id":"612fe64ec0e4e3b001e553ef","study_id":"6197b3f67c2b5cd3b6d9596a","session_id":"6197b88f2ecd4c080592c03f","condition":"full-information","relevant_dimensions":["antennae","legs"],"bee_group":{"antennae":"B","wings":"X","pattern":"X","legs":"F"},"action":"avoid","summary":"good-avoid","bonus":1.3000000000000007},{"rt":616.1999999880791,"stimulus":"\n                    <p><b>Action: <em>avoid</em></b></p>\n                    <p>This is the bee that you just saw.</p>\n                    <img src=\"bees-with-color/bee-B1DF.svg\" width=\"200\">\n                    <p><span class=\"greenText\">Good choice!</span>  This bee would have stung you.<br>Your bonus pay is unchanged, and remains at $1.14.</p>\n            ","response":0,"trial_type":"html-button-response","trial_index":122,"time_elapsed":965578,"internal_node_id":"0.0-4.0-1.57","subject_id":"612fe64ec0e4e3b001e553ef","study_id":"6197b3f67c2b5cd3b6d9596a","session_id":"6197b88f2ecd4c080592c03f","condition":"full-information","relevant_dimensions":["antennae","legs"],"bee_group":{"antennae":"B","wings":"X","pattern":"X","legs":"F"},"bonus":1.3000000000000007},{"rt":1386.699999988079,"stimulus":"bees-with-color/bee-B2SM.svg","response":0,"trial_type":"image-button-response","trial_index":123,"time_elapsed":966966,"internal_node_id":"0.0-4.0-0.58","subject_id":"612fe64ec0e4e3b001e553ef","study_id":"6197b3f67c2b5cd3b6d9596a","session_id":"6197b88f2ecd4c080592c03f","condition":"full-information","relevant_dimensions":["antennae","legs"],"bee_group":{"antennae":"B","wings":"X","pattern":"X","legs":"F"},"action":"harvest","summary":"good-harvest","bonus":1.3000000000000007},{"rt":958.3000000119209,"stimulus":"\n                    <p><b>Action: <em>harvest</em></b></p>\n                    <p>This is the bee that you just saw.</p>\n                    <img src=\"bees-with-color/bee-B2SM.svg\" width=\"200\">\n                    <p><span class=\"greenText\"><b>Successful harvest!</b></span><br>Your pay has increased by $0.02. Your bonus pay is now $1.16.</p>\n            ","response":0,"trial_type":"html-button-response","trial_index":124,"time_elapsed":967926,"internal_node_id":"0.0-4.0-1.58","subject_id":"612fe64ec0e4e3b001e553ef","study_id":"6197b3f67c2b5cd3b6d9596a","session_id":"6197b88f2ecd4c080592c03f","condition":"full-information","relevant_dimensions":["antennae","legs"],"bee_group":{"antennae":"B","wings":"X","pattern":"X","legs":"F"},"bonus":1.3000000000000007},{"rt":1467.5999999642372,"stimulus":"bees-with-color/bee-A1SF.svg","response":0,"trial_type":"image-button-response","trial_index":125,"time_elapsed":969395,"internal_node_id":"0.0-4.0-0.59","subject_id":"612fe64ec0e4e3b001e553ef","study_id":"6197b3f67c2b5cd3b6d9596a","session_id":"6197b88f2ecd4c080592c03f","condition":"full-information","relevant_dimensions":["antennae","legs"],"bee_group":{"antennae":"B","wings":"X","pattern":"X","legs":"F"},"action":"harvest","summary":"good-harvest","bonus":1.3000000000000007},{"rt":532.6000000238419,"stimulus":"\n                    <p><b>Action: <em>harvest</em></b></p>\n                    <p>This is the bee that you just saw.</p>\n                    <img src=\"bees-with-color/bee-A1SF.svg\" width=\"200\">\n                    <p><span class=\"greenText\"><b>Successful harvest!</b></span><br>Your pay has increased by $0.02. Your bonus pay is now $1.18.</p>\n            ","response":0,"trial_type":"html-button-response","trial_index":126,"time_elapsed":969929,"internal_node_id":"0.0-4.0-1.59","subject_id":"612fe64ec0e4e3b001e553ef","study_id":"6197b3f67c2b5cd3b6d9596a","session_id":"6197b88f2ecd4c080592c03f","condition":"full-information","relevant_dimensions":["antennae","legs"],"bee_group":{"antennae":"B","wings":"X","pattern":"X","legs":"F"},"bonus":1.3000000000000007},{"rt":880.5,"stimulus":"bees-with-color/bee-A2SF.svg","response":0,"trial_type":"image-button-response","trial_index":127,"time_elapsed":970811,"internal_node_id":"0.0-4.0-0.60","subject_id":"612fe64ec0e4e3b001e553ef","study_id":"6197b3f67c2b5cd3b6d9596a","session_id":"6197b88f2ecd4c080592c03f","condition":"full-information","relevant_dimensions":["antennae","legs"],"bee_group":{"antennae":"B","wings":"X","pattern":"X","legs":"F"},"action":"harvest","summary":"good-harvest","bonus":1.3000000000000007},{"rt":1062.699999988079,"stimulus":"\n                    <p><b>Action: <em>harvest</em></b></p>\n                    <p>This is the bee that you just saw.</p>\n                    <img src=\"bees-with-color/bee-A2SF.svg\" width=\"200\">\n                    <p><span class=\"greenText\"><b>Successful harvest!</b></span><br>Your pay has increased by $0.02. Your bonus pay is now $1.20.</p>\n            ","response":0,"trial_type":"html-button-response","trial_index":128,"time_elapsed":971875,"internal_node_id":"0.0-4.0-1.60","subject_id":"612fe64ec0e4e3b001e553ef","study_id":"6197b3f67c2b5cd3b6d9596a","session_id":"6197b88f2ecd4c080592c03f","condition":"full-information","relevant_dimensions":["antennae","legs"],"bee_group":{"antennae":"B","wings":"X","pattern":"X","legs":"F"},"bonus":1.3000000000000007},{"rt":1114.6000000238419,"stimulus":"bees-with-color/bee-B2DM.svg","response":0,"trial_type":"image-button-response","trial_index":129,"time_elapsed":972991,"internal_node_id":"0.0-4.0-0.61","subject_id":"612fe64ec0e4e3b001e553ef","study_id":"6197b3f67c2b5cd3b6d9596a","session_id":"6197b88f2ecd4c080592c03f","condition":"full-information","relevant_dimensions":["antennae","legs"],"bee_group":{"antennae":"B","wings":"X","pattern":"X","legs":"F"},"action":"harvest","summary":"good-harvest","bonus":1.3000000000000007},{"rt":570.2999999523163,"stimulus":"\n                    <p><b>Action: <em>harvest</em></b></p>\n                    <p>This is the bee that you just saw.</p>\n                    <img src=\"bees-with-color/bee-B2DM.svg\" width=\"200\">\n                    <p><span class=\"greenText\"><b>Successful harvest!</b></span><br>Your pay has increased by $0.02. Your bonus pay is now $1.22.</p>\n            ","response":0,"trial_type":"html-button-response","trial_index":130,"time_elapsed":973563,"internal_node_id":"0.0-4.0-1.61","subject_id":"612fe64ec0e4e3b001e553ef","study_id":"6197b3f67c2b5cd3b6d9596a","session_id":"6197b88f2ecd4c080592c03f","condition":"full-information","relevant_dimensions":["antennae","legs"],"bee_group":{"antennae":"B","wings":"X","pattern":"X","legs":"F"},"bonus":1.3000000000000007},{"rt":792.6000000238419,"stimulus":"bees-with-color/bee-A2SM.svg","response":0,"trial_type":"image-button-response","trial_index":131,"time_elapsed":974357,"internal_node_id":"0.0-4.0-0.62","subject_id":"612fe64ec0e4e3b001e553ef","study_id":"6197b3f67c2b5cd3b6d9596a","session_id":"6197b88f2ecd4c080592c03f","condition":"full-information","relevant_dimensions":["antennae","legs"],"bee_group":{"antennae":"B","wings":"X","pattern":"X","legs":"F"},"action":"harvest","summary":"good-harvest","bonus":1.3000000000000007},{"rt":482.5999999642372,"stimulus":"\n                    <p><b>Action: <em>harvest</em></b></p>\n                    <p>This is the bee that you just saw.</p>\n                    <img src=\"bees-with-color/bee-A2SM.svg\" width=\"200\">\n                    <p><span class=\"greenText\"><b>Successful harvest!</b></span><br>Your pay has increased by $0.02. Your bonus pay is now $1.24.</p>\n            ","response":0,"trial_type":"html-button-response","trial_index":132,"time_elapsed":974841,"internal_node_id":"0.0-4.0-1.62","subject_id":"612fe64ec0e4e3b001e553ef","study_id":"6197b3f67c2b5cd3b6d9596a","session_id":"6197b88f2ecd4c080592c03f","condition":"full-information","relevant_dimensions":["antennae","legs"],"bee_group":{"antennae":"B","wings":"X","pattern":"X","legs":"F"},"bonus":1.3000000000000007},{"rt":2857.5,"stimulus":"bees-with-color/bee-B1SF.svg","response":1,"trial_type":"image-button-response","trial_index":133,"time_elapsed":977700,"internal_node_id":"0.0-4.0-0.63","subject_id":"612fe64ec0e4e3b001e553ef","study_id":"6197b3f67c2b5cd3b6d9596a","session_id":"6197b88f2ecd4c080592c03f","condition":"full-information","relevant_dimensions":["antennae","legs"],"bee_group":{"antennae":"B","wings":"X","pattern":"X","legs":"F"},"action":"avoid","summary":"good-avoid","bonus":1.3000000000000007},{"rt":1094.5999999642372,"stimulus":"\n                    <p><b>Action: <em>avoid</em></b></p>\n                    <p>This is the bee that you just saw.</p>\n                    <img src=\"bees-with-color/bee-B1SF.svg\" width=\"200\">\n                    <p><span class=\"greenText\">Good choice!</span>  This bee would have stung you.<br>Your bonus pay is unchanged, and remains at $1.24.</p>\n            ","response":0,"trial_type":"html-button-response","trial_index":134,"time_elapsed":978796,"internal_node_id":"0.0-4.0-1.63","subject_id":"612fe64ec0e4e3b001e553ef","study_id":"6197b3f67c2b5cd3b6d9596a","session_id":"6197b88f2ecd4c080592c03f","condition":"full-information","relevant_dimensions":["antennae","legs"],"bee_group":{"antennae":"B","wings":"X","pattern":"X","legs":"F"},"bonus":1.3000000000000007},{"rt":7853.400000035763,"stimulus":"You have completed the first part of this experiment.<br><br>You will now begin a shorter second part, in which you will receive no feedback.<br>The same rules regarding bonus pay apply.<br><br>Press any key to begin.","response":"enter","trial_type":"html-keyboard-response","trial_index":135,"time_elapsed":986651,"internal_node_id":"0.0-5.0","subject_id":"612fe64ec0e4e3b001e553ef","study_id":"6197b3f67c2b5cd3b6d9596a","session_id":"6197b88f2ecd4c080592c03f","condition":"full-information","relevant_dimensions":["antennae","legs"],"bee_group":{"antennae":"B","wings":"X","pattern":"X","legs":"F"},"bonus":1.3000000000000007},{"rt":17885.900000035763,"stimulus":"bees-with-color/bee-B2DM.svg","response":0,"trial_type":"image-button-response","trial_index":136,"time_elapsed":1004545,"internal_node_id":"0.0-6.0-0.0","subject_id":"612fe64ec0e4e3b001e553ef","study_id":"6197b3f67c2b5cd3b6d9596a","session_id":"6197b88f2ecd4c080592c03f","condition":"full-information","relevant_dimensions":["antennae","legs"],"bee_group":{"antennae":"B","wings":"X","pattern":"X","legs":"F"},"bonus":1.3000000000000007},{"rt":4405.800000011921,"stimulus":"bees-with-color/bee-B1DF.svg","response":1,"trial_type":"image-button-response","trial_index":137,"time_elapsed":1008953,"internal_node_id":"0.0-6.0-0.1","subject_id":"612fe64ec0e4e3b001e553ef","study_id":"6197b3f67c2b5cd3b6d9596a","session_id":"6197b88f2ecd4c080592c03f","condition":"full-information","relevant_dimensions":["antennae","legs"],"bee_group":{"antennae":"B","wings":"X","pattern":"X","legs":"F"},"bonus":1.3000000000000007},{"rt":3814.900000035763,"stimulus":"bees-with-color/bee-B2DF.svg","response":1,"trial_type":"image-button-response","trial_index":138,"time_elapsed":1012771,"internal_node_id":"0.0-6.0-0.2","subject_id":"612fe64ec0e4e3b001e553ef","study_id":"6197b3f67c2b5cd3b6d9596a","session_id":"6197b88f2ecd4c080592c03f","condition":"full-information","relevant_dimensions":["antennae","legs"],"bee_group":{"antennae":"B","wings":"X","pattern":"X","legs":"F"},"bonus":1.3000000000000007},{"rt":1545.699999988079,"stimulus":"bees-with-color/bee-B2SM.svg","response":0,"trial_type":"image-button-response","trial_index":139,"time_elapsed":1014319,"internal_node_id":"0.0-6.0-0.3","subject_id":"612fe64ec0e4e3b001e553ef","study_id":"6197b3f67c2b5cd3b6d9596a","session_id":"6197b88f2ecd4c080592c03f","condition":"full-information","relevant_dimensions":["antennae","legs"],"bee_group":{"antennae":"B","wings":"X","pattern":"X","legs":"F"},"bonus":1.3000000000000007},{"rt":747.6999999880791,"stimulus":"bees-with-color/bee-A2SF.svg","response":0,"trial_type":"image-button-response","trial_index":140,"time_elapsed":1015069,"internal_node_id":"0.0-6.0-0.4","subject_id":"612fe64ec0e4e3b001e553ef","study_id":"6197b3f67c2b5cd3b6d9596a","session_id":"6197b88f2ecd4c080592c03f","condition":"full-information","relevant_dimensions":["antennae","legs"],"bee_group":{"antennae":"B","wings":"X","pattern":"X","legs":"F"},"bonus":1.3000000000000007},{"rt":1540,"stimulus":"bees-with-color/bee-B1DM.svg","response":1,"trial_type":"image-button-response","trial_index":141,"time_elapsed":1016611,"internal_node_id":"0.0-6.0-0.5","subject_id":"612fe64ec0e4e3b001e553ef","study_id":"6197b3f67c2b5cd3b6d9596a","session_id":"6197b88f2ecd4c080592c03f","condition":"full-information","relevant_dimensions":["antennae","legs"],"bee_group":{"antennae":"B","wings":"X","pattern":"X","legs":"F"},"bonus":1.3000000000000007},{"rt":373.69999998807907,"stimulus":"bees-with-color/bee-A2SM.svg","response":1,"trial_type":"image-button-response","trial_index":142,"time_elapsed":1016987,"internal_node_id":"0.0-6.0-0.6","subject_id":"612fe64ec0e4e3b001e553ef","study_id":"6197b3f67c2b5cd3b6d9596a","session_id":"6197b88f2ecd4c080592c03f","condition":"full-information","relevant_dimensions":["antennae","legs"],"bee_group":{"antennae":"B","wings":"X","pattern":"X","legs":"F"},"bonus":1.3000000000000007},{"rt":165.89999997615814,"stimulus":"bees-with-color/bee-A1DF.svg","response":1,"trial_type":"image-button-response","trial_index":143,"time_elapsed":1017155,"internal_node_id":"0.0-6.0-0.7","subject_id":"612fe64ec0e4e3b001e553ef","study_id":"6197b3f67c2b5cd3b6d9596a","session_id":"6197b88f2ecd4c080592c03f","condition":"full-information","relevant_dimensions":["antennae","legs"],"bee_group":{"antennae":"B","wings":"X","pattern":"X","legs":"F"},"bonus":1.3000000000000007},{"rt":163.69999998807907,"stimulus":"bees-with-color/bee-A1SF.svg","response":1,"trial_type":"image-button-response","trial_index":144,"time_elapsed":1017321,"internal_node_id":"0.0-6.0-0.8","subject_id":"612fe64ec0e4e3b001e553ef","study_id":"6197b3f67c2b5cd3b6d9596a","session_id":"6197b88f2ecd4c080592c03f","condition":"full-information","relevant_dimensions":["antennae","legs"],"bee_group":{"antennae":"B","wings":"X","pattern":"X","legs":"F"},"bonus":1.3000000000000007},{"rt":154.0999999642372,"stimulus":"bees-with-color/bee-B1SM.svg","response":1,"trial_type":"image-button-response","trial_index":145,"time_elapsed":1017477,"internal_node_id":"0.0-6.0-0.9","subject_id":"612fe64ec0e4e3b001e553ef","study_id":"6197b3f67c2b5cd3b6d9596a","session_id":"6197b88f2ecd4c080592c03f","condition":"full-information","relevant_dimensions":["antennae","legs"],"bee_group":{"antennae":"B","wings":"X","pattern":"X","legs":"F"},"bonus":1.3000000000000007},{"rt":153,"stimulus":"bees-with-color/bee-B2SF.svg","response":1,"trial_type":"image-button-response","trial_index":146,"time_elapsed":1017635,"internal_node_id":"0.0-6.0-0.10","subject_id":"612fe64ec0e4e3b001e553ef","study_id":"6197b3f67c2b5cd3b6d9596a","session_id":"6197b88f2ecd4c080592c03f","condition":"full-information","relevant_dimensions":["antennae","legs"],"bee_group":{"antennae":"B","wings":"X","pattern":"X","legs":"F"},"bonus":1.3000000000000007},{"rt":148,"stimulus":"bees-with-color/bee-A1SM.svg","response":1,"trial_type":"image-button-response","trial_index":147,"time_elapsed":1017785,"internal_node_id":"0.0-6.0-0.11","subject_id":"612fe64ec0e4e3b001e553ef","study_id":"6197b3f67c2b5cd3b6d9596a","session_id":"6197b88f2ecd4c080592c03f","condition":"full-information","relevant_dimensions":["antennae","legs"],"bee_group":{"antennae":"B","wings":"X","pattern":"X","legs":"F"},"bonus":1.3000000000000007},{"rt":152.10000002384186,"stimulus":"bees-with-color/bee-A2DF.svg","response":1,"trial_type":"image-button-response","trial_index":148,"time_elapsed":1017939,"internal_node_id":"0.0-6.0-0.12","subject_id":"612fe64ec0e4e3b001e553ef","study_id":"6197b3f67c2b5cd3b6d9596a","session_id":"6197b88f2ecd4c080592c03f","condition":"full-information","relevant_dimensions":["antennae","legs"],"bee_group":{"antennae":"B","wings":"X","pattern":"X","legs":"F"},"bonus":1.3000000000000007},{"rt":188.20000004768372,"stimulus":"bees-with-color/bee-A1DM.svg","response":1,"trial_type":"image-button-response","trial_index":149,"time_elapsed":1018129,"internal_node_id":"0.0-6.0-0.13","subject_id":"612fe64ec0e4e3b001e553ef","study_id":"6197b3f67c2b5cd3b6d9596a","session_id":"6197b88f2ecd4c080592c03f","condition":"full-information","relevant_dimensions":["antennae","legs"],"bee_group":{"antennae":"B","wings":"X","pattern":"X","legs":"F"},"bonus":1.3000000000000007},{"rt":165.80000001192093,"stimulus":"bees-with-color/bee-A2DM.svg","response":1,"trial_type":"image-button-response","trial_index":150,"time_elapsed":1018297,"internal_node_id":"0.0-6.0-0.14","subject_id":"612fe64ec0e4e3b001e553ef","study_id":"6197b3f67c2b5cd3b6d9596a","session_id":"6197b88f2ecd4c080592c03f","condition":"full-information","relevant_dimensions":["antennae","legs"],"bee_group":{"antennae":"B","wings":"X","pattern":"X","legs":"F"},"bonus":1.3000000000000007},{"rt":156.10000002384186,"stimulus":"bees-with-color/bee-B1SF.svg","response":1,"trial_type":"image-button-response","trial_index":151,"time_elapsed":1018455,"internal_node_id":"0.0-6.0-0.15","subject_id":"612fe64ec0e4e3b001e553ef","study_id":"6197b3f67c2b5cd3b6d9596a","session_id":"6197b88f2ecd4c080592c03f","condition":"full-information","relevant_dimensions":["antennae","legs"],"bee_group":{"antennae":"B","wings":"X","pattern":"X","legs":"F"},"bonus":1.3000000000000007},{"rt":144.20000004768372,"stimulus":"bees-with-color/bee-B1SM.svg","response":1,"trial_type":"image-button-response","trial_index":152,"time_elapsed":1018601,"internal_node_id":"0.0-6.0-0.16","subject_id":"612fe64ec0e4e3b001e553ef","study_id":"6197b3f67c2b5cd3b6d9596a","session_id":"6197b88f2ecd4c080592c03f","condition":"full-information","relevant_dimensions":["antennae","legs"],"bee_group":{"antennae":"B","wings":"X","pattern":"X","legs":"F"},"bonus":1.3000000000000007},{"rt":160.30000001192093,"stimulus":"bees-with-color/bee-B2SF.svg","response":1,"trial_type":"image-button-response","trial_index":153,"time_elapsed":1018763,"internal_node_id":"0.0-6.0-0.17","subject_id":"612fe64ec0e4e3b001e553ef","study_id":"6197b3f67c2b5cd3b6d9596a","session_id":"6197b88f2ecd4c080592c03f","condition":"full-information","relevant_dimensions":["antennae","legs"],"bee_group":{"antennae":"B","wings":"X","pattern":"X","legs":"F"},"bonus":1.3000000000000007},{"rt":152.30000001192093,"stimulus":"bees-with-color/bee-B1SF.svg","response":1,"trial_type":"image-button-response","trial_index":154,"time_elapsed":1018917,"internal_node_id":"0.0-6.0-0.18","subject_id":"612fe64ec0e4e3b001e553ef","study_id":"6197b3f67c2b5cd3b6d9596a","session_id":"6197b88f2ecd4c080592c03f","condition":"full-information","relevant_dimensions":["antennae","legs"],"bee_group":{"antennae":"B","wings":"X","pattern":"X","legs":"F"},"bonus":1.3000000000000007},{"rt":151.30000001192093,"stimulus":"bees-with-color/bee-B2DM.svg","response":1,"trial_type":"image-button-response","trial_index":155,"time_elapsed":1019070,"internal_node_id":"0.0-6.0-0.19","subject_id":"612fe64ec0e4e3b001e553ef","study_id":"6197b3f67c2b5cd3b6d9596a","session_id":"6197b88f2ecd4c080592c03f","condition":"full-information","relevant_dimensions":["antennae","legs"],"bee_group":{"antennae":"B","wings":"X","pattern":"X","legs":"F"},"bonus":1.3000000000000007},{"rt":156.4000000357628,"stimulus":"bees-with-color/bee-A2DF.svg","response":1,"trial_type":"image-button-response","trial_index":156,"time_elapsed":1019228,"internal_node_id":"0.0-6.0-0.20","subject_id":"612fe64ec0e4e3b001e553ef","study_id":"6197b3f67c2b5cd3b6d9596a","session_id":"6197b88f2ecd4c080592c03f","condition":"full-information","relevant_dimensions":["antennae","legs"],"bee_group":{"antennae":"B","wings":"X","pattern":"X","legs":"F"},"bonus":1.3000000000000007},{"rt":146.19999998807907,"stimulus":"bees-with-color/bee-A1SM.svg","response":1,"trial_type":"image-button-response","trial_index":157,"time_elapsed":1019376,"internal_node_id":"0.0-6.0-0.21","subject_id":"612fe64ec0e4e3b001e553ef","study_id":"6197b3f67c2b5cd3b6d9596a","session_id":"6197b88f2ecd4c080592c03f","condition":"full-information","relevant_dimensions":["antennae","legs"],"bee_group":{"antennae":"B","wings":"X","pattern":"X","legs":"F"},"bonus":1.3000000000000007},{"rt":150,"stimulus"