[{"success":true,"trial_type":"fullscreen","trial_index":0,"time_elapsed":10777,"internal_node_id":"0.0-0.0","subject_id":"60553b36cb4eb3269931ed21","study_id":"6197b3f67c2b5cd3b6d9596a","session_id":"6197b88c2f15821b55ea5bbf","condition":"full-information","relevant_dimensions":["antennae","pattern"],"bee_group":{"antennae":"A","wings":"X","pattern":"D","legs":"X"},"bonus":1.020000000000001},{"success":true,"timeout":false,"failed_images":[],"failed_audio":[],"failed_video":[],"trial_type":"preload","trial_index":1,"time_elapsed":12268,"internal_node_id":"0.0-1.0","subject_id":"60553b36cb4eb3269931ed21","study_id":"6197b3f67c2b5cd3b6d9596a","session_id":"6197b88c2f15821b55ea5bbf","condition":"full-information","relevant_dimensions":["antennae","pattern"],"bee_group":{"antennae":"A","wings":"X","pattern":"D","legs":"X"},"bonus":1.020000000000001},{"rt":2370.7999999523163,"stimulus":"Welcome! Press any key to begin.","response":"a","trial_type":"html-keyboard-response","trial_index":2,"time_elapsed":14640,"internal_node_id":"0.0-2.0","subject_id":"60553b36cb4eb3269931ed21","study_id":"6197b3f67c2b5cd3b6d9596a","session_id":"6197b88c2f15821b55ea5bbf","condition":"full-information","relevant_dimensions":["antennae","pattern"],"bee_group":{"antennae":"A","wings":"X","pattern":"D","legs":"X"},"bonus":1.020000000000001},{"view_history":[{"page_index":0,"viewing_time":3689.399999976158},{"page_index":1,"viewing_time":9257.300000071526},{"page_index":2,"viewing_time":12957.799999952316},{"page_index":3,"viewing_time":12458.299999952316},{"page_index":4,"viewing_time":6635},{"page_index":5,"viewing_time":10045.900000095367},{"page_index":6,"viewing_time":5849.199999928474},{"page_index":7,"viewing_time":7333.700000047684},{"page_index":8,"viewing_time":3080},{"page_index":9,"viewing_time":4533},{"page_index":10,"viewing_time":3255},{"page_index":11,"viewing_time":10297.899999976158},{"page_index":12,"viewing_time":17052.399999976158},{"page_index":13,"viewing_time":1064.8000000715256},{"page_index":14,"viewing_time":2770.899999976158}],"rt":110280.79999995232,"trial_type":"instructions","trial_index":3,"time_elapsed":124921,"internal_node_id":"0.0-3.0-0.0","subject_id":"60553b36cb4eb3269931ed21","study_id":"6197b3f67c2b5cd3b6d9596a","session_id":"6197b88c2f15821b55ea5bbf","condition":"full-information","relevant_dimensions":["antennae","pattern"],"bee_group":{"antennae":"A","wings":"X","pattern":"D","legs":"X"},"bonus":1.020000000000001},{"rt":27291.200000047684,"response":{"Q0":["Two or six legs","Stripes or spots on body","Single or double wings","Antennae or no antennae"]},"question_order":[0],"trial_type":"survey-multi-select","trial_index":4,"time_elapsed":152214,"internal_node_id":"0.0-3.0-1.0","subject_id":"60553b36cb4eb3269931ed21","study_id":"6197b3f67c2b5cd3b6d9596a","session_id":"6197b88c2f15821b55ea5bbf","condition":"full-information","relevant_dimensions":["antennae","pattern"],"bee_group":{"antennae":"A","wings":"X","pattern":"D","legs":"X"},"correct":true,"bonus":1.020000000000001},{"rt":35593.39999997616,"response":{"Q1":"No.","Q2":"Based on the four features of the bee.","Q3":"You learn if it was friendly or dangerous, but do not alter your bonus."},"question_order":[0,1,2],"trial_type":"survey-multi-choice","trial_index":5,"time_elapsed":187811,"internal_node_id":"0.0-3.0-2.0","subject_id":"60553b36cb4eb3269931ed21","study_id":"6197b3f67c2b5cd3b6d9596a","session_id":"6197b88c2f15821b55ea5bbf","condition":"full-information","relevant_dimensions":["antennae","pattern"],"bee_group":{"antennae":"A","wings":"X","pattern":"D","legs":"X"},"correct":true,"bonus":1.020000000000001},{"rt":4538.399999976158,"stimulus":"<p>Congrats, you got everything right<br>When you're ready, click the button below to continue to the experiment.</p>","response":0,"trial_type":"html-button-response","trial_index":6,"time_elapsed":192353,"internal_node_id":"0.0-3.0-3.0","subject_id":"60553b36cb4eb3269931ed21","study_id":"6197b3f67c2b5cd3b6d9596a","session_id":"6197b88c2f15821b55ea5bbf","condition":"full-information","relevant_dimensions":["antennae","pattern"],"bee_group":{"antennae":"A","wings":"X","pattern":"D","legs":"X"},"bonus":1.020000000000001},{"rt":4572,"stimulus":"bees-with-color/bee-A2DM.svg","response":1,"trial_type":"image-button-response","trial_index":7,"time_elapsed":196927,"internal_node_id":"0.0-4.0-0.0","subject_id":"60553b36cb4eb3269931ed21","study_id":"6197b3f67c2b5cd3b6d9596a","session_id":"6197b88c2f15821b55ea5bbf","condition":"full-information","relevant_dimensions":["antennae","pattern"],"bee_group":{"antennae":"A","wings":"X","pattern":"D","legs":"X"},"action":"avoid","summary":"good-avoid","bonus":1.020000000000001},{"rt":10959,"stimulus":"\n                    <p><b>Action: <em>avoid</em></b></p>\n                    <p>This is the bee that you just saw.</p>\n                    <img src=\"bees-with-color/bee-A2DM.svg\" width=\"200\">\n                    <p><span class=\"greenText\">Good choice!</span>  This bee would have stung you.<br>Your bonus pay is unchanged, and remains at $0.54.</p>\n            ","response":0,"trial_type":"html-button-response","trial_index":8,"time_elapsed":207888,"internal_node_id":"0.0-4.0-1.0","subject_id":"60553b36cb4eb3269931ed21","study_id":"6197b3f67c2b5cd3b6d9596a","session_id":"6197b88c2f15821b55ea5bbf","condition":"full-information","relevant_dimensions":["antennae","pattern"],"bee_group":{"antennae":"A","wings":"X","pattern":"D","legs":"X"},"bonus":1.020000000000001},{"rt":3040.399999976158,"stimulus":"bees-with-color/bee-A1SF.svg","response":0,"trial_type":"image-button-response","trial_index":9,"time_elapsed":210929,"internal_node_id":"0.0-4.0-0.1","subject_id":"60553b36cb4eb3269931ed21","study_id":"6197b3f67c2b5cd3b6d9596a","session_id":"6197b88c2f15821b55ea5bbf","condition":"full-information","relevant_dimensions":["antennae","pattern"],"bee_group":{"antennae":"A","wings":"X","pattern":"D","legs":"X"},"action":"harvest","summary":"good-harvest","bonus":1.020000000000001},{"rt":3788.600000023842,"stimulus":"\n                    <p><b>Action: <em>harvest</em></b></p>\n                    <p>This is the bee that you just saw.</p>\n                    <img src=\"bees-with-color/bee-A1SF.svg\" width=\"200\">\n                    <p><span class=\"greenText\"><b>Successful harvest!</b></span><br>Your pay has increased by $0.02. Your bonus pay is now $0.56.</p>\n            ","response":0,"trial_type":"html-button-response","trial_index":10,"time_elapsed":214719,"internal_node_id":"0.0-4.0-1.1","subject_id":"60553b36cb4eb3269931ed21","study_id":"6197b3f67c2b5cd3b6d9596a","session_id":"6197b88c2f15821b55ea5bbf","condition":"full-information","relevant_dimensions":["antennae","pattern"],"bee_group":{"antennae":"A","wings":"X","pattern":"D","legs":"X"},"bonus":1.020000000000001},{"rt":3889.8000000715256,"stimulus":"bees-with-color/bee-B1SF.svg","response":0,"trial_type":"image-button-response","trial_index":11,"time_elapsed":218611,"internal_node_id":"0.0-4.0-0.2","subject_id":"60553b36cb4eb3269931ed21","study_id":"6197b3f67c2b5cd3b6d9596a","session_id":"6197b88c2f15821b55ea5bbf","condition":"full-information","relevant_dimensions":["antennae","pattern"],"bee_group":{"antennae":"A","wings":"X","pattern":"D","legs":"X"},"action":"harvest","summary":"good-harvest","bonus":1.020000000000001},{"rt":1339.3999999761581,"stimulus":"\n                    <p><b>Action: <em>harvest</em></b></p>\n                    <p>This is the bee that you just saw.</p>\n                    <img src=\"bees-with-color/bee-B1SF.svg\" width=\"200\">\n                    <p><span class=\"greenText\"><b>Successful harvest!</b></span><br>Your pay has increased by $0.02. Your bonus pay is now $0.58.</p>\n            ","response":0,"trial_type":"html-button-response","trial_index":12,"time_elapsed":219952,"internal_node_id":"0.0-4.0-1.2","subject_id":"60553b36cb4eb3269931ed21","study_id":"6197b3f67c2b5cd3b6d9596a","session_id":"6197b88c2f15821b55ea5bbf","condition":"full-information","relevant_dimensions":["antennae","pattern"],"bee_group":{"antennae":"A","wings":"X","pattern":"D","legs":"X"},"bonus":1.020000000000001},{"rt":2256.7000000476837,"stimulus":"bees-with-color/bee-B1DF.svg","response":1,"trial_type":"image-button-response","trial_index":13,"time_elapsed":222210,"internal_node_id":"0.0-4.0-0.3","subject_id":"60553b36cb4eb3269931ed21","study_id":"6197b3f67c2b5cd3b6d9596a","session_id":"6197b88c2f15821b55ea5bbf","condition":"full-information","relevant_dimensions":["antennae","pattern"],"bee_group":{"antennae":"A","wings":"X","pattern":"D","legs":"X"},"action":"avoid","summary":"bad-avoid","bonus":1.020000000000001},{"rt":7932.700000047684,"stimulus":"\n                    <p><b>Action: <em>avoid</em></b></p>\n                    <p>This is the bee that you just saw.</p>\n                    <img src=\"bees-with-color/bee-B1DF.svg\" width=\"200\">\n                    <p><span class=\"redText\">Bad choice,</span> the bee was friendly.<br>Your bonus pay is unchanged, and remains at $0.58.</p>\n            ","response":0,"trial_type":"html-button-response","trial_index":14,"time_elapsed":230144,"internal_node_id":"0.0-4.0-1.3","subject_id":"60553b36cb4eb3269931ed21","study_id":"6197b3f67c2b5cd3b6d9596a","session_id":"6197b88c2f15821b55ea5bbf","condition":"full-information","relevant_dimensions":["antennae","pattern"],"bee_group":{"antennae":"A","wings":"X","pattern":"D","legs":"X"},"bonus":1.020000000000001},{"rt":2355.100000023842,"stimulus":"bees-with-color/bee-B2DM.svg","response":1,"trial_type":"image-button-response","trial_index":15,"time_elapsed":232501,"internal_node_id":"0.0-4.0-0.4","subject_id":"60553b36cb4eb3269931ed21","study_id":"6197b3f67c2b5cd3b6d9596a","session_id":"6197b88c2f15821b55ea5bbf","condition":"full-information","relevant_dimensions":["antennae","pattern"],"bee_group":{"antennae":"A","wings":"X","pattern":"D","legs":"X"},"action":"avoid","summary":"bad-avoid","bonus":1.020000000000001},{"rt":5222,"stimulus":"\n                    <p><b>Action: <em>avoid</em></b></p>\n                    <p>This is the bee that you just saw.</p>\n                    <img src=\"bees-with-color/bee-B2DM.svg\" width=\"200\">\n                    <p><span class=\"redText\">Bad choice,</span> the bee was friendly.<br>Your bonus pay is unchanged, and remains at $0.58.</p>\n            ","response":0,"trial_type":"html-button-response","trial_index":16,"time_elapsed":237724,"internal_node_id":"0.0-4.0-1.4","subject_id":"60553b36cb4eb3269931ed21","study_id":"6197b3f67c2b5cd3b6d9596a","session_id":"6197b88c2f15821b55ea5bbf","condition":"full-information","relevant_dimensions":["antennae","pattern"],"bee_group":{"antennae":"A","wings":"X","pattern":"D","legs":"X"},"bonus":1.020000000000001},{"rt":2360.5,"stimulus":"bees-with-color/bee-B2SM.svg","response":0,"trial_type":"image-button-response","trial_index":17,"time_elapsed":240086,"internal_node_id":"0.0-4.0-0.5","subject_id":"60553b36cb4eb3269931ed21","study_id":"6197b3f67c2b5cd3b6d9596a","session_id":"6197b88c2f15821b55ea5bbf","condition":"full-information","relevant_dimensions":["antennae","pattern"],"bee_group":{"antennae":"A","wings":"X","pattern":"D","legs":"X"},"action":"harvest","summary":"good-harvest","bonus":1.020000000000001},{"rt":1843.6999999284744,"stimulus":"\n                    <p><b>Action: <em>harvest</em></b></p>\n                    <p>This is the bee that you just saw.</p>\n                    <img src=\"bees-with-color/bee-B2SM.svg\" width=\"200\">\n                    <p><span class=\"greenText\"><b>Successful harvest!</b></span><br>Your pay has increased by $0.02. Your bonus pay is now $0.60.</p>\n            ","response":0,"trial_type":"html-button-response","trial_index":18,"time_elapsed":241930,"internal_node_id":"0.0-4.0-1.5","subject_id":"60553b36cb4eb3269931ed21","study_id":"6197b3f67c2b5cd3b6d9596a","session_id":"6197b88c2f15821b55ea5bbf","condition":"full-information","relevant_dimensions":["antennae","pattern"],"bee_group":{"antennae":"A","wings":"X","pattern":"D","legs":"X"},"bonus":1.020000000000001},{"rt":5063.799999952316,"stimulus":"bees-with-color/bee-A2DF.svg","response":1,"trial_type":"image-button-response","trial_index":19,"time_elapsed":246995,"internal_node_id":"0.0-4.0-0.6","subject_id":"60553b36cb4eb3269931ed21","study_id":"6197b3f67c2b5cd3b6d9596a","session_id":"6197b88c2f15821b55ea5bbf","condition":"full-information","relevant_dimensions":["antennae","pattern"],"bee_group":{"antennae":"A","wings":"X","pattern":"D","legs":"X"},"action":"avoid","summary":"good-avoid","bonus":1.020000000000001},{"rt":7932.699999928474,"stimulus":"\n                    <p><b>Action: <em>avoid</em></b></p>\n                    <p>This is the bee that you just saw.</p>\n                    <img src=\"bees-with-color/bee-A2DF.svg\" width=\"200\">\n                    <p><span class=\"greenText\">Good choice!</span>  This bee would have stung you.<br>Your bonus pay is unchanged, and remains at $0.60.</p>\n            ","response":0,"trial_type":"html-button-response","trial_index":20,"time_elapsed":254929,"internal_node_id":"0.0-4.0-1.6","subject_id":"60553b36cb4eb3269931ed21","study_id":"6197b3f67c2b5cd3b6d9596a","session_id":"6197b88c2f15821b55ea5bbf","condition":"full-information","relevant_dimensions":["antennae","pattern"],"bee_group":{"antennae":"A","wings":"X","pattern":"D","legs":"X"},"bonus":1.020000000000001},{"rt":2681.7999999523163,"stimulus":"bees-with-color/bee-A2SF.svg","response":0,"trial_type":"image-button-response","trial_index":21,"time_elapsed":257612,"internal_node_id":"0.0-4.0-0.7","subject_id":"60553b36cb4eb3269931ed21","study_id":"6197b3f67c2b5cd3b6d9596a","session_id":"6197b88c2f15821b55ea5bbf","condition":"full-information","relevant_dimensions":["antennae","pattern"],"bee_group":{"antennae":"A","wings":"X","pattern":"D","legs":"X"},"action":"harvest","summary":"good-harvest","bonus":1.020000000000001},{"rt":1760,"stimulus":"\n                    <p><b>Action: <em>harvest</em></b></p>\n                    <p>This is the bee that you just saw.</p>\n                    <img src=\"bees-with-color/bee-A2SF.svg\" width=\"200\">\n                    <p><span class=\"greenText\"><b>Successful harvest!</b></span><br>Your pay has increased by $0.02. Your bonus pay is now $0.62.</p>\n            ","response":0,"trial_type":"html-button-response","trial_index":22,"time_elapsed":259373,"internal_node_id":"0.0-4.0-1.7","subject_id":"60553b36cb4eb3269931ed21","study_id":"6197b3f67c2b5cd3b6d9596a","session_id":"6197b88c2f15821b55ea5bbf","condition":"full-information","relevant_dimensions":["antennae","pattern"],"bee_group":{"antennae":"A","wings":"X","pattern":"D","legs":"X"},"bonus":1.020000000000001},{"rt":3253.100000023842,"stimulus":"bees-with-color/bee-B1SM.svg","response":0,"trial_type":"image-button-response","trial_index":23,"time_elapsed":262628,"internal_node_id":"0.0-4.0-0.8","subject_id":"60553b36cb4eb3269931ed21","study_id":"6197b3f67c2b5cd3b6d9596a","session_id":"6197b88c2f15821b55ea5bbf","condition":"full-information","relevant_dimensions":["antennae","pattern"],"bee_group":{"antennae":"A","wings":"X","pattern":"D","legs":"X"},"action":"harvest","summary":"good-harvest","bonus":1.020000000000001},{"rt":1953,"stimulus":"\n                    <p><b>Action: <em>harvest</em></b></p>\n                    <p>This is the bee that you just saw.</p>\n                    <img src=\"bees-with-color/bee-B1SM.svg\" width=\"200\">\n                    <p><span class=\"greenText\"><b>Successful harvest!</b></span><br>Your pay has increased by $0.02. Your bonus pay is now $0.64.</p>\n            ","response":0,"trial_type":"html-button-response","trial_index":24,"time_elapsed":264582,"internal_node_id":"0.0-4.0-1.8","subject_id":"60553b36cb4eb3269931ed21","study_id":"6197b3f67c2b5cd3b6d9596a","session_id":"6197b88c2f15821b55ea5bbf","condition":"full-information","relevant_dimensions":["antennae","pattern"],"bee_group":{"antennae":"A","wings":"X","pattern":"D","legs":"X"},"bonus":1.020000000000001},{"rt":6459.799999952316,"stimulus":"bees-with-color/bee-A1DF.svg","response":1,"trial_type":"image-button-response","trial_index":25,"time_elapsed":271043,"internal_node_id":"0.0-4.0-0.9","subject_id":"60553b36cb4eb3269931ed21","study_id":"6197b3f67c2b5cd3b6d9596a","session_id":"6197b88c2f15821b55ea5bbf","condition":"full-information","relevant_dimensions":["antennae","pattern"],"bee_group":{"antennae":"A","wings":"X","pattern":"D","legs":"X"},"action":"avoid","summary":"good-avoid","bonus":1.020000000000001},{"rt":2749.5,"stimulus":"\n                    <p><b>Action: <em>avoid</em></b></p>\n                    <p>This is the bee that you just saw.</p>\n                    <img src=\"bees-with-color/bee-A1DF.svg\" width=\"200\">\n                    <p><span class=\"greenText\">Good choice!</span>  This bee would have stung you.<br>Your bonus pay is unchanged, and remains at $0.64.</p>\n            ","response":0,"trial_type":"html-button-response","trial_index":26,"time_elapsed":273794,"internal_node_id":"0.0-4.0-1.9","subject_id":"60553b36cb4eb3269931ed21","study_id":"6197b3f67c2b5cd3b6d9596a","session_id":"6197b88c2f15821b55ea5bbf","condition":"full-information","relevant_dimensions":["antennae","pattern"],"bee_group":{"antennae":"A","wings":"X","pattern":"D","legs":"X"},"bonus":1.020000000000001},{"rt":1899.5,"stimulus":"bees-with-color/bee-A1SM.svg","response":0,"trial_type":"image-button-response","trial_index":27,"time_elapsed":275695,"internal_node_id":"0.0-4.0-0.10","subject_id":"60553b36cb4eb3269931ed21","study_id":"6197b3f67c2b5cd3b6d9596a","session_id":"6197b88c2f15821b55ea5bbf","condition":"full-information","relevant_dimensions":["antennae","pattern"],"bee_group":{"antennae":"A","wings":"X","pattern":"D","legs":"X"},"action":"harvest","summary":"good-harvest","bonus":1.020000000000001},{"rt":1820.7999999523163,"stimulus":"\n                    <p><b>Action: <em>harvest</em></b></p>\n                    <p>This is the bee that you just saw.</p>\n                    <img src=\"bees-with-color/bee-A1SM.svg\" width=\"200\">\n                    <p><span class=\"greenText\"><b>Successful harvest!</b></span><br>Your pay has increased by $0.02. Your bonus pay is now $0.66.</p>\n            ","response":0,"trial_type":"html-button-response","trial_index":28,"time_elapsed":277517,"internal_node_id":"0.0-4.0-1.10","subject_id":"60553b36cb4eb3269931ed21","study_id":"6197b3f67c2b5cd3b6d9596a","session_id":"6197b88c2f15821b55ea5bbf","condition":"full-information","relevant_dimensions":["antennae","pattern"],"bee_group":{"antennae":"A","wings":"X","pattern":"D","legs":"X"},"bonus":1.020000000000001},{"rt":2662,"stimulus":"bees-with-color/bee-B2DF.svg","response":1,"trial_type":"image-button-response","trial_index":29,"time_elapsed":280180,"internal_node_id":"0.0-4.0-0.11","subject_id":"60553b36cb4eb3269931ed21","study_id":"6197b3f67c2b5cd3b6d9596a","session_id":"6197b88c2f15821b55ea5bbf","condition":"full-information","relevant_dimensions":["antennae","pattern"],"bee_group":{"antennae":"A","wings":"X","pattern":"D","legs":"X"},"action":"avoid","summary":"bad-avoid","bonus":1.020000000000001},{"rt":3768.899999976158,"stimulus":"\n                    <p><b>Action: <em>avoid</em></b></p>\n                    <p>This is the bee that you just saw.</p>\n                    <img src=\"bees-with-color/bee-B2DF.svg\" width=\"200\">\n                    <p><span class=\"redText\">Bad choice,</span> the bee was friendly.<br>Your bonus pay is unchanged, and remains at $0.66.</p>\n            ","response":0,"trial_type":"html-button-response","trial_index":30,"time_elapsed":283950,"internal_node_id":"0.0-4.0-1.11","subject_id":"60553b36cb4eb3269931ed21","study_id":"6197b3f67c2b5cd3b6d9596a","session_id":"6197b88c2f15821b55ea5bbf","condition":"full-information","relevant_dimensions":["antennae","pattern"],"bee_group":{"antennae":"A","wings":"X","pattern":"D","legs":"X"},"bonus":1.020000000000001},{"rt":2861.7999999523163,"stimulus":"bees-with-color/bee-A1DM.svg","response":1,"trial_type":"image-button-response","trial_index":31,"time_elapsed":286813,"internal_node_id":"0.0-4.0-0.12","subject_id":"60553b36cb4eb3269931ed21","study_id":"6197b3f67c2b5cd3b6d9596a","session_id":"6197b88c2f15821b55ea5bbf","condition":"full-information","relevant_dimensions":["antennae","pattern"],"bee_group":{"antennae":"A","wings":"X","pattern":"D","legs":"X"},"action":"avoid","summary":"good-avoid","bonus":1.020000000000001},{"rt":2515.6999999284744,"stimulus":"\n                    <p><b>Action: <em>avoid</em></b></p>\n                    <p>This is the bee that you just saw.</p>\n                    <img src=\"bees-with-color/bee-A1DM.svg\" width=\"200\">\n                    <p><span class=\"greenText\">Good choice!</span>  This bee would have stung you.<br>Your bonus pay is unchanged, and remains at $0.66.</p>\n            ","response":0,"trial_type":"html-button-response","trial_index":32,"time_elapsed":289330,"internal_node_id":"0.0-4.0-1.12","subject_id":"60553b36cb4eb3269931ed21","study_id":"6197b3f67c2b5cd3b6d9596a","session_id":"6197b88c2f15821b55ea5bbf","condition":"full-information","relevant_dimensions":["antennae","pattern"],"bee_group":{"antennae":"A","wings":"X","pattern":"D","legs":"X"},"bonus":1.020000000000001},{"rt":1970.7999999523163,"stimulus":"bees-with-color/bee-B1DM.svg","response":1,"trial_type":"image-button-response","trial_index":33,"time_elapsed":291302,"internal_node_id":"0.0-4.0-0.13","subject_id":"60553b36cb4eb3269931ed21","study_id":"6197b3f67c2b5cd3b6d9596a","session_id":"6197b88c2f15821b55ea5bbf","condition":"full-information","relevant_dimensions":["antennae","pattern"],"bee_group":{"antennae":"A","wings":"X","pattern":"D","legs":"X"},"action":"avoid","summary":"bad-avoid","bonus":1.020000000000001},{"rt":1552.7999999523163,"stimulus":"\n                    <p><b>Action: <em>avoid</em></b></p>\n                    <p>This is the bee that you just saw.</p>\n                    <img src=\"bees-with-color/bee-B1DM.svg\" width=\"200\">\n                    <p><span class=\"redText\">Bad choice,</span> the bee was friendly.<br>Your bonus pay is unchanged, and remains at $0.66.</p>\n            ","response":0,"trial_type":"html-button-response","trial_index":34,"time_elapsed":292856,"internal_node_id":"0.0-4.0-1.13","subject_id":"60553b36cb4eb3269931ed21","study_id":"6197b3f67c2b5cd3b6d9596a","session_id":"6197b88c2f15821b55ea5bbf","condition":"full-information","relevant_dimensions":["antennae","pattern"],"bee_group":{"antennae":"A","wings":"X","pattern":"D","legs":"X"},"bonus":1.020000000000001},{"rt":2856.6999999284744,"stimulus":"bees-with-color/bee-A2SM.svg","response":0,"trial_type":"image-button-response","trial_index":35,"time_elapsed":295714,"internal_node_id":"0.0-4.0-0.14","subject_id":"60553b36cb4eb3269931ed21","study_id":"6197b3f67c2b5cd3b6d9596a","session_id":"6197b88c2f15821b55ea5bbf","condition":"full-information","relevant_dimensions":["antennae","pattern"],"bee_group":{"antennae":"A","wings":"X","pattern":"D","legs":"X"},"action":"harvest","summary":"good-harvest","bonus":1.020000000000001},{"rt":1862.1000000238419,"stimulus":"\n                    <p><b>Action: <em>harvest</em></b></p>\n                    <p>This is the bee that you just saw.</p>\n                    <img src=\"bees-with-color/bee-A2SM.svg\" width=\"200\">\n                    <p><span class=\"greenText\"><b>Successful harvest!</b></span><br>Your pay has increased by $0.02. Your bonus pay is now $0.68.</p>\n            ","response":0,"trial_type":"html-button-response","trial_index":36,"time_elapsed":297577,"internal_node_id":"0.0-4.0-1.14","subject_id":"60553b36cb4eb3269931ed21","study_id":"6197b3f67c2b5cd3b6d9596a","session_id":"6197b88c2f15821b55ea5bbf","condition":"full-information","relevant_dimensions":["antennae","pattern"],"bee_group":{"antennae":"A","wings":"X","pattern":"D","legs":"X"},"bonus":1.020000000000001},{"rt":1956.8999999761581,"stimulus":"bees-with-color/bee-B2SF.svg","response":0,"trial_type":"image-button-response","trial_index":37,"time_elapsed":299535,"internal_node_id":"0.0-4.0-0.15","subject_id":"60553b36cb4eb3269931ed21","study_id":"6197b3f67c2b5cd3b6d9596a","session_id":"6197b88c2f15821b55ea5bbf","condition":"full-information","relevant_dimensions":["antennae","pattern"],"bee_group":{"antennae":"A","wings":"X","pattern":"D","legs":"X"},"action":"harvest","summary":"good-harvest","bonus":1.020000000000001},{"rt":1070,"stimulus":"\n                    <p><b>Action: <em>harvest</em></b></p>\n                    <p>This is the bee that you just saw.</p>\n                    <img src=\"bees-with-color/bee-B2SF.svg\" width=\"200\">\n                    <p><span class=\"greenText\"><b>Successful harvest!</b></span><br>Your pay has increased by $0.02. Your bonus pay is now $0.70.</p>\n            ","response":0,"trial_type":"html-button-response","trial_index":38,"time_elapsed":300606,"internal_node_id":"0.0-4.0-1.15","subject_id":"60553b36cb4eb3269931ed21","study_id":"6197b3f67c2b5cd3b6d9596a","session_id":"6197b88c2f15821b55ea5bbf","condition":"full-information","relevant_dimensions":["antennae","pattern"],"bee_group":{"antennae":"A","wings":"X","pattern":"D","legs":"X"},"bonus":1.020000000000001},{"rt":3498.899999976158,"stimulus":"bees-with-color/bee-B2SF.svg","response":0,"trial_type":"image-button-response","trial_index":39,"time_elapsed":304106,"internal_node_id":"0.0-4.0-0.16","subject_id":"60553b36cb4eb3269931ed21","study_id":"6197b3f67c2b5cd3b6d9596a","session_id":"6197b88c2f15821b55ea5bbf","condition":"full-information","relevant_dimensions":["antennae","pattern"],"bee_group":{"antennae":"A","wings":"X","pattern":"D","legs":"X"},"action":"harvest","summary":"good-harvest","bonus":1.020000000000001},{"rt":1032,"stimulus":"\n                    <p><b>Action: <em>harvest</em></b></p>\n                    <p>This is the bee that you just saw.</p>\n                    <img src=\"bees-with-color/bee-B2SF.svg\" width=\"200\">\n                    <p><span class=\"greenText\"><b>Successful harvest!</b></span><br>Your pay has increased by $0.02. Your bonus pay is now $0.72.</p>\n            ","response":0,"trial_type":"html-button-response","trial_index":40,"time_elapsed":305139,"internal_node_id":"0.0-4.0-1.16","subject_id":"60553b36cb4eb3269931ed21","study_id":"6197b3f67c2b5cd3b6d9596a","session_id":"6197b88c2f15821b55ea5bbf","condition":"full-information","relevant_dimensions":["antennae","pattern"],"bee_group":{"antennae":"A","wings":"X","pattern":"D","legs":"X"},"bonus":1.020000000000001},{"rt":2283.7999999523163,"stimulus":"bees-with-color/bee-A1SF.svg","response":0,"trial_type":"image-button-response","trial_index":41,"time_elapsed":307425,"internal_node_id":"0.0-4.0-0.17","subject_id":"60553b36cb4eb3269931ed21","study_id":"6197b3f67c2b5cd3b6d9596a","session_id":"6197b88c2f15821b55ea5bbf","condition":"full-information","relevant_dimensions":["antennae","pattern"],"bee_group":{"antennae":"A","wings":"X","pattern":"D","legs":"X"},"action":"harvest","summary":"good-harvest","bonus":1.020000000000001},{"rt":1008.1000000238419,"stimulus":"\n                    <p><b>Action: <em>harvest</em></b></p>\n                    <p>This is the bee that you just saw.</p>\n                    <img src=\"bees-with-color/bee-A1SF.svg\" width=\"200\">\n                    <p><span class=\"greenText\"><b>Successful harvest!</b></span><br>Your pay has increased by $0.02. Your bonus pay is now $0.74.</p>\n            ","response":0,"trial_type":"html-button-response","trial_index":42,"time_elapsed":308434,"internal_node_id":"0.0-4.0-1.17","subject_id":"60553b36cb4eb3269931ed21","study_id":"6197b3f67c2b5cd3b6d9596a","session_id":"6197b88c2f15821b55ea5bbf","condition":"full-information","relevant_dimensions":["antennae","pattern"],"bee_group":{"antennae":"A","wings":"X","pattern":"D","legs":"X"},"bonus":1.020000000000001},{"rt":2742.7999999523163,"stimulus":"bees-with-color/bee-B1DF.svg","response":1,"trial_type":"image-button-response","trial_index":43,"time_elapsed":311178,"internal_node_id":"0.0-4.0-0.18","subject_id":"60553b36cb4eb3269931ed21","study_id":"6197b3f67c2b5cd3b6d9596a","session_id":"6197b88c2f15821b55ea5bbf","condition":"full-information","relevant_dimensions":["antennae","pattern"],"bee_group":{"antennae":"A","wings":"X","pattern":"D","legs":"X"},"action":"avoid","summary":"bad-avoid","bonus":1.020000000000001},{"rt":1301.0999999046326,"stimulus":"\n                    <p><b>Action: <em>avoid</em></b></p>\n                    <p>This is the bee that you just saw.</p>\n                    <img src=\"bees-with-color/bee-B1DF.svg\" width=\"200\">\n                    <p><span class=\"redText\">Bad choice,</span> the bee was friendly.<br>Your bonus pay is unchanged, and remains at $0.74.</p>\n            ","response":0,"trial_type":"html-button-response","trial_index":44,"time_elapsed":312480,"internal_node_id":"0.0-4.0-1.18","subject_id":"60553b36cb4eb3269931ed21","study_id":"6197b3f67c2b5cd3b6d9596a","session_id":"6197b88c2f15821b55ea5bbf","condition":"full-information","relevant_dimensions":["antennae","pattern"],"bee_group":{"antennae":"A","wings":"X","pattern":"D","legs":"X"},"bonus":1.020000000000001},{"rt":2250.7999999523163,"stimulus":"bees-with-color/bee-A2DF.svg","response":1,"trial_type":"image-button-response","trial_index":45,"time_elapsed":314732,"internal_node_id":"0.0-4.0-0.19","subject_id":"60553b36cb4eb3269931ed21","study_id":"6197b3f67c2b5cd3b6d9596a","session_id":"6197b88c2f15821b55ea5bbf","condition":"full-information","relevant_dimensions":["antennae","pattern"],"bee_group":{"antennae":"A","wings":"X","pattern":"D","legs":"X"},"action":"avoid","summary":"good-avoid","bonus":1.020000000000001},{"rt":5450.100000023842,"stimulus":"\n                    <p><b>Action: <em>avoid</em></b></p>\n                    <p>This is the bee that you just saw.</p>\n                    <img src=\"bees-with-color/bee-A2DF.svg\" width=\"200\">\n                    <p><span class=\"greenText\">Good choice!</span>  This bee would have stung you.<br>Your bonus pay is unchanged, and remains at $0.74.</p>\n            ","response":0,"trial_type":"html-button-response","trial_index":46,"time_elapsed":320183,"internal_node_id":"0.0-4.0-1.19","subject_id":"60553b36cb4eb3269931ed21","study_id":"6197b3f67c2b5cd3b6d9596a","session_id":"6197b88c2f15821b55ea5bbf","condition":"full-information","relevant_dimensions":["antennae","pattern"],"bee_group":{"antennae":"A","wings":"X","pattern":"D","legs":"X"},"bonus":1.020000000000001},{"rt":2122.5,"stimulus":"bees-with-color/bee-B2DF.svg","response":1,"trial_type":"image-button-response","trial_index":47,"time_elapsed":322307,"internal_node_id":"0.0-4.0-0.20","subject_id":"60553b36cb4eb3269931ed21","study_id":"6197b3f67c2b5cd3b6d9596a","session_id":"6197b88c2f15821b55ea5bbf","condition":"full-information","relevant_dimensions":["antennae","pattern"],"bee_group":{"antennae":"A","wings":"X","pattern":"D","legs":"X"},"action":"avoid","summary":"bad-avoid","bonus":1.020000000000001},{"rt":2876,"stimulus":"\n                    <p><b>Action: <em>avoid</em></b></p>\n                    <p>This is the bee that you just saw.</p>\n                    <img src=\"bees-with-color/bee-B2DF.svg\" width=\"200\">\n                    <p><span class=\"redText\">Bad choice,</span> the bee was friendly.<br>Your bonus pay is unchanged, and remains at $0.74.</p>\n            ","response":0,"trial_type":"html-button-response","trial_index":48,"time_elapsed":325184,"internal_node_id":"0.0-4.0-1.20","subject_id":"60553b36cb4eb3269931ed21","study_id":"6197b3f67c2b5cd3b6d9596a","session_id":"6197b88c2f15821b55ea5bbf","condition":"full-information","relevant_dimensions":["antennae","pattern"],"bee_group":{"antennae":"A","wings":"X","pattern":"D","legs":"X"},"bonus":1.020000000000001},{"rt":1532.6999999284744,"stimulus":"bees-with-color/bee-B1SM.svg","response":0,"trial_type":"image-button-response","trial_index":49,"time_elapsed":326718,"internal_node_id":"0.0-4.0-0.21","subject_id":"60553b36cb4eb3269931ed21","study_id":"6197b3f67c2b5cd3b6d9596a","session_id":"6197b88c2f15821b55ea5bbf","condition":"full-information","relevant_dimensions":["antennae","pattern"],"bee_group":{"antennae":"A","wings":"X","pattern":"D","legs":"X"},"action":"harvest","summary":"good-harvest","bonus":1.020000000000001},{"rt":1399,"stimulus":"\n                    <p><b>Action: <em>harvest</em></b></p>\n                    <p>This is the bee that you just saw.</p>\n                    <img src=\"bees-with-color/bee-B1SM.svg\" width=\"200\">\n                    <p><span class=\"greenText\"><b>Successful harvest!</b></span><br>Your pay has increased by $0.02. Your bonus pay is now $0.76.</p>\n            ","response":0,"trial_type":"html-button-response","trial_index":50,"time_elapsed":328118,"internal_node_id":"0.0-4.0-1.21","subject_id":"60553b36cb4eb3269931ed21","study_id":"6197b3f67c2b5cd3b6d9596a","session_id":"6197b88c2f15821b55ea5bbf","condition":"full-information","relevant_dimensions":["antennae","pattern"],"bee_group":{"antennae":"A","wings":"X","pattern":"D","legs":"X"},"bonus":1.020000000000001},{"rt":3197.7999999523163,"stimulus":"bees-with-color/bee-B2DM.svg","response":1,"trial_type":"image-button-response","trial_index":51,"time_elapsed":331317,"internal_node_id":"0.0-4.0-0.22","subject_id":"60553b36cb4eb3269931ed21","study_id":"6197b3f67c2b5cd3b6d9596a","session_id":"6197b88c2f15821b55ea5bbf","condition":"full-information","relevant_dimensions":["antennae","pattern"],"bee_group":{"antennae":"A","wings":"X","pattern":"D","legs":"X"},"action":"avoid","summary":"bad-avoid","bonus":1.020000000000001},{"rt":1870.6000000238419,"stimulus":"\n                    <p><b>Action: <em>avoid</em></b></p>\n                    <p>This is the bee that you just saw.</p>\n                    <img src=\"bees-with-color/bee-B2DM.svg\" width=\"200\">\n                    <p><span class=\"redText\">Bad choice,</span> the bee was friendly.<br>Your bonus pay is unchanged, and remains at $0.76.</p>\n            ","response":0,"trial_type":"html-button-response","trial_index":52,"time_elapsed":333188,"internal_node_id":"0.0-4.0-1.22","subject_id":"60553b36cb4eb3269931ed21","study_id":"6197b3f67c2b5cd3b6d9596a","session_id":"6197b88c2f15821b55ea5bbf","condition":"full-information","relevant_dimensions":["antennae","pattern"],"bee_group":{"antennae":"A","wings":"X","pattern":"D","legs":"X"},"bonus":1.020000000000001},{"rt":2919,"stimulus":"bees-with-color/bee-A1DM.svg","response":0,"trial_type":"image-button-response","trial_index":53,"time_elapsed":336109,"internal_node_id":"0.0-4.0-0.23","subject_id":"60553b36cb4eb3269931ed21","study_id":"6197b3f67c2b5cd3b6d9596a","session_id":"6197b88c2f15821b55ea5bbf","condition":"full-information","relevant_dimensions":["antennae","pattern"],"bee_group":{"antennae":"A","wings":"X","pattern":"D","legs":"X"},"action":"harvest","summary":"bad-harvest","bonus":1.020000000000001},{"rt":8570.699999928474,"stimulus":"\n                    <p><b>Action: <em>harvest</em></b></p>\n                    <p>This is the bee that you just saw.</p>\n                    <img src=\"bees-with-color/bee-A1DM.svg\" width=\"200\">\n                    <p><span class=\"redText\">Bad choice, the bee was angry.</span><br><b>You have been stung!</b><br>Your pay has been decreased by $0.10. Your bonus pay is now $0.66.</p>\n            ","response":0,"trial_type":"html-button-response","trial_index":54,"time_elapsed":344681,"internal_node_id":"0.0-4.0-1.23","subject_id":"60553b36cb4eb3269931ed21","study_id":"6197b3f67c2b5cd3b6d9596a","session_id":"6197b88c2f15821b55ea5bbf","condition":"full-information","relevant_dimensions":["antennae","pattern"],"bee_group":{"antennae":"A","wings":"X","pattern":"D","legs":"X"},"bonus":1.020000000000001},{"rt":1734.5999999046326,"stimulus":"bees-with-color/bee-A1DF.svg","response":0,"trial_type":"image-button-response","trial_index":55,"time_elapsed":346417,"internal_node_id":"0.0-4.0-0.24","subject_id":"60553b36cb4eb3269931ed21","study_id":"6197b3f67c2b5cd3b6d9596a","session_id":"6197b88c2f15821b55ea5bbf","condition":"full-information","relevant_dimensions":["antennae","pattern"],"bee_group":{"antennae":"A","wings":"X","pattern":"D","legs":"X"},"action":"harvest","summary":"bad-harvest","bonus":1.020000000000001},{"rt":1380.1999999284744,"stimulus":"\n                    <p><b>Action: <em>harvest</em></b></p>\n                    <p>This is the bee that you just saw.</p>\n                    <img src=\"bees-with-color/bee-A1DF.svg\" width=\"200\">\n                    <p><span class=\"redText\">Bad choice, the bee was angry.</span><br><b>You have been stung!</b><br>Your pay has been decreased by $0.10. Your bonus pay is now $0.56.</p>\n            ","response":0,"trial_type":"html-button-response","trial_index":56,"time_elapsed":347798,"internal_node_id":"0.0-4.0-1.24","subject_id":"60553b36cb4eb3269931ed21","study_id":"6197b3f67c2b5cd3b6d9596a","session_id":"6197b88c2f15821b55ea5bbf","condition":"full-information","relevant_dimensions":["antennae","pattern"],"bee_group":{"antennae":"A","wings":"X","pattern":"D","legs":"X"},"bonus":1.020000000000001},{"rt":1437.1000000238419,"stimulus":"bees-with-color/bee-A1SM.svg","response":1,"trial_type":"image-button-response","trial_index":57,"time_elapsed":349236,"internal_node_id":"0.0-4.0-0.25","subject_id":"60553b36cb4eb3269931ed21","study_id":"6197b3f67c2b5cd3b6d9596a","session_id":"6197b88c2f15821b55ea5bbf","condition":"full-information","relevant_dimensions":["antennae","pattern"],"bee_group":{"antennae":"A","wings":"X","pattern":"D","legs":"X"},"action":"avoid","summary":"bad-avoid","bonus":1.020000000000001},{"rt":2553.899999976158,"stimulus":"\n                    <p><b>Action: <em>avoid</em></b></p>\n                    <p>This is the bee that you just saw.</p>\n                    <img src=\"bees-with-color/bee-A1SM.svg\" width=\"200\">\n                    <p><span class=\"redText\">Bad choice,</span> the bee was friendly.<br>Your bonus pay is unchanged, and remains at $0.56.</p>\n            ","response":0,"trial_type":"html-button-response","trial_index":58,"time_elapsed":351790,"internal_node_id":"0.0-4.0-1.25","subject_id":"60553b36cb4eb3269931ed21","study_id":"6197b3f67c2b5cd3b6d9596a","session_id":"6197b88c2f15821b55ea5bbf","condition":"full-information","relevant_dimensions":["antennae","pattern"],"bee_group":{"antennae":"A","wings":"X","pattern":"D","legs":"X"},"bonus":1.020000000000001},{"rt":3652,"stimulus":"bees-with-color/bee-B1DM.svg","response":1,"trial_type":"image-button-response","trial_index":59,"time_elapsed":355444,"internal_node_id":"0.0-4.0-0.26","subject_id":"60553b36cb4eb3269931ed21","study_id":"6197b3f67c2b5cd3b6d9596a","session_id":"6197b88c2f15821b55ea5bbf","condition":"full-information","relevant_dimensions":["antennae","pattern"],"bee_group":{"antennae":"A","wings":"X","pattern":"D","legs":"X"},"action":"avoid","summary":"bad-avoid","bonus":1.020000000000001},{"rt":2390,"stimulus":"\n                    <p><b>Action: <em>avoid</em></b></p>\n                    <p>This is the bee that you just saw.</p>\n                    <img src=\"bees-with-color/bee-B1DM.svg\" width=\"200\">\n                    <p><span class=\"redText\">Bad choice,</span> the bee was friendly.<br>Your bonus pay is unchanged, and remains at $0.56.</p>\n            ","response":0,"trial_type":"html-button-response","trial_index":60,"time_elapsed":357835,"internal_node_id":"0.0-4.0-1.26","subject_id":"60553b36cb4eb3269931ed21","study_id":"6197b3f67c2b5cd3b6d9596a","session_id":"6197b88c2f15821b55ea5bbf","condition":"full-information","relevant_dimensions":["antennae","pattern"],"bee_group":{"antennae":"A","wings":"X","pattern":"D","legs":"X"},"bonus":1.020000000000001},{"rt":1491.7999999523163,"stimulus":"bees-with-color/bee-A2SF.svg","response":0,"trial_type":"image-button-response","trial_index":61,"time_elapsed":359328,"internal_node_id":"0.0-4.0-0.27","subject_id":"60553b36cb4eb3269931ed21","study_id":"6197b3f67c2b5cd3b6d9596a","session_id":"6197b88c2f15821b55ea5bbf","condition":"full-information","relevant_dimensions":["antennae","pattern"],"bee_group":{"antennae":"A","wings":"X","pattern":"D","legs":"X"},"action":"harvest","summary":"good-harvest","bonus":1.020000000000001},{"rt":1320.9000000953674,"stimulus":"\n                    <p><b>Action: <em>harvest</em></b></p>\n                    <p>This is the bee that you just saw.</p>\n                    <img src=\"bees-with-color/bee-A2SF.svg\" width=\"200\">\n                    <p><span class=\"greenText\"><b>Successful harvest!</b></span><br>Your pay has increased by $0.02. Your bonus pay is now $0.58.</p>\n            ","response":0,"trial_type":"html-button-response","trial_index":62,"time_elapsed":360650,"internal_node_id":"0.0-4.0-1.27","subject_id":"60553b36cb4eb3269931ed21","study_id":"6197b3f67c2b5cd3b6d9596a","session_id":"6197b88c2f15821b55ea5bbf","condition":"full-information","relevant_dimensions":["antennae","pattern"],"bee_group":{"antennae":"A","wings":"X","pattern":"D","legs":"X"},"bonus":1.020000000000001},{"rt":1573.1999999284744,"stimulus":"bees-with-color/bee-B1SF.svg","response":0,"trial_type":"image-button-response","trial_index":63,"time_elapsed":362224,"internal_node_id":"0.0-4.0-0.28","subject_id":"60553b36cb4eb3269931ed21","study_id":"6197b3f67c2b5cd3b6d9596a","session_id":"6197b88c2f15821b55ea5bbf","condition":"full-information","relevant_dimensions":["antennae","pattern"],"bee_group":{"antennae":"A","wings":"X","pattern":"D","legs":"X"},"action":"harvest","summary":"good-harvest","bonus":1.020000000000001},{"rt":966.3000000715256,"stimulus":"\n                    <p><b>Action: <em>harvest</em></b></p>\n                    <p>This is the bee that you just saw.</p>\n                    <img src=\"bees-with-color/bee-B1SF.svg\" width=\"200\">\n                    <p><span class=\"greenText\"><b>Successful harvest!</b></span><br>Your pay has increased by $0.02. Your bonus pay is now $0.60.</p>\n            ","response":0,"trial_type":"html-button-response","trial_index":64,"time_elapsed":363191,"internal_node_id":"0.0-4.0-1.28","subject_id":"60553b36cb4eb3269931ed21","study_id":"6197b3f67c2b5cd3b6d9596a","session_id":"6197b88c2f15821b55ea5bbf","condition":"full-information","relevant_dimensions":["antennae","pattern"],"bee_group":{"antennae":"A","wings":"X","pattern":"D","legs":"X"},"bonus":1.020000000000001},{"rt":3188.6999999284744,"stimulus":"bees-with-color/bee-A2DM.svg","response":1,"trial_type":"image-button-response","trial_index":65,"time_elapsed":366380,"internal_node_id":"0.0-4.0-0.29","subject_id":"60553b36cb4eb3269931ed21","study_id":"6197b3f67c2b5cd3b6d9596a","session_id":"6197b88c2f15821b55ea5bbf","condition":"full-information","relevant_dimensions":["antennae","pattern"],"bee_group":{"antennae":"A","wings":"X","pattern":"D","legs":"X"},"action":"avoid","summary":"good-avoid","bonus":1.020000000000001},{"rt":1913.1000000238419,"stimulus":"\n                    <p><b>Action: <em>avoid</em></b></p>\n                    <p>This is the bee that you just saw.</p>\n                    <img src=\"bees-with-color/bee-A2DM.svg\" width=\"200\">\n                    <p><span class=\"greenText\">Good choice!</span>  This bee would have stung you.<br>Your bonus pay is unchanged, and remains at $0.60.</p>\n            ","response":0,"trial_type":"html-button-response","trial_index":66,"time_elapsed":368294,"internal_node_id":"0.0-4.0-1.29","subject_id":"60553b36cb4eb3269931ed21","study_id":"6197b3f67c2b5cd3b6d9596a","session_id":"6197b88c2f15821b55ea5bbf","condition":"full-information","relevant_dimensions":["antennae","pattern"],"bee_group":{"antennae":"A","wings":"X","pattern":"D","legs":"X"},"bonus":1.020000000000001},{"rt":3361.899999976158,"stimulus":"bees-with-color/bee-B2SM.svg","response":0,"trial_type":"image-button-response","trial_index":67,"time_elapsed":371657,"internal_node_id":"0.0-4.0-0.30","subject_id":"60553b36cb4eb3269931ed21","study_id":"6197b3f67c2b5cd3b6d9596a","session_id":"6197b88c2f15821b55ea5bbf","condition":"full-information","relevant_dimensions":["antennae","pattern"],"bee_group":{"antennae":"A","wings":"X","pattern":"D","legs":"X"},"action":"harvest","summary":"good-harvest","bonus":1.020000000000001},{"rt":1048,"stimulus":"\n                    <p><b>Action: <em>harvest</em></b></p>\n                    <p>This is the bee that you just saw.</p>\n                    <img src=\"bees-with-color/bee-B2SM.svg\" width=\"200\">\n                    <p><span class=\"greenText\"><b>Successful harvest!</b></span><br>Your pay has increased by $0.02. Your bonus pay is now $0.62.</p>\n            ","response":0,"trial_type":"html-button-response","trial_index":68,"time_elapsed":372706,"internal_node_id":"0.0-4.0-1.30","subject_id":"60553b36cb4eb3269931ed21","study_id":"6197b3f67c2b5cd3b6d9596a","session_id":"6197b88c2f15821b55ea5bbf","condition":"full-information","relevant_dimensions":["antennae","pattern"],"bee_group":{"antennae":"A","wings":"X","pattern":"D","legs":"X"},"bonus":1.020000000000001},{"rt":3236.6999999284744,"stimulus":"bees-with-color/bee-A2SM.svg","response":0,"trial_type":"image-button-response","trial_index":69,"time_elapsed":375944,"internal_node_id":"0.0-4.0-0.31","subject_id":"60553b36cb4eb3269931ed21","study_id":"6197b3f67c2b5cd3b6d9596a","session_id":"6197b88c2f15821b55ea5bbf","condition":"full-information","relevant_dimensions":["antennae","pattern"],"bee_group":{"antennae":"A","wings":"X","pattern":"D","legs":"X"},"action":"harvest","summary":"good-harvest","bonus":1.020000000000001},{"rt":1141.2000000476837,"stimulus":"\n                    <p><b>Action: <em>harvest</em></b></p>\n                    <p>This is the bee that you just saw.</p>\n                    <img src=\"bees-with-color/bee-A2SM.svg\" width=\"200\">\n                    <p><span class=\"greenText\"><b>Successful harvest!</b></span><br>Your pay has increased by $0.02. Your bonus pay is now $0.64.</p>\n            ","response":0,"trial_type":"html-button-response","trial_index":70,"time_elapsed":377086,"internal_node_id":"0.0-4.0-1.31","subject_id":"60553b36cb4eb3269931ed21","study_id":"6197b3f67c2b5cd3b6d9596a","session_id":"6197b88c2f15821b55ea5bbf","condition":"full-information","relevant_dimensions":["antennae","pattern"],"bee_group":{"antennae":"A","wings":"X","pattern":"D","legs":"X"},"bonus":1.020000000000001},{"rt":2614,"stimulus":"bees-with-color/bee-B2SM.svg","response":0,"trial_type":"image-button-response","trial_index":71,"time_elapsed":379702,"internal_node_id":"0.0-4.0-0.32","subject_id":"60553b36cb4eb3269931ed21","study_id":"6197b3f67c2b5cd3b6d9596a","session_id":"6197b88c2f15821b55ea5bbf","condition":"full-information","relevant_dimensions":["antennae","pattern"],"bee_group":{"antennae":"A","wings":"X","pattern":"D","legs":"X"},"action":"harvest","summary":"good-harvest","bonus":1.020000000000001},{"rt":1107.1999999284744,"stimulus":"\n                    <p><b>Action: <em>harvest</em></b></p>\n                    <p>This is the bee that you just saw.</p>\n                    <img src=\"bees-with-color/bee-B2SM.svg\" width=\"200\">\n                    <p><span class=\"greenText\"><b>Successful harvest!</b></span><br>Your pay has increased by $0.02. Your bonus pay is now $0.66.</p>\n            ","response":0,"trial_type":"html-button-response","trial_index":72,"time_elapsed":380810,"internal_node_id":"0.0-4.0-1.32","subject_id":"60553b36cb4eb3269931ed21","study_id":"6197b3f67c2b5cd3b6d9596a","session_id":"6197b88c2f15821b55ea5bbf","condition":"full-information","relevant_dimensions":["antennae","pattern"],"bee_group":{"antennae":"A","wings":"X","pattern":"D","legs":"X"},"bonus":1.020000000000001},{"rt":2148,"stimulus":"bees-with-color/bee-B1DM.svg","response":1,"trial_type":"image-button-response","trial_index":73,"time_elapsed":382959,"internal_node_id":"0.0-4.0-0.33","subject_id":"60553b36cb4eb3269931ed21","study_id":"6197b3f67c2b5cd3b6d9596a","session_id":"6197b88c2f15821b55ea5bbf","condition":"full-information","relevant_dimensions":["antennae","pattern"],"bee_group":{"antennae":"A","wings":"X","pattern":"D","legs":"X"},"action":"avoid","summary":"bad-avoid","bonus":1.020000000000001},{"rt":1301,"stimulus":"\n                    <p><b>Action: <em>avoid</em></b></p>\n                    <p>This is the bee that you just saw.</p>\n                    <img src=\"bees-with-color/bee-B1DM.svg\" width=\"200\">\n                    <p><span class=\"redText\">Bad choice,</span> the bee was friendly.<br>Your bonus pay is unchanged, and remains at $0.66.</p>\n            ","response":0,"trial_type":"html-button-response","trial_index":74,"time_elapsed":384261,"internal_node_id":"0.0-4.0-1.33","subject_id":"60553b36cb4eb3269931ed21","study_id":"6197b3f67c2b5cd3b6d9596a","session_id":"6197b88c2f15821b55ea5bbf","condition":"full-information","relevant_dimensions":["antennae","pattern"],"bee_group":{"antennae":"A","wings":"X","pattern":"D","legs":"X"},"bonus":1.020000000000001},{"rt":1922.6999999284744,"stimulus":"bees-with-color/bee-B1SM.svg","response":0,"trial_type":"image-button-response","trial_index":75,"time_elapsed":386185,"internal_node_id":"0.0-4.0-0.34","subject_id":"60553b36cb4eb3269931ed21","study_id":"6197b3f67c2b5cd3b6d9596a","session_id":"6197b88c2f15821b55ea5bbf","condition":"full-information","relevant_dimensions":["antennae","pattern"],"bee_group":{"antennae":"A","wings":"X","pattern":"D","legs":"X"},"action":"harvest","summary":"good-harvest","bonus":1.020000000000001},{"rt":1059,"stimulus":"\n                    <p><b>Action: <em>harvest</em></b></p>\n                    <p>This is the bee that you just saw.</p>\n                    <img src=\"bees-with-color/bee-B1SM.svg\" width=\"200\">\n                    <p><span class=\"greenText\"><b>Successful harvest!</b></span><br>Your pay has increased by $0.02. Your bonus pay is now $0.68.</p>\n            ","response":0,"trial_type":"html-button-response","trial_index":76,"time_elapsed":387245,"internal_node_id":"0.0-4.0-1.34","subject_id":"60553b36cb4eb3269931ed21","study_id":"6197b3f67c2b5cd3b6d9596a","session_id":"6197b88c2f15821b55ea5bbf","condition":"full-information","relevant_dimensions":["antennae","pattern"],"bee_group":{"antennae":"A","wings":"X","pattern":"D","legs":"X"},"bonus":1.020000000000001},{"rt":2906.7999999523163,"stimulus":"bees-with-color/bee-B2SF.svg","response":0,"trial_type":"image-button-response","trial_index":77,"time_elapsed":390153,"internal_node_id":"0.0-4.0-0.35","subject_id":"60553b36cb4eb3269931ed21","study_id":"6197b3f67c2b5cd3b6d9596a","session_id":"6197b88c2f15821b55ea5bbf","condition":"full-information","relevant_dimensions":["antennae","pattern"],"bee_group":{"antennae":"A","wings":"X","pattern":"D","legs":"X"},"action":"harvest","summary":"good-harvest","bonus":1.020000000000001},{"rt":829.5,"stimulus":"\n                    <p><b>Action: <em>harvest</em></b></p>\n                    <p>This is the bee that you just saw.</p>\n                    <img src=\"bees-with-color/bee-B2SF.svg\" width=\"200\">\n                    <p><span class=\"greenText\"><b>Successful harvest!</b></span><br>Your pay has increased by $0.02. Your bonus pay is now $0.70.</p>\n            ","response":0,"trial_type":"html-button-response","trial_index":78,"time_elapsed":390984,"internal_node_id":"0.0-4.0-1.35","subject_id":"60553b36cb4eb3269931ed21","study_id":"6197b3f67c2b5cd3b6d9596a","session_id":"6197b88c2f15821b55ea5bbf","condition":"full-information","relevant_dimensions":["antennae","pattern"],"bee_group":{"antennae":"A","wings":"X","pattern":"D","legs":"X"},"bonus":1.020000000000001},{"rt":1506.1999999284744,"stimulus":"bees-with-color/bee-A1SF.svg","response":0,"trial_type":"image-button-response","trial_index":79,"time_elapsed":392492,"internal_node_id":"0.0-4.0-0.36","subject_id":"60553b36cb4eb3269931ed21","study_id":"6197b3f67c2b5cd3b6d9596a","session_id":"6197b88c2f15821b55ea5bbf","condition":"full-information","relevant_dimensions":["antennae","pattern"],"bee_group":{"antennae":"A","wings":"X","pattern":"D","legs":"X"},"action":"harvest","summary":"good-harvest","bonus":1.020000000000001},{"rt":949.7000000476837,"stimulus":"\n                    <p><b>Action: <em>harvest</em></b></p>\n                    <p>This is the bee that you just saw.</p>\n                    <img src=\"bees-with-color/bee-A1SF.svg\" width=\"200\">\n                    <p><span class=\"greenText\"><b>Successful harvest!</b></span><br>Your pay has increased by $0.02. Your bonus pay is now $0.72.</p>\n            ","response":0,"trial_type":"html-button-response","trial_index":80,"time_elapsed":393443,"internal_node_id":"0.0-4.0-1.36","subject_id":"60553b36cb4eb3269931ed21","study_id":"6197b3f67c2b5cd3b6d9596a","session_id":"6197b88c2f15821b55ea5bbf","condition":"full-information","relevant_dimensions":["antennae","pattern"],"bee_group":{"antennae":"A","wings":"X","pattern":"D","legs":"X"},"bonus":1.020000000000001},{"rt":1670.0999999046326,"stimulus":"bees-with-color/bee-A2SF.svg","response":0,"trial_type":"image-button-response","trial_index":81,"time_elapsed":395115,"internal_node_id":"0.0-4.0-0.37","subject_id":"60553b36cb4eb3269931ed21","study_id":"6197b3f67c2b5cd3b6d9596a","session_id":"6197b88c2f15821b55ea5bbf","condition":"full-information","relevant_dimensions":["antennae","pattern"],"bee_group":{"antennae":"A","wings":"X","pattern":"D","legs":"X"},"action":"harvest","summary":"good-harvest","bonus":1.020000000000001},{"rt":1440.5,"stimulus":"\n                    <p><b>Action: <em>harvest</em></b></p>\n                    <p>This is the bee that you just saw.</p>\n                    <img src=\"bees-with-color/bee-A2SF.svg\" width=\"200\">\n                    <p><span class=\"greenText\"><b>Successful harvest!</b></span><br>Your pay has increased by $0.02. Your bonus pay is now $0.74.</p>\n            ","response":0,"trial_type":"html-button-response","trial_index":82,"time_elapsed":396556,"internal_node_id":"0.0-4.0-1.37","subject_id":"60553b36cb4eb3269931ed21","study_id":"6197b3f67c2b5cd3b6d9596a","session_id":"6197b88c2f15821b55ea5bbf","condition":"full-information","relevant_dimensions":["antennae","pattern"],"bee_group":{"antennae":"A","wings":"X","pattern":"D","legs":"X"},"bonus":1.020000000000001},{"rt":1903.0999999046326,"stimulus":"bees-with-color/bee-A2DM.svg","response":0,"trial_type":"image-button-response","trial_index":83,"time_elapsed":398460,"internal_node_id":"0.0-4.0-0.38","subject_id":"60553b36cb4eb3269931ed21","study_id":"6197b3f67c2b5cd3b6d9596a","session_id":"6197b88c2f15821b55ea5bbf","condition":"full-information","relevant_dimensions":["antennae","pattern"],"bee_group":{"antennae":"A","wings":"X","pattern":"D","legs":"X"},"action":"harvest","summary":"bad-harvest","bonus":1.020000000000001},{"rt":941.1999999284744,"stimulus":"\n                    <p><b>Action: <em>harvest</em></b></p>\n                    <p>This is the bee that you just saw.</p>\n                    <img src=\"bees-with-color/bee-A2DM.svg\" width=\"200\">\n                    <p><span class=\"redText\">Bad choice, the bee was angry.</span><br><b>You have been stung!</b><br>Your pay has been decreased by $0.10. Your bonus pay is now $0.64.</p>\n            ","response":0,"trial_type":"html-button-response","trial_index":84,"time_elapsed":399402,"internal_node_id":"0.0-4.0-1.38","subject_id":"60553b36cb4eb3269931ed21","study_id":"6197b3f67c2b5cd3b6d9596a","session_id":"6197b88c2f15821b55ea5bbf","condition":"full-information","relevant_dimensions":["antennae","pattern"],"bee_group":{"antennae":"A","wings":"X","pattern":"D","legs":"X"},"bonus":1.020000000000001},{"rt":1196.7999999523163,"stimulus":"bees-with-color/bee-A1DF.svg","response":1,"trial_type":"image-button-response","trial_index":85,"time_elapsed":400600,"internal_node_id":"0.0-4.0-0.39","subject_id":"60553b36cb4eb3269931ed21","study_id":"6197b3f67c2b5cd3b6d9596a","session_id":"6197b88c2f15821b55ea5bbf","condition":"full-information","relevant_dimensions":["antennae","pattern"],"bee_group":{"antennae":"A","wings":"X","pattern":"D","legs":"X"},"action":"avoid","summary":"good-avoid","bonus":1.020000000000001},{"rt":936.8999999761581,"stimulus":"\n                    <p><b>Action: <em>avoid</em></b></p>\n                    <p>This is the bee that you just saw.</p>\n                    <img src=\"bees-with-color/bee-A1DF.svg\" width=\"200\">\n                    <p><span class=\"greenText\">Good choice!</span>  This bee would have stung you.<br>Your bonus pay is unchanged, and remains at $0.64.</p>\n            ","response":0,"trial_type":"html-button-response","trial_index":86,"time_elapsed":401538,"internal_node_id":"0.0-4.0-1.39","subject_id":"60553b36cb4eb3269931ed21","study_id":"6197b3f67c2b5cd3b6d9596a","session_id":"6197b88c2f15821b55ea5bbf","condition":"full-information","relevant_dimensions":["antennae","pattern"],"bee_group":{"antennae":"A","wings":"X","pattern":"D","legs":"X"},"bonus":1.020000000000001},{"rt":1538.8999999761581,"stimulus":"bees-with-color/bee-B1SF.svg","response":0,"trial_type":"image-button-response","trial_index":87,"time_elapsed":403078,"internal_node_id":"0.0-4.0-0.40","subject_id":"60553b36cb4eb3269931ed21","study_id":"6197b3f67c2b5cd3b6d9596a","session_id":"6197b88c2f15821b55ea5bbf","condition":"full-information","relevant_dimensions":["antennae","pattern"],"bee_group":{"antennae":"A","wings":"X","pattern":"D","legs":"X"},"action":"harvest","summary":"good-harvest","bonus":1.020000000000001},{"rt":651.0999999046326,"stimulus":"\n                    <p><b>Action: <em>harvest</em></b></p>\n                    <p>This is the bee that you just saw.</p>\n                    <img src=\"bees-with-color/bee-B1SF.svg\" width=\"200\">\n                    <p><span class=\"greenText\"><b>Successful harvest!</b></span><br>Your pay has increased by $0.02. Your bonus pay is now $0.66.</p>\n            ","response":0,"trial_type":"html-button-response","trial_index":88,"time_elapsed":403730,"internal_node_id":"0.0-4.0-1.40","subject_id":"60553b36cb4eb3269931ed21","study_id":"6197b3f67c2b5cd3b6d9596a","session_id":"6197b88c2f15821b55ea5bbf","condition":"full-information","relevant_dimensions":["antennae","pattern"],"bee_group":{"antennae":"A","wings":"X","pattern":"D","legs":"X"},"bonus":1.020000000000001},{"rt":1881.5,"stimulus":"bees-with-color/bee-A1DM.svg","response":1,"trial_type":"image-button-response","trial_index":89,"time_elapsed":405613,"internal_node_id":"0.0-4.0-0.41","subject_id":"60553b36cb4eb3269931ed21","study_id":"6197b3f67c2b5cd3b6d9596a","session_id":"6197b88c2f15821b55ea5bbf","condition":"full-information","relevant_dimensions":["antennae","pattern"],"bee_group":{"antennae":"A","wings":"X","pattern":"D","legs":"X"},"action":"avoid","summary":"good-avoid","bonus":1.020000000000001},{"rt":817.2000000476837,"stimulus":"\n                    <p><b>Action: <em>avoid</em></b></p>\n                    <p>This is the bee that you just saw.</p>\n                    <img src=\"bees-with-color/bee-A1DM.svg\" width=\"200\">\n                    <p><span class=\"greenText\">Good choice!</span>  This bee would have stung you.<br>Your bonus pay is unchanged, and remains at $0.66.</p>\n            ","response":0,"trial_type":"html-button-response","trial_index":90,"time_elapsed":406431,"internal_node_id":"0.0-4.0-1.41","subject_id":"60553b36cb4eb3269931ed21","study_id":"6197b3f67c2b5cd3b6d9596a","session_id":"6197b88c2f15821b55ea5bbf","condition":"full-information","relevant_dimensions":["antennae","pattern"],"bee_group":{"antennae":"A","wings":"X","pattern":"D","legs":"X"},"bonus":1.020000000000001},{"rt":1343.5,"stimulus":"bees-with-color/bee-A1SM.svg","response":0,"trial_type":"image-button-response","trial_index":91,"time_elapsed":407776,"internal_node_id":"0.0-4.0-0.42","subject_id":"60553b36cb4eb3269931ed21","study_id":"6197b3f67c2b5cd3b6d9596a","session_id":"6197b88c2f15821b55ea5bbf","condition":"full-information","relevant_dimensions":["antennae","pattern"],"bee_group":{"antennae":"A","wings":"X","pattern":"D","legs":"X"},"action":"harvest","summary":"good-harvest","bonus":1.020000000000001},{"rt":730.2000000476837,"stimulus":"\n                    <p><b>Action: <em>harvest</em></b></p>\n                    <p>This is the bee that you just saw.</p>\n                    <img src=\"bees-with-color/bee-A1SM.svg\" width=\"200\">\n                    <p><span class=\"greenText\"><b>Successful harvest!</b></span><br>Your pay has increased by $0.02. Your bonus pay is now $0.68.</p>\n            ","response":0,"trial_type":"html-button-response","trial_index":92,"time_elapsed":408507,"internal_node_id":"0.0-4.0-1.42","subject_id":"60553b36cb4eb3269931ed21","study_id":"6197b3f67c2b5cd3b6d9596a","session_id":"6197b88c2f15821b55ea5bbf","condition":"full-information","relevant_dimensions":["antennae","pattern"],"bee_group":{"antennae":"A","wings":"X","pattern":"D","legs":"X"},"bonus":1.020000000000001},{"rt":1538.8999999761581,"stimulus":"bees-with-color/bee-A2SM.svg","response":1,"trial_type":"image-button-response","trial_index":93,"time_elapsed":410047,"internal_node_id":"0.0-4.0-0.43","subject_id":"60553b36cb4eb3269931ed21","study_id":"6197b3f67c2b5cd3b6d9596a","session_id":"6197b88c2f15821b55ea5bbf","condition":"full-information","relevant_dimensions":["antennae","pattern"],"bee_group":{"antennae":"A","wings":"X","pattern":"D","legs":"X"},"action":"avoid","summary":"bad-avoid","bonus":1.020000000000001},{"rt":559,"stimulus":"\n                    <p><b>Action: <em>avoid</em></b></p>\n                    <p>This is the bee that you just saw.</p>\n                    <img src=\"bees-with-color/bee-A2SM.svg\" width=\"200\">\n                    <p><span class=\"redText\">Bad choice,</span> the bee was friendly.<br>Your bonus pay is unchanged, and remains at $0.68.</p>\n            ","response":0,"trial_type":"html-button-response","trial_index":94,"time_elapsed":410607,"internal_node_id":"0.0-4.0-1.43","subject_id":"60553b36cb4eb3269931ed21","study_id":"6197b3f67c2b5cd3b6d9596a","session_id":"6197b88c2f15821b55ea5bbf","condition":"full-information","relevant_dimensions":["antennae","pattern"],"bee_group":{"antennae":"A","wings":"X","pattern":"D","legs":"X"},"bonus":1.020000000000001},{"rt":1636.6999999284744,"stimulus":"bees-with-color/bee-B1DF.svg","response":1,"trial_type":"image-button-response","trial_index":95,"time_elapsed":412245,"internal_node_id":"0.0-4.0-0.44","subject_id":"60553b36cb4eb3269931ed21","study_id":"6197b3f67c2b5cd3b6d9596a","session_id":"6197b88c2f15821b55ea5bbf","condition":"full-information","relevant_dimensions":["antennae","pattern"],"bee_group":{"antennae":"A","wings":"X","pattern":"D","legs":"X"},"action":"avoid","summary":"bad-avoid","bonus":1.020000000000001},{"rt":650.4000000953674,"stimulus":"\n                    <p><b>Action: <em>avoid</em></b></p>\n                    <p>This is the bee that you just saw.</p>\n                    <img src=\"bees-with-color/bee-B1DF.svg\" width=\"200\">\n                    <p><span class=\"redText\">Bad choice,</span> the bee was friendly.<br>Your bonus pay is unchanged, and remains at $0.68.</p>\n            ","response":0,"trial_type":"html-button-response","trial_index":96,"time_elapsed":412896,"internal_node_id":"0.0-4.0-1.44","subject_id":"60553b36cb4eb3269931ed21","study_id":"6197b3f67c2b5cd3b6d9596a","session_id":"6197b88c2f15821b55ea5bbf","condition":"full-information","relevant_dimensions":["antennae","pattern"],"bee_group":{"antennae":"A","wings":"X","pattern":"D","legs":"X"},"bonus":1.020000000000001},{"rt":1179.5999999046326,"stimulus":"bees-with-color/bee-B2DF.svg","response":1,"trial_type":"image-button-response","trial_index":97,"time_elapsed":414077,"internal_node_id":"0.0-4.0-0.45","subject_id":"60553b36cb4eb3269931ed21","study_id":"6197b3f67c2b5cd3b6d9596a","session_id":"6197b88c2f15821b55ea5bbf","condition":"full-information","relevant_dimensions":["antennae","pattern"],"bee_group":{"antennae":"A","wings":"X","pattern":"D","legs":"X"},"action":"avoid","summary":"bad-avoid","bonus":1.020000000000001},{"rt":705,"stimulus":"\n                    <p><b>Action: <em>avoid</em></b></p>\n                    <p>This is the bee that you just saw.</p>\n                    <img src=\"bees-with-color/bee-B2DF.svg\" width=\"200\">\n                    <p><span class=\"redText\">Bad choice,</span> the bee was friendly.<br>Your bonus pay is unchanged, and remains at $0.68.</p>\n            ","response":0,"trial_type":"html-button-response","trial_index":98,"time_elapsed":414783,"internal_node_id":"0.0-4.0-1.45","subject_id":"60553b36cb4eb3269931ed21","study_id":"6197b3f67c2b5cd3b6d9596a","session_id":"6197b88c2f15821b55ea5bbf","condition":"full-information","relevant_dimensions":["antennae","pattern"],"bee_group":{"antennae":"A","wings":"X","pattern":"D","legs":"X"},"bonus":1.020000000000001},{"rt":1477.8000000715256,"stimulus":"bees-with-color/bee-B2DM.svg","response":0,"trial_type":"image-button-response","trial_index":99,"time_elapsed":416262,"internal_node_id":"0.0-4.0-0.46","subject_id":"60553b36cb4eb3269931ed21","study_id":"6197b3f67c2b5cd3b6d9596a","session_id":"6197b88c2f15821b55ea5bbf","condition":"full-information","relevant_dimensions":["antennae","pattern"],"bee_group":{"antennae":"A","wings":"X","pattern":"D","legs":"X"},"action":"harvest","summary":"good-harvest","bonus":1.020000000000001},{"rt":672.2999999523163,"stimulus":"\n                    <p><b>Action: <em>harvest</em></b></p>\n                    <p>This is the bee that you just saw.</p>\n                    <img src=\"bees-with-color/bee-B2DM.svg\" width=\"200\">\n                    <p><span class=\"greenText\"><b>Successful harvest!</b></span><br>Your pay has increased by $0.02. Your bonus pay is now $0.70.</p>\n            ","response":0,"trial_type":"html-button-response","trial_index":100,"time_elapsed":416935,"internal_node_id":"0.0-4.0-1.46","subject_id":"60553b36cb4eb3269931ed21","study_id":"6197b3f67c2b5cd3b6d9596a","session_id":"6197b88c2f15821b55ea5bbf","condition":"full-information","relevant_dimensions":["antennae","pattern"],"bee_group":{"antennae":"A","wings":"X","pattern":"D","legs":"X"},"bonus":1.020000000000001},{"rt":2491.7999999523163,"stimulus":"bees-with-color/bee-A2DF.svg","response":1,"trial_type":"image-button-response","trial_index":101,"time_elapsed":419428,"internal_node_id":"0.0-4.0-0.47","subject_id":"60553b36cb4eb3269931ed21","study_id":"6197b3f67c2b5cd3b6d9596a","session_id":"6197b88c2f15821b55ea5bbf","condition":"full-information","relevant_dimensions":["antennae","pattern"],"bee_group":{"antennae":"A","wings":"X","pattern":"D","legs":"X"},"action":"avoid","summary":"good-avoid","bonus":1.020000000000001},{"rt":911.6999999284744,"stimulus":"\n                    <p><b>Action: <em>avoid</em></b></p>\n                    <p>This is the bee that you just saw.</p>\n                    <img src=\"bees-with-color/bee-A2DF.svg\" width=\"200\">\n                    <p><span class=\"greenText\">Good choice!</span>  This bee would have stung you.<br>Your bonus pay is unchanged, and remains at $0.70.</p>\n            ","response":0,"trial_type":"html-button-response","trial_index":102,"time_elapsed":420341,"internal_node_id":"0.0-4.0-1.47","subject_id":"60553b36cb4eb3269931ed21","study_id":"6197b3f67c2b5cd3b6d9596a","session_id":"6197b88c2f15821b55ea5bbf","condition":"full-information","relevant_dimensions":["antennae","pattern"],"bee_group":{"antennae":"A","wings":"X","pattern":"D","legs":"X"},"bonus":1.020000000000001},{"rt":1895.1000000238419,"stimulus":"bees-with-color/bee-B2SM.svg","response":0,"trial_type":"image-button-response","trial_index":103,"time_elapsed":422237,"internal_node_id":"0.0-4.0-0.48","subject_id":"60553b36cb4eb3269931ed21","study_id":"6197b3f67c2b5cd3b6d9596a","session_id":"6197b88c2f15821b55ea5bbf","condition":"full-information","relevant_dimensions":["antennae","pattern"],"bee_group":{"antennae":"A","wings":"X","pattern":"D","legs":"X"},"action":"harvest","summary":"good-harvest","bonus":1.020000000000001},{"rt":897.8999999761581,"stimulus":"\n                    <p><b>Action: <em>harvest</em></b></p>\n                    <p>This is the bee that you just saw.</p>\n                    <img src=\"bees-with-color/bee-B2SM.svg\" width=\"200\">\n                    <p><span class=\"greenText\"><b>Successful harvest!</b></span><br>Your pay has increased by $0.02. Your bonus pay is now $0.72.</p>\n            ","response":0,"trial_type":"html-button-response","trial_index":104,"time_elapsed":423136,"internal_node_id":"0.0-4.0-1.48","subject_id":"60553b36cb4eb3269931ed21","study_id":"6197b3f67c2b5cd3b6d9596a","session_id":"6197b88c2f15821b55ea5bbf","condition":"full-information","relevant_dimensions":["antennae","pattern"],"bee_group":{"antennae":"A","wings":"X","pattern":"D","legs":"X"},"bonus":1.020000000000001},{"rt":1832.6999999284744,"stimulus":"bees-with-color/bee-A1DM.svg","response":1,"trial_type":"image-button-response","trial_index":105,"time_elapsed":424970,"internal_node_id":"0.0-4.0-0.49","subject_id":"60553b36cb4eb3269931ed21","study_id":"6197b3f67c2b5cd3b6d9596a","session_id":"6197b88c2f15821b55ea5bbf","condition":"full-information","relevant_dimensions":["antennae","pattern"],"bee_group":{"antennae":"A","wings":"X","pattern":"D","legs":"X"},"action":"avoid","summary":"good-avoid","bonus":1.020000000000001},{"rt":756.7999999523163,"stimulus":"\n                    <p><b>Action: <em>avoid</em></b></p>\n                    <p>This is the bee that you just saw.</p>\n                    <img src=\"bees-with-color/bee-A1DM.svg\" width=\"200\">\n                    <p><span class=\"greenText\">Good choice!</span>  This bee would have stung you.<br>Your bonus pay is unchanged, and remains at $0.72.</p>\n            ","response":0,"trial_type":"html-button-response","trial_index":106,"time_elapsed":425728,"internal_node_id":"0.0-4.0-1.49","subject_id":"60553b36cb4eb3269931ed21","study_id":"6197b3f67c2b5cd3b6d9596a","session_id":"6197b88c2f15821b55ea5bbf","condition":"full-information","relevant_dimensions":["antennae","pattern"],"bee_group":{"antennae":"A","wings":"X","pattern":"D","legs":"X"},"bonus":1.020000000000001},{"rt":2496,"stimulus":"bees-with-color/bee-A1SF.svg","response":0,"trial_type":"image-button-response","trial_index":107,"time_elapsed":428225,"internal_node_id":"0.0-4.0-0.50","subject_id":"60553b36cb4eb3269931ed21","study_id":"6197b3f67c2b5cd3b6d9596a","session_id":"6197b88c2f15821b55ea5bbf","condition":"full-information","relevant_dimensions":["antennae","pattern"],"bee_group":{"antennae":"A","wings":"X","pattern":"D","legs":"X"},"action":"harvest","summary":"good-harvest","bonus":1.020000000000001},{"rt":582.1999999284744,"stimulus":"\n                    <p><b>Action: <em>harvest</em></b></p>\n                    <p>This is the bee that you just saw.</p>\n                    <img src=\"bees-with-color/bee-A1SF.svg\" width=\"200\">\n                    <p><span class=\"greenText\"><b>Successful harvest!</b></span><br>Your pay has increased by $0.02. Your bonus pay is now $0.74.</p>\n            ","response":0,"trial_type":"html-button-response","trial_index":108,"time_elapsed":428808,"internal_node_id":"0.0-4.0-1.50","subject_id":"60553b36cb4eb3269931ed21","study_id":"6197b3f67c2b5cd3b6d9596a","session_id":"6197b88c2f15821b55ea5bbf","condition":"full-information","relevant_dimensions":["antennae","pattern"],"bee_group":{"antennae":"A","wings":"X","pattern":"D","legs":"X"},"bonus":1.020000000000001},{"rt":1529.0999999046326,"stimulus":"bees-with-color/bee-A2SF.svg","response":0,"trial_type":"image-button-response","trial_index":109,"time_elapsed":430338,"internal_node_id":"0.0-4.0-0.51","subject_id":"60553b36cb4eb3269931ed21","study_id":"6197b3f67c2b5cd3b6d9596a","session_id":"6197b88c2f15821b55ea5bbf","condition":"full-information","relevant_dimensions":["antennae","pattern"],"bee_group":{"antennae":"A","wings":"X","pattern":"D","legs":"X"},"action":"harvest","summary":"good-harvest","bonus":1.020000000000001},{"rt":627.1000000238419,"stimulus":"\n                    <p><b>Action: <em>harvest</em></b></p>\n                    <p>This is the bee that you just saw.</p>\n                    <img src=\"bees-with-color/bee-A2SF.svg\" width=\"200\">\n                    <p><span class=\"greenText\"><b>Successful harvest!</b></span><br>Your pay has increased by $0.02. Your bonus pay is now $0.76.</p>\n            ","response":0,"trial_type":"html-button-response","trial_index":110,"time_elapsed":430966,"internal_node_id":"0.0-4.0-1.51","subject_id":"60553b36cb4eb3269931ed21","study_id":"6197b3f67c2b5cd3b6d9596a","session_id":"6197b88c2f15821b55ea5bbf","condition":"full-information","relevant_dimensions":["antennae","pattern"],"bee_group":{"antennae":"A","wings":"X","pattern":"D","legs":"X"},"bonus":1.020000000000001},{"rt":2838.899999976158,"stimulus":"bees-with-color/bee-B2DF.svg","response":0,"trial_type":"image-button-response","trial_index":111,"time_elapsed":433806,"internal_node_id":"0.0-4.0-0.52","subject_id":"60553b36cb4eb3269931ed21","study_id":"6197b3f67c2b5cd3b6d9596a","session_id":"6197b88c2f15821b55ea5bbf","condition":"full-information","relevant_dimensions":["antennae","pattern"],"bee_group":{"antennae":"A","wings":"X","pattern":"D","legs":"X"},"action":"harvest","summary":"good-harvest","bonus":1.020000000000001},{"rt":984,"stimulus":"\n                    <p><b>Action: <em>harvest</em></b></p>\n                    <p>This is the bee that you just saw.</p>\n                    <img src=\"bees-with-color/bee-B2DF.svg\" width=\"200\">\n                    <p><span class=\"greenText\"><b>Successful harvest!</b></span><br>Your pay has increased by $0.02. Your bonus pay is now $0.78.</p>\n            ","response":0,"trial_type":"html-button-response","trial_index":112,"time_elapsed":434791,"internal_node_id":"0.0-4.0-1.52","subject_id":"60553b36cb4eb3269931ed21","study_id":"6197b3f67c2b5cd3b6d9596a","session_id":"6197b88c2f15821b55ea5bbf","condition":"full-information","relevant_dimensions":["antennae","pattern"],"bee_group":{"antennae":"A","wings":"X","pattern":"D","legs":"X"},"bonus":1.020000000000001},{"rt":1513.0999999046326,"stimulus":"bees-with-color/bee-A1DF.svg","response":0,"trial_type":"image-button-response","trial_index":113,"time_elapsed":436305,"internal_node_id":"0.0-4.0-0.53","subject_id":"60553b36cb4eb3269931ed21","study_id":"6197b3f67c2b5cd3b6d9596a","session_id":"6197b88c2f15821b55ea5bbf","condition":"full-information","relevant_dimensions":["antennae","pattern"],"bee_group":{"antennae":"A","wings":"X","pattern":"D","legs":"X"},"action":"harvest","summary":"bad-harvest","bonus":1.020000000000001},{"rt":859.3999999761581,"stimulus":"\n                    <p><b>Action: <em>harvest</em></b></p>\n                    <p>This is the bee that you just saw.</p>\n                    <img src=\"bees-with-color/bee-A1DF.svg\" width=\"200\">\n                    <p><span class=\"redText\">Bad choice, the bee was angry.</span><br><b>You have been stung!</b><br>Your pay has been decreased by $0.10. Your bonus pay is now $0.68.</p>\n            ","response":0,"trial_type":"html-button-response","trial_index":114,"time_elapsed":437166,"internal_node_id":"0.0-4.0-1.53","subject_id":"60553b36cb4eb3269931ed21","study_id":"6197b3f67c2b5cd3b6d9596a","session_id":"6197b88c2f15821b55ea5bbf","condition":"full-information","relevant_dimensions":["antennae","pattern"],"bee_group":{"antennae":"A","wings":"X","pattern":"D","legs":"X"},"bonus":1.020000000000001},{"rt":1282.6999999284744,"stimulus":"bees-with-color/bee-B1DM.svg","response":1,"trial_type":"image-button-response","trial_index":115,"time_elapsed":438449,"internal_node_id":"0.0-4.0-0.54","subject_id":"60553b36cb4eb3269931ed21","study_id":"6197b3f67c2b5cd3b6d9596a","session_id":"6197b88c2f15821b55ea5bbf","condition":"full-information","relevant_dimensions":["antennae","pattern"],"bee_group":{"antennae":"A","wings":"X","pattern":"D","legs":"X"},"action":"avoid","summary":"bad-avoid","bonus":1.020000000000001},{"rt":717.6999999284744,"stimulus":"\n                    <p><b>Action: <em>avoid</em></b></p>\n                    <p>This is the bee that you just saw.</p>\n                    <img src=\"bees-with-color/bee-B1DM.svg\" width=\"200\">\n                    <p><span class=\"redText\">Bad choice,</span> the bee was friendly.<br>Your bonus pay is unchanged, and remains at $0.68.</p>\n            ","response":0,"trial_type":"html-button-response","trial_index":116,"time_elapsed":439168,"internal_node_id":"0.0-4.0-1.54","subject_id":"60553b36cb4eb3269931ed21","study_id":"6197b3f67c2b5cd3b6d9596a","session_id":"6197b88c2f15821b55ea5bbf","condition":"full-information","relevant_dimensions":["antennae","pattern"],"bee_group":{"antennae":"A","wings":"X","pattern":"D","legs":"X"},"bonus":1.020000000000001},{"rt":1128,"stimulus":"bees-with-color/bee-B2SF.svg","response":0,"trial_type":"image-button-response","trial_index":117,"time_elapsed":440297,"internal_node_id":"0.0-4.0-0.55","subject_id":"60553b36cb4eb3269931ed21","study_id":"6197b3f67c2b5cd3b6d9596a","session_id":"6197b88c2f15821b55ea5bbf","condition":"full-information","relevant_dimensions":["antennae","pattern"],"bee_group":{"antennae":"A","wings":"X","pattern":"D","legs":"X"},"action":"harvest","summary":"good-harvest","bonus":1.020000000000001},{"rt":746.5,"stimulus":"\n                    <p><b>Action: <em>harvest</em></b></p>\n                    <p>This is the bee that you just saw.</p>\n                    <img src=\"bees-with-color/bee-B2SF.svg\" width=\"200\">\n                    <p><span class=\"greenText\"><b>Successful harvest!</b></span><br>Your pay has increased by $0.02. Your bonus pay is now $0.70.</p>\n            ","response":0,"trial_type":"html-button-response","trial_index":118,"time_elapsed":441045,"internal_node_id":"0.0-4.0-1.55","subject_id":"60553b36cb4eb3269931ed21","study_id":"6197b3f67c2b5cd3b6d9596a","session_id":"6197b88c2f15821b55ea5bbf","condition":"full-information","relevant_dimensions":["antennae","pattern"],"bee_group":{"antennae":"A","wings":"X","pattern":"D","legs":"X"},"bonus":1.020000000000001},{"rt":1139.1999999284744,"stimulus":"bees-with-color/bee-B1SF.svg","response":0,"trial_type":"image-button-response","trial_index":119,"time_elapsed":442185,"internal_node_id":"0.0-4.0-0.56","subject_id":"60553b36cb4eb3269931ed21","study_id":"6197b3f67c2b5cd3b6d9596a","session_id":"6197b88c2f15821b55ea5bbf","condition":"full-information","relevant_dimensions":["antennae","pattern"],"bee_group":{"antennae":"A","wings":"X","pattern":"D","legs":"X"},"action":"harvest","summary":"good-harvest","bonus":1.020000000000001},{"rt":669.6999999284744,"stimulus":"\n                    <p><b>Action: <em>harvest</em></b></p>\n                    <p>This is the bee that you just saw.</p>\n                    <img src=\"bees-with-color/bee-B1SF.svg\" width=\"200\">\n                    <p><span class=\"greenText\"><b>Successful harvest!</b></span><br>Your pay has increased by $0.02. Your bonus pay is now $0.72.</p>\n            ","response":0,"trial_type":"html-button-response","trial_index":120,"time_elapsed":442856,"internal_node_id":"0.0-4.0-1.56","subject_id":"60553b36cb4eb3269931ed21","study_id":"6197b3f67c2b5cd3b6d9596a","session_id":"6197b88c2f15821b55ea5bbf","condition":"full-information","relevant_dimensions":["antennae","pattern"],"bee_group":{"antennae":"A","wings":"X","pattern":"D","legs":"X"},"bonus":1.020000000000001},{"rt":1453.0999999046326,"stimulus":"bees-with-color/bee-B1DF.svg","response":0,"trial_type":"image-button-response","trial_index":121,"time_elapsed":444310,"internal_node_id":"0.0-4.0-0.57","subject_id":"60553b36cb4eb3269931ed21","study_id":"6197b3f67c2b5cd3b6d9596a","session_id":"6197b88c2f15821b55ea5bbf","condition":"full-information","relevant_dimensions":["antennae","pattern"],"bee_group":{"antennae":"A","wings":"X","pattern":"D","legs":"X"},"action":"harvest","summary":"good-harvest","bonus":1.020000000000001},{"rt":591.8000000715256,"stimulus":"\n                    <p><b>Action: <em>harvest</em></b></p>\n                    <p>This is the bee that you just saw.</p>\n                    <img src=\"bees-with-color/bee-B1DF.svg\" width=\"200\">\n                    <p><span class=\"greenText\"><b>Successful harvest!</b></span><br>Your pay has increased by $0.02. Your bonus pay is now $0.74.</p>\n            ","response":0,"trial_type":"html-button-response","trial_index":122,"time_elapsed":444903,"internal_node_id":"0.0-4.0-1.57","subject_id":"60553b36cb4eb3269931ed21","study_id":"6197b3f67c2b5cd3b6d9596a","session_id":"6197b88c2f15821b55ea5bbf","condition":"full-information","relevant_dimensions":["antennae","pattern"],"bee_group":{"antennae":"A","wings":"X","pattern":"D","legs":"X"},"bonus":1.020000000000001},{"rt":1571.8000000715256,"stimulus":"bees-with-color/bee-A2DM.svg","response":1,"trial_type":"image-button-response","trial_index":123,"time_elapsed":446476,"internal_node_id":"0.0-4.0-0.58","subject_id":"60553b36cb4eb3269931ed21","study_id":"6197b3f67c2b5cd3b6d9596a","session_id":"6197b88c2f15821b55ea5bbf","condition":"full-information","relevant_dimensions":["antennae","pattern"],"bee_group":{"antennae":"A","wings":"X","pattern":"D","legs":"X"},"action":"avoid","summary":"good-avoid","bonus":1.020000000000001},{"rt":754.9000000953674,"stimulus":"\n                    <p><b>Action: <em>avoid</em></b></p>\n                    <p>This is the bee that you just saw.</p>\n                    <img src=\"bees-with-color/bee-A2DM.svg\" width=\"200\">\n                    <p><span class=\"greenText\">Good choice!</span>  This bee would have stung you.<br>Your bonus pay is unchanged, and remains at $0.74.</p>\n            ","response":0,"trial_type":"html-button-response","trial_index":124,"time_elapsed":447232,"internal_node_id":"0.0-4.0-1.58","subject_id":"60553b36cb4eb3269931ed21","study_id":"6197b3f67c2b5cd3b6d9596a","session_id":"6197b88c2f15821b55ea5bbf","condition":"full-information","relevant_dimensions":["antennae","pattern"],"bee_group":{"antennae":"A","wings":"X","pattern":"D","legs":"X"},"bonus":1.020000000000001},{"rt":1798.3999999761581,"stimulus":"bees-with-color/bee-A2SM.svg","response":0,"trial_type":"image-button-response","trial_index":125,"time_elapsed":449032,"internal_node_id":"0.0-4.0-0.59","subject_id":"60553b36cb4eb3269931ed21","study_id":"6197b3f67c2b5cd3b6d9596a","session_id":"6197b88c2f15821b55ea5bbf","condition":"full-information","relevant_dimensions":["antennae","pattern"],"bee_group":{"antennae":"A","wings":"X","pattern":"D","legs":"X"},"action":"harvest","summary":"good-harvest","bonus":1.020000000000001},{"rt":644.7999999523163,"stimulus":"\n                    <p><b>Action: <em>harvest</em></b></p>\n                    <p>This is the bee that you just saw.</p>\n                    <img src=\"bees-with-color/bee-A2SM.svg\" width=\"200\">\n                    <p><span class=\"greenText\"><b>Successful harvest!</b></span><br>Your pay has increased by $0.02. Your bonus pay is now $0.76.</p>\n            ","response":0,"trial_type":"html-button-response","trial_index":126,"time_elapsed":449678,"internal_node_id":"0.0-4.0-1.59","subject_id":"60553b36cb4eb3269931ed21","study_id":"6197b3f67c2b5cd3b6d9596a","session_id":"6197b88c2f15821b55ea5bbf","condition":"full-information","relevant_dimensions":["antennae","pattern"],"bee_group":{"antennae":"A","wings":"X","pattern":"D","legs":"X"},"bonus":1.020000000000001},{"rt":1758,"stimulus":"bees-with-color/bee-A1SM.svg","response":0,"trial_type":"image-button-response","trial_index":127,"time_elapsed":451437,"internal_node_id":"0.0-4.0-0.60","subject_id":"60553b36cb4eb3269931ed21","study_id":"6197b3f67c2b5cd3b6d9596a","session_id":"6197b88c2f15821b55ea5bbf","condition":"full-information","relevant_dimensions":["antennae","pattern"],"bee_group":{"antennae":"A","wings":"X","pattern":"D","legs":"X"},"action":"harvest","summary":"good-harvest","bonus":1.020000000000001},{"rt":1075,"stimulus":"\n                    <p><b>Action: <em>harvest</em></b></p>\n                    <p>This is the bee that you just saw.</p>\n                    <img src=\"bees-with-color/bee-A1SM.svg\" width=\"200\">\n                    <p><span class=\"greenText\"><b>Successful harvest!</b></span><br>Your pay has increased by $0.02. Your bonus pay is now $0.78.</p>\n            ","response":0,"trial_type":"html-button-response","trial_index":128,"time_elapsed":452514,"internal_node_id":"0.0-4.0-1.60","subject_id":"60553b36cb4eb3269931ed21","study_id":"6197b3f67c2b5cd3b6d9596a","session_id":"6197b88c2f15821b55ea5bbf","condition":"full-information","relevant_dimensions":["antennae","pattern"],"bee_group":{"antennae":"A","wings":"X","pattern":"D","legs":"X"},"bonus":1.020000000000001},{"rt":2184.3000000715256,"stimulus":"bees-with-color/bee-B1SM.svg","response":1,"trial_type":"image-button-response","trial_index":129,"time_elapsed":454699,"internal_node_id":"0.0-4.0-0.61","subject_id":"60553b36cb4eb3269931ed21","study_id":"6197b3f67c2b5cd3b6d9596a","session_id":"6197b88c2f15821b55ea5bbf","condition":"full-information","relevant_dimensions":["antennae","pattern"],"bee_group":{"antennae":"A","wings":"X","pattern":"D","legs":"X"},"action":"avoid","summary":"bad-avoid","bonus":1.020000000000001},{"rt":641.9000000953674,"stimulus":"\n                    <p><b>Action: <em>avoid</em></b></p>\n                    <p>This is the bee that you just saw.</p>\n                    <img src=\"bees-with-color/bee-B1SM.svg\" width=\"200\">\n                    <p><span class=\"redText\">Bad choice,</span> the bee was friendly.<br>Your bonus pay is unchanged, and remains at $0.78.</p>\n            ","response":0,"trial_type":"html-button-response","trial_index":130,"time_elapsed":455342,"internal_node_id":"0.0-4.0-1.61","subject_id":"60553b36cb4eb3269931ed21","study_id":"6197b3f67c2b5cd3b6d9596a","session_id":"6197b88c2f15821b55ea5bbf","condition":"full-information","relevant_dimensions":["antennae","pattern"],"bee_group":{"antennae":"A","wings":"X","pattern":"D","legs":"X"},"bonus":1.020000000000001},{"rt":975.9000000953674,"stimulus":"bees-with-color/bee-B2DM.svg","response":0,"trial_type":"image-button-response","trial_index":131,"time_elapsed":456319,"internal_node_id":"0.0-4.0-0.62","subject_id":"60553b36cb4eb3269931ed21","study_id":"6197b3f67c2b5cd3b6d9596a","session_id":"6197b88c2f15821b55ea5bbf","condition":"full-information","relevant_dimensions":["antennae","pattern"],"bee_group":{"antennae":"A","wings":"X","pattern":"D","legs":"X"},"action":"harvest","summary":"good-harvest","bonus":1.020000000000001},{"rt":712,"stimulus":"\n                    <p><b>Action: <em>harvest</em></b></p>\n                    <p>This is the bee that you just saw.</p>\n                    <img src=\"bees-with-color/bee-B2DM.svg\" width=\"200\">\n                    <p><span class=\"greenText\"><b>Successful harvest!</b></span><br>Your pay has increased by $0.02. Your bonus pay is now $0.80.</p>\n            ","response":0,"trial_type":"html-button-response","trial_index":132,"time_elapsed":457032,"internal_node_id":"0.0-4.0-1.62","subject_id":"60553b36cb4eb3269931ed21","study_id":"6197b3f67c2b5cd3b6d9596a","session_id":"6197b88c2f15821b55ea5bbf","condition":"full-information","relevant_dimensions":["antennae","pattern"],"bee_group":{"antennae":"A","wings":"X","pattern":"D","legs":"X"},"bonus":1.020000000000001},{"rt":2143.9000000953674,"stimulus":"bees-with-color/bee-A2DF.svg","response":1,"trial_type":"image-button-response","trial_index":133,"time_elapsed":459177,"internal_node_id":"0.0-4.0-0.63","subject_id":"60553b36cb4eb3269931ed21","study_id":"6197b3f67c2b5cd3b6d9596a","session_id":"6197b88c2f15821b55ea5bbf","condition":"full-information","relevant_dimensions":["antennae","pattern"],"bee_group":{"antennae":"A","wings":"X","pattern":"D","legs":"X"},"action":"avoid","summary":"good-avoid","bonus":1.020000000000001},{"rt":6349.100000023842,"stimulus":"\n                    <p><b>Action: <em>avoid</em></b></p>\n                    <p>This is the bee that you just saw.</p>\n                    <img src=\"bees-with-color/bee-A2DF.svg\" width=\"200\">\n                    <p><span class=\"greenText\">Good choice!</span>  This bee would have stung you.<br>Your bonus pay is unchanged, and remains at $0.80.</p>\n            ","response":0,"trial_type":"html-button-response","trial_index":134,"time_elapsed":465527,"internal_node_id":"0.0-4.0-1.63","subject_id":"60553b36cb4eb3269931ed21","study_id":"6197b3f67c2b5cd3b6d9596a","session_id":"6197b88c2f15821b55ea5bbf","condition":"full-information","relevant_dimensions":["antennae","pattern"],"bee_group":{"antennae":"A","wings":"X","pattern":"D","legs":"X"},"bonus":1.020000000000001},{"rt":6182.299999952316,"stimulus":"You have completed the first part of this experiment.<br><br>You will now begin a shorter second part, in which you will receive no feedback.<br>The same rules regarding bonus pay apply.<br><br>Press any key to begin.","response":"h","trial_type":"html-keyboard-response","trial_index":135,"time_elapsed":471711,"internal_node_id":"0.0-5.0","subject_id":"60553b36cb4eb3269931ed21","study_id":"6197b3f67c2b5cd3b6d9596a","session_id":"6197b88c2f15821b55ea5bbf","condition":"full-information","relevant_dimensions":["antennae","pattern"],"bee_group":{"antennae":"A","wings":"X","pattern":"D","legs":"X"},"bonus":1.020000000000001},{"rt":8006.5,"stimulus":"bees-with-color/bee-B2DF.svg","response":0,"trial_type":"image-button-response","trial_index":136,"time_elapsed":479726,"internal_node_id":"0.0-6.0-0.0","subject_id":"60553b36cb4eb3269931ed21","study_id":"6197b3f67c2b5cd3b6d9596a","session_id":"6197b88c2f15821b55ea5bbf","condition":"full-information","relevant_dimensions":["antennae","pattern"],"bee_group":{"antennae":"A","wings":"X","pattern":"D","legs":"X"},"bonus":1.020000000000001},{"rt":4475.200000047684,"stimulus":"bees-with-color/bee-A2SM.svg","response":0,"trial_type":"image-button-response","trial_index":137,"time_elapsed":484203,"internal_node_id":"0.0-6.0-0.1","subject_id":"60553b36cb4eb3269931ed21","study_id":"6197b3f67c2b5cd3b6d9596a","session_id":"6197b88c2f15821b55ea5bbf","condition":"full-information","relevant_dimensions":["antennae","pattern"],"bee_group":{"antennae":"A","wings":"X","pattern":"D","legs":"X"},"bonus":1.020000000000001},{"rt":1678.2000000476837,"stimulus":"bees-with-color/bee-B1DM.svg","response":1,"trial_type":"image-button-response","trial_index":138,"time_elapsed":485883,"internal_node_id":"0.0-6.0-0.2","subject_id":"60553b36cb4eb3269931ed21","study_id":"6197b3f67c2b5cd3b6d9596a","session_id":"6197b88c2f15821b55ea5bbf","condition":"full-information","relevant_dimensions":["antennae","pattern"],"bee_group":{"antennae":"A","wings":"X","pattern":"D","legs":"X"},"bonus":1.020000000000001},{"rt":5030.399999976158,"stimulus":"bees-with-color/bee-A1DM.svg","response":0,"trial_type":"image-button-response","trial_index":139,"time_elapsed":490915,"internal_node_id":"0.0-6.0-0.3","subject_id":"60553b36cb4eb3269931ed21","study_id":"6197b3f67c2b5cd3b6d9596a","session_id":"6197b88c2f15821b55ea5bbf","condition":"full-information","relevant_dimensions":["antennae","pattern"],"bee_group":{"antennae":"A","wings":"X","pattern":"D","legs":"X"},"bonus":1.020000000000001},{"rt":1321.2000000476837,"stimulus":"bees-with-color/bee-A1SM.svg","response":0,"trial_type":"image-button-response","trial_index":140,"time_elapsed":492238,"internal_node_id":"0.0-6.0-0.4","subject_id":"60553b36cb4eb3269931ed21","study_id":"6197b3f67c2b5cd3b6d9596a","session_id":"6197b88c2f15821b55ea5bbf","condition":"full-information","relevant_dimensions":["antennae","pattern"],"bee_group":{"antennae":"A","wings":"X","pattern":"D","legs":"X"},"bonus":1.020000000000001},{"rt":1571.6000000238419,"stimulus":"bees-with-color/bee-B1SM.svg","response":0,"trial_type":"image-button-response","trial_index":141,"time_elapsed":493811,"internal_node_id":"0.0-6.0-0.5","subject_id":"60553b36cb4eb3269931ed21","study_id":"6197b3f67c2b5cd3b6d9596a","session_id":"6197b88c2f15821b55ea5bbf","condition":"full-information","relevant_dimensions":["antennae","pattern"],"bee_group":{"antennae":"A","wings":"X","pattern":"D","legs":"X"},"bonus":1.020000000000001},{"rt":1045.4000000953674,"stimulus":"bees-with-color/bee-A2DF.svg","response":1,"trial_type":"image-button-response","trial_index":142,"time_elapsed":494858,"internal_node_id":"0.0-6.0-0.6","subject_id":"60553b36cb4eb3269931ed21","study_id":"6197b3f67c2b5cd3b6d9596a","session_id":"6197b88c2f15821b55ea5bbf","condition":"full-information","relevant_dimensions":["antennae","pattern"],"bee_group":{"antennae":"A","wings":"X","pattern":"D","legs":"X"},"bonus":1.020000000000001},{"rt":919.7999999523163,"stimulus":"bees-with-color/bee-B1SF.svg","response":0,"trial_type":"image-button-response","trial_index":143,"time_elapsed":495779,"internal_node_id":"0.0-6.0-0.7","subject_id":"60553b36cb4eb3269931ed21","study_id":"6197b3f67c2b5cd3b6d9596a","session_id":"6197b88c2f15821b55ea5bbf","condition":"full-information","relevant_dimensions":["antennae","pattern"],"bee_group":{"antennae":"A","wings":"X","pattern":"D","legs":"X"},"bonus":1.020000000000001},{"rt":1716,"stimulus":"bees-with-color/bee-B2DM.svg","response":0,"trial_type":"image-button-response","trial_index":144,"time_elapsed":497497,"internal_node_id":"0.0-6.0-0.8","subject_id":"60553b36cb4eb3269931ed21","study_id":"6197b3f67c2b5cd3b6d9596a","session_id":"6197b88c2f15821b55ea5bbf","condition":"full-information","relevant_dimensions":["antennae","pattern"],"bee_group":{"antennae":"A","wings":"X","pattern":"D","legs":"X"},"bonus":1.020000000000001},{"rt":2846,"stimulus":"bees-with-color/bee-A1SF.svg","response":1,"trial_type":"image-button-response","trial_index":145,"time_elapsed":500344,"internal_node_id":"0.0-6.0-0.9","subject_id":"60553b36cb4eb3269931ed21","study_id":"6197b3f67c2b5cd3b6d9596a","session_id":"6197b88c2f15821b55ea5bbf","condition":"full-information","relevant_dimensions":["antennae","pattern"],"bee_group":{"antennae":"A","wings":"X","pattern":"D","legs":"X"},"bonus":1.020000000000001},{"rt":1288.5999999046326,"stimulus":"bees-with-color/bee-B2SF.svg","response":0,"trial_type":"image-button-response","trial_index":146,"time_elapsed":501635,"internal_node_id":"0.0-6.0-0.10","subject_id":"60553b36cb4eb3269931ed21","study_id":"6197b3f67c2b5cd3b6d9596a","session_id":"6197b88c2f15821b55ea5bbf","condition":"full-information","relevant_dimensions":["antennae","pattern"],"bee_group":{"antennae":"A","wings":"X","pattern":"D","legs":"X"},"bonus":1.020000000000001},{"rt":5057.899999976158,"stimulus":"bees-with-color/bee-A2SF.svg","response":1,"trial_type":"image-button-response","trial_index":147,"time_elapsed":506694,"internal_node_id":"0.0-6.0-0.11","subject_id":"60553b36cb4eb3269931ed21","study_id":"6197b3f67c2b5cd3b6d9596a","session_id":"6197b88c2f15821b55ea5bbf","condition":"full-information","relevant_dimensions":["antennae","pattern"],"bee_group":{"antennae":"A","wings":"X","pattern":"D","legs":"X"},"bonus":1.020000000000001},{"rt":1229.2000000476837,"stimulus":"bees-with-color/bee-A1DF.svg","response":1,"trial_type":"image-button-response","trial_index":148,"time_elapsed":507925,"internal_node_id":"0.0-6.0-0.12","subject_id":"60553b36cb4eb3269931ed21","study_id":"6197b3f67c2b5cd3b6d9596a","session_id":"6197b88c2f15821b55ea5bbf","condition":"full-information","relevant_dimensions":["antennae","pattern"],"bee_group":{"antennae":"A","wings":"X","pattern":"D","legs":"X"},"bonus":1.020000000000001},{"rt":1443.1000000238419,"stimulus":"bees-with-color/bee-A2DM.svg","response":1,"trial_type":"image-button-response","trial_index":149,"time_elapsed":509369,"internal_node_id":"0.0-6.0-0.13","subject_id":"60553b36cb4eb3269931ed21","study_id":"6197b3f67c2b5cd3b6d9596a","session_id":"6197b88c2f15821b55ea5bbf","condition":"full-information","relevant_dimensions":["antennae","pattern"],"bee_group":{"antennae":"A","wings":"X","pattern":"D","legs":"X"},"bonus":1.020000000000001},{"rt":1057.8000000715256,"stimulus":"bees-with-color/bee-B1DF.svg","response":0,"trial_type":"image-button-response","trial_index":150,"time_elapsed":510428,"internal_node_id":"0.0-6.0-0.14","subject_id":"60553b36cb4eb3269931ed21","study_id":"6197b3f67c2b5cd3b6d9596a","session_id":"6197b88c2f15821b55ea5bbf","condition":"full-information","relevant_dimensions":["antennae","pattern"],"bee_group":{"antennae":"A","wings":"X","pattern":"D","legs":"X"},"bonus":1.020000000000001},{"rt":924.3999999761581,"stimulus":"bees-with-color/bee-B2SM.svg","response":0,"trial_type":"image-button-response","trial_index":151,"time_elapsed":511354,"internal_node_id":"0.0-6.0-0.15","subject_id":"60553b36cb4eb3269931ed21","study_id":"6197b3f67c2b5cd3b6d9596a","session_id":"6197b88c2f15821b55ea5bbf","condition":"full-information","relevant_dimensions":["antennae","pattern"],"bee_group":{"antennae":"A","wings":"X","pattern":"D","legs":"X"},"bonus":1.020000000000001},{"rt":1122.7000000476837,"stimulus":"bees-with-color/bee-B1DF.svg","response":0,"trial_type":"image-button-response","trial_index":152,"time_elapsed":512478,"internal_node_id":"0.0-6.0-0.16","subject_id":"60553b36cb4eb3269931ed21","study_id":"6197b3f67c2b5cd3b6d9596a","session_id":"6197b88c2f15821b55ea5bbf","condition":"full-information","relevant_dimensions":["antennae","pattern"],"bee_group":{"antennae":"A","wings":"X","pattern":"D","legs":"X"},"bonus":1.020000000000001},{"rt":1070.7999999523163,"stimulus":"bees-with-color/bee-A2SM.svg","response":1,"trial_type":"image-button-response","trial_index":153,"time_elapsed":513551,"internal_node_id":"0.0-6.0-0.17","subject_id":"60553b36cb4eb3269931ed21","study_id":"6197b3f67c2b5cd3b6d9596a","session_id":"6197b88c2f15821b55ea5bbf","condition":"full-information","relevant_dimensions":["antennae","pattern"],"bee_group":{"antennae":"A","wings":"X","pattern":"D","legs":"X"},"bonus":1.020000000000001},{"rt":1357.5,"stimulus":"bees-with-color/bee-B1SF.svg","response":0,"trial_type":"image-button-response","trial_index":154,"time_elapsed":514909,"internal_node_id":"0.0-6.0-0.18","subject_id":"60553b36cb4eb3269931ed21","study_id":"6197b3f67c2b5cd3b6d9596a","session_id":"6197b88c2f15821b55ea5bbf","condition":"full-information","relevant_dimensions":["antennae","pattern"],"bee_group":{"antennae":"A","wings":"X","pattern":"D","legs":"X"},"bonus":1.020000000000001},{"rt":2894,"stimulus":"bees-with-color/bee-B1DM.svg","response":1,"trial_type":"image-button-response","trial_index":155,"time_elapsed":517804,"internal_node_id":"0.0-6.0-0.19","subject_id":"60553b36cb4eb3269931ed21","study_id":"6197b3f67c2b5cd3b6d9596a","session_id":"6197b88c2f15821b55ea5bbf","condition":"full-information","relevant_dimensions":["antennae","pattern"],"bee_group":{"antennae":"A","wings":"X","pattern":"D","legs":"X"},"bonus":1.020000000000001},{"rt":1326.7999999523163,"stimulus":"bees-with-color/bee-B2DF.svg","response":0,"trial_type":"image-button-response","trial_index":156,"time_elapsed":519132,"internal_node_id":"0.0-6.0-0.20","subject_id":"60553b36cb4eb3269931ed21","study_id":"6197b3f67c2b5cd3b6d9596a","session_id":"6197b88c2f15821b55ea5bbf","condition":"full-information","relevant_dimensions":["antennae","pattern"],"bee_group":{"antennae":"A","wings":"X","pattern":"D","legs":"X"},"bonus":1.020000000000001},{"rt":648.6000000238419,"stimulus":"bees-with-color/bee-B2SF.svg","response":0,"trial_type":"image-button-response","trial_index":157,"tim