[{"success":true,"trial_type":"fullscreen","trial_index":0,"time_elapsed":2326,"internal_node_id":"0.0-0.0","subject_id":"6047938e2edfb901ef28975e","study_id":"6197b3f67c2b5cd3b6d9596a","session_id":"6197b9eb38bfc1bd00b4788a","condition":"full-information","relevant_dimensions":["antennae","pattern"],"bee_group":{"antennae":"B","wings":"X","pattern":"D","legs":"X"},"bonus":0.7000000000000013},{"success":true,"timeout":false,"failed_images":[],"failed_audio":[],"failed_video":[],"trial_type":"preload","trial_index":1,"time_elapsed":4435,"internal_node_id":"0.0-1.0","subject_id":"6047938e2edfb901ef28975e","study_id":"6197b3f67c2b5cd3b6d9596a","session_id":"6197b9eb38bfc1bd00b4788a","condition":"full-information","relevant_dimensions":["antennae","pattern"],"bee_group":{"antennae":"B","wings":"X","pattern":"D","legs":"X"},"bonus":0.7000000000000013},{"rt":1943.5,"stimulus":"Welcome! Press any key to begin.","response":"f","trial_type":"html-keyboard-response","trial_index":2,"time_elapsed":6379,"internal_node_id":"0.0-2.0","subject_id":"6047938e2edfb901ef28975e","study_id":"6197b3f67c2b5cd3b6d9596a","session_id":"6197b9eb38bfc1bd00b4788a","condition":"full-information","relevant_dimensions":["antennae","pattern"],"bee_group":{"antennae":"B","wings":"X","pattern":"D","legs":"X"},"bonus":0.7000000000000013},{"view_history":[{"page_index":0,"viewing_time":3462.800000000745},{"page_index":1,"viewing_time":7249.699999999255},{"page_index":2,"viewing_time":5002},{"page_index":3,"viewing_time":4333.89999999851},{"page_index":4,"viewing_time":4424},{"page_index":5,"viewing_time":3015.10000000149},{"page_index":6,"viewing_time":4895.89999999851},{"page_index":7,"viewing_time":4505.10000000149},{"page_index":8,"viewing_time":3162},{"page_index":9,"viewing_time":3067},{"page_index":10,"viewing_time":2105},{"page_index":11,"viewing_time":7617.89999999851},{"page_index":12,"viewing_time":4672},{"page_index":13,"viewing_time":1058.199999999255},{"page_index":14,"viewing_time":2352.900000002235}],"rt":60924,"trial_type":"instructions","trial_index":3,"time_elapsed":67305,"internal_node_id":"0.0-3.0-0.0","subject_id":"6047938e2edfb901ef28975e","study_id":"6197b3f67c2b5cd3b6d9596a","session_id":"6197b9eb38bfc1bd00b4788a","condition":"full-information","relevant_dimensions":["antennae","pattern"],"bee_group":{"antennae":"B","wings":"X","pattern":"D","legs":"X"},"bonus":0.7000000000000013},{"rt":15865.800000000745,"response":{"Q0":["Stripes or spots on body","Single or double wings","Antennae or no antennae"]},"question_order":[0],"trial_type":"survey-multi-select","trial_index":4,"time_elapsed":83173,"internal_node_id":"0.0-3.0-1.0","subject_id":"6047938e2edfb901ef28975e","study_id":"6197b3f67c2b5cd3b6d9596a","session_id":"6197b9eb38bfc1bd00b4788a","condition":"full-information","relevant_dimensions":["antennae","pattern"],"bee_group":{"antennae":"B","wings":"X","pattern":"D","legs":"X"},"correct":false,"bonus":0.7000000000000013},{"rt":32899.699999999255,"response":{"Q1":"No.","Q2":"Based on the order in which you see the bees.","Q3":"You learn if it was friendly or dangerous, but do not alter your bonus."},"question_order":[0,1,2],"trial_type":"survey-multi-choice","trial_index":5,"time_elapsed":116075,"internal_node_id":"0.0-3.0-2.0","subject_id":"6047938e2edfb901ef28975e","study_id":"6197b3f67c2b5cd3b6d9596a","session_id":"6197b9eb38bfc1bd00b4788a","condition":"full-information","relevant_dimensions":["antennae","pattern"],"bee_group":{"antennae":"B","wings":"X","pattern":"D","legs":"X"},"correct":false,"bonus":0.7000000000000013},{"rt":3886.300000000745,"stimulus":"<p>You did not answer all comprehension questions correctly.<br>Press <b>continue</b> to review the instructions again.</p>","response":0,"trial_type":"html-button-response","trial_index":6,"time_elapsed":119965,"internal_node_id":"0.0-3.0-3.0","subject_id":"6047938e2edfb901ef28975e","study_id":"6197b3f67c2b5cd3b6d9596a","session_id":"6197b9eb38bfc1bd00b4788a","condition":"full-information","relevant_dimensions":["antennae","pattern"],"bee_group":{"antennae":"B","wings":"X","pattern":"D","legs":"X"},"bonus":0.7000000000000013},{"view_history":[{"page_index":0,"viewing_time":2078.800000000745},{"page_index":1,"viewing_time":9666},{"page_index":2,"viewing_time":10911},{"page_index":3,"viewing_time":10944},{"page_index":4,"viewing_time":7244.89999999851},{"page_index":5,"viewing_time":7700},{"page_index":6,"viewing_time":10829.10000000149},{"page_index":7,"viewing_time":4612.099999997765},{"page_index":8,"viewing_time":1631.9000000022352},{"page_index":9,"viewing_time":1698.8999999985099},{"page_index":10,"viewing_time":1059.1000000014901},{"page_index":11,"viewing_time":8240},{"page_index":12,"viewing_time":1877},{"page_index":13,"viewing_time":849},{"page_index":14,"viewing_time":1329}],"rt":80671.39999999851,"trial_type":"instructions","trial_index":7,"time_elapsed":200637,"internal_node_id":"0.0-3.0-4.0-0.0","subject_id":"6047938e2edfb901ef28975e","study_id":"6197b3f67c2b5cd3b6d9596a","session_id":"6197b9eb38bfc1bd00b4788a","condition":"full-information","relevant_dimensions":["antennae","pattern"],"bee_group":{"antennae":"B","wings":"X","pattern":"D","legs":"X"},"bonus":0.7000000000000013},{"rt":6762.699999999255,"response":{"Q0":["Two or six legs","Stripes or spots on body","Single or double wings","Antennae or no antennae"]},"question_order":[0],"trial_type":"survey-multi-select","trial_index":8,"time_elapsed":207402,"internal_node_id":"0.0-3.0-4.0-1.0","subject_id":"6047938e2edfb901ef28975e","study_id":"6197b3f67c2b5cd3b6d9596a","session_id":"6197b9eb38bfc1bd00b4788a","condition":"full-information","relevant_dimensions":["antennae","pattern"],"bee_group":{"antennae":"B","wings":"X","pattern":"D","legs":"X"},"correct":true,"bonus":0.7000000000000013},{"rt":18618.599999997765,"response":{"Q1":"No.","Q2":"Based on the four features of the bee.","Q3":"You learn if it was friendly or dangerous, but do not alter your bonus."},"question_order":[0,1,2],"trial_type":"survey-multi-choice","trial_index":9,"time_elapsed":226023,"internal_node_id":"0.0-3.0-4.0-2.0","subject_id":"6047938e2edfb901ef28975e","study_id":"6197b3f67c2b5cd3b6d9596a","session_id":"6197b9eb38bfc1bd00b4788a","condition":"full-information","relevant_dimensions":["antennae","pattern"],"bee_group":{"antennae":"B","wings":"X","pattern":"D","legs":"X"},"correct":true,"bonus":0.7000000000000013},{"rt":1406.300000000745,"stimulus":"<p>Congrats, you got everything right<br>When you're ready, click the button below to continue to the experiment.</p>","response":0,"trial_type":"html-button-response","trial_index":10,"time_elapsed":227432,"internal_node_id":"0.0-3.0-4.0-3.0","subject_id":"6047938e2edfb901ef28975e","study_id":"6197b3f67c2b5cd3b6d9596a","session_id":"6197b9eb38bfc1bd00b4788a","condition":"full-information","relevant_dimensions":["antennae","pattern"],"bee_group":{"antennae":"B","wings":"X","pattern":"D","legs":"X"},"bonus":0.7000000000000013},{"rt":3097.5,"stimulus":"bees-with-color/bee-A2DF.svg","response":0,"trial_type":"image-button-response","trial_index":11,"time_elapsed":230530,"internal_node_id":"0.0-4.0-0.0","subject_id":"6047938e2edfb901ef28975e","study_id":"6197b3f67c2b5cd3b6d9596a","session_id":"6197b9eb38bfc1bd00b4788a","condition":"full-information","relevant_dimensions":["antennae","pattern"],"bee_group":{"antennae":"B","wings":"X","pattern":"D","legs":"X"},"action":"harvest","summary":"good-harvest","bonus":0.7000000000000013},{"rt":3054.800000000745,"stimulus":"\n                    <p><b>Action: <em>harvest</em></b></p>\n                    <p>This is the bee that you just saw.</p>\n                    <img src=\"bees-with-color/bee-A2DF.svg\" width=\"200\">\n                    <p><span class=\"greenText\"><b>Successful harvest!</b></span><br>Your pay has increased by $0.02. Your bonus pay is now $0.56.</p>\n            ","response":0,"trial_type":"html-button-response","trial_index":12,"time_elapsed":233587,"internal_node_id":"0.0-4.0-1.0","subject_id":"6047938e2edfb901ef28975e","study_id":"6197b3f67c2b5cd3b6d9596a","session_id":"6197b9eb38bfc1bd00b4788a","condition":"full-information","relevant_dimensions":["antennae","pattern"],"bee_group":{"antennae":"B","wings":"X","pattern":"D","legs":"X"},"bonus":0.7000000000000013},{"rt":1282.7999999970198,"stimulus":"bees-with-color/bee-A2SF.svg","response":0,"trial_type":"image-button-response","trial_index":13,"time_elapsed":234871,"internal_node_id":"0.0-4.0-0.1","subject_id":"6047938e2edfb901ef28975e","study_id":"6197b3f67c2b5cd3b6d9596a","session_id":"6197b9eb38bfc1bd00b4788a","condition":"full-information","relevant_dimensions":["antennae","pattern"],"bee_group":{"antennae":"B","wings":"X","pattern":"D","legs":"X"},"action":"harvest","summary":"good-harvest","bonus":0.7000000000000013},{"rt":1513.1000000014901,"stimulus":"\n                    <p><b>Action: <em>harvest</em></b></p>\n                    <p>This is the bee that you just saw.</p>\n                    <img src=\"bees-with-color/bee-A2SF.svg\" width=\"200\">\n                    <p><span class=\"greenText\"><b>Successful harvest!</b></span><br>Your pay has increased by $0.02. Your bonus pay is now $0.58.</p>\n            ","response":0,"trial_type":"html-button-response","trial_index":14,"time_elapsed":236386,"internal_node_id":"0.0-4.0-1.1","subject_id":"6047938e2edfb901ef28975e","study_id":"6197b3f67c2b5cd3b6d9596a","session_id":"6197b9eb38bfc1bd00b4788a","condition":"full-information","relevant_dimensions":["antennae","pattern"],"bee_group":{"antennae":"B","wings":"X","pattern":"D","legs":"X"},"bonus":0.7000000000000013},{"rt":1979,"stimulus":"bees-with-color/bee-B2DM.svg","response":0,"trial_type":"image-button-response","trial_index":15,"time_elapsed":238366,"internal_node_id":"0.0-4.0-0.2","subject_id":"6047938e2edfb901ef28975e","study_id":"6197b3f67c2b5cd3b6d9596a","session_id":"6197b9eb38bfc1bd00b4788a","condition":"full-information","relevant_dimensions":["antennae","pattern"],"bee_group":{"antennae":"B","wings":"X","pattern":"D","legs":"X"},"action":"harvest","summary":"bad-harvest","bonus":0.7000000000000013},{"rt":1972.2999999970198,"stimulus":"\n                    <p><b>Action: <em>harvest</em></b></p>\n                    <p>This is the bee that you just saw.</p>\n                    <img src=\"bees-with-color/bee-B2DM.svg\" width=\"200\">\n                    <p><span class=\"redText\">Bad choice, the bee was angry.</span><br><b>You have been stung!</b><br>Your pay has been decreased by $0.10. Your bonus pay is now $0.48.</p>\n            ","response":0,"trial_type":"html-button-response","trial_index":16,"time_elapsed":240340,"internal_node_id":"0.0-4.0-1.2","subject_id":"6047938e2edfb901ef28975e","study_id":"6197b3f67c2b5cd3b6d9596a","session_id":"6197b9eb38bfc1bd00b4788a","condition":"full-information","relevant_dimensions":["antennae","pattern"],"bee_group":{"antennae":"B","wings":"X","pattern":"D","legs":"X"},"bonus":0.7000000000000013},{"rt":2045.9000000022352,"stimulus":"bees-with-color/bee-A1DM.svg","response":0,"trial_type":"image-button-response","trial_index":17,"time_elapsed":242387,"internal_node_id":"0.0-4.0-0.3","subject_id":"6047938e2edfb901ef28975e","study_id":"6197b3f67c2b5cd3b6d9596a","session_id":"6197b9eb38bfc1bd00b4788a","condition":"full-information","relevant_dimensions":["antennae","pattern"],"bee_group":{"antennae":"B","wings":"X","pattern":"D","legs":"X"},"action":"harvest","summary":"good-harvest","bonus":0.7000000000000013},{"rt":1140.800000000745,"stimulus":"\n                    <p><b>Action: <em>harvest</em></b></p>\n                    <p>This is the bee that you just saw.</p>\n                    <img src=\"bees-with-color/bee-A1DM.svg\" width=\"200\">\n                    <p><span class=\"greenText\"><b>Successful harvest!</b></span><br>Your pay has increased by $0.02. Your bonus pay is now $0.50.</p>\n            ","response":0,"trial_type":"html-button-response","trial_index":18,"time_elapsed":243529,"internal_node_id":"0.0-4.0-1.3","subject_id":"6047938e2edfb901ef28975e","study_id":"6197b3f67c2b5cd3b6d9596a","session_id":"6197b9eb38bfc1bd00b4788a","condition":"full-information","relevant_dimensions":["antennae","pattern"],"bee_group":{"antennae":"B","wings":"X","pattern":"D","legs":"X"},"bonus":0.7000000000000013},{"rt":1205.800000000745,"stimulus":"bees-with-color/bee-B2SF.svg","response":0,"trial_type":"image-button-response","trial_index":19,"time_elapsed":244736,"internal_node_id":"0.0-4.0-0.4","subject_id":"6047938e2edfb901ef28975e","study_id":"6197b3f67c2b5cd3b6d9596a","session_id":"6197b9eb38bfc1bd00b4788a","condition":"full-information","relevant_dimensions":["antennae","pattern"],"bee_group":{"antennae":"B","wings":"X","pattern":"D","legs":"X"},"action":"harvest","summary":"good-harvest","bonus":0.7000000000000013},{"rt":745.6999999992549,"stimulus":"\n                    <p><b>Action: <em>harvest</em></b></p>\n                    <p>This is the bee that you just saw.</p>\n                    <img src=\"bees-with-color/bee-B2SF.svg\" width=\"200\">\n                    <p><span class=\"greenText\"><b>Successful harvest!</b></span><br>Your pay has increased by $0.02. Your bonus pay is now $0.52.</p>\n            ","response":0,"trial_type":"html-button-response","trial_index":20,"time_elapsed":245483,"internal_node_id":"0.0-4.0-1.4","subject_id":"6047938e2edfb901ef28975e","study_id":"6197b3f67c2b5cd3b6d9596a","session_id":"6197b9eb38bfc1bd00b4788a","condition":"full-information","relevant_dimensions":["antennae","pattern"],"bee_group":{"antennae":"B","wings":"X","pattern":"D","legs":"X"},"bonus":0.7000000000000013},{"rt":1494.199999999255,"stimulus":"bees-with-color/bee-A1SM.svg","response":0,"trial_type":"image-button-response","trial_index":21,"time_elapsed":246978,"internal_node_id":"0.0-4.0-0.5","subject_id":"6047938e2edfb901ef28975e","study_id":"6197b3f67c2b5cd3b6d9596a","session_id":"6197b9eb38bfc1bd00b4788a","condition":"full-information","relevant_dimensions":["antennae","pattern"],"bee_group":{"antennae":"B","wings":"X","pattern":"D","legs":"X"},"action":"harvest","summary":"good-harvest","bonus":0.7000000000000013},{"rt":678,"stimulus":"\n                    <p><b>Action: <em>harvest</em></b></p>\n                    <p>This is the bee that you just saw.</p>\n                    <img src=\"bees-with-color/bee-A1SM.svg\" width=\"200\">\n                    <p><span class=\"greenText\"><b>Successful harvest!</b></span><br>Your pay has increased by $0.02. Your bonus pay is now $0.54.</p>\n            ","response":0,"trial_type":"html-button-response","trial_index":22,"time_elapsed":247657,"internal_node_id":"0.0-4.0-1.5","subject_id":"6047938e2edfb901ef28975e","study_id":"6197b3f67c2b5cd3b6d9596a","session_id":"6197b9eb38bfc1bd00b4788a","condition":"full-information","relevant_dimensions":["antennae","pattern"],"bee_group":{"antennae":"B","wings":"X","pattern":"D","legs":"X"},"bonus":0.7000000000000013},{"rt":1001.6999999992549,"stimulus":"bees-with-color/bee-A2DM.svg","response":1,"trial_type":"image-button-response","trial_index":23,"time_elapsed":248660,"internal_node_id":"0.0-4.0-0.6","subject_id":"6047938e2edfb901ef28975e","study_id":"6197b3f67c2b5cd3b6d9596a","session_id":"6197b9eb38bfc1bd00b4788a","condition":"full-information","relevant_dimensions":["antennae","pattern"],"bee_group":{"antennae":"B","wings":"X","pattern":"D","legs":"X"},"action":"avoid","summary":"bad-avoid","bonus":0.7000000000000013},{"rt":3327.699999999255,"stimulus":"\n                    <p><b>Action: <em>avoid</em></b></p>\n                    <p>This is the bee that you just saw.</p>\n                    <img src=\"bees-with-color/bee-A2DM.svg\" width=\"200\">\n                    <p><span class=\"redText\">Bad choice,</span> the bee was friendly.<br>Your bonus pay is unchanged, and remains at $0.54.</p>\n            ","response":0,"trial_type":"html-button-response","trial_index":24,"time_elapsed":251989,"internal_node_id":"0.0-4.0-1.6","subject_id":"6047938e2edfb901ef28975e","study_id":"6197b3f67c2b5cd3b6d9596a","session_id":"6197b9eb38bfc1bd00b4788a","condition":"full-information","relevant_dimensions":["antennae","pattern"],"bee_group":{"antennae":"B","wings":"X","pattern":"D","legs":"X"},"bonus":0.7000000000000013},{"rt":844,"stimulus":"bees-with-color/bee-B1DF.svg","response":0,"trial_type":"image-button-response","trial_index":25,"time_elapsed":252834,"internal_node_id":"0.0-4.0-0.7","subject_id":"6047938e2edfb901ef28975e","study_id":"6197b3f67c2b5cd3b6d9596a","session_id":"6197b9eb38bfc1bd00b4788a","condition":"full-information","relevant_dimensions":["antennae","pattern"],"bee_group":{"antennae":"B","wings":"X","pattern":"D","legs":"X"},"action":"harvest","summary":"bad-harvest","bonus":0.7000000000000013},{"rt":1168.5,"stimulus":"\n                    <p><b>Action: <em>harvest</em></b></p>\n                    <p>This is the bee that you just saw.</p>\n                    <img src=\"bees-with-color/bee-B1DF.svg\" width=\"200\">\n                    <p><span class=\"redText\">Bad choice, the bee was angry.</span><br><b>You have been stung!</b><br>Your pay has been decreased by $0.10. Your bonus pay is now $0.44.</p>\n            ","response":0,"trial_type":"html-button-response","trial_index":26,"time_elapsed":254004,"internal_node_id":"0.0-4.0-1.7","subject_id":"6047938e2edfb901ef28975e","study_id":"6197b3f67c2b5cd3b6d9596a","session_id":"6197b9eb38bfc1bd00b4788a","condition":"full-information","relevant_dimensions":["antennae","pattern"],"bee_group":{"antennae":"B","wings":"X","pattern":"D","legs":"X"},"bonus":0.7000000000000013},{"rt":1046.699999999255,"stimulus":"bees-with-color/bee-B2SM.svg","response":0,"trial_type":"image-button-response","trial_index":27,"time_elapsed":255052,"internal_node_id":"0.0-4.0-0.8","subject_id":"6047938e2edfb901ef28975e","study_id":"6197b3f67c2b5cd3b6d9596a","session_id":"6197b9eb38bfc1bd00b4788a","condition":"full-information","relevant_dimensions":["antennae","pattern"],"bee_group":{"antennae":"B","wings":"X","pattern":"D","legs":"X"},"action":"harvest","summary":"good-harvest","bonus":0.7000000000000013},{"rt":553.7999999970198,"stimulus":"\n                    <p><b>Action: <em>harvest</em></b></p>\n                    <p>This is the bee that you just saw.</p>\n                    <img src=\"bees-with-color/bee-B2SM.svg\" width=\"200\">\n                    <p><span class=\"greenText\"><b>Successful harvest!</b></span><br>Your pay has increased by $0.02. Your bonus pay is now $0.46.</p>\n            ","response":0,"trial_type":"html-button-response","trial_index":28,"time_elapsed":255607,"internal_node_id":"0.0-4.0-1.8","subject_id":"6047938e2edfb901ef28975e","study_id":"6197b3f67c2b5cd3b6d9596a","session_id":"6197b9eb38bfc1bd00b4788a","condition":"full-information","relevant_dimensions":["antennae","pattern"],"bee_group":{"antennae":"B","wings":"X","pattern":"D","legs":"X"},"bonus":0.7000000000000013},{"rt":365.8999999985099,"stimulus":"bees-with-color/bee-A1SF.svg","response":0,"trial_type":"image-button-response","trial_index":29,"time_elapsed":255974,"internal_node_id":"0.0-4.0-0.9","subject_id":"6047938e2edfb901ef28975e","study_id":"6197b3f67c2b5cd3b6d9596a","session_id":"6197b9eb38bfc1bd00b4788a","condition":"full-information","relevant_dimensions":["antennae","pattern"],"bee_group":{"antennae":"B","wings":"X","pattern":"D","legs":"X"},"action":"harvest","summary":"good-harvest","bonus":0.7000000000000013},{"rt":635.3000000007451,"stimulus":"\n                    <p><b>Action: <em>harvest</em></b></p>\n                    <p>This is the bee that you just saw.</p>\n                    <img src=\"bees-with-color/bee-A1SF.svg\" width=\"200\">\n                    <p><span class=\"greenText\"><b>Successful harvest!</b></span><br>Your pay has increased by $0.02. Your bonus pay is now $0.48.</p>\n            ","response":0,"trial_type":"html-button-response","trial_index":30,"time_elapsed":256611,"internal_node_id":"0.0-4.0-1.9","subject_id":"6047938e2edfb901ef28975e","study_id":"6197b3f67c2b5cd3b6d9596a","session_id":"6197b9eb38bfc1bd00b4788a","condition":"full-information","relevant_dimensions":["antennae","pattern"],"bee_group":{"antennae":"B","wings":"X","pattern":"D","legs":"X"},"bonus":0.7000000000000013},{"rt":305.30000000074506,"stimulus":"bees-with-color/bee-A2SM.svg","response":0,"trial_type":"image-button-response","trial_index":31,"time_elapsed":256917,"internal_node_id":"0.0-4.0-0.10","subject_id":"6047938e2edfb901ef28975e","study_id":"6197b3f67c2b5cd3b6d9596a","session_id":"6197b9eb38bfc1bd00b4788a","condition":"full-information","relevant_dimensions":["antennae","pattern"],"bee_group":{"antennae":"B","wings":"X","pattern":"D","legs":"X"},"action":"harvest","summary":"good-harvest","bonus":0.7000000000000013},{"rt":568.1000000014901,"stimulus":"\n                    <p><b>Action: <em>harvest</em></b></p>\n                    <p>This is the bee that you just saw.</p>\n                    <img src=\"bees-with-color/bee-A2SM.svg\" width=\"200\">\n                    <p><span class=\"greenText\"><b>Successful harvest!</b></span><br>Your pay has increased by $0.02. Your bonus pay is now $0.50.</p>\n            ","response":0,"trial_type":"html-button-response","trial_index":32,"time_elapsed":257486,"internal_node_id":"0.0-4.0-1.10","subject_id":"6047938e2edfb901ef28975e","study_id":"6197b3f67c2b5cd3b6d9596a","session_id":"6197b9eb38bfc1bd00b4788a","condition":"full-information","relevant_dimensions":["antennae","pattern"],"bee_group":{"antennae":"B","wings":"X","pattern":"D","legs":"X"},"bonus":0.7000000000000013},{"rt":796.1999999992549,"stimulus":"bees-with-color/bee-A1DF.svg","response":0,"trial_type":"image-button-response","trial_index":33,"time_elapsed":258283,"internal_node_id":"0.0-4.0-0.11","subject_id":"6047938e2edfb901ef28975e","study_id":"6197b3f67c2b5cd3b6d9596a","session_id":"6197b9eb38bfc1bd00b4788a","condition":"full-information","relevant_dimensions":["antennae","pattern"],"bee_group":{"antennae":"B","wings":"X","pattern":"D","legs":"X"},"action":"harvest","summary":"good-harvest","bonus":0.7000000000000013},{"rt":482,"stimulus":"\n                    <p><b>Action: <em>harvest</em></b></p>\n                    <p>This is the bee that you just saw.</p>\n                    <img src=\"bees-with-color/bee-A1DF.svg\" width=\"200\">\n                    <p><span class=\"greenText\"><b>Successful harvest!</b></span><br>Your pay has increased by $0.02. Your bonus pay is now $0.52.</p>\n            ","response":0,"trial_type":"html-button-response","trial_index":34,"time_elapsed":258766,"internal_node_id":"0.0-4.0-1.11","subject_id":"6047938e2edfb901ef28975e","study_id":"6197b3f67c2b5cd3b6d9596a","session_id":"6197b9eb38bfc1bd00b4788a","condition":"full-information","relevant_dimensions":["antennae","pattern"],"bee_group":{"antennae":"B","wings":"X","pattern":"D","legs":"X"},"bonus":0.7000000000000013},{"rt":1268,"stimulus":"bees-with-color/bee-B1SM.svg","response":0,"trial_type":"image-button-response","trial_index":35,"time_elapsed":260035,"internal_node_id":"0.0-4.0-0.12","subject_id":"6047938e2edfb901ef28975e","study_id":"6197b3f67c2b5cd3b6d9596a","session_id":"6197b9eb38bfc1bd00b4788a","condition":"full-information","relevant_dimensions":["antennae","pattern"],"bee_group":{"antennae":"B","wings":"X","pattern":"D","legs":"X"},"action":"harvest","summary":"good-harvest","bonus":0.7000000000000013},{"rt":491.6000000014901,"stimulus":"\n                    <p><b>Action: <em>harvest</em></b></p>\n                    <p>This is the bee that you just saw.</p>\n                    <img src=\"bees-with-color/bee-B1SM.svg\" width=\"200\">\n                    <p><span class=\"greenText\"><b>Successful harvest!</b></span><br>Your pay has increased by $0.02. Your bonus pay is now $0.54.</p>\n            ","response":0,"trial_type":"html-button-response","trial_index":36,"time_elapsed":260528,"internal_node_id":"0.0-4.0-1.12","subject_id":"6047938e2edfb901ef28975e","study_id":"6197b3f67c2b5cd3b6d9596a","session_id":"6197b9eb38bfc1bd00b4788a","condition":"full-information","relevant_dimensions":["antennae","pattern"],"bee_group":{"antennae":"B","wings":"X","pattern":"D","legs":"X"},"bonus":0.7000000000000013},{"rt":1323.199999999255,"stimulus":"bees-with-color/bee-B1DM.svg","response":1,"trial_type":"image-button-response","trial_index":37,"time_elapsed":261852,"internal_node_id":"0.0-4.0-0.13","subject_id":"6047938e2edfb901ef28975e","study_id":"6197b3f67c2b5cd3b6d9596a","session_id":"6197b9eb38bfc1bd00b4788a","condition":"full-information","relevant_dimensions":["antennae","pattern"],"bee_group":{"antennae":"B","wings":"X","pattern":"D","legs":"X"},"action":"avoid","summary":"good-avoid","bonus":0.7000000000000013},{"rt":1008,"stimulus":"\n                    <p><b>Action: <em>avoid</em></b></p>\n                    <p>This is the bee that you just saw.</p>\n                    <img src=\"bees-with-color/bee-B1DM.svg\" width=\"200\">\n                    <p><span class=\"greenText\">Good choice!</span>  This bee would have stung you.<br>Your bonus pay is unchanged, and remains at $0.54.</p>\n            ","response":0,"trial_type":"html-button-response","trial_index":38,"time_elapsed":262861,"internal_node_id":"0.0-4.0-1.13","subject_id":"6047938e2edfb901ef28975e","study_id":"6197b3f67c2b5cd3b6d9596a","session_id":"6197b9eb38bfc1bd00b4788a","condition":"full-information","relevant_dimensions":["antennae","pattern"],"bee_group":{"antennae":"B","wings":"X","pattern":"D","legs":"X"},"bonus":0.7000000000000013},{"rt":859.8000000007451,"stimulus":"bees-with-color/bee-B2DF.svg","response":0,"trial_type":"image-button-response","trial_index":39,"time_elapsed":263722,"internal_node_id":"0.0-4.0-0.14","subject_id":"6047938e2edfb901ef28975e","study_id":"6197b3f67c2b5cd3b6d9596a","session_id":"6197b9eb38bfc1bd00b4788a","condition":"full-information","relevant_dimensions":["antennae","pattern"],"bee_group":{"antennae":"B","wings":"X","pattern":"D","legs":"X"},"action":"harvest","summary":"bad-harvest","bonus":0.7000000000000013},{"rt":856.5,"stimulus":"\n                    <p><b>Action: <em>harvest</em></b></p>\n                    <p>This is the bee that you just saw.</p>\n                    <img src=\"bees-with-color/bee-B2DF.svg\" width=\"200\">\n                    <p><span class=\"redText\">Bad choice, the bee was angry.</span><br><b>You have been stung!</b><br>Your pay has been decreased by $0.10. Your bonus pay is now $0.44.</p>\n            ","response":0,"trial_type":"html-button-response","trial_index":40,"time_elapsed":264580,"internal_node_id":"0.0-4.0-1.14","subject_id":"6047938e2edfb901ef28975e","study_id":"6197b3f67c2b5cd3b6d9596a","session_id":"6197b9eb38bfc1bd00b4788a","condition":"full-information","relevant_dimensions":["antennae","pattern"],"bee_group":{"antennae":"B","wings":"X","pattern":"D","legs":"X"},"bonus":0.7000000000000013},{"rt":2393.300000000745,"stimulus":"bees-with-color/bee-B1SF.svg","response":0,"trial_type":"image-button-response","trial_index":41,"time_elapsed":266974,"internal_node_id":"0.0-4.0-0.15","subject_id":"6047938e2edfb901ef28975e","study_id":"6197b3f67c2b5cd3b6d9596a","session_id":"6197b9eb38bfc1bd00b4788a","condition":"full-information","relevant_dimensions":["antennae","pattern"],"bee_group":{"antennae":"B","wings":"X","pattern":"D","legs":"X"},"action":"harvest","summary":"good-harvest","bonus":0.7000000000000013},{"rt":442.80000000074506,"stimulus":"\n                    <p><b>Action: <em>harvest</em></b></p>\n                    <p>This is the bee that you just saw.</p>\n                    <img src=\"bees-with-color/bee-B1SF.svg\" width=\"200\">\n                    <p><span class=\"greenText\"><b>Successful harvest!</b></span><br>Your pay has increased by $0.02. Your bonus pay is now $0.46.</p>\n            ","response":0,"trial_type":"html-button-response","trial_index":42,"time_elapsed":267418,"internal_node_id":"0.0-4.0-1.15","subject_id":"6047938e2edfb901ef28975e","study_id":"6197b3f67c2b5cd3b6d9596a","session_id":"6197b9eb38bfc1bd00b4788a","condition":"full-information","relevant_dimensions":["antennae","pattern"],"bee_group":{"antennae":"B","wings":"X","pattern":"D","legs":"X"},"bonus":0.7000000000000013},{"rt":752.2999999970198,"stimulus":"bees-with-color/bee-B2SF.svg","response":0,"trial_type":"image-button-response","trial_index":43,"time_elapsed":268171,"internal_node_id":"0.0-4.0-0.16","subject_id":"6047938e2edfb901ef28975e","study_id":"6197b3f67c2b5cd3b6d9596a","session_id":"6197b9eb38bfc1bd00b4788a","condition":"full-information","relevant_dimensions":["antennae","pattern"],"bee_group":{"antennae":"B","wings":"X","pattern":"D","legs":"X"},"action":"harvest","summary":"good-harvest","bonus":0.7000000000000013},{"rt":385.69999999925494,"stimulus":"\n                    <p><b>Action: <em>harvest</em></b></p>\n                    <p>This is the bee that you just saw.</p>\n                    <img src=\"bees-with-color/bee-B2SF.svg\" width=\"200\">\n                    <p><span class=\"greenText\"><b>Successful harvest!</b></span><br>Your pay has increased by $0.02. Your bonus pay is now $0.48.</p>\n            ","response":0,"trial_type":"html-button-response","trial_index":44,"time_elapsed":268558,"internal_node_id":"0.0-4.0-1.16","subject_id":"6047938e2edfb901ef28975e","study_id":"6197b3f67c2b5cd3b6d9596a","session_id":"6197b9eb38bfc1bd00b4788a","condition":"full-information","relevant_dimensions":["antennae","pattern"],"bee_group":{"antennae":"B","wings":"X","pattern":"D","legs":"X"},"bonus":0.7000000000000013},{"rt":1465.199999999255,"stimulus":"bees-with-color/bee-B1SM.svg","response":0,"trial_type":"image-button-response","trial_index":45,"time_elapsed":270024,"internal_node_id":"0.0-4.0-0.17","subject_id":"6047938e2edfb901ef28975e","study_id":"6197b3f67c2b5cd3b6d9596a","session_id":"6197b9eb38bfc1bd00b4788a","condition":"full-information","relevant_dimensions":["antennae","pattern"],"bee_group":{"antennae":"B","wings":"X","pattern":"D","legs":"X"},"action":"harvest","summary":"good-harvest","bonus":0.7000000000000013},{"rt":468.9000000022352,"stimulus":"\n                    <p><b>Action: <em>harvest</em></b></p>\n                    <p>This is the bee that you just saw.</p>\n                    <img src=\"bees-with-color/bee-B1SM.svg\" width=\"200\">\n                    <p><span class=\"greenText\"><b>Successful harvest!</b></span><br>Your pay has increased by $0.02. Your bonus pay is now $0.50.</p>\n            ","response":0,"trial_type":"html-button-response","trial_index":46,"time_elapsed":270494,"internal_node_id":"0.0-4.0-1.17","subject_id":"6047938e2edfb901ef28975e","study_id":"6197b3f67c2b5cd3b6d9596a","session_id":"6197b9eb38bfc1bd00b4788a","condition":"full-information","relevant_dimensions":["antennae","pattern"],"bee_group":{"antennae":"B","wings":"X","pattern":"D","legs":"X"},"bonus":0.7000000000000013},{"rt":1656.199999999255,"stimulus":"bees-with-color/bee-B1DM.svg","response":1,"trial_type":"image-button-response","trial_index":47,"time_elapsed":272151,"internal_node_id":"0.0-4.0-0.18","subject_id":"6047938e2edfb901ef28975e","study_id":"6197b3f67c2b5cd3b6d9596a","session_id":"6197b9eb38bfc1bd00b4788a","condition":"full-information","relevant_dimensions":["antennae","pattern"],"bee_group":{"antennae":"B","wings":"X","pattern":"D","legs":"X"},"action":"avoid","summary":"good-avoid","bonus":0.7000000000000013},{"rt":649.9000000022352,"stimulus":"\n                    <p><b>Action: <em>avoid</em></b></p>\n                    <p>This is the bee that you just saw.</p>\n                    <img src=\"bees-with-color/bee-B1DM.svg\" width=\"200\">\n                    <p><span class=\"greenText\">Good choice!</span>  This bee would have stung you.<br>Your bonus pay is unchanged, and remains at $0.50.</p>\n            ","response":0,"trial_type":"html-button-response","trial_index":48,"time_elapsed":272802,"internal_node_id":"0.0-4.0-1.18","subject_id":"6047938e2edfb901ef28975e","study_id":"6197b3f67c2b5cd3b6d9596a","session_id":"6197b9eb38bfc1bd00b4788a","condition":"full-information","relevant_dimensions":["antennae","pattern"],"bee_group":{"antennae":"B","wings":"X","pattern":"D","legs":"X"},"bonus":0.7000000000000013},{"rt":2282.199999999255,"stimulus":"bees-with-color/bee-A2DF.svg","response":0,"trial_type":"image-button-response","trial_index":49,"time_elapsed":275085,"internal_node_id":"0.0-4.0-0.19","subject_id":"6047938e2edfb901ef28975e","study_id":"6197b3f67c2b5cd3b6d9596a","session_id":"6197b9eb38bfc1bd00b4788a","condition":"full-information","relevant_dimensions":["antennae","pattern"],"bee_group":{"antennae":"B","wings":"X","pattern":"D","legs":"X"},"action":"harvest","summary":"good-harvest","bonus":0.7000000000000013},{"rt":532.4000000022352,"stimulus":"\n                    <p><b>Action: <em>harvest</em></b></p>\n                    <p>This is the bee that you just saw.</p>\n                    <img src=\"bees-with-color/bee-A2DF.svg\" width=\"200\">\n                    <p><span class=\"greenText\"><b>Successful harvest!</b></span><br>Your pay has increased by $0.02. Your bonus pay is now $0.52.</p>\n            ","response":0,"trial_type":"html-button-response","trial_index":50,"time_elapsed":275619,"internal_node_id":"0.0-4.0-1.19","subject_id":"6047938e2edfb901ef28975e","study_id":"6197b3f67c2b5cd3b6d9596a","session_id":"6197b9eb38bfc1bd00b4788a","condition":"full-information","relevant_dimensions":["antennae","pattern"],"bee_group":{"antennae":"B","wings":"X","pattern":"D","legs":"X"},"bonus":0.7000000000000013},{"rt":2039.300000000745,"stimulus":"bees-with-color/bee-A1SF.svg","response":1,"trial_type":"image-button-response","trial_index":51,"time_elapsed":277660,"internal_node_id":"0.0-4.0-0.20","subject_id":"6047938e2edfb901ef28975e","study_id":"6197b3f67c2b5cd3b6d9596a","session_id":"6197b9eb38bfc1bd00b4788a","condition":"full-information","relevant_dimensions":["antennae","pattern"],"bee_group":{"antennae":"B","wings":"X","pattern":"D","legs":"X"},"action":"avoid","summary":"bad-avoid","bonus":0.7000000000000013},{"rt":587.8000000007451,"stimulus":"\n                    <p><b>Action: <em>avoid</em></b></p>\n                    <p>This is the bee that you just saw.</p>\n                    <img src=\"bees-with-color/bee-A1SF.svg\" width=\"200\">\n                    <p><span class=\"redText\">Bad choice,</span> the bee was friendly.<br>Your bonus pay is unchanged, and remains at $0.52.</p>\n            ","response":0,"trial_type":"html-button-response","trial_index":52,"time_elapsed":278249,"internal_node_id":"0.0-4.0-1.20","subject_id":"6047938e2edfb901ef28975e","study_id":"6197b3f67c2b5cd3b6d9596a","session_id":"6197b9eb38bfc1bd00b4788a","condition":"full-information","relevant_dimensions":["antennae","pattern"],"bee_group":{"antennae":"B","wings":"X","pattern":"D","legs":"X"},"bonus":0.7000000000000013},{"rt":1074.5,"stimulus":"bees-with-color/bee-A2SF.svg","response":1,"trial_type":"image-button-response","trial_index":53,"time_elapsed":279324,"internal_node_id":"0.0-4.0-0.21","subject_id":"6047938e2edfb901ef28975e","study_id":"6197b3f67c2b5cd3b6d9596a","session_id":"6197b9eb38bfc1bd00b4788a","condition":"full-information","relevant_dimensions":["antennae","pattern"],"bee_group":{"antennae":"B","wings":"X","pattern":"D","legs":"X"},"action":"avoid","summary":"bad-avoid","bonus":0.7000000000000013},{"rt":461.4000000022352,"stimulus":"\n                    <p><b>Action: <em>avoid</em></b></p>\n                    <p>This is the bee that you just saw.</p>\n                    <img src=\"bees-with-color/bee-A2SF.svg\" width=\"200\">\n                    <p><span class=\"redText\">Bad choice,</span> the bee was friendly.<br>Your bonus pay is unchanged, and remains at $0.52.</p>\n            ","response":0,"trial_type":"html-button-response","trial_index":54,"time_elapsed":279787,"internal_node_id":"0.0-4.0-1.21","subject_id":"6047938e2edfb901ef28975e","study_id":"6197b3f67c2b5cd3b6d9596a","session_id":"6197b9eb38bfc1bd00b4788a","condition":"full-information","relevant_dimensions":["antennae","pattern"],"bee_group":{"antennae":"B","wings":"X","pattern":"D","legs":"X"},"bonus":0.7000000000000013},{"rt":928.1999999992549,"stimulus":"bees-with-color/bee-A2SM.svg","response":0,"trial_type":"image-button-response","trial_index":55,"time_elapsed":280716,"internal_node_id":"0.0-4.0-0.22","subject_id":"6047938e2edfb901ef28975e","study_id":"6197b3f67c2b5cd3b6d9596a","session_id":"6197b9eb38bfc1bd00b4788a","condition":"full-information","relevant_dimensions":["antennae","pattern"],"bee_group":{"antennae":"B","wings":"X","pattern":"D","legs":"X"},"action":"harvest","summary":"good-harvest","bonus":0.7000000000000013},{"rt":506.9000000022352,"stimulus":"\n                    <p><b>Action: <em>harvest</em></b></p>\n                    <p>This is the bee that you just saw.</p>\n                    <img src=\"bees-with-color/bee-A2SM.svg\" width=\"200\">\n                    <p><span class=\"greenText\"><b>Successful harvest!</b></span><br>Your pay has increased by $0.02. Your bonus pay is now $0.54.</p>\n            ","response":0,"trial_type":"html-button-response","trial_index":56,"time_elapsed":281224,"internal_node_id":"0.0-4.0-1.22","subject_id":"6047938e2edfb901ef28975e","study_id":"6197b3f67c2b5cd3b6d9596a","session_id":"6197b9eb38bfc1bd00b4788a","condition":"full-information","relevant_dimensions":["antennae","pattern"],"bee_group":{"antennae":"B","wings":"X","pattern":"D","legs":"X"},"bonus":0.7000000000000013},{"rt":1542.199999999255,"stimulus":"bees-with-color/bee-B1DF.svg","response":1,"trial_type":"image-button-response","trial_index":57,"time_elapsed":282767,"internal_node_id":"0.0-4.0-0.23","subject_id":"6047938e2edfb901ef28975e","study_id":"6197b3f67c2b5cd3b6d9596a","session_id":"6197b9eb38bfc1bd00b4788a","condition":"full-information","relevant_dimensions":["antennae","pattern"],"bee_group":{"antennae":"B","wings":"X","pattern":"D","legs":"X"},"action":"avoid","summary":"good-avoid","bonus":0.7000000000000013},{"rt":705.0999999977648,"stimulus":"\n                    <p><b>Action: <em>avoid</em></b></p>\n                    <p>This is the bee that you just saw.</p>\n                    <img src=\"bees-with-color/bee-B1DF.svg\" width=\"200\">\n                    <p><span class=\"greenText\">Good choice!</span>  This bee would have stung you.<br>Your bonus pay is unchanged, and remains at $0.54.</p>\n            ","response":0,"trial_type":"html-button-response","trial_index":58,"time_elapsed":283473,"internal_node_id":"0.0-4.0-1.23","subject_id":"6047938e2edfb901ef28975e","study_id":"6197b3f67c2b5cd3b6d9596a","session_id":"6197b9eb38bfc1bd00b4788a","condition":"full-information","relevant_dimensions":["antennae","pattern"],"bee_group":{"antennae":"B","wings":"X","pattern":"D","legs":"X"},"bonus":0.7000000000000013},{"rt":1734.800000000745,"stimulus":"bees-with-color/bee-B2SM.svg","response":0,"trial_type":"image-button-response","trial_index":59,"time_elapsed":285209,"internal_node_id":"0.0-4.0-0.24","subject_id":"6047938e2edfb901ef28975e","study_id":"6197b3f67c2b5cd3b6d9596a","session_id":"6197b9eb38bfc1bd00b4788a","condition":"full-information","relevant_dimensions":["antennae","pattern"],"bee_group":{"antennae":"B","wings":"X","pattern":"D","legs":"X"},"action":"harvest","summary":"good-harvest","bonus":0.7000000000000013},{"rt":562.5,"stimulus":"\n                    <p><b>Action: <em>harvest</em></b></p>\n                    <p>This is the bee that you just saw.</p>\n                    <img src=\"bees-with-color/bee-B2SM.svg\" width=\"200\">\n                    <p><span class=\"greenText\"><b>Successful harvest!</b></span><br>Your pay has increased by $0.02. Your bonus pay is now $0.56.</p>\n            ","response":0,"trial_type":"html-button-response","trial_index":60,"time_elapsed":285773,"internal_node_id":"0.0-4.0-1.24","subject_id":"6047938e2edfb901ef28975e","study_id":"6197b3f67c2b5cd3b6d9596a","session_id":"6197b9eb38bfc1bd00b4788a","condition":"full-information","relevant_dimensions":["antennae","pattern"],"bee_group":{"antennae":"B","wings":"X","pattern":"D","legs":"X"},"bonus":0.7000000000000013},{"rt":799,"stimulus":"bees-with-color/bee-B2DM.svg","response":1,"trial_type":"image-button-response","trial_index":61,"time_elapsed":286573,"internal_node_id":"0.0-4.0-0.25","subject_id":"6047938e2edfb901ef28975e","study_id":"6197b3f67c2b5cd3b6d9596a","session_id":"6197b9eb38bfc1bd00b4788a","condition":"full-information","relevant_dimensions":["antennae","pattern"],"bee_group":{"antennae":"B","wings":"X","pattern":"D","legs":"X"},"action":"avoid","summary":"good-avoid","bonus":0.7000000000000013},{"rt":453.8999999985099,"stimulus":"\n                    <p><b>Action: <em>avoid</em></b></p>\n                    <p>This is the bee that you just saw.</p>\n                    <img src=\"bees-with-color/bee-B2DM.svg\" width=\"200\">\n                    <p><span class=\"greenText\">Good choice!</span>  This bee would have stung you.<br>Your bonus pay is unchanged, and remains at $0.56.</p>\n            ","response":0,"trial_type":"html-button-response","trial_index":62,"time_elapsed":287028,"internal_node_id":"0.0-4.0-1.25","subject_id":"6047938e2edfb901ef28975e","study_id":"6197b3f67c2b5cd3b6d9596a","session_id":"6197b9eb38bfc1bd00b4788a","condition":"full-information","relevant_dimensions":["antennae","pattern"],"bee_group":{"antennae":"B","wings":"X","pattern":"D","legs":"X"},"bonus":0.7000000000000013},{"rt":660.1999999992549,"stimulus":"bees-with-color/bee-A1SM.svg","response":0,"trial_type":"image-button-response","trial_index":63,"time_elapsed":287689,"internal_node_id":"0.0-4.0-0.26","subject_id":"6047938e2edfb901ef28975e","study_id":"6197b3f67c2b5cd3b6d9596a","session_id":"6197b9eb38bfc1bd00b4788a","condition":"full-information","relevant_dimensions":["antennae","pattern"],"bee_group":{"antennae":"B","wings":"X","pattern":"D","legs":"X"},"action":"harvest","summary":"good-harvest","bonus":0.7000000000000013},{"rt":514.9000000022352,"stimulus":"\n                    <p><b>Action: <em>harvest</em></b></p>\n                    <p>This is the bee that you just saw.</p>\n                    <img src=\"bees-with-color/bee-A1SM.svg\" width=\"200\">\n                    <p><span class=\"greenText\"><b>Successful harvest!</b></span><br>Your pay has increased by $0.02. Your bonus pay is now $0.58.</p>\n            ","response":0,"trial_type":"html-button-response","trial_index":64,"time_elapsed":288205,"internal_node_id":"0.0-4.0-1.26","subject_id":"6047938e2edfb901ef28975e","study_id":"6197b3f67c2b5cd3b6d9596a","session_id":"6197b9eb38bfc1bd00b4788a","condition":"full-information","relevant_dimensions":["antennae","pattern"],"bee_group":{"antennae":"B","wings":"X","pattern":"D","legs":"X"},"bonus":0.7000000000000013},{"rt":914.8999999985099,"stimulus":"bees-with-color/bee-A2DM.svg","response":1,"trial_type":"image-button-response","trial_index":65,"time_elapsed":289121,"internal_node_id":"0.0-4.0-0.27","subject_id":"6047938e2edfb901ef28975e","study_id":"6197b3f67c2b5cd3b6d9596a","session_id":"6197b9eb38bfc1bd00b4788a","condition":"full-information","relevant_dimensions":["antennae","pattern"],"bee_group":{"antennae":"B","wings":"X","pattern":"D","legs":"X"},"action":"avoid","summary":"bad-avoid","bonus":0.7000000000000013},{"rt":445.0999999977648,"stimulus":"\n                    <p><b>Action: <em>avoid</em></b></p>\n                    <p>This is the bee that you just saw.</p>\n                    <img src=\"bees-with-color/bee-A2DM.svg\" width=\"200\">\n                    <p><span class=\"redText\">Bad choice,</span> the bee was friendly.<br>Your bonus pay is unchanged, and remains at $0.58.</p>\n            ","response":0,"trial_type":"html-button-response","trial_index":66,"time_elapsed":289568,"internal_node_id":"0.0-4.0-1.27","subject_id":"6047938e2edfb901ef28975e","study_id":"6197b3f67c2b5cd3b6d9596a","session_id":"6197b9eb38bfc1bd00b4788a","condition":"full-information","relevant_dimensions":["antennae","pattern"],"bee_group":{"antennae":"B","wings":"X","pattern":"D","legs":"X"},"bonus":0.7000000000000013},{"rt":926.0999999977648,"stimulus":"bees-with-color/bee-B1SF.svg","response":0,"trial_type":"image-button-response","trial_index":67,"time_elapsed":290495,"internal_node_id":"0.0-4.0-0.28","subject_id":"6047938e2edfb901ef28975e","study_id":"6197b3f67c2b5cd3b6d9596a","session_id":"6197b9eb38bfc1bd00b4788a","condition":"full-information","relevant_dimensions":["antennae","pattern"],"bee_group":{"antennae":"B","wings":"X","pattern":"D","legs":"X"},"action":"harvest","summary":"good-harvest","bonus":0.7000000000000013},{"rt":646.5999999977648,"stimulus":"\n                    <p><b>Action: <em>harvest</em></b></p>\n                    <p>This is the bee that you just saw.</p>\n                    <img src=\"bees-with-color/bee-B1SF.svg\" width=\"200\">\n                    <p><span class=\"greenText\"><b>Successful harvest!</b></span><br>Your pay has increased by $0.02. Your bonus pay is now $0.60.</p>\n            ","response":0,"trial_type":"html-button-response","trial_index":68,"time_elapsed":291143,"internal_node_id":"0.0-4.0-1.28","subject_id":"6047938e2edfb901ef28975e","study_id":"6197b3f67c2b5cd3b6d9596a","session_id":"6197b9eb38bfc1bd00b4788a","condition":"full-information","relevant_dimensions":["antennae","pattern"],"bee_group":{"antennae":"B","wings":"X","pattern":"D","legs":"X"},"bonus":0.7000000000000013},{"rt":1622.300000000745,"stimulus":"bees-with-color/bee-B2DF.svg","response":1,"trial_type":"image-button-response","trial_index":69,"time_elapsed":292766,"internal_node_id":"0.0-4.0-0.29","subject_id":"6047938e2edfb901ef28975e","study_id":"6197b3f67c2b5cd3b6d9596a","session_id":"6197b9eb38bfc1bd00b4788a","condition":"full-information","relevant_dimensions":["antennae","pattern"],"bee_group":{"antennae":"B","wings":"X","pattern":"D","legs":"X"},"action":"avoid","summary":"good-avoid","bonus":0.7000000000000013},{"rt":402.69999999925494,"stimulus":"\n                    <p><b>Action: <em>avoid</em></b></p>\n                    <p>This is the bee that you just saw.</p>\n                    <img src=\"bees-with-color/bee-B2DF.svg\" width=\"200\">\n                    <p><span class=\"greenText\">Good choice!</span>  This bee would have stung you.<br>Your bonus pay is unchanged, and remains at $0.60.</p>\n            ","response":0,"trial_type":"html-button-response","trial_index":70,"time_elapsed":293170,"internal_node_id":"0.0-4.0-1.29","subject_id":"6047938e2edfb901ef28975e","study_id":"6197b3f67c2b5cd3b6d9596a","session_id":"6197b9eb38bfc1bd00b4788a","condition":"full-information","relevant_dimensions":["antennae","pattern"],"bee_group":{"antennae":"B","wings":"X","pattern":"D","legs":"X"},"bonus":0.7000000000000013},{"rt":966.1999999992549,"stimulus":"bees-with-color/bee-A1DF.svg","response":1,"trial_type":"image-button-response","trial_index":71,"time_elapsed":294137,"internal_node_id":"0.0-4.0-0.30","subject_id":"6047938e2edfb901ef28975e","study_id":"6197b3f67c2b5cd3b6d9596a","session_id":"6197b9eb38bfc1bd00b4788a","condition":"full-information","relevant_dimensions":["antennae","pattern"],"bee_group":{"antennae":"B","wings":"X","pattern":"D","legs":"X"},"action":"avoid","summary":"bad-avoid","bonus":0.7000000000000013},{"rt":395.69999999925494,"stimulus":"\n                    <p><b>Action: <em>avoid</em></b></p>\n                    <p>This is the bee that you just saw.</p>\n                    <img src=\"bees-with-color/bee-A1DF.svg\" width=\"200\">\n                    <p><span class=\"redText\">Bad choice,</span> the bee was friendly.<br>Your bonus pay is unchanged, and remains at $0.60.</p>\n            ","response":0,"trial_type":"html-button-response","trial_index":72,"time_elapsed":294534,"internal_node_id":"0.0-4.0-1.30","subject_id":"6047938e2edfb901ef28975e","study_id":"6197b3f67c2b5cd3b6d9596a","session_id":"6197b9eb38bfc1bd00b4788a","condition":"full-information","relevant_dimensions":["antennae","pattern"],"bee_group":{"antennae":"B","wings":"X","pattern":"D","legs":"X"},"bonus":0.7000000000000013},{"rt":368.30000000074506,"stimulus":"bees-with-color/bee-A1DM.svg","response":0,"trial_type":"image-button-response","trial_index":73,"time_elapsed":294903,"internal_node_id":"0.0-4.0-0.31","subject_id":"6047938e2edfb901ef28975e","study_id":"6197b3f67c2b5cd3b6d9596a","session_id":"6197b9eb38bfc1bd00b4788a","condition":"full-information","relevant_dimensions":["antennae","pattern"],"bee_group":{"antennae":"B","wings":"X","pattern":"D","legs":"X"},"action":"harvest","summary":"good-harvest","bonus":0.7000000000000013},{"rt":592.3999999985099,"stimulus":"\n                    <p><b>Action: <em>harvest</em></b></p>\n                    <p>This is the bee that you just saw.</p>\n                    <img src=\"bees-with-color/bee-A1DM.svg\" width=\"200\">\n                    <p><span class=\"greenText\"><b>Successful harvest!</b></span><br>Your pay has increased by $0.02. Your bonus pay is now $0.62.</p>\n            ","response":0,"trial_type":"html-button-response","trial_index":74,"time_elapsed":295497,"internal_node_id":"0.0-4.0-1.31","subject_id":"6047938e2edfb901ef28975e","study_id":"6197b3f67c2b5cd3b6d9596a","session_id":"6197b9eb38bfc1bd00b4788a","condition":"full-information","relevant_dimensions":["antennae","pattern"],"bee_group":{"antennae":"B","wings":"X","pattern":"D","legs":"X"},"bonus":0.7000000000000013},{"rt":1197.199999999255,"stimulus":"bees-with-color/bee-A2SM.svg","response":0,"trial_type":"image-button-response","trial_index":75,"time_elapsed":296695,"internal_node_id":"0.0-4.0-0.32","subject_id":"6047938e2edfb901ef28975e","study_id":"6197b3f67c2b5cd3b6d9596a","session_id":"6197b9eb38bfc1bd00b4788a","condition":"full-information","relevant_dimensions":["antennae","pattern"],"bee_group":{"antennae":"B","wings":"X","pattern":"D","legs":"X"},"action":"harvest","summary":"good-harvest","bonus":0.7000000000000013},{"rt":365.9000000022352,"stimulus":"\n                    <p><b>Action: <em>harvest</em></b></p>\n                    <p>This is the bee that you just saw.</p>\n                    <img src=\"bees-with-color/bee-A2SM.svg\" width=\"200\">\n                    <p><span class=\"greenText\"><b>Successful harvest!</b></span><br>Your pay has increased by $0.02. Your bonus pay is now $0.64.</p>\n            ","response":0,"trial_type":"html-button-response","trial_index":76,"time_elapsed":297062,"internal_node_id":"0.0-4.0-1.32","subject_id":"6047938e2edfb901ef28975e","study_id":"6197b3f67c2b5cd3b6d9596a","session_id":"6197b9eb38bfc1bd00b4788a","condition":"full-information","relevant_dimensions":["antennae","pattern"],"bee_group":{"antennae":"B","wings":"X","pattern":"D","legs":"X"},"bonus":0.7000000000000013},{"rt":802.3000000007451,"stimulus":"bees-with-color/bee-A1SF.svg","response":0,"trial_type":"image-button-response","trial_index":77,"time_elapsed":297865,"internal_node_id":"0.0-4.0-0.33","subject_id":"6047938e2edfb901ef28975e","study_id":"6197b3f67c2b5cd3b6d9596a","session_id":"6197b9eb38bfc1bd00b4788a","condition":"full-information","relevant_dimensions":["antennae","pattern"],"bee_group":{"antennae":"B","wings":"X","pattern":"D","legs":"X"},"action":"harvest","summary":"good-harvest","bonus":0.7000000000000013},{"rt":375.80000000074506,"stimulus":"\n                    <p><b>Action: <em>harvest</em></b></p>\n                    <p>This is the bee that you just saw.</p>\n                    <img src=\"bees-with-color/bee-A1SF.svg\" width=\"200\">\n                    <p><span class=\"greenText\"><b>Successful harvest!</b></span><br>Your pay has increased by $0.02. Your bonus pay is now $0.66.</p>\n            ","response":0,"trial_type":"html-button-response","trial_index":78,"time_elapsed":298242,"internal_node_id":"0.0-4.0-1.33","subject_id":"6047938e2edfb901ef28975e","study_id":"6197b3f67c2b5cd3b6d9596a","session_id":"6197b9eb38bfc1bd00b4788a","condition":"full-information","relevant_dimensions":["antennae","pattern"],"bee_group":{"antennae":"B","wings":"X","pattern":"D","legs":"X"},"bonus":0.7000000000000013},{"rt":654.1999999992549,"stimulus":"bees-with-color/bee-B2SF.svg","response":0,"trial_type":"image-button-response","trial_index":79,"time_elapsed":298897,"internal_node_id":"0.0-4.0-0.34","subject_id":"6047938e2edfb901ef28975e","study_id":"6197b3f67c2b5cd3b6d9596a","session_id":"6197b9eb38bfc1bd00b4788a","condition":"full-information","relevant_dimensions":["antennae","pattern"],"bee_group":{"antennae":"B","wings":"X","pattern":"D","legs":"X"},"action":"harvest","summary":"good-harvest","bonus":0.7000000000000013},{"rt":351.5999999977648,"stimulus":"\n                    <p><b>Action: <em>harvest</em></b></p>\n                    <p>This is the bee that you just saw.</p>\n                    <img src=\"bees-with-color/bee-B2SF.svg\" width=\"200\">\n                    <p><span class=\"greenText\"><b>Successful harvest!</b></span><br>Your pay has increased by $0.02. Your bonus pay is now $0.68.</p>\n            ","response":0,"trial_type":"html-button-response","trial_index":80,"time_elapsed":299250,"internal_node_id":"0.0-4.0-1.34","subject_id":"6047938e2edfb901ef28975e","study_id":"6197b3f67c2b5cd3b6d9596a","session_id":"6197b9eb38bfc1bd00b4788a","condition":"full-information","relevant_dimensions":["antennae","pattern"],"bee_group":{"antennae":"B","wings":"X","pattern":"D","legs":"X"},"bonus":0.7000000000000013},{"rt":1857.300000000745,"stimulus":"bees-with-color/bee-B1DM.svg","response":0,"trial_type":"image-button-response","trial_index":81,"time_elapsed":301108,"internal_node_id":"0.0-4.0-0.35","subject_id":"6047938e2edfb901ef28975e","study_id":"6197b3f67c2b5cd3b6d9596a","session_id":"6197b9eb38bfc1bd00b4788a","condition":"full-information","relevant_dimensions":["antennae","pattern"],"bee_group":{"antennae":"B","wings":"X","pattern":"D","legs":"X"},"action":"harvest","summary":"bad-harvest","bonus":0.7000000000000013},{"rt":675,"stimulus":"\n                    <p><b>Action: <em>harvest</em></b></p>\n                    <p>This is the bee that you just saw.</p>\n                    <img src=\"bees-with-color/bee-B1DM.svg\" width=\"200\">\n                    <p><span class=\"redText\">Bad choice, the bee was angry.</span><br><b>You have been stung!</b><br>Your pay has been decreased by $0.10. Your bonus pay is now $0.58.</p>\n            ","response":0,"trial_type":"html-button-response","trial_index":82,"time_elapsed":301784,"internal_node_id":"0.0-4.0-1.35","subject_id":"6047938e2edfb901ef28975e","study_id":"6197b3f67c2b5cd3b6d9596a","session_id":"6197b9eb38bfc1bd00b4788a","condition":"full-information","relevant_dimensions":["antennae","pattern"],"bee_group":{"antennae":"B","wings":"X","pattern":"D","legs":"X"},"bonus":0.7000000000000013},{"rt":608.6999999992549,"stimulus":"bees-with-color/bee-B2SM.svg","response":0,"trial_type":"image-button-response","trial_index":83,"time_elapsed":302394,"internal_node_id":"0.0-4.0-0.36","subject_id":"6047938e2edfb901ef28975e","study_id":"6197b3f67c2b5cd3b6d9596a","session_id":"6197b9eb38bfc1bd00b4788a","condition":"full-information","relevant_dimensions":["antennae","pattern"],"bee_group":{"antennae":"B","wings":"X","pattern":"D","legs":"X"},"action":"harvest","summary":"good-harvest","bonus":0.7000000000000013},{"rt":272.30000000074506,"stimulus":"\n                    <p><b>Action: <em>harvest</em></b></p>\n                    <p>This is the bee that you just saw.</p>\n                    <img src=\"bees-with-color/bee-B2SM.svg\" width=\"200\">\n                    <p><span class=\"greenText\"><b>Successful harvest!</b></span><br>Your pay has increased by $0.02. Your bonus pay is now $0.60.</p>\n            ","response":0,"trial_type":"html-button-response","trial_index":84,"time_elapsed":302668,"internal_node_id":"0.0-4.0-1.36","subject_id":"6047938e2edfb901ef28975e","study_id":"6197b3f67c2b5cd3b6d9596a","session_id":"6197b9eb38bfc1bd00b4788a","condition":"full-information","relevant_dimensions":["antennae","pattern"],"bee_group":{"antennae":"B","wings":"X","pattern":"D","legs":"X"},"bonus":0.7000000000000013},{"rt":3413.099999997765,"stimulus":"bees-with-color/bee-B1DF.svg","response":1,"trial_type":"image-button-response","trial_index":85,"time_elapsed":306082,"internal_node_id":"0.0-4.0-0.37","subject_id":"6047938e2edfb901ef28975e","study_id":"6197b3f67c2b5cd3b6d9596a","session_id":"6197b9eb38bfc1bd00b4788a","condition":"full-information","relevant_dimensions":["antennae","pattern"],"bee_group":{"antennae":"B","wings":"X","pattern":"D","legs":"X"},"action":"avoid","summary":"good-avoid","bonus":0.7000000000000013},{"rt":1125.6000000014901,"stimulus":"\n                    <p><b>Action: <em>avoid</em></b></p>\n                    <p>This is the bee that you just saw.</p>\n                    <img src=\"bees-with-color/bee-B1DF.svg\" width=\"200\">\n                    <p><span class=\"greenText\">Good choice!</span>  This bee would have stung you.<br>Your bonus pay is unchanged, and remains at $0.60.</p>\n            ","response":0,"trial_type":"html-button-response","trial_index":86,"time_elapsed":307209,"internal_node_id":"0.0-4.0-1.37","subject_id":"6047938e2edfb901ef28975e","study_id":"6197b3f67c2b5cd3b6d9596a","session_id":"6197b9eb38bfc1bd00b4788a","condition":"full-information","relevant_dimensions":["antennae","pattern"],"bee_group":{"antennae":"B","wings":"X","pattern":"D","legs":"X"},"bonus":0.7000000000000013},{"rt":601.9000000022352,"stimulus":"bees-with-color/bee-A1SM.svg","response":0,"trial_type":"image-button-response","trial_index":87,"time_elapsed":307812,"internal_node_id":"0.0-4.0-0.38","subject_id":"6047938e2edfb901ef28975e","study_id":"6197b3f67c2b5cd3b6d9596a","session_id":"6197b9eb38bfc1bd00b4788a","condition":"full-information","relevant_dimensions":["antennae","pattern"],"bee_group":{"antennae":"B","wings":"X","pattern":"D","legs":"X"},"action":"harvest","summary":"good-harvest","bonus":0.7000000000000013},{"rt":432.5,"stimulus":"\n                    <p><b>Action: <em>harvest</em></b></p>\n                    <p>This is the bee that you just saw.</p>\n                    <img src=\"bees-with-color/bee-A1SM.svg\" width=\"200\">\n                    <p><span class=\"greenText\"><b>Successful harvest!</b></span><br>Your pay has increased by $0.02. Your bonus pay is now $0.62.</p>\n            ","response":0,"trial_type":"html-button-response","trial_index":88,"time_elapsed":308246,"internal_node_id":"0.0-4.0-1.38","subject_id":"6047938e2edfb901ef28975e","study_id":"6197b3f67c2b5cd3b6d9596a","session_id":"6197b9eb38bfc1bd00b4788a","condition":"full-information","relevant_dimensions":["antennae","pattern"],"bee_group":{"antennae":"B","wings":"X","pattern":"D","legs":"X"},"bonus":0.7000000000000013},{"rt":289.69999999925494,"stimulus":"bees-with-color/bee-B1SM.svg","response":0,"trial_type":"image-button-response","trial_index":89,"time_elapsed":308537,"internal_node_id":"0.0-4.0-0.39","subject_id":"6047938e2edfb901ef28975e","study_id":"6197b3f67c2b5cd3b6d9596a","session_id":"6197b9eb38bfc1bd00b4788a","condition":"full-information","relevant_dimensions":["antennae","pattern"],"bee_group":{"antennae":"B","wings":"X","pattern":"D","legs":"X"},"action":"harvest","summary":"good-harvest","bonus":0.7000000000000013},{"rt":606.9000000022352,"stimulus":"\n                    <p><b>Action: <em>harvest</em></b></p>\n                    <p>This is the bee that you just saw.</p>\n                    <img src=\"bees-with-color/bee-B1SM.svg\" width=\"200\">\n                    <p><span class=\"greenText\"><b>Successful harvest!</b></span><br>Your pay has increased by $0.02. Your bonus pay is now $0.64.</p>\n            ","response":0,"trial_type":"html-button-response","trial_index":90,"time_elapsed":309146,"internal_node_id":"0.0-4.0-1.39","subject_id":"6047938e2edfb901ef28975e","study_id":"6197b3f67c2b5cd3b6d9596a","session_id":"6197b9eb38bfc1bd00b4788a","condition":"full-information","relevant_dimensions":["antennae","pattern"],"bee_group":{"antennae":"B","wings":"X","pattern":"D","legs":"X"},"bonus":0.7000000000000013},{"rt":1694,"stimulus":"bees-with-color/bee-A1DF.svg","response":1,"trial_type":"image-button-response","trial_index":91,"time_elapsed":310841,"internal_node_id":"0.0-4.0-0.40","subject_id":"6047938e2edfb901ef28975e","study_id":"6197b3f67c2b5cd3b6d9596a","session_id":"6197b9eb38bfc1bd00b4788a","condition":"full-information","relevant_dimensions":["antennae","pattern"],"bee_group":{"antennae":"B","wings":"X","pattern":"D","legs":"X"},"action":"avoid","summary":"bad-avoid","bonus":0.7000000000000013},{"rt":958.6000000014901,"stimulus":"\n                    <p><b>Action: <em>avoid</em></b></p>\n                    <p>This is the bee that you just saw.</p>\n                    <img src=\"bees-with-color/bee-A1DF.svg\" width=\"200\">\n                    <p><span class=\"redText\">Bad choice,</span> the bee was friendly.<br>Your bonus pay is unchanged, and remains at $0.64.</p>\n            ","response":0,"trial_type":"html-button-response","trial_index":92,"time_elapsed":311801,"internal_node_id":"0.0-4.0-1.40","subject_id":"6047938e2edfb901ef28975e","study_id":"6197b3f67c2b5cd3b6d9596a","session_id":"6197b9eb38bfc1bd00b4788a","condition":"full-information","relevant_dimensions":["antennae","pattern"],"bee_group":{"antennae":"B","wings":"X","pattern":"D","legs":"X"},"bonus":0.7000000000000013},{"rt":1255.800000000745,"stimulus":"bees-with-color/bee-B2DM.svg","response":1,"trial_type":"image-button-response","trial_index":93,"time_elapsed":313058,"internal_node_id":"0.0-4.0-0.41","subject_id":"6047938e2edfb901ef28975e","study_id":"6197b3f67c2b5cd3b6d9596a","session_id":"6197b9eb38bfc1bd00b4788a","condition":"full-information","relevant_dimensions":["antennae","pattern"],"bee_group":{"antennae":"B","wings":"X","pattern":"D","legs":"X"},"action":"avoid","summary":"good-avoid","bonus":0.7000000000000013},{"rt":414.80000000074506,"stimulus":"\n                    <p><b>Action: <em>avoid</em></b></p>\n                    <p>This is the bee that you just saw.</p>\n                    <img src=\"bees-with-color/bee-B2DM.svg\" width=\"200\">\n                    <p><span class=\"greenText\">Good choice!</span>  This bee would have stung you.<br>Your bonus pay is unchanged, and remains at $0.64.</p>\n            ","response":0,"trial_type":"html-button-response","trial_index":94,"time_elapsed":313474,"internal_node_id":"0.0-4.0-1.41","subject_id":"6047938e2edfb901ef28975e","study_id":"6197b3f67c2b5cd3b6d9596a","session_id":"6197b9eb38bfc1bd00b4788a","condition":"full-information","relevant_dimensions":["antennae","pattern"],"bee_group":{"antennae":"B","wings":"X","pattern":"D","legs":"X"},"bonus":0.7000000000000013},{"rt":643.0999999977648,"stimulus":"bees-with-color/bee-A2DF.svg","response":0,"trial_type":"image-button-response","trial_index":95,"time_elapsed":314118,"internal_node_id":"0.0-4.0-0.42","subject_id":"6047938e2edfb901ef28975e","study_id":"6197b3f67c2b5cd3b6d9596a","session_id":"6197b9eb38bfc1bd00b4788a","condition":"full-information","relevant_dimensions":["antennae","pattern"],"bee_group":{"antennae":"B","wings":"X","pattern":"D","legs":"X"},"action":"harvest","summary":"good-harvest","bonus":0.7000000000000013},{"rt":481.6000000014901,"stimulus":"\n                    <p><b>Action: <em>harvest</em></b></p>\n                    <p>This is the bee that you just saw.</p>\n                    <img src=\"bees-with-color/bee-A2DF.svg\" width=\"200\">\n                    <p><span class=\"greenText\"><b>Successful harvest!</b></span><br>Your pay has increased by $0.02. Your bonus pay is now $0.66.</p>\n            ","response":0,"trial_type":"html-button-response","trial_index":96,"time_elapsed":314601,"internal_node_id":"0.0-4.0-1.42","subject_id":"6047938e2edfb901ef28975e","study_id":"6197b3f67c2b5cd3b6d9596a","session_id":"6197b9eb38bfc1bd00b4788a","condition":"full-information","relevant_dimensions":["antennae","pattern"],"bee_group":{"antennae":"B","wings":"X","pattern":"D","legs":"X"},"bonus":0.7000000000000013},{"rt":576.1999999992549,"stimulus":"bees-with-color/bee-B1SF.svg","response":0,"trial_type":"image-button-response","trial_index":97,"time_elapsed":315178,"internal_node_id":"0.0-4.0-0.43","subject_id":"6047938e2edfb901ef28975e","study_id":"6197b3f67c2b5cd3b6d9596a","session_id":"6197b9eb38bfc1bd00b4788a","condition":"full-information","relevant_dimensions":["antennae","pattern"],"bee_group":{"antennae":"B","wings":"X","pattern":"D","legs":"X"},"action":"harvest","summary":"good-harvest","bonus":0.7000000000000013},{"rt":346.8999999985099,"stimulus":"\n                    <p><b>Action: <em>harvest</em></b></p>\n                    <p>This is the bee that you just saw.</p>\n                    <img src=\"bees-with-color/bee-B1SF.svg\" width=\"200\">\n                    <p><span class=\"greenText\"><b>Successful harvest!</b></span><br>Your pay has increased by $0.02. Your bonus pay is now $0.68.</p>\n            ","response":0,"trial_type":"html-button-response","trial_index":98,"time_elapsed":315526,"internal_node_id":"0.0-4.0-1.43","subject_id":"6047938e2edfb901ef28975e","study_id":"6197b3f67c2b5cd3b6d9596a","session_id":"6197b9eb38bfc1bd00b4788a","condition":"full-information","relevant_dimensions":["antennae","pattern"],"bee_group":{"antennae":"B","wings":"X","pattern":"D","legs":"X"},"bonus":0.7000000000000013},{"rt":1323.300000000745,"stimulus":"bees-with-color/bee-A1DM.svg","response":0,"trial_type":"image-button-response","trial_index":99,"time_elapsed":316850,"internal_node_id":"0.0-4.0-0.44","subject_id":"6047938e2edfb901ef28975e","study_id":"6197b3f67c2b5cd3b6d9596a","session_id":"6197b9eb38bfc1bd00b4788a","condition":"full-information","relevant_dimensions":["antennae","pattern"],"bee_group":{"antennae":"B","wings":"X","pattern":"D","legs":"X"},"action":"harvest","summary":"good-harvest","bonus":0.7000000000000013},{"rt":300.80000000074506,"stimulus":"\n                    <p><b>Action: <em>harvest</em></b></p>\n                    <p>This is the bee that you just saw.</p>\n                    <img src=\"bees-with-color/bee-A1DM.svg\" width=\"200\">\n                    <p><span class=\"greenText\"><b>Successful harvest!</b></span><br>Your pay has increased by $0.02. Your bonus pay is now $0.70.</p>\n            ","response":0,"trial_type":"html-button-response","trial_index":100,"time_elapsed":317152,"internal_node_id":"0.0-4.0-1.44","subject_id":"6047938e2edfb901ef28975e","study_id":"6197b3f67c2b5cd3b6d9596a","session_id":"6197b9eb38bfc1bd00b4788a","condition":"full-information","relevant_dimensions":["antennae","pattern"],"bee_group":{"antennae":"B","wings":"X","pattern":"D","legs":"X"},"bonus":0.7000000000000013},{"rt":1479.199999999255,"stimulus":"bees-with-color/bee-B2DF.svg","response":0,"trial_type":"image-button-response","trial_index":101,"time_elapsed":318632,"internal_node_id":"0.0-4.0-0.45","subject_id":"6047938e2edfb901ef28975e","study_id":"6197b3f67c2b5cd3b6d9596a","session_id":"6197b9eb38bfc1bd00b4788a","condition":"full-information","relevant_dimensions":["antennae","pattern"],"bee_group":{"antennae":"B","wings":"X","pattern":"D","legs":"X"},"action":"harvest","summary":"bad-harvest","bonus":0.7000000000000013},{"rt":589.9000000022352,"stimulus":"\n                    <p><b>Action: <em>harvest</em></b></p>\n                    <p>This is the bee that you just saw.</p>\n                    <img src=\"bees-with-color/bee-B2DF.svg\" width=\"200\">\n                    <p><span class=\"redText\">Bad choice, the bee was angry.</span><br><b>You have been stung!</b><br>Your pay has been decreased by $0.10. Your bonus pay is now $0.60.</p>\n            ","response":0,"trial_type":"html-button-response","trial_index":102,"time_elapsed":319223,"internal_node_id":"0.0-4.0-1.45","subject_id":"6047938e2edfb901ef28975e","study_id":"6197b3f67c2b5cd3b6d9596a","session_id":"6197b9eb38bfc1bd00b4788a","condition":"full-information","relevant_dimensions":["antennae","pattern"],"bee_group":{"antennae":"B","wings":"X","pattern":"D","legs":"X"},"bonus":0.7000000000000013},{"rt":783.1999999992549,"stimulus":"bees-with-color/bee-A2DM.svg","response":0,"trial_type":"image-button-response","trial_index":103,"time_elapsed":320007,"internal_node_id":"0.0-4.0-0.46","subject_id":"6047938e2edfb901ef28975e","study_id":"6197b3f67c2b5cd3b6d9596a","session_id":"6197b9eb38bfc1bd00b4788a","condition":"full-information","relevant_dimensions":["antennae","pattern"],"bee_group":{"antennae":"B","wings":"X","pattern":"D","legs":"X"},"action":"harvest","summary":"good-harvest","bonus":0.7000000000000013},{"rt":218.5,"stimulus":"\n                    <p><b>Action: <em>harvest</em></b></p>\n                    <p>This is the bee that you just saw.</p>\n                    <img src=\"bees-with-color/bee-A2DM.svg\" width=\"200\">\n                    <p><span class=\"greenText\"><b>Successful harvest!</b></span><br>Your pay has increased by $0.02. Your bonus pay is now $0.62.</p>\n            ","response":0,"trial_type":"html-button-response","trial_index":104,"time_elapsed":320227,"internal_node_id":"0.0-4.0-1.46","subject_id":"6047938e2edfb901ef28975e","study_id":"6197b3f67c2b5cd3b6d9596a","session_id":"6197b9eb38bfc1bd00b4788a","condition":"full-information","relevant_dimensions":["antennae","pattern"],"bee_group":{"antennae":"B","wings":"X","pattern":"D","legs":"X"},"bonus":0.7000000000000013},{"rt":961.8999999985099,"stimulus":"bees-with-color/bee-A2SF.svg","response":0,"trial_type":"image-button-response","trial_index":105,"time_elapsed":321190,"internal_node_id":"0.0-4.0-0.47","subject_id":"6047938e2edfb901ef28975e","study_id":"6197b3f67c2b5cd3b6d9596a","session_id":"6197b9eb38bfc1bd00b4788a","condition":"full-information","relevant_dimensions":["antennae","pattern"],"bee_group":{"antennae":"B","wings":"X","pattern":"D","legs":"X"},"action":"harvest","summary":"good-harvest","bonus":0.7000000000000013},{"rt":336.80000000074506,"stimulus":"\n                    <p><b>Action: <em>harvest</em></b></p>\n                    <p>This is the bee that you just saw.</p>\n                    <img src=\"bees-with-color/bee-A2SF.svg\" width=\"200\">\n                    <p><span class=\"greenText\"><b>Successful harvest!</b></span><br>Your pay has increased by $0.02. Your bonus pay is now $0.64.</p>\n            ","response":0,"trial_type":"html-button-response","trial_index":106,"time_elapsed":321528,"internal_node_id":"0.0-4.0-1.47","subject_id":"6047938e2edfb901ef28975e","study_id":"6197b3f67c2b5cd3b6d9596a","session_id":"6197b9eb38bfc1bd00b4788a","condition":"full-information","relevant_dimensions":["antennae","pattern"],"bee_group":{"antennae":"B","wings":"X","pattern":"D","legs":"X"},"bonus":0.7000000000000013},{"rt":984.0999999977648,"stimulus":"bees-with-color/bee-B2DF.svg","response":1,"trial_type":"image-button-response","trial_index":107,"time_elapsed":322513,"internal_node_id":"0.0-4.0-0.48","subject_id":"6047938e2edfb901ef28975e","study_id":"6197b3f67c2b5cd3b6d9596a","session_id":"6197b9eb38bfc1bd00b4788a","condition":"full-information","relevant_dimensions":["antennae","pattern"],"bee_group":{"antennae":"B","wings":"X","pattern":"D","legs":"X"},"action":"avoid","summary":"good-avoid","bonus":0.7000000000000013},{"rt":854.4000000022352,"stimulus":"\n                    <p><b>Action: <em>avoid</em></b></p>\n                    <p>This is the bee that you just saw.</p>\n                    <img src=\"bees-with-color/bee-B2DF.svg\" width=\"200\">\n                    <p><span class=\"greenText\">Good choice!</span>  This bee would have stung you.<br>Your bonus pay is unchanged, and remains at $0.64.</p>\n            ","response":0,"trial_type":"html-button-response","trial_index":108,"time_elapsed":323369,"internal_node_id":"0.0-4.0-1.48","subject_id":"6047938e2edfb901ef28975e","study_id":"6197b3f67c2b5cd3b6d9596a","session_id":"6197b9eb38bfc1bd00b4788a","condition":"full-information","relevant_dimensions":["antennae","pattern"],"bee_group":{"antennae":"B","wings":"X","pattern":"D","legs":"X"},"bonus":0.7000000000000013},{"rt":866.8999999985099,"stimulus":"bees-with-color/bee-A2DM.svg","response":0,"trial_type":"image-button-response","trial_index":109,"time_elapsed":324237,"internal_node_id":"0.0-4.0-0.49","subject_id":"6047938e2edfb901ef28975e","study_id":"6197b3f67c2b5cd3b6d9596a","session_id":"6197b9eb38bfc1bd00b4788a","condition":"full-information","relevant_dimensions":["antennae","pattern"],"bee_group":{"antennae":"B","wings":"X","pattern":"D","legs":"X"},"action":"harvest","summary":"good-harvest","bonus":0.7000000000000013},{"rt":566.8999999985099,"stimulus":"\n                    <p><b>Action: <em>harvest</em></b></p>\n                    <p>This is the bee that you just saw.</p>\n                    <img src=\"bees-with-color/bee-A2DM.svg\" width=\"200\">\n                    <p><span class=\"greenText\"><b>Successful harvest!</b></span><br>Your pay has increased by $0.02. Your bonus pay is now $0.66.</p>\n            ","response":0,"trial_type":"html-button-response","trial_index":110,"time_elapsed":324805,"internal_node_id":"0.0-4.0-1.49","subject_id":"6047938e2edfb901ef28975e","study_id":"6197b3f67c2b5cd3b6d9596a","session_id":"6197b9eb38bfc1bd00b4788a","condition":"full-information","relevant_dimensions":["antennae","pattern"],"bee_group":{"antennae":"B","wings":"X","pattern":"D","legs":"X"},"bonus":0.7000000000000013},{"rt":1084.300000000745,"stimulus":"bees-with-color/bee-B1SM.svg","response":0,"trial_type":"image-button-response","trial_index":111,"time_elapsed":325890,"internal_node_id":"0.0-4.0-0.50","subject_id":"6047938e2edfb901ef28975e","study_id":"6197b3f67c2b5cd3b6d9596a","session_id":"6197b9eb38bfc1bd00b4788a","condition":"full-information","relevant_dimensions":["antennae","pattern"],"bee_group":{"antennae":"B","wings":"X","pattern":"D","legs":"X"},"action":"harvest","summary":"good-harvest","bonus":0.7000000000000013},{"rt":729.8000000007451,"stimulus":"\n                    <p><b>Action: <em>harvest</em></b></p>\n                    <p>This is the bee that you just saw.</p>\n                    <img src=\"bees-with-color/bee-B1SM.svg\" width=\"200\">\n                    <p><span class=\"greenText\"><b>Successful harvest!</b></span><br>Your pay has increased by $0.02. Your bonus pay is now $0.68.</p>\n            ","response":0,"trial_type":"html-button-response","trial_index":112,"time_elapsed":326621,"internal_node_id":"0.0-4.0-1.50","subject_id":"6047938e2edfb901ef28975e","study_id":"6197b3f67c2b5cd3b6d9596a","session_id":"6197b9eb38bfc1bd00b4788a","condition":"full-information","relevant_dimensions":["antennae","pattern"],"bee_group":{"antennae":"B","wings":"X","pattern":"D","legs":"X"},"bonus":0.7000000000000013},{"rt":1115.1000000014901,"stimulus":"bees-with-color/bee-B1SF.svg","response":0,"trial_type":"image-button-response","trial_index":113,"time_elapsed":327737,"internal_node_id":"0.0-4.0-0.51","subject_id":"6047938e2edfb901ef28975e","study_id":"6197b3f67c2b5cd3b6d9596a","session_id":"6197b9eb38bfc1bd00b4788a","condition":"full-information","relevant_dimensions":["antennae","pattern"],"bee_group":{"antennae":"B","wings":"X","pattern":"D","legs":"X"},"action":"harvest","summary":"good-harvest","bonus":0.7000000000000013},{"rt":485.9000000022352,"stimulus":"\n                    <p><b>Action: <em>harvest</em></b></p>\n                    <p>This is the bee that you just saw.</p>\n                    <img src=\"bees-with-color/bee-B1SF.svg\" width=\"200\">\n                    <p><span class=\"greenText\"><b>Successful harvest!</b></span><br>Your pay has increased by $0.02. Your bonus pay is now $0.70.</p>\n            ","response":0,"trial_type":"html-button-response","trial_index":114,"time_elapsed":328224,"internal_node_id":"0.0-4.0-1.51","subject_id":"6047938e2edfb901ef28975e","study_id":"6197b3f67c2b5cd3b6d9596a","session_id":"6197b9eb38bfc1bd00b4788a","condition":"full-information","relevant_dimensions":["antennae","pattern"],"bee_group":{"antennae":"B","wings":"X","pattern":"D","legs":"X"},"bonus":0.7000000000000013},{"rt":799.0999999977648,"stimulus":"bees-with-color/bee-A2SF.svg","response":0,"trial_type":"image-button-response","trial_index":115,"time_elapsed":329024,"internal_node_id":"0.0-4.0-0.52","subject_id":"6047938e2edfb901ef28975e","study_id":"6197b3f67c2b5cd3b6d9596a","session_id":"6197b9eb38bfc1bd00b4788a","condition":"full-information","relevant_dimensions":["antennae","pattern"],"bee_group":{"antennae":"B","wings":"X","pattern":"D","legs":"X"},"action":"harvest","summary":"good-harvest","bonus":0.7000000000000013},{"rt":440.79999999701977,"stimulus":"\n                    <p><b>Action: <em>harvest</em></b></p>\n                    <p>This is the bee that you just saw.</p>\n                    <img src=\"bees-with-color/bee-A2SF.svg\" width=\"200\">\n                    <p><span class=\"greenText\"><b>Successful harvest!</b></span><br>Your pay has increased by $0.02. Your bonus pay is now $0.72.</p>\n            ","response":0,"trial_type":"html-button-response","trial_index":116,"time_elapsed":329466,"internal_node_id":"0.0-4.0-1.52","subject_id":"6047938e2edfb901ef28975e","study_id":"6197b3f67c2b5cd3b6d9596a","session_id":"6197b9eb38bfc1bd00b4788a","condition":"full-information","relevant_dimensions":["antennae","pattern"],"bee_group":{"antennae":"B","wings":"X","pattern":"D","legs":"X"},"bonus":0.7000000000000013},{"rt":1728.199999999255,"stimulus":"bees-with-color/bee-B1DM.svg","response":0,"trial_type":"image-button-response","trial_index":117,"time_elapsed":331195,"internal_node_id":"0.0-4.0-0.53","subject_id":"6047938e2edfb901ef28975e","study_id":"6197b3f67c2b5cd3b6d9596a","session_id":"6197b9eb38bfc1bd00b4788a","condition":"full-information","relevant_dimensions":["antennae","pattern"],"bee_group":{"antennae":"B","wings":"X","pattern":"D","legs":"X"},"action":"harvest","summary":"bad-harvest","bonus":0.7000000000000013},{"rt":546.9000000022352,"stimulus":"\n                    <p><b>Action: <em>harvest</em></b></p>\n                    <p>This is the bee that you just saw.</p>\n                    <img src=\"bees-with-color/bee-B1DM.svg\" width=\"200\">\n                    <p><span class=\"redText\">Bad choice, the bee was angry.</span><br><b>You have been stung!</b><br>Your pay has been decreased by $0.10. Your bonus pay is now $0.62.</p>\n            ","response":0,"trial_type":"html-button-response","trial_index":118,"time_elapsed":331743,"internal_node_id":"0.0-4.0-1.53","subject_id":"6047938e2edfb901ef28975e","study_id":"6197b3f67c2b5cd3b6d9596a","session_id":"6197b9eb38bfc1bd00b4788a","condition":"full-information","relevant_dimensions":["antennae","pattern"],"bee_group":{"antennae":"B","wings":"X","pattern":"D","legs":"X"},"bonus":0.7000000000000013},{"rt":401,"stimulus":"bees-with-color/bee-B2SF.svg","response":0,"trial_type":"image-button-response","trial_index":119,"time_elapsed":332145,"internal_node_id":"0.0-4.0-0.54","subject_id":"6047938e2edfb901ef28975e","study_id":"6197b3f67c2b5cd3b6d9596a","session_id":"6197b9eb38bfc1bd00b4788a","condition":"full-information","relevant_dimensions":["antennae","pattern"],"bee_group":{"antennae":"B","wings":"X","pattern":"D","legs":"X"},"action":"harvest","summary":"good-harvest","bonus":0.7000000000000013},{"rt":295.8999999985099,"stimulus":"\n                    <p><b>Action: <em>harvest</em></b></p>\n                    <p>This is the bee that you just saw.</p>\n                    <img src=\"bees-with-color/bee-B2SF.svg\" width=\"200\">\n                    <p><span class=\"greenText\"><b>Successful harvest!</b></span><br>Your pay has increased by $0.02. Your bonus pay is now $0.64.</p>\n            ","response":0,"trial_type":"html-button-response","trial_index":120,"time_elapsed":332442,"internal_node_id":"0.0-4.0-1.54","subject_id":"6047938e2edfb901ef28975e","study_id":"6197b3f67c2b5cd3b6d9596a","session_id":"6197b9eb38bfc1bd00b4788a","condition":"full-information","relevant_dimensions":["antennae","pattern"],"bee_group":{"antennae":"B","wings":"X","pattern":"D","legs":"X"},"bonus":0.7000000000000013},{"rt":1409.800000000745,"stimulus":"bees-with-color/bee-A2DF.svg","response":0,"trial_type":"image-button-response","trial_index":121,"time_elapsed":333853,"internal_node_id":"0.0-4.0-0.55","subject_id":"6047938e2edfb901ef28975e","study_id":"6197b3f67c2b5cd3b6d9596a","session_id":"6197b9eb38bfc1bd00b4788a","condition":"full-information","relevant_dimensions":["antennae","pattern"],"bee_group":{"antennae":"B","wings":"X","pattern":"D","legs":"X"},"action":"harvest","summary":"good-harvest","bonus":0.7000000000000013},{"rt":2456.60000000149,"stimulus":"\n                    <p><b>Action: <em>harvest</em></b></p>\n                    <p>This is the bee that you just saw.</p>\n                    <img src=\"bees-with-color/bee-A2DF.svg\" width=\"200\">\n                    <p><span class=\"greenText\"><b>Successful harvest!</b></span><br>Your pay has increased by $0.02. Your bonus pay is now $0.66.</p>\n            ","response":0,"trial_type":"html-button-response","trial_index":122,"time_elapsed":336311,"internal_node_id":"0.0-4.0-1.55","subject_id":"6047938e2edfb901ef28975e","study_id":"6197b3f67c2b5cd3b6d9596a","session_id":"6197b9eb38bfc1bd00b4788a","condition":"full-information","relevant_dimensions":["antennae","pattern"],"bee_group":{"antennae":"B","wings":"X","pattern":"D","legs":"X"},"bonus":0.7000000000000013},{"rt":2899.5,"stimulus":"bees-with-color/bee-A1DF.svg","response":1,"trial_type":"image-button-response","trial_index":123,"time_elapsed":339212,"internal_node_id":"0.0-4.0-0.56","subject_id":"6047938e2edfb901ef28975e","study_id":"6197b3f67c2b5cd3b6d9596a","session_id":"6197b9eb38bfc1bd00b4788a","condition":"full-information","relevant_dimensions":["antennae","pattern"],"bee_group":{"antennae":"B","wings":"X","pattern":"D","legs":"X"},"action":"avoid","summary":"bad-avoid","bonus":0.7000000000000013},{"rt":423.30000000074506,"stimulus":"\n                    <p><b>Action: <em>avoid</em></b></p>\n                    <p>This is the bee that you just saw.</p>\n                    <img src=\"bees-with-color/bee-A1DF.svg\" width=\"200\">\n                    <p><span class=\"redText\">Bad choice,</span> the bee was friendly.<br>Your bonus pay is unchanged, and remains at $0.66.</p>\n            ","response":0,"trial_type":"html-button-response","trial_index":124,"time_elapsed":339637,"internal_node_id":"0.0-4.0-1.56","subject_id":"6047938e2edfb901ef28975e","study_id":"6197b3f67c2b5cd3b6d9596a","session_id":"6197b9eb38bfc1bd00b4788a","condition":"full-information","relevant_dimensions":["antennae","pattern"],"bee_group":{"antennae":"B","wings":"X","pattern":"D","legs":"X"},"bonus":0.7000000000000013},{"rt":271.9000000022352,"stimulus":"bees-with-color/bee-A1SF.svg","response":0,"trial_type":"image-button-response","trial_index":125,"time_elapsed":339910,"internal_node_id":"0.0-4.0-0.57","subject_id":"6047938e2edfb901ef28975e","study_id":"6197b3f67c2b5cd3b6d9596a","session_id":"6197b9eb38bfc1bd00b4788a","condition":"full-information","relevant_dimensions":["antennae","pattern"],"bee_group":{"antennae":"B","wings":"X","pattern":"D","legs":"X"},"action":"harvest","summary":"good-harvest","bonus":0.7000000000000013},{"rt":343.69999999925494,"stimulus":"\n                    <p><b>Action: <em>harvest</em></b></p>\n                    <p>This is the bee that you just saw.</p>\n                    <img src=\"bees-with-color/bee-A1SF.svg\" width=\"200\">\n                    <p><span class=\"greenText\"><b>Successful harvest!</b></span><br>Your pay has increased by $0.02. Your bonus pay is now $0.68.</p>\n            ","response":0,"trial_type":"html-button-response","trial_index":126,"time_elapsed":340255,"internal_node_id":"0.0-4.0-1.57","subject_id":"6047938e2edfb901ef28975e","study_id":"6197b3f67c2b5cd3b6d9596a","session_id":"6197b9eb38bfc1bd00b4788a","condition":"full-information","relevant_dimensions":["antennae","pattern"],"bee_group":{"antennae":"B","wings":"X","pattern":"D","legs":"X"},"bonus":0.7000000000000013},{"rt":900.3000000007451,"stimulus":"bees-with-color/bee-B2SM.svg","response":0,"trial_type":"image-button-response","trial_index":127,"time_elapsed":341156,"internal_node_id":"0.0-4.0-0.58","subject_id":"6047938e2edfb901ef28975e","study_id":"6197b3f67c2b5cd3b6d9596a","session_id":"6197b9eb38bfc1bd00b4788a","condition":"full-information","relevant_dimensions":["antennae","pattern"],"bee_group":{"antennae":"B","wings":"X","pattern":"D","legs":"X"},"action":"harvest","summary":"good-harvest","bonus":0.7000000000000013},{"rt":285.5,"stimulus":"\n                    <p><b>Action: <em>harvest</em></b></p>\n                    <p>This is the bee that you just saw.</p>\n                    <img src=\"bees-with-color/bee-B2SM.svg\" width=\"200\">\n                    <p><span class=\"greenText\"><b>Successful harvest!</b></span><br>Your pay has increased by $0.02. Your bonus pay is now $0.70.</p>\n            ","response":0,"trial_type":"html-button-response","trial_index":128,"time_elapsed":341443,"internal_node_id":"0.0-4.0-1.58","subject_id":"6047938e2edfb901ef28975e","study_id":"6197b3f67c2b5cd3b6d9596a","session_id":"6197b9eb38bfc1bd00b4788a","condition":"full-information","relevant_dimensions":["antennae","pattern"],"bee_group":{"antennae":"B","wings":"X","pattern":"D","legs":"X"},"bonus":0.7000000000000013},{"rt":1131.3999999985099,"stimulus":"bees-with-color/bee-B1DF.svg","response":0,"trial_type":"image-button-response","trial_index":129,"time_elapsed":342575,"internal_node_id":"0.0-4.0-0.59","subject_id":"6047938e2edfb901ef28975e","study_id":"6197b3f67c2b5cd3b6d9596a","session_id":"6197b9eb38bfc1bd00b4788a","condition":"full-information","relevant_dimensions":["antennae","pattern"],"bee_group":{"antennae":"B","wings":"X","pattern":"D","legs":"X"},"action":"harvest","summary":"bad-harvest","bonus":0.7000000000000013},{"rt":662.6000000014901,"stimulus":"\n                    <p><b>Action: <em>harvest</em></b></p>\n                    <p>This is the bee that you just saw.</p>\n                    <img src=\"bees-with-color/bee-B1DF.svg\" width=\"200\">\n                    <p><span class=\"redText\">Bad choice, the bee was angry.</span><br><b>You have been stung!</b><br>Your pay has been decreased by $0.10. Your bonus pay is now $0.60.</p>\n            ","response":0,"trial_type":"html-button-response","trial_index":130,"time_elapsed":343239,"internal_node_id":"0.0-4.0-1.59","subject_id":"6047938e2edfb901ef28975e","study_id":"6197b3f67c2b5cd3b6d9596a","session_id":"6197b9eb38bfc1bd00b4788a","condition":"full-information","relevant_dimensions":["antennae","pattern"],"bee_group":{"antennae":"B","wings":"X","pattern":"D","legs":"X"},"bonus":0.7000000000000013},{"rt":903.1999999992549,"stimulus":"bees-with-color/bee-A1SM.svg","response":0,"trial_type":"image-button-response","trial_index":131,"time_elapsed":344143,"internal_node_id":"0.0-4.0-0.60","subject_id":"6047938e2edfb901ef28975e","study_id":"6197b3f67c2b5cd3b6d9596a","session_id":"6197b9eb38bfc1bd00b4788a","condition":"full-information","relevant_dimensions":["antennae","pattern"],"bee_group":{"antennae":"B","wings":"X","pattern":"D","legs":"X"},"action":"harvest","summary":"good-harvest","bonus":0.7000000000000013},{"rt":527.8000000007451,"stimulus":"\n                    <p><b>Action: <em>harvest</em></b></p>\n                    <p>This is the bee that you just saw.</p>\n                    <img src=\"bees-with-color/bee-A1SM.svg\" width=\"200\">\n                    <p><span class=\"greenText\"><b>Successful harvest!</b></span><br>Your pay has increased by $0.02. Your bonus pay is now $0.62.</p>\n            ","response":0,"trial_type":"html-button-response","trial_index":132,"time_elapsed":344672,"internal_node_id":"0.0-4.0-1.60","subject_id":"6047938e2edfb901ef28975e","study_id":"6197b3f67c2b5cd3b6d9596a","session_id":"6197b9eb38bfc1bd00b4788a","condition":"full-information","relevant_dimensions":["antennae","pattern"],"bee_group":{"antennae":"B","wings":"X","pattern":"D","legs":"X"},"bonus":0.7000000000000013},{"rt":1350.0999999977648,"stimulus":"bees-with-color/bee-B2DM.svg","response":1,"trial_type":"image-button-response","trial_index":133,"time_elapsed":346023,"internal_node_id":"0.0-4.0-0.61","subject_id":"6047938e2edfb901ef28975e","study_id":"6197b3f67c2b5cd3b6d9596a","session_id":"6197b9eb38bfc1bd00b4788a","condition":"full-information","relevant_dimensions":["antennae","pattern"],"bee_group":{"antennae":"B","wings":"X","pattern":"D","legs":"X"},"action":"avoid","summary":"good-avoid","bonus":0.7000000000000013},{"rt":371.9000000022352,"stimulus":"\n                    <p><b>Action: <em>avoid</em></b></p>\n                    <p>This is the bee that you just saw.</p>\n                    <img src=\"bees-with-color/bee-B2DM.svg\" width=\"200\">\n                    <p><span class=\"greenText\">Good choice!</span>  This bee would have stung you.<br>Your bonus pay is unchanged, and remains at $0.62.</p>\n            ","response":0,"trial_type":"html-button-response","trial_index":134,"time_elapsed":346396,"internal_node_id":"0.0-4.0-1.61","subject_id":"6047938e2edfb901ef28975e","study_id":"6197b3f67c2b5cd3b6d9596a","session_id":"6197b9eb38bfc1bd00b4788a","condition":"full-information","relevant_dimensions":["antennae","pattern"],"bee_group":{"antennae":"B","wings":"X","pattern":"D","legs":"X"},"bonus":0.7000000000000013},{"rt":278.5999999977648,"stimulus":"bees-with-color/bee-A2SM.svg","response":0,"trial_type":"image-button-response","trial_index":135,"time_elapsed":346676,"internal_node_id":"0.0-4.0-0.62","subject_id":"6047938e2edfb901ef28975e","study_id":"6197b3f67c2b5cd3b6d9596a","session_id":"6197b9eb38bfc1bd00b4788a","condition":"full-information","relevant_dimensions":["antennae","pattern"],"bee_group":{"antennae":"B","wings":"X","pattern":"D","legs":"X"},"action":"harvest","summary":"good-harvest","bonus":0.7000000000000013},{"rt":582.6999999992549,"stimulus":"\n                    <p><b>Action: <em>harvest</em></b></p>\n                    <p>This is the bee that you just saw.</p>\n                    <img src=\"bees-with-color/bee-A2SM.svg\" width=\"200\">\n                    <p><span class=\"greenText\"><b>Successful harvest!</b></span><br>Your pay has increased by $0.02. Your bonus pay is now $0.64.</p>\n            ","response":0,"trial_type":"html-button-response","trial_index":136,"time_elapsed":347260,"internal_node_id":"0.0-4.0-1.62","subject_id":"6047938e2edfb901ef28975e","study_id":"6197b3f67c2b5cd3b6d9596a","session_id":"6197b9eb38bfc1bd00b4788a","condition":"full-information","relevant_dimensions":["antennae","pattern"],"bee_group":{"antennae":"B","wings":"X","pattern":"D","legs":"X"},"bonus":0.7000000000000013},{"rt":1361.0999999977648,"stimulus":"bees-with-color/bee-A1DM.svg","response":0,"trial_type":"image-button-response","trial_index":137,"time_elapsed":348622,"internal_node_id":"0.0-4.0-0.63","subject_id":"6047938e2edfb901ef28975e","study_id":"6197b3f67c2b5cd3b6d9596a","session_id":"6197b9eb38bfc1bd00b4788a","condition":"full-information","relevant_dimensions":["antennae","pattern"],"bee_group":{"antennae":"B","wings":"X","pattern":"D","legs":"X"},"action":"harvest","summary":"good-harvest","bonus":0.7000000000000013},{"rt":378,"stimulus":"\n                    <p><b>Action: <em>harvest</em></b></p>\n                    <p>This is the bee that you just saw.</p>\n                    <img src=\"bees-with-color/bee-A1DM.svg\" width=\"200\">\n                    <p><span class=\"greenText\"><b>Successful harvest!</b></span><br>Your pay has increased by $0.02. Your bonus pay is now $0.66.</p>\n            ","response":0,"trial_type":"html-button-response","trial_index":138,"time_elapsed":349001,"internal_node_id":"0.0-4.0-1.63","subject_id":"6047938e2edfb901ef28975e","study_id":"6197b3f67c2b5cd3b6d9596a","session_id":"6197b9eb38bfc1bd00b4788a","condition":"full-information","relevant_dimensions":["antennae","pattern"],"bee_group":{"antennae":"B","wings":"X","pattern":"D","legs":"X"},"bonus":0.7000000000000013},{"rt":1834.0999999977648,"stimulus":"You have completed the first part of this experiment.<br><br>You will now begin a shorter second part, in which you will receive no feedback.<br>The same rules regarding bonus pay apply.<br><br>Press any key to begin.","response":"d","trial_type":"html-keyboard-response","trial_index":139,"time_elapsed":350836,"internal_node_id":"0.0-5.0","subject_id":"6047938e2edfb901ef28975e","study_id":"6197b3f67c2b5cd3b6d9596a","session_id":"6197b9eb38bfc1bd00b4788a","condition":"full-information","relevant_dimensions":["antennae","pattern"],"bee_group":{"antennae":"B","wings":"X","pattern":"D","legs":"X"},"bonus":0.7000000000000013},{"rt":2550.400000002235,"stimulus":"bees-with-color/bee-A1DM.svg","response":0,"trial_type":"image-button-response","trial_index":140,"time_elapsed":353392,"internal_node_id":"0.0-6.0-0.0","subject_id":"6047938e2edfb901ef28975e","study_id":"6197b3f67c2b5cd3b6d9596a","session_id":"6197b9eb38bfc1bd00b4788a","condition":"full-information","relevant_dimensions":["antennae","pattern"],"bee_group":{"antennae":"B","wings":"X","pattern":"D","legs":"X"},"bonus":0.7000000000000013},{"rt":3544.2999999970198,"stimulus":"bees-with-color/bee-B1DM.svg","response":0,"trial_type":"image-button-response","trial_index":141,"time_elapsed":356937,"internal_node_id":"0.0-6.0-0.1","subject_id":"6047938e2edfb901ef28975e","study_id":"6197b3f67c2b5cd3b6d9596a","session_id":"6197b9eb38bfc1bd00b4788a","condition":"full-information","relevant_dimensions":["antennae","pattern"],"bee_group":{"antennae":"B","wings":"X","pattern":"D","legs":"X"},"bonus":0.7000000000000013},{"rt":2883.60000000149,"stimulus":"bees-with-color/bee-B1DF.svg","response":1,"trial_type":"image-button-response","trial_index":142,"time_elapsed":359822,"internal_node_id":"0.0-6.0-0.2","subject_id":"6047938e2edfb901ef28975e","study_id":"6197b3f67c2b5cd3b6d9596a","session_id":"6197b9eb38bfc1bd00b4788a","condition":"full-information","relevant_dimensions":["antennae","pattern"],"bee_group":{"antennae":"B","wings":"X","pattern":"D","legs":"X"},"bonus":0.7000000000000013},{"rt":2338.699999999255,"stimulus":"bees-with-color/bee-A1DF.svg","response":1,"trial_type":"image-button-response","trial_index":143,"time_elapsed":362162,"internal_node_id":"0.0-6.0-0.3","subject_id":"6047938e2edfb901ef28975e","study_id":"6197b3f67c2b5cd3b6d9596a","session_id":"6197b9eb38bfc1bd00b4788a","condition":"full-information","relevant_dimensions":["antennae","pattern"],"bee_group":{"antennae":"B","wings":"X","pattern":"D","legs":"X"},"bonus":0.7000000000000013},{"rt":884.3000000007451,"stimulus":"bees-with-color/bee-B1SF.svg","response":0,"trial_type":"image-button-response","trial_index":144,"time_elapsed":363047,"internal_node_id":"0.0-6.0-0.4","subject_id":"6047938e2edfb901ef28975e","study_id":"6197b3f67c2b5cd3b6d9596a","session_id":"6197b9eb38bfc1bd00b4788a","condition":"full-information","relevant_dimensions":["antennae","pattern"],"bee_group":{"antennae":"B","wings":"X","pattern":"D","legs":"X"},"bonus":0.7000000000000013},{"rt":888.8000000007451,"stimulus":"bees-with-color/bee-B1SM.svg","response":0,"trial_type":"image-button-response","trial_index":145,"time_elapsed":363937,"internal_node_id":"0.0-6.0-0.5","subject_id":"6047938e2edfb901ef28975e","study_id":"6197b3f67c2b5cd3b6d9596a","session_id":"6197b9eb38bfc1bd00b4788a","condition":"full-information","relevant_dimensions":["antennae","pattern"],"bee_group":{"antennae":"B","wings":"X","pattern":"D","legs":"X"},"bonus":0.7000000000000013},{"rt":1057.800000000745,"stimulus":"bees-with-color/bee-A2DF.svg","response":1,"trial_type":"image-button-response","trial_index":146,"time_elapsed":364996,"internal_node_id":"0.0-6.0-0.6","subject_id":"6047938e2edfb901ef28975e","study_id":"6197b3f67c2b5cd3b6d9596a","session_id":"6197b9eb38bfc1bd00b4788a","condition":"full-information","relevant_dimensions":["antennae","pattern"],"bee_group":{"antennae":"B","wings":"X","pattern":"D","legs":"X"},"bonus":0.7000000000000013},{"rt":734.9000000022352,"stimulus":"bees-with-color/bee-A1SF.svg","response":0,"trial_type":"image-button-response","trial_index":147,"time_elapsed":365732,"internal_node_id":"0.0-6.0-0.7","subject_id":"6047938e2edfb901ef28975e","study_id":"6197b3f67c2b5cd3b6d9596a","session_id":"6197b9eb38bfc1bd00b4788a","condition":"full-information","relevant_dimensions":["antennae","pattern"],"bee_group":{"antennae":"B","wings":"X","pattern":"D","legs":"X"},"bonus":0.7000000000000013},{"rt":1357,"stimulus":"bees-with-color/bee-B2SM.svg","response":0,"trial_type":"image-button-response","trial_index":148,"time_elapsed":367090,"internal_node_id":"0.0-6.0-0.8","subject_id":"6047938e2edfb901ef28975e","study_id":"6197b3f67c2b5cd3b6d9596a","session_id":"6197b9eb38bfc1bd00b4788a","condition":"full-information","relevant_dimensions":["antennae","pattern"],"bee_group":{"antennae":"B","wings":"X","pattern":"D","legs":"X"},"bonus":0.7000000000000013},{"rt":1068.199999999255,"stimulus":"bees-with-color/bee-A2SF.svg","response":0,"trial_type":"image-button-response","trial_index":149,"time_elapsed":368159,"internal_node_id":"0.0-6.0-0.9","subject_id":"6047938e2edfb901ef28975e","study_id":"6197b3f67c2b5cd3b6d9596a","session_id":"6197b9eb38bfc1bd00b4788a","condition":"full-information","relevant_dimensions":["antennae","pattern"],"bee_group":{"antennae":"B","wings":"X","pattern":"D","legs":"X"},"bonus":0.7000000000000013},{"rt":790.9000000022352,"stimulus":"bees-with-color/bee-A2SM.svg","response":0,"trial_type":"image-button-response","trial_index":150,"time_elapsed":368951,"internal_node_id":"0.0-6.0-0.10","subject_id":"6047938e2edfb901ef28975e","study_id":"6197b3f67c2b5cd3b6d9596a","session_id":"6197b9eb38bfc1bd00b4788a","condition":"full-information","relevant_dimensions":["antennae","pattern"],"bee_group":{"antennae":"B","wings":"X","pattern":"D","legs":"X"},"bonus":0.7000000000000013},{"rt":1993.199999999255,"stimulus":"bees-with-color/bee-B2DM.svg","response":1,"trial_type":"image-button-response","trial_index":151,"time_elapsed":370945,"internal_node_id":"0.0-6.0-0.11","subject_id":"6047938e2edfb901ef28975e","study_id":"6197b3f67c2b5cd3b6d9596a","session_id":"6197b9eb38bfc1bd00b4788a","condition":"full-information","relevant_dimensions":["antennae","pattern"],"bee_group":{"antennae":"B","wings":"X","pattern":"D","legs":"X"},"bonus":0.7000000000000013},{"rt":706.1999999992549,"stimulus":"bees-with-color/bee-A1SM.svg","response":0,"trial_type":"image-button-response","trial_index":152,"time_elapsed":371652,"internal_node_id":"0.0-6.0-0.12","subject_id":"6047938e2edfb901ef28975e","study_id":"6197b3f67c2b5cd3b6d9596a","session_id":"6197b9eb38bfc1bd00b4788a","condition":"full-information","relevant_dimensions":["antennae","pattern"],"bee_group":{"antennae":"B","wings":"X","pattern":"D","legs":"X"},"bonus":0.7000000000000013},{"rt":758.0999999977648,"stimulus":"bees-with-color/bee-A2DM.svg","response":1,"trial_type":"image-button-response","trial_index":153,"time_elapsed":372411,"internal_node_id":"0.0-6.0-0.13","subject_id":"6047938e2edfb901ef28975e","study_id":"6197b3f67c2b5cd3b6d9596a","session_id":"6197b9eb38bfc1bd00b4788a","condition":"full-information","relevant_dimensions":["antennae","pattern"],"bee_group":{"antennae":"B","wings":"X","pattern":"D","legs":"X"},"bonus":0.7000000000000013},{"rt":644.0999999977648,"stimulus":"bees-with-color/bee-B2SF.svg","response":0,"trial_type":"image-button-response","trial_index":154,"time_el