[{"success":true,"trial_type":"fullscreen","trial_index":0,"time_elapsed":4928,"internal_node_id":"0.0-0.0","subject_id":"60f6f802c0ede08f7cf69720","study_id":"60edd13110225f80f9f3709b","session_id":"6196d3ec6a401f8ca5e6c8b7","condition":"contingent","relevant_dimensions":["pattern","legs"],"bee_group":{"antennae":"X","wings":"X","pattern":"D","legs":"M"},"bonus":1.1800000000000008},{"success":true,"timeout":false,"failed_images":[],"failed_audio":[],"failed_video":[],"trial_type":"preload","trial_index":1,"time_elapsed":7892,"internal_node_id":"0.0-1.0","subject_id":"60f6f802c0ede08f7cf69720","study_id":"60edd13110225f80f9f3709b","session_id":"6196d3ec6a401f8ca5e6c8b7","condition":"contingent","relevant_dimensions":["pattern","legs"],"bee_group":{"antennae":"X","wings":"X","pattern":"D","legs":"M"},"bonus":1.1800000000000008},{"rt":2156.900000035763,"stimulus":"Welcome! Press any key to begin.","response":"enter","trial_type":"html-keyboard-response","trial_index":2,"time_elapsed":10050,"internal_node_id":"0.0-2.0","subject_id":"60f6f802c0ede08f7cf69720","study_id":"60edd13110225f80f9f3709b","session_id":"6196d3ec6a401f8ca5e6c8b7","condition":"contingent","relevant_dimensions":["pattern","legs"],"bee_group":{"antennae":"X","wings":"X","pattern":"D","legs":"M"},"bonus":1.1800000000000008},{"view_history":[{"page_index":0,"viewing_time":3297.100000023842},{"page_index":1,"viewing_time":8711.099999964237},{"page_index":2,"viewing_time":11974.900000035763},{"page_index":3,"viewing_time":10766.099999964237},{"page_index":4,"viewing_time":4127.400000035763},{"page_index":5,"viewing_time":6599.199999988079},{"page_index":6,"viewing_time":7423.100000023842},{"page_index":7,"viewing_time":4879.199999988079},{"page_index":8,"viewing_time":2600.199999988079},{"page_index":9,"viewing_time":2287.5},{"page_index":10,"viewing_time":1537.699999988079},{"page_index":11,"viewing_time":8309},{"page_index":12,"viewing_time":10750.199999988079},{"page_index":13,"viewing_time":1415.800000011921},{"page_index":14,"viewing_time":2071.600000023842}],"rt":86750.69999998808,"trial_type":"instructions","trial_index":3,"time_elapsed":96802,"internal_node_id":"0.0-3.0-0.0","subject_id":"60f6f802c0ede08f7cf69720","study_id":"60edd13110225f80f9f3709b","session_id":"6196d3ec6a401f8ca5e6c8b7","condition":"contingent","relevant_dimensions":["pattern","legs"],"bee_group":{"antennae":"X","wings":"X","pattern":"D","legs":"M"},"bonus":1.1800000000000008},{"rt":11775.5,"response":{"Q0":["Two or six legs","Stripes or spots on body","Single or double wings","Antennae or no antennae"]},"question_order":[0],"trial_type":"survey-multi-select","trial_index":4,"time_elapsed":108586,"internal_node_id":"0.0-3.0-1.0","subject_id":"60f6f802c0ede08f7cf69720","study_id":"60edd13110225f80f9f3709b","session_id":"6196d3ec6a401f8ca5e6c8b7","condition":"contingent","relevant_dimensions":["pattern","legs"],"bee_group":{"antennae":"X","wings":"X","pattern":"D","legs":"M"},"correct":true,"bonus":1.1800000000000008},{"rt":14897.5,"response":{"Q1":"No.","Q2":"Based on the four features of the bee.","Q3":"You do not learn if it was friendly or dangerous, and do not alter your bonus."},"question_order":[0,1,2],"trial_type":"survey-multi-choice","trial_index":5,"time_elapsed":123486,"internal_node_id":"0.0-3.0-2.0","subject_id":"60f6f802c0ede08f7cf69720","study_id":"60edd13110225f80f9f3709b","session_id":"6196d3ec6a401f8ca5e6c8b7","condition":"contingent","relevant_dimensions":["pattern","legs"],"bee_group":{"antennae":"X","wings":"X","pattern":"D","legs":"M"},"correct":true,"bonus":1.1800000000000008},{"rt":1925.1000000238419,"stimulus":"<p>Congrats, you got everything right<br>When you're ready, click the button below to continue to the experiment.</p>","response":0,"trial_type":"html-button-response","trial_index":6,"time_elapsed":125414,"internal_node_id":"0.0-3.0-3.0","subject_id":"60f6f802c0ede08f7cf69720","study_id":"60edd13110225f80f9f3709b","session_id":"6196d3ec6a401f8ca5e6c8b7","condition":"contingent","relevant_dimensions":["pattern","legs"],"bee_group":{"antennae":"X","wings":"X","pattern":"D","legs":"M"},"bonus":1.1800000000000008},{"rt":3603.5,"stimulus":"bees-with-color/bee-B2DF.svg","response":0,"trial_type":"image-button-response","trial_index":7,"time_elapsed":129023,"internal_node_id":"0.0-4.0-0.0","subject_id":"60f6f802c0ede08f7cf69720","study_id":"60edd13110225f80f9f3709b","session_id":"6196d3ec6a401f8ca5e6c8b7","condition":"contingent","relevant_dimensions":["pattern","legs"],"bee_group":{"antennae":"X","wings":"X","pattern":"D","legs":"M"},"action":"harvest","summary":"good-harvest","bonus":1.1800000000000008},{"rt":6738.199999988079,"stimulus":"\n                    <p><b>Action: <em>harvest</em></b></p>\n                    <p>This is the bee that you just saw.</p>\n                    <img src=\"bees-with-color/bee-B2DF.svg\" width=\"200\">\n                    <p><span class=\"greenText\"><b>Successful harvest!</b></span><br>Your pay has increased by $0.02. Your bonus pay is now $0.56.</p>\n            ","response":0,"trial_type":"html-button-response","trial_index":8,"time_elapsed":135765,"internal_node_id":"0.0-4.0-1.0","subject_id":"60f6f802c0ede08f7cf69720","study_id":"60edd13110225f80f9f3709b","session_id":"6196d3ec6a401f8ca5e6c8b7","condition":"contingent","relevant_dimensions":["pattern","legs"],"bee_group":{"antennae":"X","wings":"X","pattern":"D","legs":"M"},"bonus":1.1800000000000008},{"rt":3066.899999976158,"stimulus":"bees-with-color/bee-B1DF.svg","response":0,"trial_type":"image-button-response","trial_index":9,"time_elapsed":138836,"internal_node_id":"0.0-4.0-0.1","subject_id":"60f6f802c0ede08f7cf69720","study_id":"60edd13110225f80f9f3709b","session_id":"6196d3ec6a401f8ca5e6c8b7","condition":"contingent","relevant_dimensions":["pattern","legs"],"bee_group":{"antennae":"X","wings":"X","pattern":"D","legs":"M"},"action":"harvest","summary":"good-harvest","bonus":1.1800000000000008},{"rt":2862.199999988079,"stimulus":"\n                    <p><b>Action: <em>harvest</em></b></p>\n                    <p>This is the bee that you just saw.</p>\n                    <img src=\"bees-with-color/bee-B1DF.svg\" width=\"200\">\n                    <p><span class=\"greenText\"><b>Successful harvest!</b></span><br>Your pay has increased by $0.02. Your bonus pay is now $0.58.</p>\n            ","response":0,"trial_type":"html-button-response","trial_index":10,"time_elapsed":141702,"internal_node_id":"0.0-4.0-1.1","subject_id":"60f6f802c0ede08f7cf69720","study_id":"60edd13110225f80f9f3709b","session_id":"6196d3ec6a401f8ca5e6c8b7","condition":"contingent","relevant_dimensions":["pattern","legs"],"bee_group":{"antennae":"X","wings":"X","pattern":"D","legs":"M"},"bonus":1.1800000000000008},{"rt":2154.099999964237,"stimulus":"bees-with-color/bee-A1DF.svg","response":0,"trial_type":"image-button-response","trial_index":11,"time_elapsed":143860,"internal_node_id":"0.0-4.0-0.2","subject_id":"60f6f802c0ede08f7cf69720","study_id":"60edd13110225f80f9f3709b","session_id":"6196d3ec6a401f8ca5e6c8b7","condition":"contingent","relevant_dimensions":["pattern","legs"],"bee_group":{"antennae":"X","wings":"X","pattern":"D","legs":"M"},"action":"harvest","summary":"good-harvest","bonus":1.1800000000000008},{"rt":2388.2999999523163,"stimulus":"\n                    <p><b>Action: <em>harvest</em></b></p>\n                    <p>This is the bee that you just saw.</p>\n                    <img src=\"bees-with-color/bee-A1DF.svg\" width=\"200\">\n                    <p><span class=\"greenText\"><b>Successful harvest!</b></span><br>Your pay has increased by $0.02. Your bonus pay is now $0.60.</p>\n            ","response":0,"trial_type":"html-button-response","trial_index":12,"time_elapsed":146251,"internal_node_id":"0.0-4.0-1.2","subject_id":"60f6f802c0ede08f7cf69720","study_id":"60edd13110225f80f9f3709b","session_id":"6196d3ec6a401f8ca5e6c8b7","condition":"contingent","relevant_dimensions":["pattern","legs"],"bee_group":{"antennae":"X","wings":"X","pattern":"D","legs":"M"},"bonus":1.1800000000000008},{"rt":2845,"stimulus":"bees-with-color/bee-A1SF.svg","response":1,"trial_type":"image-button-response","trial_index":13,"time_elapsed":149099,"internal_node_id":"0.0-4.0-0.3","subject_id":"60f6f802c0ede08f7cf69720","study_id":"60edd13110225f80f9f3709b","session_id":"6196d3ec6a401f8ca5e6c8b7","condition":"contingent","relevant_dimensions":["pattern","legs"],"bee_group":{"antennae":"X","wings":"X","pattern":"D","legs":"M"},"action":"avoid","summary":"bad-avoid","bonus":1.1800000000000008},{"rt":4364.900000035763,"stimulus":"\n                    <p><b>Action: <em>avoid</em></b></p>\n                    <p>This is the bee that you just saw.</p>\n                    <img src=\"bees-with-color/bee-A1SF.svg\" width=\"200\">\n                    <p><br>Your bonus pay is unchanged, and remains at $0.60.</p>\n            ","response":0,"trial_type":"html-button-response","trial_index":14,"time_elapsed":153467,"internal_node_id":"0.0-4.0-1.3","subject_id":"60f6f802c0ede08f7cf69720","study_id":"60edd13110225f80f9f3709b","session_id":"6196d3ec6a401f8ca5e6c8b7","condition":"contingent","relevant_dimensions":["pattern","legs"],"bee_group":{"antennae":"X","wings":"X","pattern":"D","legs":"M"},"bonus":1.1800000000000008},{"rt":2244.599999964237,"stimulus":"bees-with-color/bee-A2SF.svg","response":0,"trial_type":"image-button-response","trial_index":15,"time_elapsed":155714,"internal_node_id":"0.0-4.0-0.4","subject_id":"60f6f802c0ede08f7cf69720","study_id":"60edd13110225f80f9f3709b","session_id":"6196d3ec6a401f8ca5e6c8b7","condition":"contingent","relevant_dimensions":["pattern","legs"],"bee_group":{"antennae":"X","wings":"X","pattern":"D","legs":"M"},"action":"harvest","summary":"good-harvest","bonus":1.1800000000000008},{"rt":2594.900000035763,"stimulus":"\n                    <p><b>Action: <em>harvest</em></b></p>\n                    <p>This is the bee that you just saw.</p>\n                    <img src=\"bees-with-color/bee-A2SF.svg\" width=\"200\">\n                    <p><span class=\"greenText\"><b>Successful harvest!</b></span><br>Your pay has increased by $0.02. Your bonus pay is now $0.62.</p>\n            ","response":0,"trial_type":"html-button-response","trial_index":16,"time_elapsed":158314,"internal_node_id":"0.0-4.0-1.4","subject_id":"60f6f802c0ede08f7cf69720","study_id":"60edd13110225f80f9f3709b","session_id":"6196d3ec6a401f8ca5e6c8b7","condition":"contingent","relevant_dimensions":["pattern","legs"],"bee_group":{"antennae":"X","wings":"X","pattern":"D","legs":"M"},"bonus":1.1800000000000008},{"rt":2050.599999964237,"stimulus":"bees-with-color/bee-A2DF.svg","response":1,"trial_type":"image-button-response","trial_index":17,"time_elapsed":160370,"internal_node_id":"0.0-4.0-0.5","subject_id":"60f6f802c0ede08f7cf69720","study_id":"60edd13110225f80f9f3709b","session_id":"6196d3ec6a401f8ca5e6c8b7","condition":"contingent","relevant_dimensions":["pattern","legs"],"bee_group":{"antennae":"X","wings":"X","pattern":"D","legs":"M"},"action":"avoid","summary":"bad-avoid","bonus":1.1800000000000008},{"rt":2884.5,"stimulus":"\n                    <p><b>Action: <em>avoid</em></b></p>\n                    <p>This is the bee that you just saw.</p>\n                    <img src=\"bees-with-color/bee-A2DF.svg\" width=\"200\">\n                    <p><br>Your bonus pay is unchanged, and remains at $0.62.</p>\n            ","response":0,"trial_type":"html-button-response","trial_index":18,"time_elapsed":163257,"internal_node_id":"0.0-4.0-1.5","subject_id":"60f6f802c0ede08f7cf69720","study_id":"60edd13110225f80f9f3709b","session_id":"6196d3ec6a401f8ca5e6c8b7","condition":"contingent","relevant_dimensions":["pattern","legs"],"bee_group":{"antennae":"X","wings":"X","pattern":"D","legs":"M"},"bonus":1.1800000000000008},{"rt":2524.100000023842,"stimulus":"bees-with-color/bee-A1DM.svg","response":0,"trial_type":"image-button-response","trial_index":19,"time_elapsed":165784,"internal_node_id":"0.0-4.0-0.6","subject_id":"60f6f802c0ede08f7cf69720","study_id":"60edd13110225f80f9f3709b","session_id":"6196d3ec6a401f8ca5e6c8b7","condition":"contingent","relevant_dimensions":["pattern","legs"],"bee_group":{"antennae":"X","wings":"X","pattern":"D","legs":"M"},"action":"harvest","summary":"bad-harvest","bonus":1.1800000000000008},{"rt":3310,"stimulus":"\n                    <p><b>Action: <em>harvest</em></b></p>\n                    <p>This is the bee that you just saw.</p>\n                    <img src=\"bees-with-color/bee-A1DM.svg\" width=\"200\">\n                    <p><span class=\"redText\">Bad choice, the bee was angry.</span><br><b>You have been stung!</b><br>Your pay has been decreased by $0.10. Your bonus pay is now $0.52.</p>\n            ","response":0,"trial_type":"html-button-response","trial_index":20,"time_elapsed":169096,"internal_node_id":"0.0-4.0-1.6","subject_id":"60f6f802c0ede08f7cf69720","study_id":"60edd13110225f80f9f3709b","session_id":"6196d3ec6a401f8ca5e6c8b7","condition":"contingent","relevant_dimensions":["pattern","legs"],"bee_group":{"antennae":"X","wings":"X","pattern":"D","legs":"M"},"bonus":1.1800000000000008},{"rt":1859.699999988079,"stimulus":"bees-with-color/bee-B2DM.svg","response":1,"trial_type":"image-button-response","trial_index":21,"time_elapsed":170959,"internal_node_id":"0.0-4.0-0.7","subject_id":"60f6f802c0ede08f7cf69720","study_id":"60edd13110225f80f9f3709b","session_id":"6196d3ec6a401f8ca5e6c8b7","condition":"contingent","relevant_dimensions":["pattern","legs"],"bee_group":{"antennae":"X","wings":"X","pattern":"D","legs":"M"},"action":"avoid","summary":"good-avoid","bonus":1.1800000000000008},{"rt":3693.600000023842,"stimulus":"\n                    <p><b>Action: <em>avoid</em></b></p>\n                    <p>This is the bee that you just saw.</p>\n                    <img src=\"bees-with-color/bee-B2DM.svg\" width=\"200\">\n                    <p><br>Your bonus pay is unchanged, and remains at $0.52.</p>\n            ","response":0,"trial_type":"html-button-response","trial_index":22,"time_elapsed":174655,"internal_node_id":"0.0-4.0-1.7","subject_id":"60f6f802c0ede08f7cf69720","study_id":"60edd13110225f80f9f3709b","session_id":"6196d3ec6a401f8ca5e6c8b7","condition":"contingent","relevant_dimensions":["pattern","legs"],"bee_group":{"antennae":"X","wings":"X","pattern":"D","legs":"M"},"bonus":1.1800000000000008},{"rt":1813.0999999642372,"stimulus":"bees-with-color/bee-A1SM.svg","response":0,"trial_type":"image-button-response","trial_index":23,"time_elapsed":176471,"internal_node_id":"0.0-4.0-0.8","subject_id":"60f6f802c0ede08f7cf69720","study_id":"60edd13110225f80f9f3709b","session_id":"6196d3ec6a401f8ca5e6c8b7","condition":"contingent","relevant_dimensions":["pattern","legs"],"bee_group":{"antennae":"X","wings":"X","pattern":"D","legs":"M"},"action":"harvest","summary":"good-harvest","bonus":1.1800000000000008},{"rt":2204.400000035763,"stimulus":"\n                    <p><b>Action: <em>harvest</em></b></p>\n                    <p>This is the bee that you just saw.</p>\n                    <img src=\"bees-with-color/bee-A1SM.svg\" width=\"200\">\n                    <p><span class=\"greenText\"><b>Successful harvest!</b></span><br>Your pay has increased by $0.02. Your bonus pay is now $0.54.</p>\n            ","response":0,"trial_type":"html-button-response","trial_index":24,"time_elapsed":178679,"internal_node_id":"0.0-4.0-1.8","subject_id":"60f6f802c0ede08f7cf69720","study_id":"60edd13110225f80f9f3709b","session_id":"6196d3ec6a401f8ca5e6c8b7","condition":"contingent","relevant_dimensions":["pattern","legs"],"bee_group":{"antennae":"X","wings":"X","pattern":"D","legs":"M"},"bonus":1.1800000000000008},{"rt":1236.199999988079,"stimulus":"bees-with-color/bee-B2SF.svg","response":0,"trial_type":"image-button-response","trial_index":25,"time_elapsed":179918,"internal_node_id":"0.0-4.0-0.9","subject_id":"60f6f802c0ede08f7cf69720","study_id":"60edd13110225f80f9f3709b","session_id":"6196d3ec6a401f8ca5e6c8b7","condition":"contingent","relevant_dimensions":["pattern","legs"],"bee_group":{"antennae":"X","wings":"X","pattern":"D","legs":"M"},"action":"harvest","summary":"good-harvest","bonus":1.1800000000000008},{"rt":2053.699999988079,"stimulus":"\n                    <p><b>Action: <em>harvest</em></b></p>\n                    <p>This is the bee that you just saw.</p>\n                    <img src=\"bees-with-color/bee-B2SF.svg\" width=\"200\">\n                    <p><span class=\"greenText\"><b>Successful harvest!</b></span><br>Your pay has increased by $0.02. Your bonus pay is now $0.56.</p>\n            ","response":0,"trial_type":"html-button-response","trial_index":26,"time_elapsed":181975,"internal_node_id":"0.0-4.0-1.9","subject_id":"60f6f802c0ede08f7cf69720","study_id":"60edd13110225f80f9f3709b","session_id":"6196d3ec6a401f8ca5e6c8b7","condition":"contingent","relevant_dimensions":["pattern","legs"],"bee_group":{"antennae":"X","wings":"X","pattern":"D","legs":"M"},"bonus":1.1800000000000008},{"rt":1980.0999999642372,"stimulus":"bees-with-color/bee-B1DM.svg","response":1,"trial_type":"image-button-response","trial_index":27,"time_elapsed":183958,"internal_node_id":"0.0-4.0-0.10","subject_id":"60f6f802c0ede08f7cf69720","study_id":"60edd13110225f80f9f3709b","session_id":"6196d3ec6a401f8ca5e6c8b7","condition":"contingent","relevant_dimensions":["pattern","legs"],"bee_group":{"antennae":"X","wings":"X","pattern":"D","legs":"M"},"action":"avoid","summary":"good-avoid","bonus":1.1800000000000008},{"rt":1933.6000000238419,"stimulus":"\n                    <p><b>Action: <em>avoid</em></b></p>\n                    <p>This is the bee that you just saw.</p>\n                    <img src=\"bees-with-color/bee-B1DM.svg\" width=\"200\">\n                    <p><br>Your bonus pay is unchanged, and remains at $0.56.</p>\n            ","response":0,"trial_type":"html-button-response","trial_index":28,"time_elapsed":185894,"internal_node_id":"0.0-4.0-1.10","subject_id":"60f6f802c0ede08f7cf69720","study_id":"60edd13110225f80f9f3709b","session_id":"6196d3ec6a401f8ca5e6c8b7","condition":"contingent","relevant_dimensions":["pattern","legs"],"bee_group":{"antennae":"X","wings":"X","pattern":"D","legs":"M"},"bonus":1.1800000000000008},{"rt":1630,"stimulus":"bees-with-color/bee-A2DM.svg","response":0,"trial_type":"image-button-response","trial_index":29,"time_elapsed":187526,"internal_node_id":"0.0-4.0-0.11","subject_id":"60f6f802c0ede08f7cf69720","study_id":"60edd13110225f80f9f3709b","session_id":"6196d3ec6a401f8ca5e6c8b7","condition":"contingent","relevant_dimensions":["pattern","legs"],"bee_group":{"antennae":"X","wings":"X","pattern":"D","legs":"M"},"action":"harvest","summary":"bad-harvest","bonus":1.1800000000000008},{"rt":2620.5,"stimulus":"\n                    <p><b>Action: <em>harvest</em></b></p>\n                    <p>This is the bee that you just saw.</p>\n                    <img src=\"bees-with-color/bee-A2DM.svg\" width=\"200\">\n                    <p><span class=\"redText\">Bad choice, the bee was angry.</span><br><b>You have been stung!</b><br>Your pay has been decreased by $0.10. Your bonus pay is now $0.46.</p>\n            ","response":0,"trial_type":"html-button-response","trial_index":30,"time_elapsed":190149,"internal_node_id":"0.0-4.0-1.11","subject_id":"60f6f802c0ede08f7cf69720","study_id":"60edd13110225f80f9f3709b","session_id":"6196d3ec6a401f8ca5e6c8b7","condition":"contingent","relevant_dimensions":["pattern","legs"],"bee_group":{"antennae":"X","wings":"X","pattern":"D","legs":"M"},"bonus":1.1800000000000008},{"rt":1901.1000000238419,"stimulus":"bees-with-color/bee-B2SM.svg","response":0,"trial_type":"image-button-response","trial_index":31,"time_elapsed":192053,"internal_node_id":"0.0-4.0-0.12","subject_id":"60f6f802c0ede08f7cf69720","study_id":"60edd13110225f80f9f3709b","session_id":"6196d3ec6a401f8ca5e6c8b7","condition":"contingent","relevant_dimensions":["pattern","legs"],"bee_group":{"antennae":"X","wings":"X","pattern":"D","legs":"M"},"action":"harvest","summary":"good-harvest","bonus":1.1800000000000008},{"rt":2157.199999988079,"stimulus":"\n                    <p><b>Action: <em>harvest</em></b></p>\n                    <p>This is the bee that you just saw.</p>\n                    <img src=\"bees-with-color/bee-B2SM.svg\" width=\"200\">\n                    <p><span class=\"greenText\"><b>Successful harvest!</b></span><br>Your pay has increased by $0.02. Your bonus pay is now $0.48.</p>\n            ","response":0,"trial_type":"html-button-response","trial_index":32,"time_elapsed":194212,"internal_node_id":"0.0-4.0-1.12","subject_id":"60f6f802c0ede08f7cf69720","study_id":"60edd13110225f80f9f3709b","session_id":"6196d3ec6a401f8ca5e6c8b7","condition":"contingent","relevant_dimensions":["pattern","legs"],"bee_group":{"antennae":"X","wings":"X","pattern":"D","legs":"M"},"bonus":1.1800000000000008},{"rt":1060.1000000238419,"stimulus":"bees-with-color/bee-A2SM.svg","response":0,"trial_type":"image-button-response","trial_index":33,"time_elapsed":195277,"internal_node_id":"0.0-4.0-0.13","subject_id":"60f6f802c0ede08f7cf69720","study_id":"60edd13110225f80f9f3709b","session_id":"6196d3ec6a401f8ca5e6c8b7","condition":"contingent","relevant_dimensions":["pattern","legs"],"bee_group":{"antennae":"X","wings":"X","pattern":"D","legs":"M"},"action":"harvest","summary":"good-harvest","bonus":1.1800000000000008},{"rt":1885.5,"stimulus":"\n                    <p><b>Action: <em>harvest</em></b></p>\n                    <p>This is the bee that you just saw.</p>\n                    <img src=\"bees-with-color/bee-A2SM.svg\" width=\"200\">\n                    <p><span class=\"greenText\"><b>Successful harvest!</b></span><br>Your pay has increased by $0.02. Your bonus pay is now $0.50.</p>\n            ","response":0,"trial_type":"html-button-response","trial_index":34,"time_elapsed":197165,"internal_node_id":"0.0-4.0-1.13","subject_id":"60f6f802c0ede08f7cf69720","study_id":"60edd13110225f80f9f3709b","session_id":"6196d3ec6a401f8ca5e6c8b7","condition":"contingent","relevant_dimensions":["pattern","legs"],"bee_group":{"antennae":"X","wings":"X","pattern":"D","legs":"M"},"bonus":1.1800000000000008},{"rt":1476.1000000238419,"stimulus":"bees-with-color/bee-B1SF.svg","response":0,"trial_type":"image-button-response","trial_index":35,"time_elapsed":198644,"internal_node_id":"0.0-4.0-0.14","subject_id":"60f6f802c0ede08f7cf69720","study_id":"60edd13110225f80f9f3709b","session_id":"6196d3ec6a401f8ca5e6c8b7","condition":"contingent","relevant_dimensions":["pattern","legs"],"bee_group":{"antennae":"X","wings":"X","pattern":"D","legs":"M"},"action":"harvest","summary":"good-harvest","bonus":1.1800000000000008},{"rt":1901.6000000238419,"stimulus":"\n                    <p><b>Action: <em>harvest</em></b></p>\n                    <p>This is the bee that you just saw.</p>\n                    <img src=\"bees-with-color/bee-B1SF.svg\" width=\"200\">\n                    <p><span class=\"greenText\"><b>Successful harvest!</b></span><br>Your pay has increased by $0.02. Your bonus pay is now $0.52.</p>\n            ","response":0,"trial_type":"html-button-response","trial_index":36,"time_elapsed":200548,"internal_node_id":"0.0-4.0-1.14","subject_id":"60f6f802c0ede08f7cf69720","study_id":"60edd13110225f80f9f3709b","session_id":"6196d3ec6a401f8ca5e6c8b7","condition":"contingent","relevant_dimensions":["pattern","legs"],"bee_group":{"antennae":"X","wings":"X","pattern":"D","legs":"M"},"bonus":1.1800000000000008},{"rt":1053.3999999761581,"stimulus":"bees-with-color/bee-B1SM.svg","response":0,"trial_type":"image-button-response","trial_index":37,"time_elapsed":201603,"internal_node_id":"0.0-4.0-0.15","subject_id":"60f6f802c0ede08f7cf69720","study_id":"60edd13110225f80f9f3709b","session_id":"6196d3ec6a401f8ca5e6c8b7","condition":"contingent","relevant_dimensions":["pattern","legs"],"bee_group":{"antennae":"X","wings":"X","pattern":"D","legs":"M"},"action":"harvest","summary":"good-harvest","bonus":1.1800000000000008},{"rt":2565.699999988079,"stimulus":"\n                    <p><b>Action: <em>harvest</em></b></p>\n                    <p>This is the bee that you just saw.</p>\n                    <img src=\"bees-with-color/bee-B1SM.svg\" width=\"200\">\n                    <p><span class=\"greenText\"><b>Successful harvest!</b></span><br>Your pay has increased by $0.02. Your bonus pay is now $0.54.</p>\n            ","response":0,"trial_type":"html-button-response","trial_index":38,"time_elapsed":204171,"internal_node_id":"0.0-4.0-1.15","subject_id":"60f6f802c0ede08f7cf69720","study_id":"60edd13110225f80f9f3709b","session_id":"6196d3ec6a401f8ca5e6c8b7","condition":"contingent","relevant_dimensions":["pattern","legs"],"bee_group":{"antennae":"X","wings":"X","pattern":"D","legs":"M"},"bonus":1.1800000000000008},{"rt":2204.699999988079,"stimulus":"bees-with-color/bee-B2DF.svg","response":0,"trial_type":"image-button-response","trial_index":39,"time_elapsed":206378,"internal_node_id":"0.0-4.0-0.16","subject_id":"60f6f802c0ede08f7cf69720","study_id":"60edd13110225f80f9f3709b","session_id":"6196d3ec6a401f8ca5e6c8b7","condition":"contingent","relevant_dimensions":["pattern","legs"],"bee_group":{"antennae":"X","wings":"X","pattern":"D","legs":"M"},"action":"harvest","summary":"good-harvest","bonus":1.1800000000000008},{"rt":1645.3999999761581,"stimulus":"\n                    <p><b>Action: <em>harvest</em></b></p>\n                    <p>This is the bee that you just saw.</p>\n                    <img src=\"bees-with-color/bee-B2DF.svg\" width=\"200\">\n                    <p><span class=\"greenText\"><b>Successful harvest!</b></span><br>Your pay has increased by $0.02. Your bonus pay is now $0.56.</p>\n            ","response":0,"trial_type":"html-button-response","trial_index":40,"time_elapsed":208027,"internal_node_id":"0.0-4.0-1.16","subject_id":"60f6f802c0ede08f7cf69720","study_id":"60edd13110225f80f9f3709b","session_id":"6196d3ec6a401f8ca5e6c8b7","condition":"contingent","relevant_dimensions":["pattern","legs"],"bee_group":{"antennae":"X","wings":"X","pattern":"D","legs":"M"},"bonus":1.1800000000000008},{"rt":1290.5999999642372,"stimulus":"bees-with-color/bee-B2SM.svg","response":0,"trial_type":"image-button-response","trial_index":41,"time_elapsed":209322,"internal_node_id":"0.0-4.0-0.17","subject_id":"60f6f802c0ede08f7cf69720","study_id":"60edd13110225f80f9f3709b","session_id":"6196d3ec6a401f8ca5e6c8b7","condition":"contingent","relevant_dimensions":["pattern","legs"],"bee_group":{"antennae":"X","wings":"X","pattern":"D","legs":"M"},"action":"harvest","summary":"good-harvest","bonus":1.1800000000000008},{"rt":1685.699999988079,"stimulus":"\n                    <p><b>Action: <em>harvest</em></b></p>\n                    <p>This is the bee that you just saw.</p>\n                    <img src=\"bees-with-color/bee-B2SM.svg\" width=\"200\">\n                    <p><span class=\"greenText\"><b>Successful harvest!</b></span><br>Your pay has increased by $0.02. Your bonus pay is now $0.58.</p>\n            ","response":0,"trial_type":"html-button-response","trial_index":42,"time_elapsed":211010,"internal_node_id":"0.0-4.0-1.17","subject_id":"60f6f802c0ede08f7cf69720","study_id":"60edd13110225f80f9f3709b","session_id":"6196d3ec6a401f8ca5e6c8b7","condition":"contingent","relevant_dimensions":["pattern","legs"],"bee_group":{"antennae":"X","wings":"X","pattern":"D","legs":"M"},"bonus":1.1800000000000008},{"rt":3581.800000011921,"stimulus":"bees-with-color/bee-A2DF.svg","response":0,"trial_type":"image-button-response","trial_index":43,"time_elapsed":214594,"internal_node_id":"0.0-4.0-0.18","subject_id":"60f6f802c0ede08f7cf69720","study_id":"60edd13110225f80f9f3709b","session_id":"6196d3ec6a401f8ca5e6c8b7","condition":"contingent","relevant_dimensions":["pattern","legs"],"bee_group":{"antennae":"X","wings":"X","pattern":"D","legs":"M"},"action":"harvest","summary":"good-harvest","bonus":1.1800000000000008},{"rt":1763.300000011921,"stimulus":"\n                    <p><b>Action: <em>harvest</em></b></p>\n                    <p>This is the bee that you just saw.</p>\n                    <img src=\"bees-with-color/bee-A2DF.svg\" width=\"200\">\n                    <p><span class=\"greenText\"><b>Successful harvest!</b></span><br>Your pay has increased by $0.02. Your bonus pay is now $0.60.</p>\n            ","response":0,"trial_type":"html-button-response","trial_index":44,"time_elapsed":216361,"internal_node_id":"0.0-4.0-1.18","subject_id":"60f6f802c0ede08f7cf69720","study_id":"60edd13110225f80f9f3709b","session_id":"6196d3ec6a401f8ca5e6c8b7","condition":"contingent","relevant_dimensions":["pattern","legs"],"bee_group":{"antennae":"X","wings":"X","pattern":"D","legs":"M"},"bonus":1.1800000000000008},{"rt":2581.900000035763,"stimulus":"bees-with-color/bee-B1SM.svg","response":0,"trial_type":"image-button-response","trial_index":45,"time_elapsed":218947,"internal_node_id":"0.0-4.0-0.19","subject_id":"60f6f802c0ede08f7cf69720","study_id":"60edd13110225f80f9f3709b","session_id":"6196d3ec6a401f8ca5e6c8b7","condition":"contingent","relevant_dimensions":["pattern","legs"],"bee_group":{"antennae":"X","wings":"X","pattern":"D","legs":"M"},"action":"harvest","summary":"good-harvest","bonus":1.1800000000000008},{"rt":1588.5,"stimulus":"\n                    <p><b>Action: <em>harvest</em></b></p>\n                    <p>This is the bee that you just saw.</p>\n                    <img src=\"bees-with-color/bee-B1SM.svg\" width=\"200\">\n                    <p><span class=\"greenText\"><b>Successful harvest!</b></span><br>Your pay has increased by $0.02. Your bonus pay is now $0.62.</p>\n            ","response":0,"trial_type":"html-button-response","trial_index":46,"time_elapsed":220538,"internal_node_id":"0.0-4.0-1.19","subject_id":"60f6f802c0ede08f7cf69720","study_id":"60edd13110225f80f9f3709b","session_id":"6196d3ec6a401f8ca5e6c8b7","condition":"contingent","relevant_dimensions":["pattern","legs"],"bee_group":{"antennae":"X","wings":"X","pattern":"D","legs":"M"},"bonus":1.1800000000000008},{"rt":1244.5,"stimulus":"bees-with-color/bee-B2SF.svg","response":0,"trial_type":"image-button-response","trial_index":47,"time_elapsed":221785,"internal_node_id":"0.0-4.0-0.20","subject_id":"60f6f802c0ede08f7cf69720","study_id":"60edd13110225f80f9f3709b","session_id":"6196d3ec6a401f8ca5e6c8b7","condition":"contingent","relevant_dimensions":["pattern","legs"],"bee_group":{"antennae":"X","wings":"X","pattern":"D","legs":"M"},"action":"harvest","summary":"good-harvest","bonus":1.1800000000000008},{"rt":1780.6000000238419,"stimulus":"\n                    <p><b>Action: <em>harvest</em></b></p>\n                    <p>This is the bee that you just saw.</p>\n                    <img src=\"bees-with-color/bee-B2SF.svg\" width=\"200\">\n                    <p><span class=\"greenText\"><b>Successful harvest!</b></span><br>Your pay has increased by $0.02. Your bonus pay is now $0.64.</p>\n            ","response":0,"trial_type":"html-button-response","trial_index":48,"time_elapsed":223569,"internal_node_id":"0.0-4.0-1.20","subject_id":"60f6f802c0ede08f7cf69720","study_id":"60edd13110225f80f9f3709b","session_id":"6196d3ec6a401f8ca5e6c8b7","condition":"contingent","relevant_dimensions":["pattern","legs"],"bee_group":{"antennae":"X","wings":"X","pattern":"D","legs":"M"},"bonus":1.1800000000000008},{"rt":2101.699999988079,"stimulus":"bees-with-color/bee-B1DM.svg","response":1,"trial_type":"image-button-response","trial_index":49,"time_elapsed":225673,"internal_node_id":"0.0-4.0-0.21","subject_id":"60f6f802c0ede08f7cf69720","study_id":"60edd13110225f80f9f3709b","session_id":"6196d3ec6a401f8ca5e6c8b7","condition":"contingent","relevant_dimensions":["pattern","legs"],"bee_group":{"antennae":"X","wings":"X","pattern":"D","legs":"M"},"action":"avoid","summary":"good-avoid","bonus":1.1800000000000008},{"rt":2164.399999976158,"stimulus":"\n                    <p><b>Action: <em>avoid</em></b></p>\n                    <p>This is the bee that you just saw.</p>\n                    <img src=\"bees-with-color/bee-B1DM.svg\" width=\"200\">\n                    <p><br>Your bonus pay is unchanged, and remains at $0.64.</p>\n            ","response":0,"trial_type":"html-button-response","trial_index":50,"time_elapsed":227840,"internal_node_id":"0.0-4.0-1.21","subject_id":"60f6f802c0ede08f7cf69720","study_id":"60edd13110225f80f9f3709b","session_id":"6196d3ec6a401f8ca5e6c8b7","condition":"contingent","relevant_dimensions":["pattern","legs"],"bee_group":{"antennae":"X","wings":"X","pattern":"D","legs":"M"},"bonus":1.1800000000000008},{"rt":1565.1000000238419,"stimulus":"bees-with-color/bee-B1DF.svg","response":0,"trial_type":"image-button-response","trial_index":51,"time_elapsed":229408,"internal_node_id":"0.0-4.0-0.22","subject_id":"60f6f802c0ede08f7cf69720","study_id":"60edd13110225f80f9f3709b","session_id":"6196d3ec6a401f8ca5e6c8b7","condition":"contingent","relevant_dimensions":["pattern","legs"],"bee_group":{"antennae":"X","wings":"X","pattern":"D","legs":"M"},"action":"harvest","summary":"good-harvest","bonus":1.1800000000000008},{"rt":1461.7000000476837,"stimulus":"\n                    <p><b>Action: <em>harvest</em></b></p>\n                    <p>This is the bee that you just saw.</p>\n                    <img src=\"bees-with-color/bee-B1DF.svg\" width=\"200\">\n                    <p><span class=\"greenText\"><b>Successful harvest!</b></span><br>Your pay has increased by $0.02. Your bonus pay is now $0.66.</p>\n            ","response":0,"trial_type":"html-button-response","trial_index":52,"time_elapsed":230872,"internal_node_id":"0.0-4.0-1.22","subject_id":"60f6f802c0ede08f7cf69720","study_id":"60edd13110225f80f9f3709b","session_id":"6196d3ec6a401f8ca5e6c8b7","condition":"contingent","relevant_dimensions":["pattern","legs"],"bee_group":{"antennae":"X","wings":"X","pattern":"D","legs":"M"},"bonus":1.1800000000000008},{"rt":1333.199999988079,"stimulus":"bees-with-color/bee-A2DM.svg","response":0,"trial_type":"image-button-response","trial_index":53,"time_elapsed":232207,"internal_node_id":"0.0-4.0-0.23","subject_id":"60f6f802c0ede08f7cf69720","study_id":"60edd13110225f80f9f3709b","session_id":"6196d3ec6a401f8ca5e6c8b7","condition":"contingent","relevant_dimensions":["pattern","legs"],"bee_group":{"antennae":"X","wings":"X","pattern":"D","legs":"M"},"action":"harvest","summary":"bad-harvest","bonus":1.1800000000000008},{"rt":2797.5,"stimulus":"\n                    <p><b>Action: <em>harvest</em></b></p>\n                    <p>This is the bee that you just saw.</p>\n                    <img src=\"bees-with-color/bee-A2DM.svg\" width=\"200\">\n                    <p><span class=\"redText\">Bad choice, the bee was angry.</span><br><b>You have been stung!</b><br>Your pay has been decreased by $0.10. Your bonus pay is now $0.56.</p>\n            ","response":0,"trial_type":"html-button-response","trial_index":54,"time_elapsed":235007,"internal_node_id":"0.0-4.0-1.23","subject_id":"60f6f802c0ede08f7cf69720","study_id":"60edd13110225f80f9f3709b","session_id":"6196d3ec6a401f8ca5e6c8b7","condition":"contingent","relevant_dimensions":["pattern","legs"],"bee_group":{"antennae":"X","wings":"X","pattern":"D","legs":"M"},"bonus":1.1800000000000008},{"rt":1253.800000011921,"stimulus":"bees-with-color/bee-B1SF.svg","response":0,"trial_type":"image-button-response","trial_index":55,"time_elapsed":236264,"internal_node_id":"0.0-4.0-0.24","subject_id":"60f6f802c0ede08f7cf69720","study_id":"60edd13110225f80f9f3709b","session_id":"6196d3ec6a401f8ca5e6c8b7","condition":"contingent","relevant_dimensions":["pattern","legs"],"bee_group":{"antennae":"X","wings":"X","pattern":"D","legs":"M"},"action":"harvest","summary":"good-harvest","bonus":1.1800000000000008},{"rt":1932.3999999761581,"stimulus":"\n                    <p><b>Action: <em>harvest</em></b></p>\n                    <p>This is the bee that you just saw.</p>\n                    <img src=\"bees-with-color/bee-B1SF.svg\" width=\"200\">\n                    <p><span class=\"greenText\"><b>Successful harvest!</b></span><br>Your pay has increased by $0.02. Your bonus pay is now $0.58.</p>\n            ","response":0,"trial_type":"html-button-response","trial_index":56,"time_elapsed":238199,"internal_node_id":"0.0-4.0-1.24","subject_id":"60f6f802c0ede08f7cf69720","study_id":"60edd13110225f80f9f3709b","session_id":"6196d3ec6a401f8ca5e6c8b7","condition":"contingent","relevant_dimensions":["pattern","legs"],"bee_group":{"antennae":"X","wings":"X","pattern":"D","legs":"M"},"bonus":1.1800000000000008},{"rt":1172.8999999761581,"stimulus":"bees-with-color/bee-A2SF.svg","response":0,"trial_type":"image-button-response","trial_index":57,"time_elapsed":239374,"internal_node_id":"0.0-4.0-0.25","subject_id":"60f6f802c0ede08f7cf69720","study_id":"60edd13110225f80f9f3709b","session_id":"6196d3ec6a401f8ca5e6c8b7","condition":"contingent","relevant_dimensions":["pattern","legs"],"bee_group":{"antennae":"X","wings":"X","pattern":"D","legs":"M"},"action":"harvest","summary":"good-harvest","bonus":1.1800000000000008},{"rt":1445.699999988079,"stimulus":"\n                    <p><b>Action: <em>harvest</em></b></p>\n                    <p>This is the bee that you just saw.</p>\n                    <img src=\"bees-with-color/bee-A2SF.svg\" width=\"200\">\n                    <p><span class=\"greenText\"><b>Successful harvest!</b></span><br>Your pay has increased by $0.02. Your bonus pay is now $0.60.</p>\n            ","response":0,"trial_type":"html-button-response","trial_index":58,"time_elapsed":240822,"internal_node_id":"0.0-4.0-1.25","subject_id":"60f6f802c0ede08f7cf69720","study_id":"60edd13110225f80f9f3709b","session_id":"6196d3ec6a401f8ca5e6c8b7","condition":"contingent","relevant_dimensions":["pattern","legs"],"bee_group":{"antennae":"X","wings":"X","pattern":"D","legs":"M"},"bonus":1.1800000000000008},{"rt":1254.5,"stimulus":"bees-with-color/bee-B2DM.svg","response":1,"trial_type":"image-button-response","trial_index":59,"time_elapsed":242079,"internal_node_id":"0.0-4.0-0.26","subject_id":"60f6f802c0ede08f7cf69720","study_id":"60edd13110225f80f9f3709b","session_id":"6196d3ec6a401f8ca5e6c8b7","condition":"contingent","relevant_dimensions":["pattern","legs"],"bee_group":{"antennae":"X","wings":"X","pattern":"D","legs":"M"},"action":"avoid","summary":"good-avoid","bonus":1.1800000000000008},{"rt":1845,"stimulus":"\n                    <p><b>Action: <em>avoid</em></b></p>\n                    <p>This is the bee that you just saw.</p>\n                    <img src=\"bees-with-color/bee-B2DM.svg\" width=\"200\">\n                    <p><br>Your bonus pay is unchanged, and remains at $0.60.</p>\n            ","response":0,"trial_type":"html-button-response","trial_index":60,"time_elapsed":243926,"internal_node_id":"0.0-4.0-1.26","subject_id":"60f6f802c0ede08f7cf69720","study_id":"60edd13110225f80f9f3709b","session_id":"6196d3ec6a401f8ca5e6c8b7","condition":"contingent","relevant_dimensions":["pattern","legs"],"bee_group":{"antennae":"X","wings":"X","pattern":"D","legs":"M"},"bonus":1.1800000000000008},{"rt":1053.199999988079,"stimulus":"bees-with-color/bee-A1SF.svg","response":0,"trial_type":"image-button-response","trial_index":61,"time_elapsed":244982,"internal_node_id":"0.0-4.0-0.27","subject_id":"60f6f802c0ede08f7cf69720","study_id":"60edd13110225f80f9f3709b","session_id":"6196d3ec6a401f8ca5e6c8b7","condition":"contingent","relevant_dimensions":["pattern","legs"],"bee_group":{"antennae":"X","wings":"X","pattern":"D","legs":"M"},"action":"harvest","summary":"good-harvest","bonus":1.1800000000000008},{"rt":1645.1000000238419,"stimulus":"\n                    <p><b>Action: <em>harvest</em></b></p>\n                    <p>This is the bee that you just saw.</p>\n                    <img src=\"bees-with-color/bee-A1SF.svg\" width=\"200\">\n                    <p><span class=\"greenText\"><b>Successful harvest!</b></span><br>Your pay has increased by $0.02. Your bonus pay is now $0.62.</p>\n            ","response":0,"trial_type":"html-button-response","trial_index":62,"time_elapsed":246629,"internal_node_id":"0.0-4.0-1.27","subject_id":"60f6f802c0ede08f7cf69720","study_id":"60edd13110225f80f9f3709b","session_id":"6196d3ec6a401f8ca5e6c8b7","condition":"contingent","relevant_dimensions":["pattern","legs"],"bee_group":{"antennae":"X","wings":"X","pattern":"D","legs":"M"},"bonus":1.1800000000000008},{"rt":1245,"stimulus":"bees-with-color/bee-A1DM.svg","response":1,"trial_type":"image-button-response","trial_index":63,"time_elapsed":247877,"internal_node_id":"0.0-4.0-0.28","subject_id":"60f6f802c0ede08f7cf69720","study_id":"60edd13110225f80f9f3709b","session_id":"6196d3ec6a401f8ca5e6c8b7","condition":"contingent","relevant_dimensions":["pattern","legs"],"bee_group":{"antennae":"X","wings":"X","pattern":"D","legs":"M"},"action":"avoid","summary":"good-avoid","bonus":1.1800000000000008},{"rt":1893.5,"stimulus":"\n                    <p><b>Action: <em>avoid</em></b></p>\n                    <p>This is the bee that you just saw.</p>\n                    <img src=\"bees-with-color/bee-A1DM.svg\" width=\"200\">\n                    <p><br>Your bonus pay is unchanged, and remains at $0.62.</p>\n            ","response":0,"trial_type":"html-button-response","trial_index":64,"time_elapsed":249773,"internal_node_id":"0.0-4.0-1.28","subject_id":"60f6f802c0ede08f7cf69720","study_id":"60edd13110225f80f9f3709b","session_id":"6196d3ec6a401f8ca5e6c8b7","condition":"contingent","relevant_dimensions":["pattern","legs"],"bee_group":{"antennae":"X","wings":"X","pattern":"D","legs":"M"},"bonus":1.1800000000000008},{"rt":1419.6000000238419,"stimulus":"bees-with-color/bee-A2SM.svg","response":0,"trial_type":"image-button-response","trial_index":65,"time_elapsed":251195,"internal_node_id":"0.0-4.0-0.29","subject_id":"60f6f802c0ede08f7cf69720","study_id":"60edd13110225f80f9f3709b","session_id":"6196d3ec6a401f8ca5e6c8b7","condition":"contingent","relevant_dimensions":["pattern","legs"],"bee_group":{"antennae":"X","wings":"X","pattern":"D","legs":"M"},"action":"harvest","summary":"good-harvest","bonus":1.1800000000000008},{"rt":1599.7000000476837,"stimulus":"\n                    <p><b>Action: <em>harvest</em></b></p>\n                    <p>This is the bee that you just saw.</p>\n                    <img src=\"bees-with-color/bee-A2SM.svg\" width=\"200\">\n                    <p><span class=\"greenText\"><b>Successful harvest!</b></span><br>Your pay has increased by $0.02. Your bonus pay is now $0.64.</p>\n            ","response":0,"trial_type":"html-button-response","trial_index":66,"time_elapsed":252797,"internal_node_id":"0.0-4.0-1.29","subject_id":"60f6f802c0ede08f7cf69720","study_id":"60edd13110225f80f9f3709b","session_id":"6196d3ec6a401f8ca5e6c8b7","condition":"contingent","relevant_dimensions":["pattern","legs"],"bee_group":{"antennae":"X","wings":"X","pattern":"D","legs":"M"},"bonus":1.1800000000000008},{"rt":1380.8999999761581,"stimulus":"bees-with-color/bee-A1DF.svg","response":1,"trial_type":"image-button-response","trial_index":67,"time_elapsed":254180,"internal_node_id":"0.0-4.0-0.30","subject_id":"60f6f802c0ede08f7cf69720","study_id":"60edd13110225f80f9f3709b","session_id":"6196d3ec6a401f8ca5e6c8b7","condition":"contingent","relevant_dimensions":["pattern","legs"],"bee_group":{"antennae":"X","wings":"X","pattern":"D","legs":"M"},"action":"avoid","summary":"bad-avoid","bonus":1.1800000000000008},{"rt":1750.6000000238419,"stimulus":"\n                    <p><b>Action: <em>avoid</em></b></p>\n                    <p>This is the bee that you just saw.</p>\n                    <img src=\"bees-with-color/bee-A1DF.svg\" width=\"200\">\n                    <p><br>Your bonus pay is unchanged, and remains at $0.64.</p>\n            ","response":0,"trial_type":"html-button-response","trial_index":68,"time_elapsed":255933,"internal_node_id":"0.0-4.0-1.30","subject_id":"60f6f802c0ede08f7cf69720","study_id":"60edd13110225f80f9f3709b","session_id":"6196d3ec6a401f8ca5e6c8b7","condition":"contingent","relevant_dimensions":["pattern","legs"],"bee_group":{"antennae":"X","wings":"X","pattern":"D","legs":"M"},"bonus":1.1800000000000008},{"rt":1077,"stimulus":"bees-with-color/bee-A1SM.svg","response":0,"trial_type":"image-button-response","trial_index":69,"time_elapsed":257013,"internal_node_id":"0.0-4.0-0.31","subject_id":"60f6f802c0ede08f7cf69720","study_id":"60edd13110225f80f9f3709b","session_id":"6196d3ec6a401f8ca5e6c8b7","condition":"contingent","relevant_dimensions":["pattern","legs"],"bee_group":{"antennae":"X","wings":"X","pattern":"D","legs":"M"},"action":"harvest","summary":"good-harvest","bonus":1.1800000000000008},{"rt":1756.8999999761581,"stimulus":"\n                    <p><b>Action: <em>harvest</em></b></p>\n                    <p>This is the bee that you just saw.</p>\n                    <img src=\"bees-with-color/bee-A1SM.svg\" width=\"200\">\n                    <p><span class=\"greenText\"><b>Successful harvest!</b></span><br>Your pay has increased by $0.02. Your bonus pay is now $0.66.</p>\n            ","response":0,"trial_type":"html-button-response","trial_index":70,"time_elapsed":258772,"internal_node_id":"0.0-4.0-1.31","subject_id":"60f6f802c0ede08f7cf69720","study_id":"60edd13110225f80f9f3709b","session_id":"6196d3ec6a401f8ca5e6c8b7","condition":"contingent","relevant_dimensions":["pattern","legs"],"bee_group":{"antennae":"X","wings":"X","pattern":"D","legs":"M"},"bonus":1.1800000000000008},{"rt":1196.199999988079,"stimulus":"bees-with-color/bee-A1DM.svg","response":1,"trial_type":"image-button-response","trial_index":71,"time_elapsed":259972,"internal_node_id":"0.0-4.0-0.32","subject_id":"60f6f802c0ede08f7cf69720","study_id":"60edd13110225f80f9f3709b","session_id":"6196d3ec6a401f8ca5e6c8b7","condition":"contingent","relevant_dimensions":["pattern","legs"],"bee_group":{"antennae":"X","wings":"X","pattern":"D","legs":"M"},"action":"avoid","summary":"good-avoid","bonus":1.1800000000000008},{"rt":1637.800000011921,"stimulus":"\n                    <p><b>Action: <em>avoid</em></b></p>\n                    <p>This is the bee that you just saw.</p>\n                    <img src=\"bees-with-color/bee-A1DM.svg\" width=\"200\">\n                    <p><br>Your bonus pay is unchanged, and remains at $0.66.</p>\n            ","response":0,"trial_type":"html-button-response","trial_index":72,"time_elapsed":261611,"internal_node_id":"0.0-4.0-1.32","subject_id":"60f6f802c0ede08f7cf69720","study_id":"60edd13110225f80f9f3709b","session_id":"6196d3ec6a401f8ca5e6c8b7","condition":"contingent","relevant_dimensions":["pattern","legs"],"bee_group":{"antennae":"X","wings":"X","pattern":"D","legs":"M"},"bonus":1.1800000000000008},{"rt":1493.699999988079,"stimulus":"bees-with-color/bee-A1DF.svg","response":1,"trial_type":"image-button-response","trial_index":73,"time_elapsed":263107,"internal_node_id":"0.0-4.0-0.33","subject_id":"60f6f802c0ede08f7cf69720","study_id":"60edd13110225f80f9f3709b","session_id":"6196d3ec6a401f8ca5e6c8b7","condition":"contingent","relevant_dimensions":["pattern","legs"],"bee_group":{"antennae":"X","wings":"X","pattern":"D","legs":"M"},"action":"avoid","summary":"bad-avoid","bonus":1.1800000000000008},{"rt":2236.399999976158,"stimulus":"\n                    <p><b>Action: <em>avoid</em></b></p>\n                    <p>This is the bee that you just saw.</p>\n                    <img src=\"bees-with-color/bee-A1DF.svg\" width=\"200\">\n                    <p><br>Your bonus pay is unchanged, and remains at $0.66.</p>\n            ","response":0,"trial_type":"html-button-response","trial_index":74,"time_elapsed":265347,"internal_node_id":"0.0-4.0-1.33","subject_id":"60f6f802c0ede08f7cf69720","study_id":"60edd13110225f80f9f3709b","session_id":"6196d3ec6a401f8ca5e6c8b7","condition":"contingent","relevant_dimensions":["pattern","legs"],"bee_group":{"antennae":"X","wings":"X","pattern":"D","legs":"M"},"bonus":1.1800000000000008},{"rt":1053.1000000238419,"stimulus":"bees-with-color/bee-A2SM.svg","response":0,"trial_type":"image-button-response","trial_index":75,"time_elapsed":266402,"internal_node_id":"0.0-4.0-0.34","subject_id":"60f6f802c0ede08f7cf69720","study_id":"60edd13110225f80f9f3709b","session_id":"6196d3ec6a401f8ca5e6c8b7","condition":"contingent","relevant_dimensions":["pattern","legs"],"bee_group":{"antennae":"X","wings":"X","pattern":"D","legs":"M"},"action":"harvest","summary":"good-harvest","bonus":1.1800000000000008},{"rt":1558,"stimulus":"\n                    <p><b>Action: <em>harvest</em></b></p>\n                    <p>This is the bee that you just saw.</p>\n                    <img src=\"bees-with-color/bee-A2SM.svg\" width=\"200\">\n                    <p><span class=\"greenText\"><b>Successful harvest!</b></span><br>Your pay has increased by $0.02. Your bonus pay is now $0.68.</p>\n            ","response":0,"trial_type":"html-button-response","trial_index":76,"time_elapsed":267963,"internal_node_id":"0.0-4.0-1.34","subject_id":"60f6f802c0ede08f7cf69720","study_id":"60edd13110225f80f9f3709b","session_id":"6196d3ec6a401f8ca5e6c8b7","condition":"contingent","relevant_dimensions":["pattern","legs"],"bee_group":{"antennae":"X","wings":"X","pattern":"D","legs":"M"},"bonus":1.1800000000000008},{"rt":1110.2999999523163,"stimulus":"bees-with-color/bee-A1SM.svg","response":0,"trial_type":"image-button-response","trial_index":77,"time_elapsed":269075,"internal_node_id":"0.0-4.0-0.35","subject_id":"60f6f802c0ede08f7cf69720","study_id":"60edd13110225f80f9f3709b","session_id":"6196d3ec6a401f8ca5e6c8b7","condition":"contingent","relevant_dimensions":["pattern","legs"],"bee_group":{"antennae":"X","wings":"X","pattern":"D","legs":"M"},"action":"harvest","summary":"good-harvest","bonus":1.1800000000000008},{"rt":1668.1000000238419,"stimulus":"\n                    <p><b>Action: <em>harvest</em></b></p>\n                    <p>This is the bee that you just saw.</p>\n                    <img src=\"bees-with-color/bee-A1SM.svg\" width=\"200\">\n                    <p><span class=\"greenText\"><b>Successful harvest!</b></span><br>Your pay has increased by $0.02. Your bonus pay is now $0.70.</p>\n            ","response":0,"trial_type":"html-button-response","trial_index":78,"time_elapsed":270746,"internal_node_id":"0.0-4.0-1.35","subject_id":"60f6f802c0ede08f7cf69720","study_id":"60edd13110225f80f9f3709b","session_id":"6196d3ec6a401f8ca5e6c8b7","condition":"contingent","relevant_dimensions":["pattern","legs"],"bee_group":{"antennae":"X","wings":"X","pattern":"D","legs":"M"},"bonus":1.1800000000000008},{"rt":1021.8000000119209,"stimulus":"bees-with-color/bee-A1SF.svg","response":0,"trial_type":"image-button-response","trial_index":79,"time_elapsed":271771,"internal_node_id":"0.0-4.0-0.36","subject_id":"60f6f802c0ede08f7cf69720","study_id":"60edd13110225f80f9f3709b","session_id":"6196d3ec6a401f8ca5e6c8b7","condition":"contingent","relevant_dimensions":["pattern","legs"],"bee_group":{"antennae":"X","wings":"X","pattern":"D","legs":"M"},"action":"harvest","summary":"good-harvest","bonus":1.1800000000000008},{"rt":1252.7000000476837,"stimulus":"\n                    <p><b>Action: <em>harvest</em></b></p>\n                    <p>This is the bee that you just saw.</p>\n                    <img src=\"bees-with-color/bee-A1SF.svg\" width=\"200\">\n                    <p><span class=\"greenText\"><b>Successful harvest!</b></span><br>Your pay has increased by $0.02. Your bonus pay is now $0.72.</p>\n            ","response":0,"trial_type":"html-button-response","trial_index":80,"time_elapsed":273027,"internal_node_id":"0.0-4.0-1.36","subject_id":"60f6f802c0ede08f7cf69720","study_id":"60edd13110225f80f9f3709b","session_id":"6196d3ec6a401f8ca5e6c8b7","condition":"contingent","relevant_dimensions":["pattern","legs"],"bee_group":{"antennae":"X","wings":"X","pattern":"D","legs":"M"},"bonus":1.1800000000000008},{"rt":1083,"stimulus":"bees-with-color/bee-A2DM.svg","response":1,"trial_type":"image-button-response","trial_index":81,"time_elapsed":274114,"internal_node_id":"0.0-4.0-0.37","subject_id":"60f6f802c0ede08f7cf69720","study_id":"60edd13110225f80f9f3709b","session_id":"6196d3ec6a401f8ca5e6c8b7","condition":"contingent","relevant_dimensions":["pattern","legs"],"bee_group":{"antennae":"X","wings":"X","pattern":"D","legs":"M"},"action":"avoid","summary":"good-avoid","bonus":1.1800000000000008},{"rt":1349.5,"stimulus":"\n                    <p><b>Action: <em>avoid</em></b></p>\n                    <p>This is the bee that you just saw.</p>\n                    <img src=\"bees-with-color/bee-A2DM.svg\" width=\"200\">\n                    <p><br>Your bonus pay is unchanged, and remains at $0.72.</p>\n            ","response":0,"trial_type":"html-button-response","trial_index":82,"time_elapsed":275465,"internal_node_id":"0.0-4.0-1.37","subject_id":"60f6f802c0ede08f7cf69720","study_id":"60edd13110225f80f9f3709b","session_id":"6196d3ec6a401f8ca5e6c8b7","condition":"contingent","relevant_dimensions":["pattern","legs"],"bee_group":{"antennae":"X","wings":"X","pattern":"D","legs":"M"},"bonus":1.1800000000000008},{"rt":998,"stimulus":"bees-with-color/bee-B2DF.svg","response":1,"trial_type":"image-button-response","trial_index":83,"time_elapsed":276465,"internal_node_id":"0.0-4.0-0.38","subject_id":"60f6f802c0ede08f7cf69720","study_id":"60edd13110225f80f9f3709b","session_id":"6196d3ec6a401f8ca5e6c8b7","condition":"contingent","relevant_dimensions":["pattern","legs"],"bee_group":{"antennae":"X","wings":"X","pattern":"D","legs":"M"},"action":"avoid","summary":"bad-avoid","bonus":1.1800000000000008},{"rt":1342.9000000357628,"stimulus":"\n                    <p><b>Action: <em>avoid</em></b></p>\n                    <p>This is the bee that you just saw.</p>\n                    <img src=\"bees-with-color/bee-B2DF.svg\" width=\"200\">\n                    <p><br>Your bonus pay is unchanged, and remains at $0.72.</p>\n            ","response":0,"trial_type":"html-button-response","trial_index":84,"time_elapsed":277811,"internal_node_id":"0.0-4.0-1.38","subject_id":"60f6f802c0ede08f7cf69720","study_id":"60edd13110225f80f9f3709b","session_id":"6196d3ec6a401f8ca5e6c8b7","condition":"contingent","relevant_dimensions":["pattern","legs"],"bee_group":{"antennae":"X","wings":"X","pattern":"D","legs":"M"},"bonus":1.1800000000000008},{"rt":891.7000000476837,"stimulus":"bees-with-color/bee-A2SF.svg","response":0,"trial_type":"image-button-response","trial_index":85,"time_elapsed":278705,"internal_node_id":"0.0-4.0-0.39","subject_id":"60f6f802c0ede08f7cf69720","study_id":"60edd13110225f80f9f3709b","session_id":"6196d3ec6a401f8ca5e6c8b7","condition":"contingent","relevant_dimensions":["pattern","legs"],"bee_group":{"antennae":"X","wings":"X","pattern":"D","legs":"M"},"action":"harvest","summary":"good-harvest","bonus":1.1800000000000008},{"rt":1053.699999988079,"stimulus":"\n                    <p><b>Action: <em>harvest</em></b></p>\n                    <p>This is the bee that you just saw.</p>\n                    <img src=\"bees-with-color/bee-A2SF.svg\" width=\"200\">\n                    <p><span class=\"greenText\"><b>Successful harvest!</b></span><br>Your pay has increased by $0.02. Your bonus pay is now $0.74.</p>\n            ","response":0,"trial_type":"html-button-response","trial_index":86,"time_elapsed":279761,"internal_node_id":"0.0-4.0-1.39","subject_id":"60f6f802c0ede08f7cf69720","study_id":"60edd13110225f80f9f3709b","session_id":"6196d3ec6a401f8ca5e6c8b7","condition":"contingent","relevant_dimensions":["pattern","legs"],"bee_group":{"antennae":"X","wings":"X","pattern":"D","legs":"M"},"bonus":1.1800000000000008},{"rt":965.8999999761581,"stimulus":"bees-with-color/bee-B1SF.svg","response":0,"trial_type":"image-button-response","trial_index":87,"time_elapsed":280729,"internal_node_id":"0.0-4.0-0.40","subject_id":"60f6f802c0ede08f7cf69720","study_id":"60edd13110225f80f9f3709b","session_id":"6196d3ec6a401f8ca5e6c8b7","condition":"contingent","relevant_dimensions":["pattern","legs"],"bee_group":{"antennae":"X","wings":"X","pattern":"D","legs":"M"},"action":"harvest","summary":"good-harvest","bonus":1.1800000000000008},{"rt":1309.800000011921,"stimulus":"\n                    <p><b>Action: <em>harvest</em></b></p>\n                    <p>This is the bee that you just saw.</p>\n                    <img src=\"bees-with-color/bee-B1SF.svg\" width=\"200\">\n                    <p><span class=\"greenText\"><b>Successful harvest!</b></span><br>Your pay has increased by $0.02. Your bonus pay is now $0.76.</p>\n            ","response":0,"trial_type":"html-button-response","trial_index":88,"time_elapsed":282043,"internal_node_id":"0.0-4.0-1.40","subject_id":"60f6f802c0ede08f7cf69720","study_id":"60edd13110225f80f9f3709b","session_id":"6196d3ec6a401f8ca5e6c8b7","condition":"contingent","relevant_dimensions":["pattern","legs"],"bee_group":{"antennae":"X","wings":"X","pattern":"D","legs":"M"},"bonus":1.1800000000000008},{"rt":1082.6000000238419,"stimulus":"bees-with-color/bee-A2DF.svg","response":1,"trial_type":"image-button-response","trial_index":89,"time_elapsed":283128,"internal_node_id":"0.0-4.0-0.41","subject_id":"60f6f802c0ede08f7cf69720","study_id":"60edd13110225f80f9f3709b","session_id":"6196d3ec6a401f8ca5e6c8b7","condition":"contingent","relevant_dimensions":["pattern","legs"],"bee_group":{"antennae":"X","wings":"X","pattern":"D","legs":"M"},"action":"avoid","summary":"bad-avoid","bonus":1.1800000000000008},{"rt":1262.6000000238419,"stimulus":"\n                    <p><b>Action: <em>avoid</em></b></p>\n                    <p>This is the bee that you just saw.</p>\n                    <img src=\"bees-with-color/bee-A2DF.svg\" width=\"200\">\n                    <p><br>Your bonus pay is unchanged, and remains at $0.76.</p>\n            ","response":0,"trial_type":"html-button-response","trial_index":90,"time_elapsed":284393,"internal_node_id":"0.0-4.0-1.41","subject_id":"60f6f802c0ede08f7cf69720","study_id":"60edd13110225f80f9f3709b","session_id":"6196d3ec6a401f8ca5e6c8b7","condition":"contingent","relevant_dimensions":["pattern","legs"],"bee_group":{"antennae":"X","wings":"X","pattern":"D","legs":"M"},"bonus":1.1800000000000008},{"rt":1100.5,"stimulus":"bees-with-color/bee-B2DM.svg","response":1,"trial_type":"image-button-response","trial_index":91,"time_elapsed":285497,"internal_node_id":"0.0-4.0-0.42","subject_id":"60f6f802c0ede08f7cf69720","study_id":"60edd13110225f80f9f3709b","session_id":"6196d3ec6a401f8ca5e6c8b7","condition":"contingent","relevant_dimensions":["pattern","legs"],"bee_group":{"antennae":"X","wings":"X","pattern":"D","legs":"M"},"action":"avoid","summary":"good-avoid","bonus":1.1800000000000008},{"rt":1348.6000000238419,"stimulus":"\n                    <p><b>Action: <em>avoid</em></b></p>\n                    <p>This is the bee that you just saw.</p>\n                    <img src=\"bees-with-color/bee-B2DM.svg\" width=\"200\">\n                    <p><br>Your bonus pay is unchanged, and remains at $0.76.</p>\n            ","response":0,"trial_type":"html-button-response","trial_index":92,"time_elapsed":286848,"internal_node_id":"0.0-4.0-1.42","subject_id":"60f6f802c0ede08f7cf69720","study_id":"60edd13110225f80f9f3709b","session_id":"6196d3ec6a401f8ca5e6c8b7","condition":"contingent","relevant_dimensions":["pattern","legs"],"bee_group":{"antennae":"X","wings":"X","pattern":"D","legs":"M"},"bonus":1.1800000000000008},{"rt":989.6999999880791,"stimulus":"bees-with-color/bee-B2SF.svg","response":0,"trial_type":"image-button-response","trial_index":93,"time_elapsed":287840,"internal_node_id":"0.0-4.0-0.43","subject_id":"60f6f802c0ede08f7cf69720","study_id":"60edd13110225f80f9f3709b","session_id":"6196d3ec6a401f8ca5e6c8b7","condition":"contingent","relevant_dimensions":["pattern","legs"],"bee_group":{"antennae":"X","wings":"X","pattern":"D","legs":"M"},"action":"harvest","summary":"good-harvest","bonus":1.1800000000000008},{"rt":1436.3999999761581,"stimulus":"\n                    <p><b>Action: <em>harvest</em></b></p>\n                    <p>This is the bee that you just saw.</p>\n                    <img src=\"bees-with-color/bee-B2SF.svg\" width=\"200\">\n                    <p><span class=\"greenText\"><b>Successful harvest!</b></span><br>Your pay has increased by $0.02. Your bonus pay is now $0.78.</p>\n            ","response":0,"trial_type":"html-button-response","trial_index":94,"time_elapsed":289280,"internal_node_id":"0.0-4.0-1.43","subject_id":"60f6f802c0ede08f7cf69720","study_id":"60edd13110225f80f9f3709b","session_id":"6196d3ec6a401f8ca5e6c8b7","condition":"contingent","relevant_dimensions":["pattern","legs"],"bee_group":{"antennae":"X","wings":"X","pattern":"D","legs":"M"},"bonus":1.1800000000000008},{"rt":973.8999999761581,"stimulus":"bees-with-color/bee-B2SM.svg","response":0,"trial_type":"image-button-response","trial_index":95,"time_elapsed":290256,"internal_node_id":"0.0-4.0-0.44","subject_id":"60f6f802c0ede08f7cf69720","study_id":"60edd13110225f80f9f3709b","session_id":"6196d3ec6a401f8ca5e6c8b7","condition":"contingent","relevant_dimensions":["pattern","legs"],"bee_group":{"antennae":"X","wings":"X","pattern":"D","legs":"M"},"action":"harvest","summary":"good-harvest","bonus":1.1800000000000008},{"rt":1372.4000000357628,"stimulus":"\n                    <p><b>Action: <em>harvest</em></b></p>\n                    <p>This is the bee that you just saw.</p>\n                    <img src=\"bees-with-color/bee-B2SM.svg\" width=\"200\">\n                    <p><span class=\"greenText\"><b>Successful harvest!</b></span><br>Your pay has increased by $0.02. Your bonus pay is now $0.80.</p>\n            ","response":0,"trial_type":"html-button-response","trial_index":96,"time_elapsed":291632,"internal_node_id":"0.0-4.0-1.44","subject_id":"60f6f802c0ede08f7cf69720","study_id":"60edd13110225f80f9f3709b","session_id":"6196d3ec6a401f8ca5e6c8b7","condition":"contingent","relevant_dimensions":["pattern","legs"],"bee_group":{"antennae":"X","wings":"X","pattern":"D","legs":"M"},"bonus":1.1800000000000008},{"rt":1108.699999988079,"stimulus":"bees-with-color/bee-B1DF.svg","response":1,"trial_type":"image-button-response","trial_index":97,"time_elapsed":292743,"internal_node_id":"0.0-4.0-0.45","subject_id":"60f6f802c0ede08f7cf69720","study_id":"60edd13110225f80f9f3709b","session_id":"6196d3ec6a401f8ca5e6c8b7","condition":"contingent","relevant_dimensions":["pattern","legs"],"bee_group":{"antennae":"X","wings":"X","pattern":"D","legs":"M"},"action":"avoid","summary":"bad-avoid","bonus":1.1800000000000008},{"rt":1269.6000000238419,"stimulus":"\n                    <p><b>Action: <em>avoid</em></b></p>\n                    <p>This is the bee that you just saw.</p>\n                    <img src=\"bees-with-color/bee-B1DF.svg\" width=\"200\">\n                    <p><br>Your bonus pay is unchanged, and remains at $0.80.</p>\n            ","response":0,"trial_type":"html-button-response","trial_index":98,"time_elapsed":294015,"internal_node_id":"0.0-4.0-1.45","subject_id":"60f6f802c0ede08f7cf69720","study_id":"60edd13110225f80f9f3709b","session_id":"6196d3ec6a401f8ca5e6c8b7","condition":"contingent","relevant_dimensions":["pattern","legs"],"bee_group":{"antennae":"X","wings":"X","pattern":"D","legs":"M"},"bonus":1.1800000000000008},{"rt":1005.8999999761581,"stimulus":"bees-with-color/bee-B1DM.svg","response":1,"trial_type":"image-button-response","trial_index":99,"time_elapsed":295024,"internal_node_id":"0.0-4.0-0.46","subject_id":"60f6f802c0ede08f7cf69720","study_id":"60edd13110225f80f9f3709b","session_id":"6196d3ec6a401f8ca5e6c8b7","condition":"contingent","relevant_dimensions":["pattern","legs"],"bee_group":{"antennae":"X","wings":"X","pattern":"D","legs":"M"},"action":"avoid","summary":"good-avoid","bonus":1.1800000000000008},{"rt":1244.199999988079,"stimulus":"\n                    <p><b>Action: <em>avoid</em></b></p>\n                    <p>This is the bee that you just saw.</p>\n                    <img src=\"bees-with-color/bee-B1DM.svg\" width=\"200\">\n                    <p><br>Your bonus pay is unchanged, and remains at $0.80.</p>\n            ","response":0,"trial_type":"html-button-response","trial_index":100,"time_elapsed":296271,"internal_node_id":"0.0-4.0-1.46","subject_id":"60f6f802c0ede08f7cf69720","study_id":"60edd13110225f80f9f3709b","session_id":"6196d3ec6a401f8ca5e6c8b7","condition":"contingent","relevant_dimensions":["pattern","legs"],"bee_group":{"antennae":"X","wings":"X","pattern":"D","legs":"M"},"bonus":1.1800000000000008},{"rt":954.6999999880791,"stimulus":"bees-with-color/bee-B1SM.svg","response":0,"trial_type":"image-button-response","trial_index":101,"time_elapsed":297231,"internal_node_id":"0.0-4.0-0.47","subject_id":"60f6f802c0ede08f7cf69720","study_id":"60edd13110225f80f9f3709b","session_id":"6196d3ec6a401f8ca5e6c8b7","condition":"contingent","relevant_dimensions":["pattern","legs"],"bee_group":{"antennae":"X","wings":"X","pattern":"D","legs":"M"},"action":"harvest","summary":"good-harvest","bonus":1.1800000000000008},{"rt":1525.800000011921,"stimulus":"\n                    <p><b>Action: <em>harvest</em></b></p>\n                    <p>This is the bee that you just saw.</p>\n                    <img src=\"bees-with-color/bee-B1SM.svg\" width=\"200\">\n                    <p><span class=\"greenText\"><b>Successful harvest!</b></span><br>Your pay has increased by $0.02. Your bonus pay is now $0.82.</p>\n            ","response":0,"trial_type":"html-button-response","trial_index":102,"time_elapsed":298759,"internal_node_id":"0.0-4.0-1.47","subject_id":"60f6f802c0ede08f7cf69720","study_id":"60edd13110225f80f9f3709b","session_id":"6196d3ec6a401f8ca5e6c8b7","condition":"contingent","relevant_dimensions":["pattern","legs"],"bee_group":{"antennae":"X","wings":"X","pattern":"D","legs":"M"},"bonus":1.1800000000000008},{"rt":1077.4000000357628,"stimulus":"bees-with-color/bee-B2SF.svg","response":0,"trial_type":"image-button-response","trial_index":103,"time_elapsed":299839,"internal_node_id":"0.0-4.0-0.48","subject_id":"60f6f802c0ede08f7cf69720","study_id":"60edd13110225f80f9f3709b","session_id":"6196d3ec6a401f8ca5e6c8b7","condition":"contingent","relevant_dimensions":["pattern","legs"],"bee_group":{"antennae":"X","wings":"X","pattern":"D","legs":"M"},"action":"harvest","summary":"good-harvest","bonus":1.1800000000000008},{"rt":1302,"stimulus":"\n                    <p><b>Action: <em>harvest</em></b></p>\n                    <p>This is the bee that you just saw.</p>\n                    <img src=\"bees-with-color/bee-B2SF.svg\" width=\"200\">\n                    <p><span class=\"greenText\"><b>Successful harvest!</b></span><br>Your pay has increased by $0.02. Your bonus pay is now $0.84.</p>\n            ","response":0,"trial_type":"html-button-response","trial_index":104,"time_elapsed":301143,"internal_node_id":"0.0-4.0-1.48","subject_id":"60f6f802c0ede08f7cf69720","study_id":"60edd13110225f80f9f3709b","session_id":"6196d3ec6a401f8ca5e6c8b7","condition":"contingent","relevant_dimensions":["pattern","legs"],"bee_group":{"antennae":"X","wings":"X","pattern":"D","legs":"M"},"bonus":1.1800000000000008},{"rt":1060.5,"stimulus":"bees-with-color/bee-B2DF.svg","response":1,"trial_type":"image-button-response","trial_index":105,"time_elapsed":302207,"internal_node_id":"0.0-4.0-0.49","subject_id":"60f6f802c0ede08f7cf69720","study_id":"60edd13110225f80f9f3709b","session_id":"6196d3ec6a401f8ca5e6c8b7","condition":"contingent","relevant_dimensions":["pattern","legs"],"bee_group":{"antennae":"X","wings":"X","pattern":"D","legs":"M"},"action":"avoid","summary":"bad-avoid","bonus":1.1800000000000008},{"rt":1133.5,"stimulus":"\n                    <p><b>Action: <em>avoid</em></b></p>\n                    <p>This is the bee that you just saw.</p>\n                    <img src=\"bees-with-color/bee-B2DF.svg\" width=\"200\">\n                    <p><br>Your bonus pay is unchanged, and remains at $0.84.</p>\n            ","response":0,"trial_type":"html-button-response","trial_index":106,"time_elapsed":303343,"internal_node_id":"0.0-4.0-1.49","subject_id":"60f6f802c0ede08f7cf69720","study_id":"60edd13110225f80f9f3709b","session_id":"6196d3ec6a401f8ca5e6c8b7","condition":"contingent","relevant_dimensions":["pattern","legs"],"bee_group":{"antennae":"X","wings":"X","pattern":"D","legs":"M"},"bonus":1.1800000000000008},{"rt":1061.5,"stimulus":"bees-with-color/bee-A1SF.svg","response":0,"trial_type":"image-button-response","trial_index":107,"time_elapsed":304406,"internal_node_id":"0.0-4.0-0.50","subject_id":"60f6f802c0ede08f7cf69720","study_id":"60edd13110225f80f9f3709b","session_id":"6196d3ec6a401f8ca5e6c8b7","condition":"contingent","relevant_dimensions":["pattern","legs"],"bee_group":{"antennae":"X","wings":"X","pattern":"D","legs":"M"},"action":"harvest","summary":"good-harvest","bonus":1.1800000000000008},{"rt":1156.4000000357628,"stimulus":"\n                    <p><b>Action: <em>harvest</em></b></p>\n                    <p>This is the bee that you just saw.</p>\n                    <img src=\"bees-with-color/bee-A1SF.svg\" width=\"200\">\n                    <p><span class=\"greenText\"><b>Successful harvest!</b></span><br>Your pay has increased by $0.02. Your bonus pay is now $0.86.</p>\n            ","response":0,"trial_type":"html-button-response","trial_index":108,"time_elapsed":305566,"internal_node_id":"0.0-4.0-1.50","subject_id":"60f6f802c0ede08f7cf69720","study_id":"60edd13110225f80f9f3709b","session_id":"6196d3ec6a401f8ca5e6c8b7","condition":"contingent","relevant_dimensions":["pattern","legs"],"bee_group":{"antennae":"X","wings":"X","pattern":"D","legs":"M"},"bonus":1.1800000000000008},{"rt":1477.6000000238419,"stimulus":"bees-with-color/bee-B1SM.svg","response":0,"trial_type":"image-button-response","trial_index":109,"time_elapsed":307046,"internal_node_id":"0.0-4.0-0.51","subject_id":"60f6f802c0ede08f7cf69720","study_id":"60edd13110225f80f9f3709b","session_id":"6196d3ec6a401f8ca5e6c8b7","condition":"contingent","relevant_dimensions":["pattern","legs"],"bee_group":{"antennae":"X","wings":"X","pattern":"D","legs":"M"},"action":"harvest","summary":"good-harvest","bonus":1.1800000000000008},{"rt":1189.699999988079,"stimulus":"\n                    <p><b>Action: <em>harvest</em></b></p>\n                    <p>This is the bee that you just saw.</p>\n                    <img src=\"bees-with-color/bee-B1SM.svg\" width=\"200\">\n                    <p><span class=\"greenText\"><b>Successful harvest!</b></span><br>Your pay has increased by $0.02. Your bonus pay is now $0.88.</p>\n            ","response":0,"trial_type":"html-button-response","trial_index":110,"time_elapsed":308238,"internal_node_id":"0.0-4.0-1.51","subject_id":"60f6f802c0ede08f7cf69720","study_id":"60edd13110225f80f9f3709b","session_id":"6196d3ec6a401f8ca5e6c8b7","condition":"contingent","relevant_dimensions":["pattern","legs"],"bee_group":{"antennae":"X","wings":"X","pattern":"D","legs":"M"},"bonus":1.1800000000000008},{"rt":933.4000000357628,"stimulus":"bees-with-color/bee-B1DF.svg","response":1,"trial_type":"image-button-response","trial_index":111,"time_elapsed":309174,"internal_node_id":"0.0-4.0-0.52","subject_id":"60f6f802c0ede08f7cf69720","study_id":"60edd13110225f80f9f3709b","session_id":"6196d3ec6a401f8ca5e6c8b7","condition":"contingent","relevant_dimensions":["pattern","legs"],"bee_group":{"antennae":"X","wings":"X","pattern":"D","legs":"M"},"action":"avoid","summary":"bad-avoid","bonus":1.1800000000000008},{"rt":1404.5,"stimulus":"\n                    <p><b>Action: <em>avoid</em></b></p>\n                    <p>This is the bee that you just saw.</p>\n                    <img src=\"bees-with-color/bee-B1DF.svg\" width=\"200\">\n                    <p><br>Your bonus pay is unchanged, and remains at $0.88.</p>\n            ","response":0,"trial_type":"html-button-response","trial_index":112,"time_elapsed":310581,"internal_node_id":"0.0-4.0-1.52","subject_id":"60f6f802c0ede08f7cf69720","study_id":"60edd13110225f80f9f3709b","session_id":"6196d3ec6a401f8ca5e6c8b7","condition":"contingent","relevant_dimensions":["pattern","legs"],"bee_group":{"antennae":"X","wings":"X","pattern":"D","legs":"M"},"bonus":1.1800000000000008},{"rt":949.9000000357628,"stimulus":"bees-with-color/bee-A1SM.svg","response":0,"trial_type":"image-button-response","trial_index":113,"time_elapsed":311533,"internal_node_id":"0.0-4.0-0.53","subject_id":"60f6f802c0ede08f7cf69720","study_id":"60edd13110225f80f9f3709b","session_id":"6196d3ec6a401f8ca5e6c8b7","condition":"contingent","relevant_dimensions":["pattern","legs"],"bee_group":{"antennae":"X","wings":"X","pattern":"D","legs":"M"},"action":"harvest","summary":"good-harvest","bonus":1.1800000000000008},{"rt":1374,"stimulus":"\n                    <p><b>Action: <em>harvest</em></b></p>\n                    <p>This is the bee that you just saw.</p>\n                    <img src=\"bees-with-color/bee-A1SM.svg\" width=\"200\">\n                    <p><span class=\"greenText\"><b>Successful harvest!</b></span><br>Your pay has increased by $0.02. Your bonus pay is now $0.90.</p>\n            ","response":0,"trial_type":"html-button-response","trial_index":114,"time_elapsed":312910,"internal_node_id":"0.0-4.0-1.53","subject_id":"60f6f802c0ede08f7cf69720","study_id":"60edd13110225f80f9f3709b","session_id":"6196d3ec6a401f8ca5e6c8b7","condition":"contingent","relevant_dimensions":["pattern","legs"],"bee_group":{"antennae":"X","wings":"X","pattern":"D","legs":"M"},"bonus":1.1800000000000008},{"rt":1644.300000011921,"stimulus":"bees-with-color/bee-A2DM.svg","response":1,"trial_type":"image-button-response","trial_index":115,"time_elapsed":314557,"internal_node_id":"0.0-4.0-0.54","subject_id":"60f6f802c0ede08f7cf69720","study_id":"60edd13110225f80f9f3709b","session_id":"6196d3ec6a401f8ca5e6c8b7","condition":"contingent","relevant_dimensions":["pattern","legs"],"bee_group":{"antennae":"X","wings":"X","pattern":"D","legs":"M"},"action":"avoid","summary":"good-avoid","bonus":1.1800000000000008},{"rt":1204.4000000357628,"stimulus":"\n                    <p><b>Action: <em>avoid</em></b></p>\n                    <p>This is the bee that you just saw.</p>\n                    <img src=\"bees-with-color/bee-A2DM.svg\" width=\"200\">\n                    <p><br>Your bonus pay is unchanged, and remains at $0.90.</p>\n            ","response":0,"trial_type":"html-button-response","trial_index":116,"time_elapsed":315765,"internal_node_id":"0.0-4.0-1.54","subject_id":"60f6f802c0ede08f7cf69720","study_id":"60edd13110225f80f9f3709b","session_id":"6196d3ec6a401f8ca5e6c8b7","condition":"contingent","relevant_dimensions":["pattern","legs"],"bee_group":{"antennae":"X","wings":"X","pattern":"D","legs":"M"},"bonus":1.1800000000000008},{"rt":885.6999999880791,"stimulus":"bees-with-color/bee-B1DM.svg","response":1,"trial_type":"image-button-response","trial_index":117,"time_elapsed":316652,"internal_node_id":"0.0-4.0-0.55","subject_id":"60f6f802c0ede08f7cf69720","study_id":"60edd13110225f80f9f3709b","session_id":"6196d3ec6a401f8ca5e6c8b7","condition":"contingent","relevant_dimensions":["pattern","legs"],"bee_group":{"antennae":"X","wings":"X","pattern":"D","legs":"M"},"action":"avoid","summary":"good-avoid","bonus":1.1800000000000008},{"rt":1118,"stimulus":"\n                    <p><b>Action: <em>avoid</em></b></p>\n                    <p>This is the bee that you just saw.</p>\n                    <img src=\"bees-with-color/bee-B1DM.svg\" width=\"200\">\n                    <p><br>Your bonus pay is unchanged, and remains at $0.90.</p>\n            ","response":0,"trial_type":"html-button-response","trial_index":118,"time_elapsed":317773,"internal_node_id":"0.0-4.0-1.55","subject_id":"60f6f802c0ede08f7cf69720","study_id":"60edd13110225f80f9f3709b","session_id":"6196d3ec6a401f8ca5e6c8b7","condition":"contingent","relevant_dimensions":["pattern","legs"],"bee_group":{"antennae":"X","wings":"X","pattern":"D","legs":"M"},"bonus":1.1800000000000008},{"rt":1068.6000000238419,"stimulus":"bees-with-color/bee-A1DF.svg","response":1,"trial_type":"image-button-response","trial_index":119,"time_elapsed":318844,"internal_node_id":"0.0-4.0-0.56","subject_id":"60f6f802c0ede08f7cf69720","study_id":"60edd13110225f80f9f3709b","session_id":"6196d3ec6a401f8ca5e6c8b7","condition":"contingent","relevant_dimensions":["pattern","legs"],"bee_group":{"antennae":"X","wings":"X","pattern":"D","legs":"M"},"action":"avoid","summary":"bad-avoid","bonus":1.1800000000000008},{"rt":1253.7000000476837,"stimulus":"\n                    <p><b>Action: <em>avoid</em></b></p>\n                    <p>This is the bee that you just saw.</p>\n                    <img src=\"bees-with-color/bee-A1DF.svg\" width=\"200\">\n                    <p><br>Your bonus pay is unchanged, and remains at $0.90.</p>\n            ","response":0,"trial_type":"html-button-response","trial_index":120,"time_elapsed":320100,"internal_node_id":"0.0-4.0-1.56","subject_id":"60f6f802c0ede08f7cf69720","study_id":"60edd13110225f80f9f3709b","session_id":"6196d3ec6a401f8ca5e6c8b7","condition":"contingent","relevant_dimensions":["pattern","legs"],"bee_group":{"antennae":"X","wings":"X","pattern":"D","legs":"M"},"bonus":1.1800000000000008},{"rt":1445.699999988079,"stimulus":"bees-with-color/bee-B1SF.svg","response":0,"trial_type":"image-button-response","trial_index":121,"time_elapsed":321548,"internal_node_id":"0.0-4.0-0.57","subject_id":"60f6f802c0ede08f7cf69720","study_id":"60edd13110225f80f9f3709b","session_id":"6196d3ec6a401f8ca5e6c8b7","condition":"contingent","relevant_dimensions":["pattern","legs"],"bee_group":{"antennae":"X","wings":"X","pattern":"D","legs":"M"},"action":"harvest","summary":"good-harvest","bonus":1.1800000000000008},{"rt":1717.2999999523163,"stimulus":"\n                    <p><b>Action: <em>harvest</em></b></p>\n                    <p>This is the bee that you just saw.</p>\n                    <img src=\"bees-with-color/bee-B1SF.svg\" width=\"200\">\n                    <p><span class=\"greenText\"><b>Successful harvest!</b></span><br>Your pay has increased by $0.02. Your bonus pay is now $0.92.</p>\n            ","response":0,"trial_type":"html-button-response","trial_index":122,"time_elapsed":323268,"internal_node_id":"0.0-4.0-1.57","subject_id":"60f6f802c0ede08f7cf69720","study_id":"60edd13110225f80f9f3709b","session_id":"6196d3ec6a401f8ca5e6c8b7","condition":"contingent","relevant_dimensions":["pattern","legs"],"bee_group":{"antennae":"X","wings":"X","pattern":"D","legs":"M"},"bonus":1.1800000000000008},{"rt":1031,"stimulus":"bees-with-color/bee-A2DF.svg","response":1,"trial_type":"image-button-response","trial_index":123,"time_elapsed":324301,"internal_node_id":"0.0-4.0-0.58","subject_id":"60f6f802c0ede08f7cf69720","study_id":"60edd13110225f80f9f3709b","session_id":"6196d3ec6a401f8ca5e6c8b7","condition":"contingent","relevant_dimensions":["pattern","legs"],"bee_group":{"antennae":"X","wings":"X","pattern":"D","legs":"M"},"action":"avoid","summary":"bad-avoid","bonus":1.1800000000000008},{"rt":1139.6000000238419,"stimulus":"\n                    <p><b>Action: <em>avoid</em></b></p>\n                    <p>This is the bee that you just saw.</p>\n                    <img src=\"bees-with-color/bee-A2DF.svg\" width=\"200\">\n                    <p><br>Your bonus pay is unchanged, and remains at $0.92.</p>\n            ","response":0,"trial_type":"html-button-response","trial_index":124,"time_elapsed":325444,"internal_node_id":"0.0-4.0-1.58","subject_id":"60f6f802c0ede08f7cf69720","study_id":"60edd13110225f80f9f3709b","session_id":"6196d3ec6a401f8ca5e6c8b7","condition":"contingent","relevant_dimensions":["pattern","legs"],"bee_group":{"antennae":"X","wings":"X","pattern":"D","legs":"M"},"bonus":1.1800000000000008},{"rt":1046.5999999642372,"stimulus":"bees-with-color/bee-B2DM.svg","response":1,"trial_type":"image-button-response","trial_index":125,"time_elapsed":326492,"internal_node_id":"0.0-4.0-0.59","subject_id":"60f6f802c0ede08f7cf69720","study_id":"60edd13110225f80f9f3709b","session_id":"6196d3ec6a401f8ca5e6c8b7","condition":"contingent","relevant_dimensions":["pattern","legs"],"bee_group":{"antennae":"X","wings":"X","pattern":"D","legs":"M"},"action":"avoid","summary":"good-avoid","bonus":1.1800000000000008},{"rt":1014.6000000238419,"stimulus":"\n                    <p><b>Action: <em>avoid</em></b></p>\n                    <p>This is the bee that you just saw.</p>\n                    <img src=\"bees-with-color/bee-B2DM.svg\" width=\"200\">\n                    <p><br>Your bonus pay is unchanged, and remains at $0.92.</p>\n            ","response":0,"trial_type":"html-button-response","trial_index":126,"time_elapsed":327510,"internal_node_id":"0.0-4.0-1.59","subject_id":"60f6f802c0ede08f7cf69720","study_id":"60edd13110225f80f9f3709b","session_id":"6196d3ec6a401f8ca5e6c8b7","condition":"contingent","relevant_dimensions":["pattern","legs"],"bee_group":{"antennae":"X","wings":"X","pattern":"D","legs":"M"},"bonus":1.1800000000000008},{"rt":1219.199999988079,"stimulus":"bees-with-color/bee-A2SF.svg","response":0,"trial_type":"image-button-response","trial_index":127,"time_elapsed":328732,"internal_node_id":"0.0-4.0-0.60","subject_id":"60f6f802c0ede08f7cf69720","study_id":"60edd13110225f80f9f3709b","session_id":"6196d3ec6a401f8ca5e6c8b7","condition":"contingent","relevant_dimensions":["pattern","legs"],"bee_group":{"antennae":"X","wings":"X","pattern":"D","legs":"M"},"action":"harvest","summary":"good-harvest","bonus":1.1800000000000008},{"rt":1260.6000000238419,"stimulus":"\n                    <p><b>Action: <em>harvest</em></b></p>\n                    <p>This is the bee that you just saw.</p>\n                    <img src=\"bees-with-color/bee-A2SF.svg\" width=\"200\">\n                    <p><span class=\"greenText\"><b>Successful harvest!</b></span><br>Your pay has increased by $0.02. Your bonus pay is now $0.94.</p>\n            ","response":0,"trial_type":"html-button-response","trial_index":128,"time_elapsed":329995,"internal_node_id":"0.0-4.0-1.60","subject_id":"60f6f802c0ede08f7cf69720","study_id":"60edd13110225f80f9f3709b","session_id":"6196d3ec6a401f8ca5e6c8b7","condition":"contingent","relevant_dimensions":["pattern","legs"],"bee_group":{"antennae":"X","wings":"X","pattern":"D","legs":"M"},"bonus":1.1800000000000008},{"rt":2262.099999964237,"stimulus":"bees-with-color/bee-B2SM.svg","response":1,"trial_type":"image-button-response","trial_index":129,"time_elapsed":332259,"internal_node_id":"0.0-4.0-0.61","subject_id":"60f6f802c0ede08f7cf69720","study_id":"60edd13110225f80f9f3709b","session_id":"6196d3ec6a401f8ca5e6c8b7","condition":"contingent","relevant_dimensions":["pattern","legs"],"bee_group":{"antennae":"X","wings":"X","pattern":"D","legs":"M"},"action":"avoid","summary":"bad-avoid","bonus":1.1800000000000008},{"rt":1140.699999988079,"stimulus":"\n                    <p><b>Action: <em>avoid</em></b></p>\n                    <p>This is the bee that you just saw.</p>\n                    <img src=\"bees-with-color/bee-B2SM.svg\" width=\"200\">\n                    <p><br>Your bonus pay is unchanged, and remains at $0.94.</p>\n            ","response":0,"trial_type":"html-button-response","trial_index":130,"time_elapsed":333403,"internal_node_id":"0.0-4.0-1.61","subject_id":"60f6f802c0ede08f7cf69720","study_id":"60edd13110225f80f9f3709b","session_id":"6196d3ec6a401f8ca5e6c8b7","condition":"contingent","relevant_dimensions":["pattern","legs"],"bee_group":{"antennae":"X","wings":"X","pattern":"D","legs":"M"},"bonus":1.1800000000000008},{"rt":2221.599999964237,"stimulus":"bees-with-color/bee-A2SM.svg","response":1,"trial_type":"image-button-response","trial_index":131,"time_elapsed":335627,"internal_node_id":"0.0-4.0-0.62","subject_id":"60f6f802c0ede08f7cf69720","study_id":"60edd13110225f80f9f3709b","session_id":"6196d3ec6a401f8ca5e6c8b7","condition":"contingent","relevant_dimensions":["pattern","legs"],"bee_group":{"antennae":"X","wings":"X","pattern":"D","legs":"M"},"action":"avoid","summary":"bad-avoid","bonus":1.1800000000000008},{"rt":1108.699999988079,"stimulus":"\n                    <p><b>Action: <em>avoid</em></b></p>\n                    <p>This is the bee that you just saw.</p>\n                    <img src=\"bees-with-color/bee-A2SM.svg\" width=\"200\">\n                    <p><br>Your bonus pay is unchanged, and remains at $0.94.</p>\n            ","response":0,"trial_type":"html-button-response","trial_index":132,"time_elapsed":336738,"internal_node_id":"0.0-4.0-1.62","subject_id":"60f6f802c0ede08f7cf69720","study_id":"60edd13110225f80f9f3709b","session_id":"6196d3ec6a401f8ca5e6c8b7","condition":"contingent","relevant_dimensions":["pattern","legs"],"bee_group":{"antennae":"X","wings":"X","pattern":"D","legs":"M"},"bonus":1.1800000000000008},{"rt":1028.8999999761581,"stimulus":"bees-with-color/bee-A1DM.svg","response":1,"trial_type":"image-button-response","trial_index":133,"time_elapsed":337771,"internal_node_id":"0.0-4.0-0.63","subject_id":"60f6f802c0ede08f7cf69720","study_id":"60edd13110225f80f9f3709b","session_id":"6196d3ec6a401f8ca5e6c8b7","condition":"contingent","relevant_dimensions":["pattern","legs"],"bee_group":{"antennae":"X","wings":"X","pattern":"D","legs":"M"},"action":"avoid","summary":"good-avoid","bonus":1.1800000000000008},{"rt":1123.300000011921,"stimulus":"\n                    <p><b>Action: <em>avoid</em></b></p>\n                    <p>This is the bee that you just saw.</p>\n                    <img src=\"bees-with-color/bee-A1DM.svg\" width=\"200\">\n                    <p><br>Your bonus pay is unchanged, and remains at $0.94.</p>\n            ","response":0,"trial_type":"html-button-response","trial_index":134,"time_elapsed":338898,"internal_node_id":"0.0-4.0-1.63","subject_id":"60f6f802c0ede08f7cf69720","study_id":"60edd13110225f80f9f3709b","session_id":"6196d3ec6a401f8ca5e6c8b7","condition":"contingent","relevant_dimensions":["pattern","legs"],"bee_group":{"antennae":"X","wings":"X","pattern":"D","legs":"M"},"bonus":1.1800000000000008},{"rt":6744.199999988079,"stimulus":"You have completed the first part of this experiment.<br><br>You will now begin a shorter second part, in which you will receive no feedback.<br>The same rules regarding bonus pay apply.<br><br>Press any key to begin.","response":"enter","trial_type":"html-keyboard-response","trial_index":135,"time_elapsed":345645,"internal_node_id":"0.0-5.0","subject_id":"60f6f802c0ede08f7cf69720","study_id":"60edd13110225f80f9f3709b","session_id":"6196d3ec6a401f8ca5e6c8b7","condition":"contingent","relevant_dimensions":["pattern","legs"],"bee_group":{"antennae":"X","wings":"X","pattern":"D","legs":"M"},"bonus":1.1800000000000008},{"rt":1762.199999988079,"stimulus":"bees-with-color/bee-A1DM.svg","response":1,"trial_type":"image-button-response","trial_index":136,"time_elapsed":347426,"internal_node_id":"0.0-6.0-0.0","subject_id":"60f6f802c0ede08f7cf69720","study_id":"60edd13110225f80f9f3709b","session_id":"6196d3ec6a401f8ca5e6c8b7","condition":"contingent","relevant_dimensions":["pattern","legs"],"bee_group":{"antennae":"X","wings":"X","pattern":"D","legs":"M"},"bonus":1.1800000000000008},{"rt":1243.800000011921,"stimulus":"bees-with-color/bee-B1SF.svg","response":0,"trial_type":"image-button-response","trial_index":137,"time_elapsed":348674,"internal_node_id":"0.0-6.0-0.1","subject_id":"60f6f802c0ede08f7cf69720","study_id":"60edd13110225f80f9f3709b","session_id":"6196d3ec6a401f8ca5e6c8b7","condition":"contingent","relevant_dimensions":["pattern","legs"],"bee_group":{"antennae":"X","wings":"X","pattern":"D","legs":"M"},"bonus":1.1800000000000008},{"rt":1121.3999999761581,"stimulus":"bees-with-color/bee-A1SM.svg","response":1,"trial_type":"image-button-response","trial_index":138,"time_elapsed":349800,"internal_node_id":"0.0-6.0-0.2","subject_id":"60f6f802c0ede08f7cf69720","study_id":"60edd13110225f80f9f3709b","session_id":"6196d3ec6a401f8ca5e6c8b7","condition":"contingent","relevant_dimensions":["pattern","legs"],"bee_group":{"antennae":"X","wings":"X","pattern":"D","legs":"M"},"bonus":1.1800000000000008},{"rt":1340.5,"stimulus":"bees-with-color/bee-B1DM.svg","response":1,"trial_type":"image-button-response","trial_index":139,"time_elapsed":351145,"internal_node_id":"0.0-6.0-0.3","subject_id":"60f6f802c0ede08f7cf69720","study_id":"60edd13110225f80f9f3709b","session_id":"6196d3ec6a401f8ca5e6c8b7","condition":"contingent","relevant_dimensions":["pattern","legs"],"bee_group":{"antennae":"X","wings":"X","pattern":"D","legs":"M"},"bonus":1.1800000000000008},{"rt":1250.4000000357628,"stimulus":"bees-with-color/bee-B2DF.svg","response":0,"trial_type":"image-button-response","trial_index":140,"time_elapsed":352400,"internal_node_id":"0.0-6.0-0.4","subject_id":"60f6f802c0ede08f7cf69720","study_id":"60edd13110225f80f9f3709b","session_id":"6196d3ec6a401f8ca5e6c8b7","condition":"contingent","relevant_dimensions":["pattern","legs"],"bee_group":{"antennae":"X","wings":"X","pattern":"D","legs":"M"},"bonus":1.1800000000000008},{"rt":1628.6000000238419,"stimulus":"bees-with-color/bee-A1DF.svg","response":1,"trial_type":"image-button-response","trial_index":141,"time_elapsed":354033,"internal_node_id":"0.0-6.0-0.5","subject_id":"60f6f802c0ede08f7cf69720","study_id":"60edd13110225f80f9f3709b","session_id":"6196d3ec6a401f8ca5e6c8b7","condition":"contingent","relevant_dimensions":["pattern","legs"],"bee_group":{"antennae":"X","wings":"X","pattern":"D","legs":"M"},"bonus":1.1800000000000008},{"rt":1155.300000011921,"stimulus":"bees-with-color/bee-B2SF.svg","response":0,"trial_type":"image-button-response","trial_index":142,"time_elapsed":355192,"internal_node_id":"0.0-6.0-0.6","subject_id":"60f6f802c0ede08f7cf69720","study_id":"60edd13110225f80f9f3709b","session_id":"6196d3ec6a401f8ca5e6c8b7","condition":"contingent","relevant_dimensions":["pattern","legs"],"bee_group":{"antennae":"X","wings":"X","pattern":"D","legs":"M"},"bonus":1.1800000000000008},{"rt":955.1000000238419,"stimulus":"bees-with-color/bee-A1SF.svg","response":0,"trial_type":"image-button-response","trial_index":143,"time_elapsed":356152,"internal_node_id":"0.0-6.0-0.7","subject_id":"60f6f802c0ede08f7cf69720","study_id":"60edd13110225f80f9f3709b","session_id":"6196d3ec6a401f8ca5e6c8b7","condition":"contingent","relevant_dimensions":["pattern","legs"],"bee_group":{"antennae":"X","wings":"X","pattern":"D","legs":"M"},"bonus":1.1800000000000008},{"rt":970,"stimulus":"bees-with-color/bee-A2DF.svg","response":1,"trial_type":"image-button-response","trial_index":144,"time_elapsed":357127,"internal_node_id":"0.0-6.0-0.8","subject_id":"60f6f802c0ede08f7cf69720","study_id":"60edd13110225f80f9f3709b","session_id":"6196d3ec6a401f8ca5e6c8b7","condition":"contingent","relevant_dimensions":["pattern","legs"],"bee_group":{"antennae":"X","wings":"X","pattern":"D","legs":"M"},"bonus":1.1800000000000008},{"rt":972.6000000238419,"stimulus":"bees-with-color/bee-A2DM.svg","response":1,"trial_type":"image-button-response","trial_index":145,"time_elapsed":358103,"internal_node_id":"0.0-6.0-0.9","subject_id":"60f6f802c0ede08f7cf69720","study_id":"60edd13110225f80f9f3709b","session_id":"6196d3ec6a401f8ca5e6c8b7","condition":"contingent","relevant_dimensions":["pattern","legs"],"bee_group":{"antennae":"X","wings":"X","pattern":"D","legs":"M"},"bonus":1.1800000000000008},{"rt":1003.1000000238419,"stimulus":"bees-with-color/bee-B1DF.svg","response":1,"trial_type":"image-button-response","trial_index":146,"time_elapsed":359111,"internal_node_id":"0.0-6.0-0.10","subject_id":"60f6f802c0ede08f7cf69720","study_id":"60edd13110225f80f9f3709b","session_id":"6196d3ec6a401f8ca5e6c8b7","condition":"contingent","relevant_dimensions":["pattern","legs"],"bee_group":{"antennae":"X","wings":"X","pattern":"D","legs":"M"},"bonus":1.1800000000000008},{"rt":971.1999999880791,"stimulus":"bees-with-color/bee-B1SM.svg","response":0,"trial_type":"image-button-response","trial_index":147,"time_elapsed":360087,"internal_node_id":"0.0-6.0-0.11","subject_id":"60f6f802c0ede08f7cf69720","study_id":"60edd13110225f80f9f3709b","session_id":"6196d3ec6a401f8ca5e6c8b7","condition":"contingent","relevant_dimensions":["pattern","legs"],"bee_group":{"antennae":"X","wings":"X","pattern":"D","legs":"M"},"bonus":1.1800000000000008},{"rt":1401.0999999642372,"stimulus":"bees-with-color/bee-B2DM.svg","response":1,"trial_type":"image-button-response","trial_index":148,"time_elapsed":361495,"internal_node_id":"0.0-6.0-0.12","subject_id":"60f6f802c0ede08f7cf69720","study_id":"60edd13110225f80f9f3709b","session_id":"6196d3ec6a401f8ca5e6c8b7","condition":"contingent","relevant_dimensions":["pattern","legs"],"bee_group":{"antennae":"X","wings":"X","pattern":"D","legs":"M"},"bonus":1.1800000000000008},{"rt":3315.5,"stimulus":"bees-with-color/bee-B2SM.svg","response":0,"trial_type":"image-button-response","trial_index":149,"time_elapsed":364815,"internal_node_id":"0.0-6.0-0.13","subject_id":"60f6f802c0ede08f7cf69720","study_id":"60edd13110225f80f9f3709b","session_id":"6196d3ec6a401f8ca5e6c8b7","condition":"contingent","relevant_dimensions":["pattern","legs"],"bee_group":{"antennae":"X","wings":"X","pattern":"D","legs":"M"},"bonus":1.1800000000000008},{"rt":1002.5,"stimulus":"bees-with-color/bee-A2SF.svg","response":0,"trial_type":"image-button-response","trial_index":150,"time_elapsed":365822,"internal_node_id":"0.0-6.0-0.14","subject_id":"60f6f802c0ede08f7cf69720","study_id":"60edd13110225f80f9f3709b","session_id":"6196d3ec6a401f8ca5e6c8b7","condition":"contingent","relevant_dimensions":["pattern","legs"],"bee_group":{"antennae":"X","wings":"X","pattern":"D","legs":"M"},"bonus":1.1800000000000008},{"rt":1308,"stimulus":"bees-with-color/bee-A2SM.svg","response":1,"trial_type":"image-button-response","trial_index":151,"time_elapsed":367133,"internal_node_id":"0.0-6.0-0.15","subject_id":"60f6f802c0ede08f7cf69720","study_id":"60edd13110225f80f9f3709b","session_id":"6196d3ec6a401f8ca5e6c8b7","condition":"contingent","relevant_dimensions":["pattern","legs"],"bee_group":{"antennae":"X","wings":"X","pattern":"D","legs":"M"},"bonus":1.1800000000000008},{"rt":1276.5999999642372,"stimulus":"bees-with-color/bee-A1DF.svg","response":1,"trial_type":"image-button-response","trial_index":152,"time_elapsed":368413,"internal_node_id":"0.0-6.0-0.16","subject_id":"60f6f802c0ede08f7cf69720","study_id":"60edd13110225f80f9f3709b","session_id":"6196d3ec6a401f8ca5e6c8b7","condition":"contingent","relevant_dimensions":["pattern","legs"],"bee_group":{"antennae":"X","wings":"X","pattern":"D","legs":"M"},"bonus":1.1800000000000008},{"rt":1101.1000000238419,"stimulus":"bees-with-color/bee-A2DF.svg","response":0,"trial_type":"image-button-response","trial_index":153,"time_elapsed":369518,"internal_node_id":"0.0-6.0-0.17","subject_id":"60f6f802c0ede08f7cf69720","study_id":"60edd13110225f80f9f3709b","session_id":"6196d3ec6a401f8ca5e6c8b7","condition":"contingent","relevant_dimensions":["pattern","legs"],"bee_group":{"antennae":"X","wings":"X","pattern":"D","legs":"M"},"bonus":1.1800000000000008},{"rt":1465.5,"stimulus":"bees-with-color/bee-B2SM.svg","response":1,"trial_type":"image-button-response","trial_index":154,"time_elapsed":370990,"internal_node_id":"0.0-6.0-0.18","subject_id":"60f6f802c0ede08f7cf69720","study_id":"60edd13110225f80f9f3709b","session_id":"6196d3ec6a401f8ca5e6c8b7","condition":"contingent","relevant_dimensions":["pattern","legs"],"bee_group":{"antennae":"X","wings":"X","pattern":"D","legs":"M"},"bonus":1.1800000000000008},{"rt":1139.5,"stimulus":"bees-with-color/bee-B1DF.svg","response":1,"trial_type":"image-button-response","trial_index":155,"time_elapsed":372133,"internal_node_id":"0.0-6.0-0.19","subject_id":"60f6f802c0ede08f7cf69720","study_id":"60edd13110225f80f9f3709b","session_id":"6196d3ec6a401f8ca5e6c8b7","condition":"contingent","relevant_dimensions":["pattern","legs"],"bee_group":{"antennae":"X","wings":"X","pattern":"D","legs":"M"},"bonus":1.1800000000000008},{"rt":988.4000000357628,"stimulus":"bees-with-color/bee-B1DM.svg","response":1,"trial_type":"image-button-response","trial_index":156,"time_elapsed":373125,"internal_node_id":"0.0-6.0-0.20","subject_id":"60f6f802c0ede08f7cf69720","study_id":"60edd13110225f80f9f3709b","session_id":"6196d3ec6a401f8ca5e6c8b7","condition":"contingent","relevant_dimensions":["pattern","legs"],"bee_group":{"antennae":"X","wings":"X","pattern":"D","legs":"M"},"bonus":1.1800000000000008},{"rt":1020.1000000238419,"stimulus":"bees-with-color/bee-A1SF.svg","response":0,"trial_type":"image-button-response","trial_index":157,"time_elapsed":374148,"internal_node_id":"0.0-6.0-0.21","subject_id":"60f6f802c0ede08f7cf69720","study_id":"60edd13110225f80f9f3709b","session_id":"6196d3ec6a401f8ca5e6c8b7","condition":"contingent","relevant_dimensions":["pattern","legs"],"bee_group":{"antennae":"X","wings":"X","pattern":"D","legs":"M"},"bonus":1.1800000000000008},{"rt":2069.2999999523163,"stimulus":"bees-with-color/bee-A1SM.svg","response":1,"trial_type":"image-button-response","trial_index":158,"time_elapsed":376221,"internal_node_id":"0.0-6.0-0.22","subject_id":"60f6f802c0ede08f7cf69720","study_id":"60edd13110225f80f9f3709b","session_id":"6196d3ec6a401f8ca5e6c8b7","condition":"contingent","relevant_dimensions":["pattern","legs"],"bee_group":{"antennae":"X","wings":"X","pattern":"D","legs":"M"},"bonus":1.1800000000000008},{"rt":2043.3999999761581,"stimulus":"bees-with-color/bee-B2DM.svg","response":1,"trial_type":"image-button-response","trial_index":159,"time_elapsed":378268,"internal_node_id":"0.0-6.0-0.23","subject_id":"60f6f802c0ede08f7cf69720","study_id":"60edd13110225f80f9f3709b","session_id":"6196d3ec6a401f8ca5e6c8b7","condition":"contingent","relevant_dimensions":["pattern","legs"],"bee_group":{"antennae":"X","wings":"X","pattern":"D","legs":"M"},"bonus":1.1800000000000008},{"rt":1019.8000000119209,"stimulus":"bees-with-color/bee-B1SF.svg","response":0,"trial_type":"image-button-response","trial_index":160,"time_elapsed":379292,"internal_node_id":"0.0-6.0-0.24","subject_id":"60f6f802c0ede08f7cf69720","study_id":"60edd13110225f80f9f3709b","session_id":"6196d3ec6a401f8ca5e6c8b7","condition":"contingent","relevant_dimensions":["pattern","legs"],"bee_group":{"antennae":"X","wings":"X","pattern":"D","legs":"M"},"bonus":1.1800000000000008},{"rt":1468.300000011921,"stimulus":"bees-with-color/bee-B2DF.svg","response":1,"trial_type":"image-button-response","trial_index":161,"time_elapsed":380764,"internal_node_id":"0.0-6.0-0.25","subject_id":"60f6f802c0ede08f7cf69720","study_id":"60edd13110225f80f9f3709b","session_id":"6196d3ec6a401f8ca5e6c8b7","condition":"contingent","relevant_dimensions":["pattern","legs"],"bee_group":{"antennae":"X","wings":"X","pattern":"D","legs":"M"},"bonus":1.1800000000000008},{"rt":1011.8000000119209,"stimulus":"bees-with-color/bee-A2SF.svg","response":0,"trial_type":"image-button-response","trial_index":162,"time_elapsed":381780,"internal_node_id":"0.0-6.0-0.26","subject_id":"60f6f802c0ede08f7cf69720","study_id":"60edd13110225f80f9f3709b","session_id":"6196d3ec6a401f8ca5e6c8b7","condition":"contingent","relevant_dimensions":["pattern","legs"],"bee_group":{"antennae":"X","wings":"X","pattern":"D","legs":"M"},"bonus":1.1800000000000008},{"rt":1339.199999988079,"stimulus":"bees-with-color/bee-B1SM.svg","response":1,"trial_type":"image-button-response","trial_index":163,"time_elapsed":383123,"internal_node_id":"0.0-6.0-0.27","subject_id":"60f6f802c0ede08f7cf69720","study_id":"60edd13110225f80f9f3709b","session_id":"6196d3ec6a401f8ca5e6c8b7","condition":"contingent","relevant_dimensions":["pattern","legs"],"bee_group":{"antennae":"X","wings":"X","pattern":"D","legs":"M"},"bonus":1.1800000000000008},{"rt":1044.6000000238419