[{"success":true,"trial_type":"fullscreen","trial_index":0,"time_elapsed":4148,"internal_node_id":"0.0-0.0","subject_id":"611ac753847f7604fca79eec","study_id":"60edd13110225f80f9f3709b","session_id":"6196bd8862849c877328f226","condition":"contingent","relevant_dimensions":["antennae","wings"],"bee_group":{"antennae":"A","wings":"1","pattern":"X","legs":"X"},"bonus":0.7800000000000005},{"success":true,"timeout":false,"failed_images":[],"failed_audio":[],"failed_video":[],"trial_type":"preload","trial_index":1,"time_elapsed":9218,"internal_node_id":"0.0-1.0","subject_id":"611ac753847f7604fca79eec","study_id":"60edd13110225f80f9f3709b","session_id":"6196bd8862849c877328f226","condition":"contingent","relevant_dimensions":["antennae","wings"],"bee_group":{"antennae":"A","wings":"1","pattern":"X","legs":"X"},"bonus":0.7800000000000005},{"rt":162080.29999995232,"stimulus":"Welcome! Press any key to begin.","response":"l","trial_type":"html-keyboard-response","trial_index":2,"time_elapsed":171298,"internal_node_id":"0.0-2.0","subject_id":"611ac753847f7604fca79eec","study_id":"60edd13110225f80f9f3709b","session_id":"6196bd8862849c877328f226","condition":"contingent","relevant_dimensions":["antennae","wings"],"bee_group":{"antennae":"A","wings":"1","pattern":"X","legs":"X"},"bonus":0.7800000000000005},{"view_history":[{"page_index":0,"viewing_time":7763.5},{"page_index":1,"viewing_time":16349.700000047684},{"page_index":2,"viewing_time":23149.799999952316},{"page_index":3,"viewing_time":18041.200000047684},{"page_index":4,"viewing_time":5748.299999952316},{"page_index":5,"viewing_time":11745.5},{"page_index":6,"viewing_time":10694.799999952316},{"page_index":7,"viewing_time":11385.800000190735},{"page_index":8,"viewing_time":3811.7999999523163},{"page_index":9,"viewing_time":4543},{"page_index":10,"viewing_time":4173.5},{"page_index":11,"viewing_time":91914.29999995232},{"page_index":12,"viewing_time":12660.599999904633},{"page_index":13,"viewing_time":1718.9000000953674},{"page_index":14,"viewing_time":2787.5}],"rt":226489.10000014305,"trial_type":"instructions","trial_index":3,"time_elapsed":397786,"internal_node_id":"0.0-3.0-0.0","subject_id":"611ac753847f7604fca79eec","study_id":"60edd13110225f80f9f3709b","session_id":"6196bd8862849c877328f226","condition":"contingent","relevant_dimensions":["antennae","wings"],"bee_group":{"antennae":"A","wings":"1","pattern":"X","legs":"X"},"bonus":0.7800000000000005},{"rt":34728,"response":{"Q0":["Two or six legs","Stripes or spots on body","Single or double wings","Antennae or no antennae"]},"question_order":[0],"trial_type":"survey-multi-select","trial_index":4,"time_elapsed":432523,"internal_node_id":"0.0-3.0-1.0","subject_id":"611ac753847f7604fca79eec","study_id":"60edd13110225f80f9f3709b","session_id":"6196bd8862849c877328f226","condition":"contingent","relevant_dimensions":["antennae","wings"],"bee_group":{"antennae":"A","wings":"1","pattern":"X","legs":"X"},"correct":true,"bonus":0.7800000000000005},{"rt":31868.599999904633,"response":{"Q1":"No.","Q2":"Based on the four features of the bee.","Q3":"You do not learn if it was friendly or dangerous, and do not alter your bonus."},"question_order":[0,1,2],"trial_type":"survey-multi-choice","trial_index":5,"time_elapsed":464395,"internal_node_id":"0.0-3.0-2.0","subject_id":"611ac753847f7604fca79eec","study_id":"60edd13110225f80f9f3709b","session_id":"6196bd8862849c877328f226","condition":"contingent","relevant_dimensions":["antennae","wings"],"bee_group":{"antennae":"A","wings":"1","pattern":"X","legs":"X"},"correct":true,"bonus":0.7800000000000005},{"rt":3483.5999999046326,"stimulus":"<p>Congrats, you got everything right<br>When you're ready, click the button below to continue to the experiment.</p>","response":0,"trial_type":"html-button-response","trial_index":6,"time_elapsed":467883,"internal_node_id":"0.0-3.0-3.0","subject_id":"611ac753847f7604fca79eec","study_id":"60edd13110225f80f9f3709b","session_id":"6196bd8862849c877328f226","condition":"contingent","relevant_dimensions":["antennae","wings"],"bee_group":{"antennae":"A","wings":"1","pattern":"X","legs":"X"},"bonus":0.7800000000000005},{"rt":3194.5999999046326,"stimulus":"bees-with-color/bee-B2DF.svg","response":0,"trial_type":"image-button-response","trial_index":7,"time_elapsed":471083,"internal_node_id":"0.0-4.0-0.0","subject_id":"611ac753847f7604fca79eec","study_id":"60edd13110225f80f9f3709b","session_id":"6196bd8862849c877328f226","condition":"contingent","relevant_dimensions":["antennae","wings"],"bee_group":{"antennae":"A","wings":"1","pattern":"X","legs":"X"},"action":"harvest","summary":"good-harvest","bonus":0.7800000000000005},{"rt":2491.9000000953674,"stimulus":"\n                    <p><b>Action: <em>harvest</em></b></p>\n                    <p>This is the bee that you just saw.</p>\n                    <img src=\"bees-with-color/bee-B2DF.svg\" width=\"200\">\n                    <p><span class=\"greenText\"><b>Successful harvest!</b></span><br>Your pay has increased by $0.02. Your bonus pay is now $0.56.</p>\n            ","response":0,"trial_type":"html-button-response","trial_index":8,"time_elapsed":473583,"internal_node_id":"0.0-4.0-1.0","subject_id":"611ac753847f7604fca79eec","study_id":"60edd13110225f80f9f3709b","session_id":"6196bd8862849c877328f226","condition":"contingent","relevant_dimensions":["antennae","wings"],"bee_group":{"antennae":"A","wings":"1","pattern":"X","legs":"X"},"bonus":0.7800000000000005},{"rt":2546.2000000476837,"stimulus":"bees-with-color/bee-A1DF.svg","response":1,"trial_type":"image-button-response","trial_index":9,"time_elapsed":476132,"internal_node_id":"0.0-4.0-0.1","subject_id":"611ac753847f7604fca79eec","study_id":"60edd13110225f80f9f3709b","session_id":"6196bd8862849c877328f226","condition":"contingent","relevant_dimensions":["antennae","wings"],"bee_group":{"antennae":"A","wings":"1","pattern":"X","legs":"X"},"action":"avoid","summary":"good-avoid","bonus":0.7800000000000005},{"rt":8729.299999952316,"stimulus":"\n                    <p><b>Action: <em>avoid</em></b></p>\n                    <p>This is the bee that you just saw.</p>\n                    <img src=\"bees-with-color/bee-A1DF.svg\" width=\"200\">\n                    <p><br>Your bonus pay is unchanged, and remains at $0.56.</p>\n            ","response":0,"trial_type":"html-button-response","trial_index":10,"time_elapsed":484867,"internal_node_id":"0.0-4.0-1.1","subject_id":"611ac753847f7604fca79eec","study_id":"60edd13110225f80f9f3709b","session_id":"6196bd8862849c877328f226","condition":"contingent","relevant_dimensions":["antennae","wings"],"bee_group":{"antennae":"A","wings":"1","pattern":"X","legs":"X"},"bonus":0.7800000000000005},{"rt":2159.2000000476837,"stimulus":"bees-with-color/bee-B2DM.svg","response":1,"trial_type":"image-button-response","trial_index":11,"time_elapsed":487030,"internal_node_id":"0.0-4.0-0.2","subject_id":"611ac753847f7604fca79eec","study_id":"60edd13110225f80f9f3709b","session_id":"6196bd8862849c877328f226","condition":"contingent","relevant_dimensions":["antennae","wings"],"bee_group":{"antennae":"A","wings":"1","pattern":"X","legs":"X"},"action":"avoid","summary":"bad-avoid","bonus":0.7800000000000005},{"rt":3731.5,"stimulus":"\n                    <p><b>Action: <em>avoid</em></b></p>\n                    <p>This is the bee that you just saw.</p>\n                    <img src=\"bees-with-color/bee-B2DM.svg\" width=\"200\">\n                    <p><br>Your bonus pay is unchanged, and remains at $0.56.</p>\n            ","response":0,"trial_type":"html-button-response","trial_index":12,"time_elapsed":490765,"internal_node_id":"0.0-4.0-1.2","subject_id":"611ac753847f7604fca79eec","study_id":"60edd13110225f80f9f3709b","session_id":"6196bd8862849c877328f226","condition":"contingent","relevant_dimensions":["antennae","wings"],"bee_group":{"antennae":"A","wings":"1","pattern":"X","legs":"X"},"bonus":0.7800000000000005},{"rt":1377.7999999523163,"stimulus":"bees-with-color/bee-B1DM.svg","response":0,"trial_type":"image-button-response","trial_index":13,"time_elapsed":492146,"internal_node_id":"0.0-4.0-0.3","subject_id":"611ac753847f7604fca79eec","study_id":"60edd13110225f80f9f3709b","session_id":"6196bd8862849c877328f226","condition":"contingent","relevant_dimensions":["antennae","wings"],"bee_group":{"antennae":"A","wings":"1","pattern":"X","legs":"X"},"action":"harvest","summary":"good-harvest","bonus":0.7800000000000005},{"rt":3838.2999999523163,"stimulus":"\n                    <p><b>Action: <em>harvest</em></b></p>\n                    <p>This is the bee that you just saw.</p>\n                    <img src=\"bees-with-color/bee-B1DM.svg\" width=\"200\">\n                    <p><span class=\"greenText\"><b>Successful harvest!</b></span><br>Your pay has increased by $0.02. Your bonus pay is now $0.58.</p>\n            ","response":0,"trial_type":"html-button-response","trial_index":14,"time_elapsed":495988,"internal_node_id":"0.0-4.0-1.3","subject_id":"611ac753847f7604fca79eec","study_id":"60edd13110225f80f9f3709b","session_id":"6196bd8862849c877328f226","condition":"contingent","relevant_dimensions":["antennae","wings"],"bee_group":{"antennae":"A","wings":"1","pattern":"X","legs":"X"},"bonus":0.7800000000000005},{"rt":2199.4000000953674,"stimulus":"bees-with-color/bee-B1SM.svg","response":1,"trial_type":"image-button-response","trial_index":15,"time_elapsed":498191,"internal_node_id":"0.0-4.0-0.4","subject_id":"611ac753847f7604fca79eec","study_id":"60edd13110225f80f9f3709b","session_id":"6196bd8862849c877328f226","condition":"contingent","relevant_dimensions":["antennae","wings"],"bee_group":{"antennae":"A","wings":"1","pattern":"X","legs":"X"},"action":"avoid","summary":"bad-avoid","bonus":0.7800000000000005},{"rt":1666.5999999046326,"stimulus":"\n                    <p><b>Action: <em>avoid</em></b></p>\n                    <p>This is the bee that you just saw.</p>\n                    <img src=\"bees-with-color/bee-B1SM.svg\" width=\"200\">\n                    <p><br>Your bonus pay is unchanged, and remains at $0.58.</p>\n            ","response":0,"trial_type":"html-button-response","trial_index":16,"time_elapsed":499861,"internal_node_id":"0.0-4.0-1.4","subject_id":"611ac753847f7604fca79eec","study_id":"60edd13110225f80f9f3709b","session_id":"6196bd8862849c877328f226","condition":"contingent","relevant_dimensions":["antennae","wings"],"bee_group":{"antennae":"A","wings":"1","pattern":"X","legs":"X"},"bonus":0.7800000000000005},{"rt":2883.2999999523163,"stimulus":"bees-with-color/bee-B1SF.svg","response":1,"trial_type":"image-button-response","trial_index":17,"time_elapsed":502748,"internal_node_id":"0.0-4.0-0.5","subject_id":"611ac753847f7604fca79eec","study_id":"60edd13110225f80f9f3709b","session_id":"6196bd8862849c877328f226","condition":"contingent","relevant_dimensions":["antennae","wings"],"bee_group":{"antennae":"A","wings":"1","pattern":"X","legs":"X"},"action":"avoid","summary":"bad-avoid","bonus":0.7800000000000005},{"rt":1821.7000000476837,"stimulus":"\n                    <p><b>Action: <em>avoid</em></b></p>\n                    <p>This is the bee that you just saw.</p>\n                    <img src=\"bees-with-color/bee-B1SF.svg\" width=\"200\">\n                    <p><br>Your bonus pay is unchanged, and remains at $0.58.</p>\n            ","response":0,"trial_type":"html-button-response","trial_index":18,"time_elapsed":504573,"internal_node_id":"0.0-4.0-1.5","subject_id":"611ac753847f7604fca79eec","study_id":"60edd13110225f80f9f3709b","session_id":"6196bd8862849c877328f226","condition":"contingent","relevant_dimensions":["antennae","wings"],"bee_group":{"antennae":"A","wings":"1","pattern":"X","legs":"X"},"bonus":0.7800000000000005},{"rt":1888.8999998569489,"stimulus":"bees-with-color/bee-A1DM.svg","response":0,"trial_type":"image-button-response","trial_index":19,"time_elapsed":506466,"internal_node_id":"0.0-4.0-0.6","subject_id":"611ac753847f7604fca79eec","study_id":"60edd13110225f80f9f3709b","session_id":"6196bd8862849c877328f226","condition":"contingent","relevant_dimensions":["antennae","wings"],"bee_group":{"antennae":"A","wings":"1","pattern":"X","legs":"X"},"action":"harvest","summary":"bad-harvest","bonus":0.7800000000000005},{"rt":3443.0999999046326,"stimulus":"\n                    <p><b>Action: <em>harvest</em></b></p>\n                    <p>This is the bee that you just saw.</p>\n                    <img src=\"bees-with-color/bee-A1DM.svg\" width=\"200\">\n                    <p><span class=\"redText\">Bad choice, the bee was angry.</span><br><b>You have been stung!</b><br>Your pay has been decreased by $0.10. Your bonus pay is now $0.48.</p>\n            ","response":0,"trial_type":"html-button-response","trial_index":20,"time_elapsed":509913,"internal_node_id":"0.0-4.0-1.6","subject_id":"611ac753847f7604fca79eec","study_id":"60edd13110225f80f9f3709b","session_id":"6196bd8862849c877328f226","condition":"contingent","relevant_dimensions":["antennae","wings"],"bee_group":{"antennae":"A","wings":"1","pattern":"X","legs":"X"},"bonus":0.7800000000000005},{"rt":3368,"stimulus":"bees-with-color/bee-A2DF.svg","response":0,"trial_type":"image-button-response","trial_index":21,"time_elapsed":513285,"internal_node_id":"0.0-4.0-0.7","subject_id":"611ac753847f7604fca79eec","study_id":"60edd13110225f80f9f3709b","session_id":"6196bd8862849c877328f226","condition":"contingent","relevant_dimensions":["antennae","wings"],"bee_group":{"antennae":"A","wings":"1","pattern":"X","legs":"X"},"action":"harvest","summary":"good-harvest","bonus":0.7800000000000005},{"rt":1616.2999999523163,"stimulus":"\n                    <p><b>Action: <em>harvest</em></b></p>\n                    <p>This is the bee that you just saw.</p>\n                    <img src=\"bees-with-color/bee-A2DF.svg\" width=\"200\">\n                    <p><span class=\"greenText\"><b>Successful harvest!</b></span><br>Your pay has increased by $0.02. Your bonus pay is now $0.50.</p>\n            ","response":0,"trial_type":"html-button-response","trial_index":22,"time_elapsed":514904,"internal_node_id":"0.0-4.0-1.7","subject_id":"611ac753847f7604fca79eec","study_id":"60edd13110225f80f9f3709b","session_id":"6196bd8862849c877328f226","condition":"contingent","relevant_dimensions":["antennae","wings"],"bee_group":{"antennae":"A","wings":"1","pattern":"X","legs":"X"},"bonus":0.7800000000000005},{"rt":1443.5,"stimulus":"bees-with-color/bee-A1SM.svg","response":1,"trial_type":"image-button-response","trial_index":23,"time_elapsed":516350,"internal_node_id":"0.0-4.0-0.8","subject_id":"611ac753847f7604fca79eec","study_id":"60edd13110225f80f9f3709b","session_id":"6196bd8862849c877328f226","condition":"contingent","relevant_dimensions":["antennae","wings"],"bee_group":{"antennae":"A","wings":"1","pattern":"X","legs":"X"},"action":"avoid","summary":"good-avoid","bonus":0.7800000000000005},{"rt":1530,"stimulus":"\n                    <p><b>Action: <em>avoid</em></b></p>\n                    <p>This is the bee that you just saw.</p>\n                    <img src=\"bees-with-color/bee-A1SM.svg\" width=\"200\">\n                    <p><br>Your bonus pay is unchanged, and remains at $0.50.</p>\n            ","response":0,"trial_type":"html-button-response","trial_index":24,"time_elapsed":517883,"internal_node_id":"0.0-4.0-1.8","subject_id":"611ac753847f7604fca79eec","study_id":"60edd13110225f80f9f3709b","session_id":"6196bd8862849c877328f226","condition":"contingent","relevant_dimensions":["antennae","wings"],"bee_group":{"antennae":"A","wings":"1","pattern":"X","legs":"X"},"bonus":0.7800000000000005},{"rt":1032.5999999046326,"stimulus":"bees-with-color/bee-A2DM.svg","response":1,"trial_type":"image-button-response","trial_index":25,"time_elapsed":518919,"internal_node_id":"0.0-4.0-0.9","subject_id":"611ac753847f7604fca79eec","study_id":"60edd13110225f80f9f3709b","session_id":"6196bd8862849c877328f226","condition":"contingent","relevant_dimensions":["antennae","wings"],"bee_group":{"antennae":"A","wings":"1","pattern":"X","legs":"X"},"action":"avoid","summary":"bad-avoid","bonus":0.7800000000000005},{"rt":1066,"stimulus":"\n                    <p><b>Action: <em>avoid</em></b></p>\n                    <p>This is the bee that you just saw.</p>\n                    <img src=\"bees-with-color/bee-A2DM.svg\" width=\"200\">\n                    <p><br>Your bonus pay is unchanged, and remains at $0.50.</p>\n            ","response":0,"trial_type":"html-button-response","trial_index":26,"time_elapsed":519988,"internal_node_id":"0.0-4.0-1.9","subject_id":"611ac753847f7604fca79eec","study_id":"60edd13110225f80f9f3709b","session_id":"6196bd8862849c877328f226","condition":"contingent","relevant_dimensions":["antennae","wings"],"bee_group":{"antennae":"A","wings":"1","pattern":"X","legs":"X"},"bonus":0.7800000000000005},{"rt":1206.2000000476837,"stimulus":"bees-with-color/bee-B2SM.svg","response":1,"trial_type":"image-button-response","trial_index":27,"time_elapsed":521198,"internal_node_id":"0.0-4.0-0.10","subject_id":"611ac753847f7604fca79eec","study_id":"60edd13110225f80f9f3709b","session_id":"6196bd8862849c877328f226","condition":"contingent","relevant_dimensions":["antennae","wings"],"bee_group":{"antennae":"A","wings":"1","pattern":"X","legs":"X"},"action":"avoid","summary":"bad-avoid","bonus":0.7800000000000005},{"rt":924.8999998569489,"stimulus":"\n                    <p><b>Action: <em>avoid</em></b></p>\n                    <p>This is the bee that you just saw.</p>\n                    <img src=\"bees-with-color/bee-B2SM.svg\" width=\"200\">\n                    <p><br>Your bonus pay is unchanged, and remains at $0.50.</p>\n            ","response":0,"trial_type":"html-button-response","trial_index":28,"time_elapsed":522127,"internal_node_id":"0.0-4.0-1.10","subject_id":"611ac753847f7604fca79eec","study_id":"60edd13110225f80f9f3709b","session_id":"6196bd8862849c877328f226","condition":"contingent","relevant_dimensions":["antennae","wings"],"bee_group":{"antennae":"A","wings":"1","pattern":"X","legs":"X"},"bonus":0.7800000000000005},{"rt":884.5,"stimulus":"bees-with-color/bee-A2SM.svg","response":1,"trial_type":"image-button-response","trial_index":29,"time_elapsed":523015,"internal_node_id":"0.0-4.0-0.11","subject_id":"611ac753847f7604fca79eec","study_id":"60edd13110225f80f9f3709b","session_id":"6196bd8862849c877328f226","condition":"contingent","relevant_dimensions":["antennae","wings"],"bee_group":{"antennae":"A","wings":"1","pattern":"X","legs":"X"},"action":"avoid","summary":"bad-avoid","bonus":0.7800000000000005},{"rt":891,"stimulus":"\n                    <p><b>Action: <em>avoid</em></b></p>\n                    <p>This is the bee that you just saw.</p>\n                    <img src=\"bees-with-color/bee-A2SM.svg\" width=\"200\">\n                    <p><br>Your bonus pay is unchanged, and remains at $0.50.</p>\n            ","response":0,"trial_type":"html-button-response","trial_index":30,"time_elapsed":523909,"internal_node_id":"0.0-4.0-1.11","subject_id":"611ac753847f7604fca79eec","study_id":"60edd13110225f80f9f3709b","session_id":"6196bd8862849c877328f226","condition":"contingent","relevant_dimensions":["antennae","wings"],"bee_group":{"antennae":"A","wings":"1","pattern":"X","legs":"X"},"bonus":0.7800000000000005},{"rt":789.1000001430511,"stimulus":"bees-with-color/bee-A2SF.svg","response":1,"trial_type":"image-button-response","trial_index":31,"time_elapsed":524701,"internal_node_id":"0.0-4.0-0.12","subject_id":"611ac753847f7604fca79eec","study_id":"60edd13110225f80f9f3709b","session_id":"6196bd8862849c877328f226","condition":"contingent","relevant_dimensions":["antennae","wings"],"bee_group":{"antennae":"A","wings":"1","pattern":"X","legs":"X"},"action":"avoid","summary":"bad-avoid","bonus":0.7800000000000005},{"rt":859.9000000953674,"stimulus":"\n                    <p><b>Action: <em>avoid</em></b></p>\n                    <p>This is the bee that you just saw.</p>\n                    <img src=\"bees-with-color/bee-A2SF.svg\" width=\"200\">\n                    <p><br>Your bonus pay is unchanged, and remains at $0.50.</p>\n            ","response":0,"trial_type":"html-button-response","trial_index":32,"time_elapsed":525565,"internal_node_id":"0.0-4.0-1.12","subject_id":"611ac753847f7604fca79eec","study_id":"60edd13110225f80f9f3709b","session_id":"6196bd8862849c877328f226","condition":"contingent","relevant_dimensions":["antennae","wings"],"bee_group":{"antennae":"A","wings":"1","pattern":"X","legs":"X"},"bonus":0.7800000000000005},{"rt":909.2999999523163,"stimulus":"bees-with-color/bee-A1SF.svg","response":1,"trial_type":"image-button-response","trial_index":33,"time_elapsed":526478,"internal_node_id":"0.0-4.0-0.13","subject_id":"611ac753847f7604fca79eec","study_id":"60edd13110225f80f9f3709b","session_id":"6196bd8862849c877328f226","condition":"contingent","relevant_dimensions":["antennae","wings"],"bee_group":{"antennae":"A","wings":"1","pattern":"X","legs":"X"},"action":"avoid","summary":"good-avoid","bonus":0.7800000000000005},{"rt":876.1000001430511,"stimulus":"\n                    <p><b>Action: <em>avoid</em></b></p>\n                    <p>This is the bee that you just saw.</p>\n                    <img src=\"bees-with-color/bee-A1SF.svg\" width=\"200\">\n                    <p><br>Your bonus pay is unchanged, and remains at $0.50.</p>\n            ","response":0,"trial_type":"html-button-response","trial_index":34,"time_elapsed":527357,"internal_node_id":"0.0-4.0-1.13","subject_id":"611ac753847f7604fca79eec","study_id":"60edd13110225f80f9f3709b","session_id":"6196bd8862849c877328f226","condition":"contingent","relevant_dimensions":["antennae","wings"],"bee_group":{"antennae":"A","wings":"1","pattern":"X","legs":"X"},"bonus":0.7800000000000005},{"rt":959.4000000953674,"stimulus":"bees-with-color/bee-B2SF.svg","response":1,"trial_type":"image-button-response","trial_index":35,"time_elapsed":528320,"internal_node_id":"0.0-4.0-0.14","subject_id":"611ac753847f7604fca79eec","study_id":"60edd13110225f80f9f3709b","session_id":"6196bd8862849c877328f226","condition":"contingent","relevant_dimensions":["antennae","wings"],"bee_group":{"antennae":"A","wings":"1","pattern":"X","legs":"X"},"action":"avoid","summary":"bad-avoid","bonus":0.7800000000000005},{"rt":851.7999999523163,"stimulus":"\n                    <p><b>Action: <em>avoid</em></b></p>\n                    <p>This is the bee that you just saw.</p>\n                    <img src=\"bees-with-color/bee-B2SF.svg\" width=\"200\">\n                    <p><br>Your bonus pay is unchanged, and remains at $0.50.</p>\n            ","response":0,"trial_type":"html-button-response","trial_index":36,"time_elapsed":529175,"internal_node_id":"0.0-4.0-1.14","subject_id":"611ac753847f7604fca79eec","study_id":"60edd13110225f80f9f3709b","session_id":"6196bd8862849c877328f226","condition":"contingent","relevant_dimensions":["antennae","wings"],"bee_group":{"antennae":"A","wings":"1","pattern":"X","legs":"X"},"bonus":0.7800000000000005},{"rt":943.2999999523163,"stimulus":"bees-with-color/bee-B1DF.svg","response":1,"trial_type":"image-button-response","trial_index":37,"time_elapsed":530121,"internal_node_id":"0.0-4.0-0.15","subject_id":"611ac753847f7604fca79eec","study_id":"60edd13110225f80f9f3709b","session_id":"6196bd8862849c877328f226","condition":"contingent","relevant_dimensions":["antennae","wings"],"bee_group":{"antennae":"A","wings":"1","pattern":"X","legs":"X"},"action":"avoid","summary":"bad-avoid","bonus":0.7800000000000005},{"rt":2118.2000000476837,"stimulus":"\n                    <p><b>Action: <em>avoid</em></b></p>\n                    <p>This is the bee that you just saw.</p>\n                    <img src=\"bees-with-color/bee-B1DF.svg\" width=\"200\">\n                    <p><br>Your bonus pay is unchanged, and remains at $0.50.</p>\n            ","response":0,"trial_type":"html-button-response","trial_index":38,"time_elapsed":532242,"internal_node_id":"0.0-4.0-1.15","subject_id":"611ac753847f7604fca79eec","study_id":"60edd13110225f80f9f3709b","session_id":"6196bd8862849c877328f226","condition":"contingent","relevant_dimensions":["antennae","wings"],"bee_group":{"antennae":"A","wings":"1","pattern":"X","legs":"X"},"bonus":0.7800000000000005},{"rt":1231.9000000953674,"stimulus":"bees-with-color/bee-A1SF.svg","response":1,"trial_type":"image-button-response","trial_index":39,"time_elapsed":533477,"internal_node_id":"0.0-4.0-0.16","subject_id":"611ac753847f7604fca79eec","study_id":"60edd13110225f80f9f3709b","session_id":"6196bd8862849c877328f226","condition":"contingent","relevant_dimensions":["antennae","wings"],"bee_group":{"antennae":"A","wings":"1","pattern":"X","legs":"X"},"action":"avoid","summary":"good-avoid","bonus":0.7800000000000005},{"rt":910.4000000953674,"stimulus":"\n                    <p><b>Action: <em>avoid</em></b></p>\n                    <p>This is the bee that you just saw.</p>\n                    <img src=\"bees-with-color/bee-A1SF.svg\" width=\"200\">\n                    <p><br>Your bonus pay is unchanged, and remains at $0.50.</p>\n            ","response":0,"trial_type":"html-button-response","trial_index":40,"time_elapsed":534390,"internal_node_id":"0.0-4.0-1.16","subject_id":"611ac753847f7604fca79eec","study_id":"60edd13110225f80f9f3709b","session_id":"6196bd8862849c877328f226","condition":"contingent","relevant_dimensions":["antennae","wings"],"bee_group":{"antennae":"A","wings":"1","pattern":"X","legs":"X"},"bonus":0.7800000000000005},{"rt":2373.899999856949,"stimulus":"bees-with-color/bee-B2DF.svg","response":0,"trial_type":"image-button-response","trial_index":41,"time_elapsed":536767,"internal_node_id":"0.0-4.0-0.17","subject_id":"611ac753847f7604fca79eec","study_id":"60edd13110225f80f9f3709b","session_id":"6196bd8862849c877328f226","condition":"contingent","relevant_dimensions":["antennae","wings"],"bee_group":{"antennae":"A","wings":"1","pattern":"X","legs":"X"},"action":"harvest","summary":"good-harvest","bonus":0.7800000000000005},{"rt":1221.7000000476837,"stimulus":"\n                    <p><b>Action: <em>harvest</em></b></p>\n                    <p>This is the bee that you just saw.</p>\n                    <img src=\"bees-with-color/bee-B2DF.svg\" width=\"200\">\n                    <p><span class=\"greenText\"><b>Successful harvest!</b></span><br>Your pay has increased by $0.02. Your bonus pay is now $0.52.</p>\n            ","response":0,"trial_type":"html-button-response","trial_index":42,"time_elapsed":537992,"internal_node_id":"0.0-4.0-1.17","subject_id":"611ac753847f7604fca79eec","study_id":"60edd13110225f80f9f3709b","session_id":"6196bd8862849c877328f226","condition":"contingent","relevant_dimensions":["antennae","wings"],"bee_group":{"antennae":"A","wings":"1","pattern":"X","legs":"X"},"bonus":0.7800000000000005},{"rt":992.1000001430511,"stimulus":"bees-with-color/bee-A1DM.svg","response":1,"trial_type":"image-button-response","trial_index":43,"time_elapsed":538988,"internal_node_id":"0.0-4.0-0.18","subject_id":"611ac753847f7604fca79eec","study_id":"60edd13110225f80f9f3709b","session_id":"6196bd8862849c877328f226","condition":"contingent","relevant_dimensions":["antennae","wings"],"bee_group":{"antennae":"A","wings":"1","pattern":"X","legs":"X"},"action":"avoid","summary":"good-avoid","bonus":0.7800000000000005},{"rt":1050.1000001430511,"stimulus":"\n                    <p><b>Action: <em>avoid</em></b></p>\n                    <p>This is the bee that you just saw.</p>\n                    <img src=\"bees-with-color/bee-A1DM.svg\" width=\"200\">\n                    <p><br>Your bonus pay is unchanged, and remains at $0.52.</p>\n            ","response":0,"trial_type":"html-button-response","trial_index":44,"time_elapsed":540041,"internal_node_id":"0.0-4.0-1.18","subject_id":"611ac753847f7604fca79eec","study_id":"60edd13110225f80f9f3709b","session_id":"6196bd8862849c877328f226","condition":"contingent","relevant_dimensions":["antennae","wings"],"bee_group":{"antennae":"A","wings":"1","pattern":"X","legs":"X"},"bonus":0.7800000000000005},{"rt":1953.7000000476837,"stimulus":"bees-with-color/bee-A2DF.svg","response":0,"trial_type":"image-button-response","trial_index":45,"time_elapsed":541997,"internal_node_id":"0.0-4.0-0.19","subject_id":"611ac753847f7604fca79eec","study_id":"60edd13110225f80f9f3709b","session_id":"6196bd8862849c877328f226","condition":"contingent","relevant_dimensions":["antennae","wings"],"bee_group":{"antennae":"A","wings":"1","pattern":"X","legs":"X"},"action":"harvest","summary":"good-harvest","bonus":0.7800000000000005},{"rt":1264.3999998569489,"stimulus":"\n                    <p><b>Action: <em>harvest</em></b></p>\n                    <p>This is the bee that you just saw.</p>\n                    <img src=\"bees-with-color/bee-A2DF.svg\" width=\"200\">\n                    <p><span class=\"greenText\"><b>Successful harvest!</b></span><br>Your pay has increased by $0.02. Your bonus pay is now $0.54.</p>\n            ","response":0,"trial_type":"html-button-response","trial_index":46,"time_elapsed":543265,"internal_node_id":"0.0-4.0-1.19","subject_id":"611ac753847f7604fca79eec","study_id":"60edd13110225f80f9f3709b","session_id":"6196bd8862849c877328f226","condition":"contingent","relevant_dimensions":["antennae","wings"],"bee_group":{"antennae":"A","wings":"1","pattern":"X","legs":"X"},"bonus":0.7800000000000005},{"rt":1946,"stimulus":"bees-with-color/bee-B2DM.svg","response":0,"trial_type":"image-button-response","trial_index":47,"time_elapsed":545215,"internal_node_id":"0.0-4.0-0.20","subject_id":"611ac753847f7604fca79eec","study_id":"60edd13110225f80f9f3709b","session_id":"6196bd8862849c877328f226","condition":"contingent","relevant_dimensions":["antennae","wings"],"bee_group":{"antennae":"A","wings":"1","pattern":"X","legs":"X"},"action":"harvest","summary":"good-harvest","bonus":0.7800000000000005},{"rt":1048.7999999523163,"stimulus":"\n                    <p><b>Action: <em>harvest</em></b></p>\n                    <p>This is the bee that you just saw.</p>\n                    <img src=\"bees-with-color/bee-B2DM.svg\" width=\"200\">\n                    <p><span class=\"greenText\"><b>Successful harvest!</b></span><br>Your pay has increased by $0.02. Your bonus pay is now $0.56.</p>\n            ","response":0,"trial_type":"html-button-response","trial_index":48,"time_elapsed":546267,"internal_node_id":"0.0-4.0-1.20","subject_id":"611ac753847f7604fca79eec","study_id":"60edd13110225f80f9f3709b","session_id":"6196bd8862849c877328f226","condition":"contingent","relevant_dimensions":["antennae","wings"],"bee_group":{"antennae":"A","wings":"1","pattern":"X","legs":"X"},"bonus":0.7800000000000005},{"rt":1930.6000001430511,"stimulus":"bees-with-color/bee-B1SM.svg","response":1,"trial_type":"image-button-response","trial_index":49,"time_elapsed":548201,"internal_node_id":"0.0-4.0-0.21","subject_id":"611ac753847f7604fca79eec","study_id":"60edd13110225f80f9f3709b","session_id":"6196bd8862849c877328f226","condition":"contingent","relevant_dimensions":["antennae","wings"],"bee_group":{"antennae":"A","wings":"1","pattern":"X","legs":"X"},"action":"avoid","summary":"bad-avoid","bonus":0.7800000000000005},{"rt":991.2000000476837,"stimulus":"\n                    <p><b>Action: <em>avoid</em></b></p>\n                    <p>This is the bee that you just saw.</p>\n                    <img src=\"bees-with-color/bee-B1SM.svg\" width=\"200\">\n                    <p><br>Your bonus pay is unchanged, and remains at $0.56.</p>\n            ","response":0,"trial_type":"html-button-response","trial_index":50,"time_elapsed":549195,"internal_node_id":"0.0-4.0-1.21","subject_id":"611ac753847f7604fca79eec","study_id":"60edd13110225f80f9f3709b","session_id":"6196bd8862849c877328f226","condition":"contingent","relevant_dimensions":["antennae","wings"],"bee_group":{"antennae":"A","wings":"1","pattern":"X","legs":"X"},"bonus":0.7800000000000005},{"rt":909.5,"stimulus":"bees-with-color/bee-A2SF.svg","response":1,"trial_type":"image-button-response","trial_index":51,"time_elapsed":550109,"internal_node_id":"0.0-4.0-0.22","subject_id":"611ac753847f7604fca79eec","study_id":"60edd13110225f80f9f3709b","session_id":"6196bd8862849c877328f226","condition":"contingent","relevant_dimensions":["antennae","wings"],"bee_group":{"antennae":"A","wings":"1","pattern":"X","legs":"X"},"action":"avoid","summary":"bad-avoid","bonus":0.7800000000000005},{"rt":867.7999999523163,"stimulus":"\n                    <p><b>Action: <em>avoid</em></b></p>\n                    <p>This is the bee that you just saw.</p>\n                    <img src=\"bees-with-color/bee-A2SF.svg\" width=\"200\">\n                    <p><br>Your bonus pay is unchanged, and remains at $0.56.</p>\n            ","response":0,"trial_type":"html-button-response","trial_index":52,"time_elapsed":550980,"internal_node_id":"0.0-4.0-1.22","subject_id":"611ac753847f7604fca79eec","study_id":"60edd13110225f80f9f3709b","session_id":"6196bd8862849c877328f226","condition":"contingent","relevant_dimensions":["antennae","wings"],"bee_group":{"antennae":"A","wings":"1","pattern":"X","legs":"X"},"bonus":0.7800000000000005},{"rt":2916.600000143051,"stimulus":"bees-with-color/bee-A2DM.svg","response":0,"trial_type":"image-button-response","trial_index":53,"time_elapsed":553900,"internal_node_id":"0.0-4.0-0.23","subject_id":"611ac753847f7604fca79eec","study_id":"60edd13110225f80f9f3709b","session_id":"6196bd8862849c877328f226","condition":"contingent","relevant_dimensions":["antennae","wings"],"bee_group":{"antennae":"A","wings":"1","pattern":"X","legs":"X"},"action":"harvest","summary":"good-harvest","bonus":0.7800000000000005},{"rt":1007.7000000476837,"stimulus":"\n                    <p><b>Action: <em>harvest</em></b></p>\n                    <p>This is the bee that you just saw.</p>\n                    <img src=\"bees-with-color/bee-A2DM.svg\" width=\"200\">\n                    <p><span class=\"greenText\"><b>Successful harvest!</b></span><br>Your pay has increased by $0.02. Your bonus pay is now $0.58.</p>\n            ","response":0,"trial_type":"html-button-response","trial_index":54,"time_elapsed":554912,"internal_node_id":"0.0-4.0-1.23","subject_id":"611ac753847f7604fca79eec","study_id":"60edd13110225f80f9f3709b","session_id":"6196bd8862849c877328f226","condition":"contingent","relevant_dimensions":["antennae","wings"],"bee_group":{"antennae":"A","wings":"1","pattern":"X","legs":"X"},"bonus":0.7800000000000005},{"rt":934.2000000476837,"stimulus":"bees-with-color/bee-A1SM.svg","response":1,"trial_type":"image-button-response","trial_index":55,"time_elapsed":555850,"internal_node_id":"0.0-4.0-0.24","subject_id":"611ac753847f7604fca79eec","study_id":"60edd13110225f80f9f3709b","session_id":"6196bd8862849c877328f226","condition":"contingent","relevant_dimensions":["antennae","wings"],"bee_group":{"antennae":"A","wings":"1","pattern":"X","legs":"X"},"action":"avoid","summary":"good-avoid","bonus":0.7800000000000005},{"rt":851.5,"stimulus":"\n                    <p><b>Action: <em>avoid</em></b></p>\n                    <p>This is the bee that you just saw.</p>\n                    <img src=\"bees-with-color/bee-A1SM.svg\" width=\"200\">\n                    <p><br>Your bonus pay is unchanged, and remains at $0.58.</p>\n            ","response":0,"trial_type":"html-button-response","trial_index":56,"time_elapsed":556705,"internal_node_id":"0.0-4.0-1.24","subject_id":"611ac753847f7604fca79eec","study_id":"60edd13110225f80f9f3709b","session_id":"6196bd8862849c877328f226","condition":"contingent","relevant_dimensions":["antennae","wings"],"bee_group":{"antennae":"A","wings":"1","pattern":"X","legs":"X"},"bonus":0.7800000000000005},{"rt":1649.5,"stimulus":"bees-with-color/bee-A1DF.svg","response":0,"trial_type":"image-button-response","trial_index":57,"time_elapsed":558358,"internal_node_id":"0.0-4.0-0.25","subject_id":"611ac753847f7604fca79eec","study_id":"60edd13110225f80f9f3709b","session_id":"6196bd8862849c877328f226","condition":"contingent","relevant_dimensions":["antennae","wings"],"bee_group":{"antennae":"A","wings":"1","pattern":"X","legs":"X"},"action":"harvest","summary":"bad-harvest","bonus":0.7800000000000005},{"rt":1674.2999999523163,"stimulus":"\n                    <p><b>Action: <em>harvest</em></b></p>\n                    <p>This is the bee that you just saw.</p>\n                    <img src=\"bees-with-color/bee-A1DF.svg\" width=\"200\">\n                    <p><span class=\"redText\">Bad choice, the bee was angry.</span><br><b>You have been stung!</b><br>Your pay has been decreased by $0.10. Your bonus pay is now $0.48.</p>\n            ","response":0,"trial_type":"html-button-response","trial_index":58,"time_elapsed":560037,"internal_node_id":"0.0-4.0-1.25","subject_id":"611ac753847f7604fca79eec","study_id":"60edd13110225f80f9f3709b","session_id":"6196bd8862849c877328f226","condition":"contingent","relevant_dimensions":["antennae","wings"],"bee_group":{"antennae":"A","wings":"1","pattern":"X","legs":"X"},"bonus":0.7800000000000005},{"rt":819.2999999523163,"stimulus":"bees-with-color/bee-B1DF.svg","response":1,"trial_type":"image-button-response","trial_index":59,"time_elapsed":560861,"internal_node_id":"0.0-4.0-0.26","subject_id":"611ac753847f7604fca79eec","study_id":"60edd13110225f80f9f3709b","session_id":"6196bd8862849c877328f226","condition":"contingent","relevant_dimensions":["antennae","wings"],"bee_group":{"antennae":"A","wings":"1","pattern":"X","legs":"X"},"action":"avoid","summary":"bad-avoid","bonus":0.7800000000000005},{"rt":1096.7999999523163,"stimulus":"\n                    <p><b>Action: <em>avoid</em></b></p>\n                    <p>This is the bee that you just saw.</p>\n                    <img src=\"bees-with-color/bee-B1DF.svg\" width=\"200\">\n                    <p><br>Your bonus pay is unchanged, and remains at $0.48.</p>\n            ","response":0,"trial_type":"html-button-response","trial_index":60,"time_elapsed":561963,"internal_node_id":"0.0-4.0-1.26","subject_id":"611ac753847f7604fca79eec","study_id":"60edd13110225f80f9f3709b","session_id":"6196bd8862849c877328f226","condition":"contingent","relevant_dimensions":["antennae","wings"],"bee_group":{"antennae":"A","wings":"1","pattern":"X","legs":"X"},"bonus":0.7800000000000005},{"rt":775.5,"stimulus":"bees-with-color/bee-B2SM.svg","response":1,"trial_type":"image-button-response","trial_index":61,"time_elapsed":562743,"internal_node_id":"0.0-4.0-0.27","subject_id":"611ac753847f7604fca79eec","study_id":"60edd13110225f80f9f3709b","session_id":"6196bd8862849c877328f226","condition":"contingent","relevant_dimensions":["antennae","wings"],"bee_group":{"antennae":"A","wings":"1","pattern":"X","legs":"X"},"action":"avoid","summary":"bad-avoid","bonus":0.7800000000000005},{"rt":1049.3999998569489,"stimulus":"\n                    <p><b>Action: <em>avoid</em></b></p>\n                    <p>This is the bee that you just saw.</p>\n                    <img src=\"bees-with-color/bee-B2SM.svg\" width=\"200\">\n                    <p><br>Your bonus pay is unchanged, and remains at $0.48.</p>\n            ","response":0,"trial_type":"html-button-response","trial_index":62,"time_elapsed":563796,"internal_node_id":"0.0-4.0-1.27","subject_id":"611ac753847f7604fca79eec","study_id":"60edd13110225f80f9f3709b","session_id":"6196bd8862849c877328f226","condition":"contingent","relevant_dimensions":["antennae","wings"],"bee_group":{"antennae":"A","wings":"1","pattern":"X","legs":"X"},"bonus":0.7800000000000005},{"rt":876.7000000476837,"stimulus":"bees-with-color/bee-B1SF.svg","response":1,"trial_type":"image-button-response","trial_index":63,"time_elapsed":564676,"internal_node_id":"0.0-4.0-0.28","subject_id":"611ac753847f7604fca79eec","study_id":"60edd13110225f80f9f3709b","session_id":"6196bd8862849c877328f226","condition":"contingent","relevant_dimensions":["antennae","wings"],"bee_group":{"antennae":"A","wings":"1","pattern":"X","legs":"X"},"action":"avoid","summary":"bad-avoid","bonus":0.7800000000000005},{"rt":1245.7999999523163,"stimulus":"\n                    <p><b>Action: <em>avoid</em></b></p>\n                    <p>This is the bee that you just saw.</p>\n                    <img src=\"bees-with-color/bee-B1SF.svg\" width=\"200\">\n                    <p><br>Your bonus pay is unchanged, and remains at $0.48.</p>\n            ","response":0,"trial_type":"html-button-response","trial_index":64,"time_elapsed":565926,"internal_node_id":"0.0-4.0-1.28","subject_id":"611ac753847f7604fca79eec","study_id":"60edd13110225f80f9f3709b","session_id":"6196bd8862849c877328f226","condition":"contingent","relevant_dimensions":["antennae","wings"],"bee_group":{"antennae":"A","wings":"1","pattern":"X","legs":"X"},"bonus":0.7800000000000005},{"rt":1032.6999998092651,"stimulus":"bees-with-color/bee-B2SF.svg","response":1,"trial_type":"image-button-response","trial_index":65,"time_elapsed":566963,"internal_node_id":"0.0-4.0-0.29","subject_id":"611ac753847f7604fca79eec","study_id":"60edd13110225f80f9f3709b","session_id":"6196bd8862849c877328f226","condition":"contingent","relevant_dimensions":["antennae","wings"],"bee_group":{"antennae":"A","wings":"1","pattern":"X","legs":"X"},"action":"avoid","summary":"bad-avoid","bonus":0.7800000000000005},{"rt":974.2999999523163,"stimulus":"\n                    <p><b>Action: <em>avoid</em></b></p>\n                    <p>This is the bee that you just saw.</p>\n                    <img src=\"bees-with-color/bee-B2SF.svg\" width=\"200\">\n                    <p><br>Your bonus pay is unchanged, and remains at $0.48.</p>\n            ","response":0,"trial_type":"html-button-response","trial_index":66,"time_elapsed":567941,"internal_node_id":"0.0-4.0-1.29","subject_id":"611ac753847f7604fca79eec","study_id":"60edd13110225f80f9f3709b","session_id":"6196bd8862849c877328f226","condition":"contingent","relevant_dimensions":["antennae","wings"],"bee_group":{"antennae":"A","wings":"1","pattern":"X","legs":"X"},"bonus":0.7800000000000005},{"rt":1905.5,"stimulus":"bees-with-color/bee-B1DM.svg","response":0,"trial_type":"image-button-response","trial_index":67,"time_elapsed":569850,"internal_node_id":"0.0-4.0-0.30","subject_id":"611ac753847f7604fca79eec","study_id":"60edd13110225f80f9f3709b","session_id":"6196bd8862849c877328f226","condition":"contingent","relevant_dimensions":["antennae","wings"],"bee_group":{"antennae":"A","wings":"1","pattern":"X","legs":"X"},"action":"harvest","summary":"good-harvest","bonus":0.7800000000000005},{"rt":1772.2000000476837,"stimulus":"\n                    <p><b>Action: <em>harvest</em></b></p>\n                    <p>This is the bee that you just saw.</p>\n                    <img src=\"bees-with-color/bee-B1DM.svg\" width=\"200\">\n                    <p><span class=\"greenText\"><b>Successful harvest!</b></span><br>Your pay has increased by $0.02. Your bonus pay is now $0.50.</p>\n            ","response":0,"trial_type":"html-button-response","trial_index":68,"time_elapsed":571626,"internal_node_id":"0.0-4.0-1.30","subject_id":"611ac753847f7604fca79eec","study_id":"60edd13110225f80f9f3709b","session_id":"6196bd8862849c877328f226","condition":"contingent","relevant_dimensions":["antennae","wings"],"bee_group":{"antennae":"A","wings":"1","pattern":"X","legs":"X"},"bonus":0.7800000000000005},{"rt":934.2999999523163,"stimulus":"bees-with-color/bee-A2SM.svg","response":1,"trial_type":"image-button-response","trial_index":69,"time_elapsed":572563,"internal_node_id":"0.0-4.0-0.31","subject_id":"611ac753847f7604fca79eec","study_id":"60edd13110225f80f9f3709b","session_id":"6196bd8862849c877328f226","condition":"contingent","relevant_dimensions":["antennae","wings"],"bee_group":{"antennae":"A","wings":"1","pattern":"X","legs":"X"},"action":"avoid","summary":"bad-avoid","bonus":0.7800000000000005},{"rt":860.4000000953674,"stimulus":"\n                    <p><b>Action: <em>avoid</em></b></p>\n                    <p>This is the bee that you just saw.</p>\n                    <img src=\"bees-with-color/bee-A2SM.svg\" width=\"200\">\n                    <p><br>Your bonus pay is unchanged, and remains at $0.50.</p>\n            ","response":0,"trial_type":"html-button-response","trial_index":70,"time_elapsed":573427,"internal_node_id":"0.0-4.0-1.31","subject_id":"611ac753847f7604fca79eec","study_id":"60edd13110225f80f9f3709b","session_id":"6196bd8862849c877328f226","condition":"contingent","relevant_dimensions":["antennae","wings"],"bee_group":{"antennae":"A","wings":"1","pattern":"X","legs":"X"},"bonus":0.7800000000000005},{"rt":1830.7999999523163,"stimulus":"bees-with-color/bee-B1DF.svg","response":0,"trial_type":"image-button-response","trial_index":71,"time_elapsed":575260,"internal_node_id":"0.0-4.0-0.32","subject_id":"611ac753847f7604fca79eec","study_id":"60edd13110225f80f9f3709b","session_id":"6196bd8862849c877328f226","condition":"contingent","relevant_dimensions":["antennae","wings"],"bee_group":{"antennae":"A","wings":"1","pattern":"X","legs":"X"},"action":"harvest","summary":"good-harvest","bonus":0.7800000000000005},{"rt":1124.5999999046326,"stimulus":"\n                    <p><b>Action: <em>harvest</em></b></p>\n                    <p>This is the bee that you just saw.</p>\n                    <img src=\"bees-with-color/bee-B1DF.svg\" width=\"200\">\n                    <p><span class=\"greenText\"><b>Successful harvest!</b></span><br>Your pay has increased by $0.02. Your bonus pay is now $0.52.</p>\n            ","response":0,"trial_type":"html-button-response","trial_index":72,"time_elapsed":576388,"internal_node_id":"0.0-4.0-1.32","subject_id":"611ac753847f7604fca79eec","study_id":"60edd13110225f80f9f3709b","session_id":"6196bd8862849c877328f226","condition":"contingent","relevant_dimensions":["antennae","wings"],"bee_group":{"antennae":"A","wings":"1","pattern":"X","legs":"X"},"bonus":0.7800000000000005},{"rt":3772.5999999046326,"stimulus":"bees-with-color/bee-B2DM.svg","response":1,"trial_type":"image-button-response","trial_index":73,"time_elapsed":580164,"internal_node_id":"0.0-4.0-0.33","subject_id":"611ac753847f7604fca79eec","study_id":"60edd13110225f80f9f3709b","session_id":"6196bd8862849c877328f226","condition":"contingent","relevant_dimensions":["antennae","wings"],"bee_group":{"antennae":"A","wings":"1","pattern":"X","legs":"X"},"action":"avoid","summary":"bad-avoid","bonus":0.7800000000000005},{"rt":836,"stimulus":"\n                    <p><b>Action: <em>avoid</em></b></p>\n                    <p>This is the bee that you just saw.</p>\n                    <img src=\"bees-with-color/bee-B2DM.svg\" width=\"200\">\n                    <p><br>Your bonus pay is unchanged, and remains at $0.52.</p>\n            ","response":0,"trial_type":"html-button-response","trial_index":74,"time_elapsed":581003,"internal_node_id":"0.0-4.0-1.33","subject_id":"611ac753847f7604fca79eec","study_id":"60edd13110225f80f9f3709b","session_id":"6196bd8862849c877328f226","condition":"contingent","relevant_dimensions":["antennae","wings"],"bee_group":{"antennae":"A","wings":"1","pattern":"X","legs":"X"},"bonus":0.7800000000000005},{"rt":1336.5,"stimulus":"bees-with-color/bee-B2SF.svg","response":1,"trial_type":"image-button-response","trial_index":75,"time_elapsed":582342,"internal_node_id":"0.0-4.0-0.34","subject_id":"611ac753847f7604fca79eec","study_id":"60edd13110225f80f9f3709b","session_id":"6196bd8862849c877328f226","condition":"contingent","relevant_dimensions":["antennae","wings"],"bee_group":{"antennae":"A","wings":"1","pattern":"X","legs":"X"},"action":"avoid","summary":"bad-avoid","bonus":0.7800000000000005},{"rt":960.5,"stimulus":"\n                    <p><b>Action: <em>avoid</em></b></p>\n                    <p>This is the bee that you just saw.</p>\n                    <img src=\"bees-with-color/bee-B2SF.svg\" width=\"200\">\n                    <p><br>Your bonus pay is unchanged, and remains at $0.52.</p>\n            ","response":0,"trial_type":"html-button-response","trial_index":76,"time_elapsed":583305,"internal_node_id":"0.0-4.0-1.34","subject_id":"611ac753847f7604fca79eec","study_id":"60edd13110225f80f9f3709b","session_id":"6196bd8862849c877328f226","condition":"contingent","relevant_dimensions":["antennae","wings"],"bee_group":{"antennae":"A","wings":"1","pattern":"X","legs":"X"},"bonus":0.7800000000000005},{"rt":1460.7999999523163,"stimulus":"bees-with-color/bee-A2SF.svg","response":1,"trial_type":"image-button-response","trial_index":77,"time_elapsed":584769,"internal_node_id":"0.0-4.0-0.35","subject_id":"611ac753847f7604fca79eec","study_id":"60edd13110225f80f9f3709b","session_id":"6196bd8862849c877328f226","condition":"contingent","relevant_dimensions":["antennae","wings"],"bee_group":{"antennae":"A","wings":"1","pattern":"X","legs":"X"},"action":"avoid","summary":"bad-avoid","bonus":0.7800000000000005},{"rt":1016.8999998569489,"stimulus":"\n                    <p><b>Action: <em>avoid</em></b></p>\n                    <p>This is the bee that you just saw.</p>\n                    <img src=\"bees-with-color/bee-A2SF.svg\" width=\"200\">\n                    <p><br>Your bonus pay is unchanged, and remains at $0.52.</p>\n            ","response":0,"trial_type":"html-button-response","trial_index":78,"time_elapsed":585789,"internal_node_id":"0.0-4.0-1.35","subject_id":"611ac753847f7604fca79eec","study_id":"60edd13110225f80f9f3709b","session_id":"6196bd8862849c877328f226","condition":"contingent","relevant_dimensions":["antennae","wings"],"bee_group":{"antennae":"A","wings":"1","pattern":"X","legs":"X"},"bonus":0.7800000000000005},{"rt":1773.4000000953674,"stimulus":"bees-with-color/bee-A1DF.svg","response":1,"trial_type":"image-button-response","trial_index":79,"time_elapsed":587566,"internal_node_id":"0.0-4.0-0.36","subject_id":"611ac753847f7604fca79eec","study_id":"60edd13110225f80f9f3709b","session_id":"6196bd8862849c877328f226","condition":"contingent","relevant_dimensions":["antennae","wings"],"bee_group":{"antennae":"A","wings":"1","pattern":"X","legs":"X"},"action":"avoid","summary":"good-avoid","bonus":0.7800000000000005},{"rt":909.7999999523163,"stimulus":"\n                    <p><b>Action: <em>avoid</em></b></p>\n                    <p>This is the bee that you just saw.</p>\n                    <img src=\"bees-with-color/bee-A1DF.svg\" width=\"200\">\n                    <p><br>Your bonus pay is unchanged, and remains at $0.52.</p>\n            ","response":0,"trial_type":"html-button-response","trial_index":80,"time_elapsed":588479,"internal_node_id":"0.0-4.0-1.36","subject_id":"611ac753847f7604fca79eec","study_id":"60edd13110225f80f9f3709b","session_id":"6196bd8862849c877328f226","condition":"contingent","relevant_dimensions":["antennae","wings"],"bee_group":{"antennae":"A","wings":"1","pattern":"X","legs":"X"},"bonus":0.7800000000000005},{"rt":1592.2000000476837,"stimulus":"bees-with-color/bee-A1SF.svg","response":1,"trial_type":"image-button-response","trial_index":81,"time_elapsed":590075,"internal_node_id":"0.0-4.0-0.37","subject_id":"611ac753847f7604fca79eec","study_id":"60edd13110225f80f9f3709b","session_id":"6196bd8862849c877328f226","condition":"contingent","relevant_dimensions":["antennae","wings"],"bee_group":{"antennae":"A","wings":"1","pattern":"X","legs":"X"},"action":"avoid","summary":"good-avoid","bonus":0.7800000000000005},{"rt":991.6000001430511,"stimulus":"\n                    <p><b>Action: <em>avoid</em></b></p>\n                    <p>This is the bee that you just saw.</p>\n                    <img src=\"bees-with-color/bee-A1SF.svg\" width=\"200\">\n                    <p><br>Your bonus pay is unchanged, and remains at $0.52.</p>\n            ","response":0,"trial_type":"html-button-response","trial_index":82,"time_elapsed":591069,"internal_node_id":"0.0-4.0-1.37","subject_id":"611ac753847f7604fca79eec","study_id":"60edd13110225f80f9f3709b","session_id":"6196bd8862849c877328f226","condition":"contingent","relevant_dimensions":["antennae","wings"],"bee_group":{"antennae":"A","wings":"1","pattern":"X","legs":"X"},"bonus":0.7800000000000005},{"rt":910.2999999523163,"stimulus":"bees-with-color/bee-B1SM.svg","response":1,"trial_type":"image-button-response","trial_index":83,"time_elapsed":591982,"internal_node_id":"0.0-4.0-0.38","subject_id":"611ac753847f7604fca79eec","study_id":"60edd13110225f80f9f3709b","session_id":"6196bd8862849c877328f226","condition":"contingent","relevant_dimensions":["antennae","wings"],"bee_group":{"antennae":"A","wings":"1","pattern":"X","legs":"X"},"action":"avoid","summary":"bad-avoid","bonus":0.7800000000000005},{"rt":869.0999999046326,"stimulus":"\n                    <p><b>Action: <em>avoid</em></b></p>\n                    <p>This is the bee that you just saw.</p>\n                    <img src=\"bees-with-color/bee-B1SM.svg\" width=\"200\">\n                    <p><br>Your bonus pay is unchanged, and remains at $0.52.</p>\n            ","response":0,"trial_type":"html-button-response","trial_index":84,"time_elapsed":592855,"internal_node_id":"0.0-4.0-1.38","subject_id":"611ac753847f7604fca79eec","study_id":"60edd13110225f80f9f3709b","session_id":"6196bd8862849c877328f226","condition":"contingent","relevant_dimensions":["antennae","wings"],"bee_group":{"antennae":"A","wings":"1","pattern":"X","legs":"X"},"bonus":0.7800000000000005},{"rt":934.5999999046326,"stimulus":"bees-with-color/bee-A2DF.svg","response":1,"trial_type":"image-button-response","trial_index":85,"time_elapsed":593793,"internal_node_id":"0.0-4.0-0.39","subject_id":"611ac753847f7604fca79eec","study_id":"60edd13110225f80f9f3709b","session_id":"6196bd8862849c877328f226","condition":"contingent","relevant_dimensions":["antennae","wings"],"bee_group":{"antennae":"A","wings":"1","pattern":"X","legs":"X"},"action":"avoid","summary":"bad-avoid","bonus":0.7800000000000005},{"rt":1065.5,"stimulus":"\n                    <p><b>Action: <em>avoid</em></b></p>\n                    <p>This is the bee that you just saw.</p>\n                    <img src=\"bees-with-color/bee-A2DF.svg\" width=\"200\">\n                    <p><br>Your bonus pay is unchanged, and remains at $0.52.</p>\n            ","response":0,"trial_type":"html-button-response","trial_index":86,"time_elapsed":594862,"internal_node_id":"0.0-4.0-1.39","subject_id":"611ac753847f7604fca79eec","study_id":"60edd13110225f80f9f3709b","session_id":"6196bd8862849c877328f226","condition":"contingent","relevant_dimensions":["antennae","wings"],"bee_group":{"antennae":"A","wings":"1","pattern":"X","legs":"X"},"bonus":0.7800000000000005},{"rt":786.9000000953674,"stimulus":"bees-with-color/bee-A1SM.svg","response":1,"trial_type":"image-button-response","trial_index":87,"time_elapsed":595652,"internal_node_id":"0.0-4.0-0.40","subject_id":"611ac753847f7604fca79eec","study_id":"60edd13110225f80f9f3709b","session_id":"6196bd8862849c877328f226","condition":"contingent","relevant_dimensions":["antennae","wings"],"bee_group":{"antennae":"A","wings":"1","pattern":"X","legs":"X"},"action":"avoid","summary":"good-avoid","bonus":0.7800000000000005},{"rt":958.7000000476837,"stimulus":"\n                    <p><b>Action: <em>avoid</em></b></p>\n                    <p>This is the bee that you just saw.</p>\n                    <img src=\"bees-with-color/bee-A1SM.svg\" width=\"200\">\n                    <p><br>Your bonus pay is unchanged, and remains at $0.52.</p>\n            ","response":0,"trial_type":"html-button-response","trial_index":88,"time_elapsed":596614,"internal_node_id":"0.0-4.0-1.40","subject_id":"611ac753847f7604fca79eec","study_id":"60edd13110225f80f9f3709b","session_id":"6196bd8862849c877328f226","condition":"contingent","relevant_dimensions":["antennae","wings"],"bee_group":{"antennae":"A","wings":"1","pattern":"X","legs":"X"},"bonus":0.7800000000000005},{"rt":1354.4000000953674,"stimulus":"bees-with-color/bee-B2DF.svg","response":0,"trial_type":"image-button-response","trial_index":89,"time_elapsed":597972,"internal_node_id":"0.0-4.0-0.41","subject_id":"611ac753847f7604fca79eec","study_id":"60edd13110225f80f9f3709b","session_id":"6196bd8862849c877328f226","condition":"contingent","relevant_dimensions":["antennae","wings"],"bee_group":{"antennae":"A","wings":"1","pattern":"X","legs":"X"},"action":"harvest","summary":"good-harvest","bonus":0.7800000000000005},{"rt":874.1999998092651,"stimulus":"\n                    <p><b>Action: <em>harvest</em></b></p>\n                    <p>This is the bee that you just saw.</p>\n                    <img src=\"bees-with-color/bee-B2DF.svg\" width=\"200\">\n                    <p><span class=\"greenText\"><b>Successful harvest!</b></span><br>Your pay has increased by $0.02. Your bonus pay is now $0.54.</p>\n            ","response":0,"trial_type":"html-button-response","trial_index":90,"time_elapsed":598851,"internal_node_id":"0.0-4.0-1.41","subject_id":"611ac753847f7604fca79eec","study_id":"60edd13110225f80f9f3709b","session_id":"6196bd8862849c877328f226","condition":"contingent","relevant_dimensions":["antennae","wings"],"bee_group":{"antennae":"A","wings":"1","pattern":"X","legs":"X"},"bonus":0.7800000000000005},{"rt":2620.5999999046326,"stimulus":"bees-with-color/bee-B1DM.svg","response":0,"trial_type":"image-button-response","trial_index":91,"time_elapsed":601475,"internal_node_id":"0.0-4.0-0.42","subject_id":"611ac753847f7604fca79eec","study_id":"60edd13110225f80f9f3709b","session_id":"6196bd8862849c877328f226","condition":"contingent","relevant_dimensions":["antennae","wings"],"bee_group":{"antennae":"A","wings":"1","pattern":"X","legs":"X"},"action":"harvest","summary":"good-harvest","bonus":0.7800000000000005},{"rt":1509.7999999523163,"stimulus":"\n                    <p><b>Action: <em>harvest</em></b></p>\n                    <p>This is the bee that you just saw.</p>\n                    <img src=\"bees-with-color/bee-B1DM.svg\" width=\"200\">\n                    <p><span class=\"greenText\"><b>Successful harvest!</b></span><br>Your pay has increased by $0.02. Your bonus pay is now $0.56.</p>\n            ","response":0,"trial_type":"html-button-response","trial_index":92,"time_elapsed":602989,"internal_node_id":"0.0-4.0-1.42","subject_id":"611ac753847f7604fca79eec","study_id":"60edd13110225f80f9f3709b","session_id":"6196bd8862849c877328f226","condition":"contingent","relevant_dimensions":["antennae","wings"],"bee_group":{"antennae":"A","wings":"1","pattern":"X","legs":"X"},"bonus":0.7800000000000005},{"rt":1386.2999999523163,"stimulus":"bees-with-color/bee-A2DM.svg","response":1,"trial_type":"image-button-response","trial_index":93,"time_elapsed":604379,"internal_node_id":"0.0-4.0-0.43","subject_id":"611ac753847f7604fca79eec","study_id":"60edd13110225f80f9f3709b","session_id":"6196bd8862849c877328f226","condition":"contingent","relevant_dimensions":["antennae","wings"],"bee_group":{"antennae":"A","wings":"1","pattern":"X","legs":"X"},"action":"avoid","summary":"bad-avoid","bonus":0.7800000000000005},{"rt":1082.1999998092651,"stimulus":"\n                    <p><b>Action: <em>avoid</em></b></p>\n                    <p>This is the bee that you just saw.</p>\n                    <img src=\"bees-with-color/bee-A2DM.svg\" width=\"200\">\n                    <p><br>Your bonus pay is unchanged, and remains at $0.56.</p>\n            ","response":0,"trial_type":"html-button-response","trial_index":94,"time_elapsed":605465,"internal_node_id":"0.0-4.0-1.43","subject_id":"611ac753847f7604fca79eec","study_id":"60edd13110225f80f9f3709b","session_id":"6196bd8862849c877328f226","condition":"contingent","relevant_dimensions":["antennae","wings"],"bee_group":{"antennae":"A","wings":"1","pattern":"X","legs":"X"},"bonus":0.7800000000000005},{"rt":785.4000000953674,"stimulus":"bees-with-color/bee-A1DM.svg","response":1,"trial_type":"image-button-response","trial_index":95,"time_elapsed":606254,"internal_node_id":"0.0-4.0-0.44","subject_id":"611ac753847f7604fca79eec","study_id":"60edd13110225f80f9f3709b","session_id":"6196bd8862849c877328f226","condition":"contingent","relevant_dimensions":["antennae","wings"],"bee_group":{"antennae":"A","wings":"1","pattern":"X","legs":"X"},"action":"avoid","summary":"good-avoid","bonus":0.7800000000000005},{"rt":974.5,"stimulus":"\n                    <p><b>Action: <em>avoid</em></b></p>\n                    <p>This is the bee that you just saw.</p>\n                    <img src=\"bees-with-color/bee-A1DM.svg\" width=\"200\">\n                    <p><br>Your bonus pay is unchanged, and remains at $0.56.</p>\n            ","response":0,"trial_type":"html-button-response","trial_index":96,"time_elapsed":607233,"internal_node_id":"0.0-4.0-1.44","subject_id":"611ac753847f7604fca79eec","study_id":"60edd13110225f80f9f3709b","session_id":"6196bd8862849c877328f226","condition":"contingent","relevant_dimensions":["antennae","wings"],"bee_group":{"antennae":"A","wings":"1","pattern":"X","legs":"X"},"bonus":0.7800000000000005},{"rt":999.3999998569489,"stimulus":"bees-with-color/bee-B2SM.svg","response":1,"trial_type":"image-button-response","trial_index":97,"time_elapsed":608236,"internal_node_id":"0.0-4.0-0.45","subject_id":"611ac753847f7604fca79eec","study_id":"60edd13110225f80f9f3709b","session_id":"6196bd8862849c877328f226","condition":"contingent","relevant_dimensions":["antennae","wings"],"bee_group":{"antennae":"A","wings":"1","pattern":"X","legs":"X"},"action":"avoid","summary":"bad-avoid","bonus":0.7800000000000005},{"rt":1098.2000000476837,"stimulus":"\n                    <p><b>Action: <em>avoid</em></b></p>\n                    <p>This is the bee that you just saw.</p>\n                    <img src=\"bees-with-color/bee-B2SM.svg\" width=\"200\">\n                    <p><br>Your bonus pay is unchanged, and remains at $0.56.</p>\n            ","response":0,"trial_type":"html-button-response","trial_index":98,"time_elapsed":609338,"internal_node_id":"0.0-4.0-1.45","subject_id":"611ac753847f7604fca79eec","study_id":"60edd13110225f80f9f3709b","session_id":"6196bd8862849c877328f226","condition":"contingent","relevant_dimensions":["antennae","wings"],"bee_group":{"antennae":"A","wings":"1","pattern":"X","legs":"X"},"bonus":0.7800000000000005},{"rt":737.2000000476837,"stimulus":"bees-with-color/bee-A2SM.svg","response":1,"trial_type":"image-button-response","trial_index":99,"time_elapsed":610079,"internal_node_id":"0.0-4.0-0.46","subject_id":"611ac753847f7604fca79eec","study_id":"60edd13110225f80f9f3709b","session_id":"6196bd8862849c877328f226","condition":"contingent","relevant_dimensions":["antennae","wings"],"bee_group":{"antennae":"A","wings":"1","pattern":"X","legs":"X"},"action":"avoid","summary":"bad-avoid","bonus":0.7800000000000005},{"rt":1436,"stimulus":"\n                    <p><b>Action: <em>avoid</em></b></p>\n                    <p>This is the bee that you just saw.</p>\n                    <img src=\"bees-with-color/bee-A2SM.svg\" width=\"200\">\n                    <p><br>Your bonus pay is unchanged, and remains at $0.56.</p>\n            ","response":0,"trial_type":"html-button-response","trial_index":100,"time_elapsed":611519,"internal_node_id":"0.0-4.0-1.46","subject_id":"611ac753847f7604fca79eec","study_id":"60edd13110225f80f9f3709b","session_id":"6196bd8862849c877328f226","condition":"contingent","relevant_dimensions":["antennae","wings"],"bee_group":{"antennae":"A","wings":"1","pattern":"X","legs":"X"},"bonus":0.7800000000000005},{"rt":752.1000001430511,"stimulus":"bees-with-color/bee-B1SF.svg","response":1,"trial_type":"image-button-response","trial_index":101,"time_elapsed":612275,"internal_node_id":"0.0-4.0-0.47","subject_id":"611ac753847f7604fca79eec","study_id":"60edd13110225f80f9f3709b","session_id":"6196bd8862849c877328f226","condition":"contingent","relevant_dimensions":["antennae","wings"],"bee_group":{"antennae":"A","wings":"1","pattern":"X","legs":"X"},"action":"avoid","summary":"bad-avoid","bonus":0.7800000000000005},{"rt":1501.7000000476837,"stimulus":"\n                    <p><b>Action: <em>avoid</em></b></p>\n                    <p>This is the bee that you just saw.</p>\n                    <img src=\"bees-with-color/bee-B1SF.svg\" width=\"200\">\n                    <p><br>Your bonus pay is unchanged, and remains at $0.56.</p>\n            ","response":0,"trial_type":"html-button-response","trial_index":102,"time_elapsed":613780,"internal_node_id":"0.0-4.0-1.47","subject_id":"611ac753847f7604fca79eec","study_id":"60edd13110225f80f9f3709b","session_id":"6196bd8862849c877328f226","condition":"contingent","relevant_dimensions":["antennae","wings"],"bee_group":{"antennae":"A","wings":"1","pattern":"X","legs":"X"},"bonus":0.7800000000000005},{"rt":859.7000000476837,"stimulus":"bees-with-color/bee-B1SF.svg","response":1,"trial_type":"image-button-response","trial_index":103,"time_elapsed":614643,"internal_node_id":"0.0-4.0-0.48","subject_id":"611ac753847f7604fca79eec","study_id":"60edd13110225f80f9f3709b","session_id":"6196bd8862849c877328f226","condition":"contingent","relevant_dimensions":["antennae","wings"],"bee_group":{"antennae":"A","wings":"1","pattern":"X","legs":"X"},"action":"avoid","summary":"bad-avoid","bonus":0.7800000000000005},{"rt":1427.3999998569489,"stimulus":"\n                    <p><b>Action: <em>avoid</em></b></p>\n                    <p>This is the bee that you just saw.</p>\n                    <img src=\"bees-with-color/bee-B1SF.svg\" width=\"200\">\n                    <p><br>Your bonus pay is unchanged, and remains at $0.56.</p>\n            ","response":0,"trial_type":"html-button-response","trial_index":104,"time_elapsed":616075,"internal_node_id":"0.0-4.0-1.48","subject_id":"611ac753847f7604fca79eec","study_id":"60edd13110225f80f9f3709b","session_id":"6196bd8862849c877328f226","condition":"contingent","relevant_dimensions":["antennae","wings"],"bee_group":{"antennae":"A","wings":"1","pattern":"X","legs":"X"},"bonus":0.7800000000000005},{"rt":1033,"stimulus":"bees-with-color/bee-A1SM.svg","response":1,"trial_type":"image-button-response","trial_index":105,"time_elapsed":617111,"internal_node_id":"0.0-4.0-0.49","subject_id":"611ac753847f7604fca79eec","study_id":"60edd13110225f80f9f3709b","session_id":"6196bd8862849c877328f226","condition":"contingent","relevant_dimensions":["antennae","wings"],"bee_group":{"antennae":"A","wings":"1","pattern":"X","legs":"X"},"action":"avoid","summary":"good-avoid","bonus":0.7800000000000005},{"rt":777.7000000476837,"stimulus":"\n                    <p><b>Action: <em>avoid</em></b></p>\n                    <p>This is the bee that you just saw.</p>\n                    <img src=\"bees-with-color/bee-A1SM.svg\" width=\"200\">\n                    <p><br>Your bonus pay is unchanged, and remains at $0.56.</p>\n            ","response":0,"trial_type":"html-button-response","trial_index":106,"time_elapsed":617892,"internal_node_id":"0.0-4.0-1.49","subject_id":"611ac753847f7604fca79eec","study_id":"60edd13110225f80f9f3709b","session_id":"6196bd8862849c877328f226","condition":"contingent","relevant_dimensions":["antennae","wings"],"bee_group":{"antennae":"A","wings":"1","pattern":"X","legs":"X"},"bonus":0.7800000000000005},{"rt":1140.9000000953674,"stimulus":"bees-with-color/bee-A2DM.svg","response":1,"trial_type":"image-button-response","trial_index":107,"time_elapsed":619035,"internal_node_id":"0.0-4.0-0.50","subject_id":"611ac753847f7604fca79eec","study_id":"60edd13110225f80f9f3709b","session_id":"6196bd8862849c877328f226","condition":"contingent","relevant_dimensions":["antennae","wings"],"bee_group":{"antennae":"A","wings":"1","pattern":"X","legs":"X"},"action":"avoid","summary":"bad-avoid","bonus":0.7800000000000005},{"rt":852.5,"stimulus":"\n                    <p><b>Action: <em>avoid</em></b></p>\n                    <p>This is the bee that you just saw.</p>\n                    <img src=\"bees-with-color/bee-A2DM.svg\" width=\"200\">\n                    <p><br>Your bonus pay is unchanged, and remains at $0.56.</p>\n            ","response":0,"trial_type":"html-button-response","trial_index":108,"time_elapsed":619891,"internal_node_id":"0.0-4.0-1.50","subject_id":"611ac753847f7604fca79eec","study_id":"60edd13110225f80f9f3709b","session_id":"6196bd8862849c877328f226","condition":"contingent","relevant_dimensions":["antennae","wings"],"bee_group":{"antennae":"A","wings":"1","pattern":"X","legs":"X"},"bonus":0.7800000000000005},{"rt":1123.7999999523163,"stimulus":"bees-with-color/bee-B1SM.svg","response":1,"trial_type":"image-button-response","trial_index":109,"time_elapsed":621018,"internal_node_id":"0.0-4.0-0.51","subject_id":"611ac753847f7604fca79eec","study_id":"60edd13110225f80f9f3709b","session_id":"6196bd8862849c877328f226","condition":"contingent","relevant_dimensions":["antennae","wings"],"bee_group":{"antennae":"A","wings":"1","pattern":"X","legs":"X"},"action":"avoid","summary":"bad-avoid","bonus":0.7800000000000005},{"rt":1140.1999998092651,"stimulus":"\n                    <p><b>Action: <em>avoid</em></b></p>\n                    <p>This is the bee that you just saw.</p>\n                    <img src=\"bees-with-color/bee-B1SM.svg\" width=\"200\">\n                    <p><br>Your bonus pay is unchanged, and remains at $0.56.</p>\n            ","response":0,"trial_type":"html-button-response","trial_index":110,"time_elapsed":622161,"internal_node_id":"0.0-4.0-1.51","subject_id":"611ac753847f7604fca79eec","study_id":"60edd13110225f80f9f3709b","session_id":"6196bd8862849c877328f226","condition":"contingent","relevant_dimensions":["antennae","wings"],"bee_group":{"antennae":"A","wings":"1","pattern":"X","legs":"X"},"bonus":0.7800000000000005},{"rt":943.1000001430511,"stimulus":"bees-with-color/bee-A2DF.svg","response":1,"trial_type":"image-button-response","trial_index":111,"time_elapsed":623107,"internal_node_id":"0.0-4.0-0.52","subject_id":"611ac753847f7604fca79eec","study_id":"60edd13110225f80f9f3709b","session_id":"6196bd8862849c877328f226","condition":"contingent","relevant_dimensions":["antennae","wings"],"bee_group":{"antennae":"A","wings":"1","pattern":"X","legs":"X"},"action":"avoid","summary":"bad-avoid","bonus":0.7800000000000005},{"rt":1049.3999998569489,"stimulus":"\n                    <p><b>Action: <em>avoid</em></b></p>\n                    <p>This is the bee that you just saw.</p>\n                    <img src=\"bees-with-color/bee-A2DF.svg\" width=\"200\">\n                    <p><br>Your bonus pay is unchanged, and remains at $0.56.</p>\n            ","response":0,"trial_type":"html-button-response","trial_index":112,"time_elapsed":624159,"internal_node_id":"0.0-4.0-1.52","subject_id":"611ac753847f7604fca79eec","study_id":"60edd13110225f80f9f3709b","session_id":"6196bd8862849c877328f226","condition":"contingent","relevant_dimensions":["antennae","wings"],"bee_group":{"antennae":"A","wings":"1","pattern":"X","legs":"X"},"bonus":0.7800000000000005},{"rt":984.3000001907349,"stimulus":"bees-with-color/bee-A2SM.svg","response":1,"trial_type":"image-button-response","trial_index":113,"time_elapsed":625147,"internal_node_id":"0.0-4.0-0.53","subject_id":"611ac753847f7604fca79eec","study_id":"60edd13110225f80f9f3709b","session_id":"6196bd8862849c877328f226","condition":"contingent","relevant_dimensions":["antennae","wings"],"bee_group":{"antennae":"A","wings":"1","pattern":"X","legs":"X"},"action":"avoid","summary":"bad-avoid","bonus":0.7800000000000005},{"rt":893.4000000953674,"stimulus":"\n                    <p><b>Action: <em>avoid</em></b></p>\n                    <p>This is the bee that you just saw.</p>\n                    <img src=\"bees-with-color/bee-A2SM.svg\" width=\"200\">\n                    <p><br>Your bonus pay is unchanged, and remains at $0.56.</p>\n            ","response":0,"trial_type":"html-button-response","trial_index":114,"time_elapsed":626043,"internal_node_id":"0.0-4.0-1.53","subject_id":"611ac753847f7604fca79eec","study_id":"60edd13110225f80f9f3709b","session_id":"6196bd8862849c877328f226","condition":"contingent","relevant_dimensions":["antennae","wings"],"bee_group":{"antennae":"A","wings":"1","pattern":"X","legs":"X"},"bonus":0.7800000000000005},{"rt":918.2000000476837,"stimulus":"bees-with-color/bee-A1DF.svg","response":1,"trial_type":"image-button-response","trial_index":115,"time_elapsed":626964,"internal_node_id":"0.0-4.0-0.54","subject_id":"611ac753847f7604fca79eec","study_id":"60edd13110225f80f9f3709b","session_id":"6196bd8862849c877328f226","condition":"contingent","relevant_dimensions":["antennae","wings"],"bee_group":{"antennae":"A","wings":"1","pattern":"X","legs":"X"},"action":"avoid","summary":"good-avoid","bonus":0.7800000000000005},{"rt":819.0999999046326,"stimulus":"\n                    <p><b>Action: <em>avoid</em></b></p>\n                    <p>This is the bee that you just saw.</p>\n                    <img src=\"bees-with-color/bee-A1DF.svg\" width=\"200\">\n                    <p><br>Your bonus pay is unchanged, and remains at $0.56.</p>\n            ","response":0,"trial_type":"html-button-response","trial_index":116,"time_elapsed":627787,"internal_node_id":"0.0-4.0-1.54","subject_id":"611ac753847f7604fca79eec","study_id":"60edd13110225f80f9f3709b","session_id":"6196bd8862849c877328f226","condition":"contingent","relevant_dimensions":["antennae","wings"],"bee_group":{"antennae":"A","wings":"1","pattern":"X","legs":"X"},"bonus":0.7800000000000005},{"rt":1526.8000001907349,"stimulus":"bees-with-color/bee-B1DF.svg","response":0,"trial_type":"image-button-response","trial_index":117,"time_elapsed":629317,"internal_node_id":"0.0-4.0-0.55","subject_id":"611ac753847f7604fca79eec","study_id":"60edd13110225f80f9f3709b","session_id":"6196bd8862849c877328f226","condition":"contingent","relevant_dimensions":["antennae","wings"],"bee_group":{"antennae":"A","wings":"1","pattern":"X","legs":"X"},"action":"harvest","summary":"good-harvest","bonus":0.7800000000000005},{"rt":860.3000001907349,"stimulus":"\n                    <p><b>Action: <em>harvest</em></b></p>\n                    <p>This is the bee that you just saw.</p>\n                    <img src=\"bees-with-color/bee-B1DF.svg\" width=\"200\">\n                    <p><span class=\"greenText\"><b>Successful harvest!</b></span><br>Your pay has increased by $0.02. Your bonus pay is now $0.58.</p>\n            ","response":0,"trial_type":"html-button-response","trial_index":118,"time_elapsed":630180,"internal_node_id":"0.0-4.0-1.55","subject_id":"611ac753847f7604fca79eec","study_id":"60edd13110225f80f9f3709b","session_id":"6196bd8862849c877328f226","condition":"contingent","relevant_dimensions":["antennae","wings"],"bee_group":{"antennae":"A","wings":"1","pattern":"X","legs":"X"},"bonus":0.7800000000000005},{"rt":1626.2000000476837,"stimulus":"bees-with-color/bee-B2DF.svg","response":0,"trial_type":"image-button-response","trial_index":119,"time_elapsed":631810,"internal_node_id":"0.0-4.0-0.56","subject_id":"611ac753847f7604fca79eec","study_id":"60edd13110225f80f9f3709b","session_id":"6196bd8862849c877328f226","condition":"contingent","relevant_dimensions":["antennae","wings"],"bee_group":{"antennae":"A","wings":"1","pattern":"X","legs":"X"},"action":"harvest","summary":"good-harvest","bonus":0.7800000000000005},{"rt":3056.4000000953674,"stimulus":"\n                    <p><b>Action: <em>harvest</em></b></p>\n                    <p>This is the bee that you just saw.</p>\n                    <img src=\"bees-with-color/bee-B2DF.svg\" width=\"200\">\n                    <p><span class=\"greenText\"><b>Successful harvest!</b></span><br>Your pay has increased by $0.02. Your bonus pay is now $0.60.</p>\n            ","response":0,"trial_type":"html-button-response","trial_index":120,"time_elapsed":634870,"internal_node_id":"0.0-4.0-1.56","subject_id":"611ac753847f7604fca79eec","study_id":"60edd13110225f80f9f3709b","session_id":"6196bd8862849c877328f226","condition":"contingent","relevant_dimensions":["antennae","wings"],"bee_group":{"antennae":"A","wings":"1","pattern":"X","legs":"X"},"bonus":0.7800000000000005},{"rt":1574.2999999523163,"stimulus":"bees-with-color/bee-B2SF.svg","response":1,"trial_type":"image-button-response","trial_index":121,"time_elapsed":636448,"internal_node_id":"0.0-4.0-0.57","subject_id":"611ac753847f7604fca79eec","study_id":"60edd13110225f80f9f3709b","session_id":"6196bd8862849c877328f226","condition":"contingent","relevant_dimensions":["antennae","wings"],"bee_group":{"antennae":"A","wings":"1","pattern":"X","legs":"X"},"action":"avoid","summary":"bad-avoid","bonus":0.7800000000000005},{"rt":1049.2999999523163,"stimulus":"\n                    <p><b>Action: <em>avoid</em></b></p>\n                    <p>This is the bee that you just saw.</p>\n                    <img src=\"bees-with-color/bee-B2SF.svg\" width=\"200\">\n                    <p><br>Your bonus pay is unchanged, and remains at $0.60.</p>\n            ","response":0,"trial_type":"html-button-response","trial_index":122,"time_elapsed":637501,"internal_node_id":"0.0-4.0-1.57","subject_id":"611ac753847f7604fca79eec","study_id":"60edd13110225f80f9f3709b","session_id":"6196bd8862849c877328f226","condition":"contingent","relevant_dimensions":["antennae","wings"],"bee_group":{"antennae":"A","wings":"1","pattern":"X","legs":"X"},"bonus":0.7800000000000005},{"rt":942.5,"stimulus":"bees-with-color/bee-A2SF.svg","response":1,"trial_type":"image-button-response","trial_index":123,"time_elapsed":638447,"internal_node_id":"0.0-4.0-0.58","subject_id":"611ac753847f7604fca79eec","study_id":"60edd13110225f80f9f3709b","session_id":"6196bd8862849c877328f226","condition":"contingent","relevant_dimensions":["antennae","wings"],"bee_group":{"antennae":"A","wings":"1","pattern":"X","legs":"X"},"action":"avoid","summary":"bad-avoid","bonus":0.7800000000000005},{"rt":1246.9000000953674,"stimulus":"\n                    <p><b>Action: <em>avoid</em></b></p>\n                    <p>This is the bee that you just saw.</p>\n                    <img src=\"bees-with-color/bee-A2SF.svg\" width=\"200\">\n                    <p><br>Your bonus pay is unchanged, and remains at $0.60.</p>\n            ","response":0,"trial_type":"html-button-response","trial_index":124,"time_elapsed":639697,"internal_node_id":"0.0-4.0-1.58","subject_id":"611ac753847f7604fca79eec","study_id":"60edd13110225f80f9f3709b","session_id":"6196bd8862849c877328f226","condition":"contingent","relevant_dimensions":["antennae","wings"],"bee_group":{"antennae":"A","wings":"1","pattern":"X","legs":"X"},"bonus":0.7800000000000005},{"rt":1213.9000000953674,"stimulus":"bees-with-color/bee-A1DM.svg","response":1,"trial_type":"image-button-response","trial_index":125,"time_elapsed":640914,"internal_node_id":"0.0-4.0-0.59","subject_id":"611ac753847f7604fca79eec","study_id":"60edd13110225f80f9f3709b","session_id":"6196bd8862849c877328f226","condition":"contingent","relevant_dimensions":["antennae","wings"],"bee_group":{"antennae":"A","wings":"1","pattern":"X","legs":"X"},"action":"avoid","summary":"good-avoid","bonus":0.7800000000000005},{"rt":868.5,"stimulus":"\n                    <p><b>Action: <em>avoid</em></b></p>\n                    <p>This is the bee that you just saw.</p>\n                    <img src=\"bees-with-color/bee-A1DM.svg\" width=\"200\">\n                    <p><br>Your bonus pay is unchanged, and remains at $0.60.</p>\n            ","response":0,"trial_type":"html-button-response","trial_index":126,"time_elapsed":641786,"internal_node_id":"0.0-4.0-1.59","subject_id":"611ac753847f7604fca79eec","study_id":"60edd13110225f80f9f3709b","session_id":"6196bd8862849c877328f226","condition":"contingent","relevant_dimensions":["antennae","wings"],"bee_group":{"antennae":"A","wings":"1","pattern":"X","legs":"X"},"bonus":0.7800000000000005},{"rt":1386.7000000476837,"stimulus":"bees-with-color/bee-B2DM.svg","response":0,"trial_type":"image-button-response","trial_index":127,"time_elapsed":643176,"internal_node_id":"0.0-4.0-0.60","subject_id":"611ac753847f7604fca79eec","study_id":"60edd13110225f80f9f3709b","session_id":"6196bd8862849c877328f226","condition":"contingent","relevant_dimensions":["antennae","wings"],"bee_group":{"antennae":"A","wings":"1","pattern":"X","legs":"X"},"action":"harvest","summary":"good-harvest","bonus":0.7800000000000005},{"rt":1304.0999999046326,"stimulus":"\n                    <p><b>Action: <em>harvest</em></b></p>\n                    <p>This is the bee that you just saw.</p>\n                    <img src=\"bees-with-color/bee-B2DM.svg\" width=\"200\">\n                    <p><span class=\"greenText\"><b>Successful harvest!</b></span><br>Your pay has increased by $0.02. Your bonus pay is now $0.62.</p>\n            ","response":0,"trial_type":"html-button-response","trial_index":128,"time_elapsed":644484,"internal_node_id":"0.0-4.0-1.60","subject_id":"611ac753847f7604fca79eec","study_id":"60edd13110225f80f9f3709b","session_id":"6196bd8862849c877328f226","condition":"contingent","relevant_dimensions":["antennae","wings"],"bee_group":{"antennae":"A","wings":"1","pattern":"X","legs":"X"},"bonus":0.7800000000000005},{"rt":1272,"stimulus":"bees-with-color/bee-B2SM.svg","response":1,"trial_type":"image-button-response","trial_index":129,"time_elapsed":645759,"internal_node_id":"0.0-4.0-0.61","subject_id":"611ac753847f7604fca79eec","study_id":"60edd13110225f80f9f3709b","session_id":"6196bd8862849c877328f226","condition":"contingent","relevant_dimensions":["antennae","wings"],"bee_group":{"antennae":"A","wings":"1","pattern":"X","legs":"X"},"action":"avoid","summary":"bad-avoid","bonus":0.7800000000000005},{"rt":834.7000000476837,"stimulus":"\n                    <p><b>Action: <em>avoid</em></b></p>\n                    <p>This is the bee that you just saw.</p>\n                    <img src=\"bees-with-color/bee-B2SM.svg\" width=\"200\">\n                    <p><br>Your bonus pay is unchanged, and remains at $0.62.</p>\n            ","response":0,"trial_type":"html-button-response","trial_index":130,"time_elapsed":646598,"internal_node_id":"0.0-4.0-1.61","subject_id":"611ac753847f7604fca79eec","study_id":"60edd13110225f80f9f3709b","session_id":"6196bd8862849c877328f226","condition":"contingent","relevant_dimensions":["antennae","wings"],"bee_group":{"antennae":"A","wings":"1","pattern":"X","legs":"X"},"bonus":0.7800000000000005},{"rt":876.7000000476837,"stimulus":"bees-with-color/bee-A1SF.svg","response":1,"trial_type":"image-button-response","trial_index":131,"time_elapsed":647478,"internal_node_id":"0.0-4.0-0.62","subject_id":"611ac753847f7604fca79eec","study_id":"60edd13110225f80f9f3709b","session_id":"6196bd8862849c877328f226","condition":"contingent","relevant_dimensions":["antennae","wings"],"bee_group":{"antennae":"A","wings":"1","pattern":"X","legs":"X"},"action":"avoid","summary":"good-avoid","bonus":0.7800000000000005},{"rt":810,"stimulus":"\n                    <p><b>Action: <em>avoid</em></b></p>\n                    <p>This is the bee that you just saw.</p>\n                    <img src=\"bees-with-color/bee-A1SF.svg\" width=\"200\">\n                    <p><br>Your bonus pay is unchanged, and remains at $0.62.</p>\n            ","response":0,"trial_type":"html-button-response","trial_index":132,"time_elapsed":648292,"internal_node_id":"0.0-4.0-1.62","subject_id":"611ac753847f7604fca79eec","study_id":"60edd13110225f80f9f3709b","session_id":"6196bd8862849c877328f226","condition":"contingent","relevant_dimensions":["antennae","wings"],"bee_group":{"antennae":"A","wings":"1","pattern":"X","legs":"X"},"bonus":0.7800000000000005},{"rt":1287.9000000953674,"stimulus":"bees-with-color/bee-B1DM.svg","response":0,"trial_type":"image-button-response","trial_index":133,"time_elapsed":649584,"internal_node_id":"0.0-4.0-0.63","subject_id":"611ac753847f7604fca79eec","study_id":"60edd13110225f80f9f3709b","session_id":"6196bd8862849c877328f226","condition":"contingent","relevant_dimensions":["antennae","wings"],"bee_group":{"antennae":"A","wings":"1","pattern":"X","legs":"X"},"action":"harvest","summary":"good-harvest","bonus":0.7800000000000005},{"rt":835.0999999046326,"stimulus":"\n                    <p><b>Action: <em>harvest</em></b></p>\n                    <p>This is the bee that you just saw.</p>\n                    <img src=\"bees-with-color/bee-B1DM.svg\" width=\"200\">\n                    <p><span class=\"greenText\"><b>Successful harvest!</b></span><br>Your pay has increased by $0.02. Your bonus pay is now $0.64.</p>\n            ","response":0,"trial_type":"html-button-response","trial_index":134,"time_elapsed":650422,"internal_node_id":"0.0-4.0-1.63","subject_id":"611ac753847f7604fca79eec","study_id":"60edd13110225f80f9f3709b","session_id":"6196bd8862849c877328f226","condition":"contingent","relevant_dimensions":["antennae","wings"],"bee_group":{"antennae":"A","wings":"1","pattern":"X","legs":"X"},"bonus":0.7800000000000005},{"rt":9854.900000095367,"stimulus":"You have completed the first part of this experiment.<br><br>You will now begin a shorter second part, in which you will receive no feedback.<br>The same rules regarding bonus pay apply.<br><br>Press any key to begin.","response":",","trial_type":"html-keyboard-response","trial_index":135,"time_elapsed":660280,"internal_node_id":"0.0-5.0","subject_id":"611ac753847f7604fca79eec","study_id":"60edd13110225f80f9f3709b","session_id":"6196bd8862849c877328f226","condition":"contingent","relevant_dimensions":["antennae","wings"],"bee_group":{"antennae":"A","wings":"1","pattern":"X","legs":"X"},"bonus":0.7800000000000005},{"rt":1735,"stimulus":"bees-with-color/bee-A1SF.svg","response":1,"trial_type":"image-button-response","trial_index":136,"time_elapsed":662028,"internal_node_id":"0.0-6.0-0.0","subject_id":"611ac753847f7604fca79eec","study_id":"60edd13110225f80f9f3709b","session_id":"6196bd8862849c877328f226","condition":"contingent","relevant_dimensions":["antennae","wings"],"bee_group":{"antennae":"A","wings":"1","pattern":"X","legs":"X"},"bonus":0.7800000000000005},{"rt":1278.5999999046326,"stimulus":"bees-with-color/bee-B1DF.svg","response":0,"trial_type":"image-button-response","trial_index":137,"time_elapsed":663311,"internal_node_id":"0.0-6.0-0.1","subject_id":"611ac753847f7604fca79eec","study_id":"60edd13110225f80f9f3709b","session_id":"6196bd8862849c877328f226","condition":"contingent","relevant_dimensions":["antennae","wings"],"bee_group":{"antennae":"A","wings":"1","pattern":"X","legs":"X"},"bonus":0.7800000000000005},{"rt":1425.9000000953674,"stimulus":"bees-with-color/bee-B1DM.svg","response":0,"trial_type":"image-button-response","trial_index":138,"time_elapsed":664742,"internal_node_id":"0.0-6.0-0.2","subject_id":"611ac753847f7604fca79eec","study_id":"60edd13110225f80f9f3709b","session_id":"6196bd8862849c877328f226","condition":"contingent","relevant_dimensions":["antennae","wings"],"bee_group":{"antennae":"A","wings":"1","pattern":"X","legs":"X"},"bonus":0.7800000000000005},{"rt":1944.9000000953674,"stimulus":"bees-with-color/bee-B2DF.svg","response":0,"trial_type":"image-button-response","trial_index":139,"time_elapsed":666692,"internal_node_id":"0.0-6.0-0.3","subject_id":"611ac753847f7604fca79eec","study_id":"60edd13110225f80f9f3709b","session_id":"6196bd8862849c877328f226","condition":"contingent","relevant_dimensions":["antennae","wings"],"bee_group":{"antennae":"A","wings":"1","pattern":"X","legs":"X"},"bonus":0.7800000000000005},{"rt":1385,"stimulus":"bees-with-color/bee-A1DM.svg","response":1,"trial_type":"image-button-response","trial_index":140,"time_elapsed":668082,"internal_node_id":"0.0-6.0-0.4","subject_id":"611ac753847f7604fca79eec","study_id":"60edd13110225f80f9f3709b","session_id":"6196bd8862849c877328f226","condition":"contingent","relevant_dimensions":["antennae","wings"],"bee_group":{"antennae":"A","wings":"1","pattern":"X","legs":"X"},"bonus":0.7800000000000005},{"rt":1582.2000000476837,"stimulus":"bees-with-color/bee-A2DF.svg","response":1,"trial_type":"image-button-response","trial_index":141,"time_elapsed":669669,"internal_node_id":"0.0-6.0-0.5","subject_id":"611ac753847f7604fca79eec","study_id":"60edd13110225f80f9f3709b","session_id":"6196bd8862849c877328f226","condition":"contingent","relevant_dimensions":["antennae","wings"],"bee_group":{"antennae":"A","wings":"1","pattern":"X","legs":"X"},"bonus":0.7800000000000005},{"rt":661.8999998569489,"stimulus":"bees-with-color/bee-A2DM.svg","response":1,"trial_type":"image-button-response","trial_index":142,"time_elapsed":670336,"internal_node_id":"0.0-6.0-0.6","subject_id":"611ac753847f7604fca79eec","study_id":"60edd13110225f80f9f3709b","session_id":"6196bd8862849c877328f226","condition":"contingent","relevant_dimensions":["antennae","wings"],"bee_group":{"antennae":"A","wings":"1","pattern":"X","legs":"X"},"bonus":0.7800000000000005},{"rt":1097.2999999523163,"stimulus":"bees-with-color/bee-B2SF.svg","response":1,"trial_type":"image-button-response","trial_index":143,"time_elapsed":671439,"internal_node_id":"0.0-6.0-0.7","subject_id":"611ac753847f7604fca79eec","study_id":"60edd13110225f80f9f3709b","session_id":"6196bd8862849c877328f226","condition":"contingent","relevant_dimensions":["antennae","wings"],"bee_group":{"antennae":"A","wings":"1","pattern":"X","legs":"X"},"bonus":0.7800000000000005},{"rt":652.5999999046326,"stimulus":"bees-with-color/bee-A2SM.svg","response":1,"trial_type":"image-button-response","trial_index":144,"time_elapsed":672096,"internal_node_id":"0.0-6.0-0.8","subject_id":"611ac753847f7604fca79eec","study_id":"60edd13110225f80f9f3709b","session_id":"6196bd8862849c877328f226","condition":"contingent","relevant_dimensions":["antennae","wings"],"bee_group":{"antennae":"A","wings":"1","pattern":"X","legs":"X"},"bonus":0.7800000000000005},{"rt":1063.9000000953674,"stimulus":"bees-with-color/bee-B1SM.svg","response":1,"trial_type":"image-button-response","trial_index":145,"time_elapsed":673165,"internal_node_id":"0.0-6.0-0.9","subject_id":"611ac753847f7604fca79eec","study_id":"60edd13110225f80f9f3709b","session_id":"6196bd8862849c877328f226","condition":"contingent","relevant_dimensions":["antennae","wings"],"bee_group":{"antennae":"A","wings":"1","pattern":"X","legs":"X"},"bonus":0.7800000000000005},{"rt":727.9000000953674,"stimulus":"bees-with-color/bee-A2SF.svg","response":1,"trial_type":"image-button-response","trial_index":146,"time_elapsed":673897,"internal_node_id":"0.0-6.0-0.10","subject_id":"611ac753847f7604fca79eec","study_id":"60edd13110225f80f9f3709b","session_id":"6196bd8862849c877328f226","condition":"contingent","relevant_dimensions":["antennae","wings"],"bee_group":{"antennae":"A","wings":"1","pattern":"X","legs":"X"},"bonus":0.7800000000000005},{"rt":1007,"stimulus":"bees-with-color/bee-B1SF.svg","response":1,"trial_type":"image-button-response","trial_index":147,"time_elapsed":674908,"internal_node_id":"0.0-6.0-0.11","subject_id":"611ac753847f7604fca79eec","study_id":"60edd13110225f80f9f3709b","session_id":"6196bd8862849c877328f226","condition":"contingent","relevant_dimensions":["antennae","wings"],"bee_group":{"antennae":"A","wings":"1","pattern":"X","legs":"X"},"bonus":0.7800000000000005},{"rt":892.9000000953674,"stimulus":"bees-with-color/bee-A1DF.svg","response":1,"trial_type":"image-button-response","trial_index":148,"time_elapsed":675804,"internal_node_id":"0.0-6.0-0.12","subject_id":"611ac753847f7604fca79eec","study_id":"60edd13110225f80f9f3709b","session_id":"6196bd8862849c877328f226","condition":"contingent","relevant_dimensions":["antennae","wings"],"bee_group":{"antennae":"A","wings":"1","pattern":"X","legs":"X"},"bonus":0.7800000000000005},{"rt":653.9000000953674,"stimulus":"bees-with-color/bee-B2SM.svg","response":1,"trial_type":"image-button-response","trial_index":149,"time_elapsed":676462,"internal_node_id":"0.0-6.0-0.13","subject_id":"611ac753847f7604fca79eec","study_id":"60edd13110225f80f9f3709b","session_id":"6196bd8862849c877328f226","condition":"contingent","relevant_dimensions":["antennae","wings"],"bee_group":{"antennae":"A","wings":"1","pattern":"X","legs":"X"},"bonus":0.7800000000000005},{"rt":589.2000000476837,"stimulus":"bees-with-color/bee-A1SM.svg","response":1,"trial_type":"image-button-response","trial_index":150,"time_elapsed":677056,"internal_node_id":"0.0-6.0-0.14","subject_id":"611ac753847f7604fca79eec","study_id":"60edd13110225f80f9f3709b","session_id":"6196bd8862849c877328f226","condition":"contingent","relevant_dimensions":["antennae","wings"],"bee_group":{"antennae":"A","wings":"1","pattern":"X","legs":"X"},"bonus":0.7800000000000005},{"rt":1023.7999999523163,"stimulus":"bees-with-color/bee-B2DM.svg","response":1,"trial_type":"image-button-response","trial_index":151,"time_elapsed":678084,"internal_node_id":"0.0-6.0-0.15","subject_id":"611ac753847f7604fca79eec","study_id":"60edd13110225f80f9f3709b","session_id":"6196bd8862849c877328f226","condition":"contingent","relevant_dimensions":["antennae","wings"],"bee_group":{"antennae":"A","wings":"1","pattern":"X","legs":"X"},"bonus":0.7800000000000005},{"rt":654.2000000476837,"stimulus":"bees-with-color/bee-A1DM.svg","response":1,"trial_type":"image-button-response","trial_index":152,"time_elapsed":678742,"internal_node_id":"0.0-6.0-0.16","subject_id":"611ac753847f7604fca79eec","study_id":"60edd13110225f80f9f3709b","session_id":"6196bd8862849c877328f226","condition":"contingent","relevant_dimensions":["antennae","wings"],"bee_group":{"antennae":"A","wings":"1","pattern":"X","legs":"X"},"bonus":0.7800000000000005},{"rt":628.7000000476837,"stimulus":"bees-with-color/bee-A2DM.svg","response":1,"trial_type":"image-button-response","trial_index":153,"time_elapsed":679374,"internal_node_id":"0.0-6.0-0.17","subject_id":"611ac753847f7604fca79eec","study_id":"60edd13110225f80f9f3709b","session_id":"6196bd8862849c877328f226","condition":"contingent","relevant_dimensions":["antennae","wings"],"bee_group":{"antennae":"A","wings":"1","pattern":"X","legs":"X"},"bonus":0.7800000000000005},{"rt":573.2000000476837,"stimulus":"bees-with-color/bee-A2SM.svg","response":1,"trial_type":"image-button-response","trial_index":154,"time_elapsed":679950,"internal_node_id":"0.0-6.0-0.18","subject_id":"611ac753847f7604fca79eec","study_id":"60edd13110225f80f9f3709b","session_id":"6196bd8862849c877328f226","condition":"contingent","relevant_dimensions":["antennae","wings"],"bee_group":{"antennae":"A","wings":"1","pattern":"X","legs":"X"},"bonus":0.7800000000000005},{"rt":1633,"stimulus":"bees-with-color/bee-B1DM.svg","response":0,"trial_type":"image-button-response","trial_index":155,"time_elapsed":681587,"internal_node_id":"0.0-6.0-0.19","subject_id":"611ac753847f7604fca79eec","study_id":"60edd13110225f80f9f3709b","session_id":"6196bd8862849c877328f226","condition":"contingent","relevant_dimensions":["antennae","wings"],"bee_group":{"antennae":"A","wings":"1","pattern":"X","legs":"X"},"bonus":0.7800000000000005},{"rt":1000,"stimulus":"bees-with-color/bee-A1DF.svg","response":1,"trial_type":"image-button-response","trial_index":156,"time_elapsed":682591,"internal_node_id":"0.0-6.0-0.20","subject_id":"611ac753847f7604fca79eec","study_id":"60edd13110225f80f9f3709b","session_id":"6196bd8862849c877328f226","condition":"contingent","relevant_dimensions":["antennae","wings"],"bee_group":{"antennae":"A","wings":"1","pattern":"X","legs":"X"},"bonus":0.7800000000000005},{"rt":736.5,"stimulus":"bees-with-color/bee-A2SF.svg","response":1,"trial_type":"image-button-response","trial_index":157,"time_elapsed":683331,"internal_node_id":"0.0-6.0-0.21","subject_id":"611ac753847f7604fca79eec","study_id":"60edd13110225f80f9f3709b","session_id":"6196bd8862849c877328f226","condition":"contingent","relevant_dimensions":["antennae","wings"],"bee_group":{"antennae":"A","wings":"1","pattern":"X","legs":"X"},"bonus":0.7800000000000005},{"rt":990.4000000953674,"stimulus":"bees-with-color/bee-A2DF.svg","response":1,"trial_type":"image-button-response","trial_index":158,"time_elapsed":684325,"internal_node_id":"0.0-6.0-0.22","subject_id":"611ac753847f7604fca79eec","study_id":"60edd13110225f80f9f3709b","session_id":"6196bd8862849c877328f226","condition":"contingent","relevant_dimensions":["antennae","wings"],"bee_group":{"antennae":"A","wings":"1","pattern":"X","legs":"X"},"bonus":0.7800000000000005},{"rt":1115.4000000953674,"stimulus":"bees-with-color/bee-B2DM.svg","response":0,"trial_type":"image-button-response","trial_index":159,"time_elapsed":685445,"internal_node_id":"0.0-6.0-0.23","subject_id":"611ac753847f7604fca79eec","study_id":"60edd13110225f80f9f3709b","session_id":"6196bd8862849c877328f226","condition":"contingent","relevant_dimensions":["antennae","wings"],"bee_group":{"antennae":"A","wings":"1","pattern":"X","legs":"X"},"bonus":0.7800000000000005},{"rt":867.9000000953674,"stimulus":"bees-with-color/bee-B2SM.svg","response":1,"trial_type":"image-button-response","trial_index":160,"time_elapsed":686316,"internal_node_id":"0.0-6.0-0.24","subject_id":"611ac753847f7604fca79eec","study_id":"60edd13110225f80f9f3709b","session_id":"6196bd8862849c877328f226","condition":"contingent","relevant_dimensions":["antennae","wings"],"bee_group":{"antennae":"A","wings":"1","pattern":"X","legs":"X"},"bonus":0.7800000000000005},{"rt":1147.8999998569489,"stimulus":"bees-with-color/bee-B1DF.svg","response":0,"trial_type":"image-button-response","trial_index":161,"time_elapsed":687468,"internal_node_id":"0.0-6.0-0.25","subject_id":"611ac753847f7604fca79eec","study_id":"60edd13110225f80f9f3709b","session_id":"6196bd8862849c877328f226","condition":"contingent","relevant_dimensions":["antennae","wings"],"bee_group":{"antennae":"A","wings":"1","pattern":"X","legs":"X"},"bonus":0.7800000000000005},{"rt":834.8999998569489,"stimulus":"bees-with-color/bee-B1SF.svg","response":1,"trial_type":"image-button-response","trial_index":162,"time_elapsed":688307,"internal_node_id":"0.0-6.0-0.26","subject_id":"611ac753847f7604fca79eec","study_id":"60edd13110225f80f9f3709b","session_id":"6196bd8862849c877328f226","condition":"contingent","relevant_dimensions":["antennae","wings"],"bee_group":{"antennae":"A","wings":"1","pattern":"X","legs":"X"},"bonus":0.7800000000000005},{"rt":860.2999999523163,"stimulus":"bees-with-color/bee-A1SM.svg","response":1,"trial_type":"image-button-response","trial_index":163,"time_elapsed":689171,"internal_node_id":"0.0-6.0-0.27","subject_id":"611ac753847f7604fca79eec","study_id":"60edd13110225f80f9f3709b","session_id":"6196bd8862849c877328f226","condition":"contingent","relevant_dimensions":["antennae","wings"],"bee_group":{"antennae":"A","wings":"1","pattern":"X","legs":"X"},"bonus":0.7800000000000005},{"rt":1385.5999999046326,"stimulus":"bees-with-color/bee-B2DF.svg","response":0,"trial_type":"image-button-response","trial_index":164,"time_elapsed":690560,"internal_node_id":"0.0-6.0-0.28","subject_id":"611ac753847f7604fca79eec","study_id":"60edd13110225f80f9f3709b","session_id":"6196bd8862849c877328f226","condition":"contingent","relevant_dimensions":["antennae","wings"],"bee_group":{"antennae":"A","wings":"1","pattern":"X","legs":"X"},"bonus":0.7800000000000005},{"rt":720,"stimulus":"bees-with-color/bee-B2SF.svg","response":1,"trial_type":"image-button-response","trial_index":165,"time_elapsed":691284,"internal_node_id":"0.0-6.0-0.29","subject_id":"611ac753847f7604fca79eec","study_id":"60edd13110225f80f9f3709b","session_id":"6196bd8862849c877328f226","condition":"contingent","relevant_dimensions":["antennae","wings"],"bee_group":{"antennae":"A","wings":"1","pattern":"X","legs":"X"},"bonus":0.7800000000000005},{"rt":710.7999999523163,"stimulus":"bees-with-color/bee-A1SF.svg","response":1,"trial_type":"image-button-response","trial_index":166,"time_elapsed":691999,"internal_node_id":"0.0-6.0-0.30","subject_id":"611ac753847f7604fca79eec","study_id":"60edd13110225f80f9f3709b","session_id":"6196bd8862849c877328f226","condition":"contingent","relevant_dimensions":["antennae","wings"],"bee_group":{"antennae":"A