[{"success":true,"trial_type":"fullscreen","trial_index":0,"time_elapsed":42182,"internal_node_id":"0.0-0.0","subject_id":"60fd7be50ef0ad8450c401bc","study_id":"6197b3f67c2b5cd3b6d9596a","session_id":"6197b5f4d3384da1a70c85d3","condition":"contingent","relevant_dimensions":["antennae","pattern"],"bee_group":{"antennae":"B","wings":"X","pattern":"D","legs":"X"},"bonus":1.240000000000001},{"success":true,"timeout":false,"failed_images":[],"failed_audio":[],"failed_video":[],"trial_type":"preload","trial_index":1,"time_elapsed":44337,"internal_node_id":"0.0-1.0","subject_id":"60fd7be50ef0ad8450c401bc","study_id":"6197b3f67c2b5cd3b6d9596a","session_id":"6197b5f4d3384da1a70c85d3","condition":"contingent","relevant_dimensions":["antennae","pattern"],"bee_group":{"antennae":"B","wings":"X","pattern":"D","legs":"X"},"bonus":1.240000000000001},{"rt":22155.299999952316,"stimulus":"Welcome! Press any key to begin.","response":" ","trial_type":"html-keyboard-response","trial_index":2,"time_elapsed":66496,"internal_node_id":"0.0-2.0","subject_id":"60fd7be50ef0ad8450c401bc","study_id":"6197b3f67c2b5cd3b6d9596a","session_id":"6197b5f4d3384da1a70c85d3","condition":"contingent","relevant_dimensions":["antennae","pattern"],"bee_group":{"antennae":"B","wings":"X","pattern":"D","legs":"X"},"bonus":1.240000000000001},{"view_history":[{"page_index":0,"viewing_time":5596.600000023842},{"page_index":1,"viewing_time":16717.80000001192},{"page_index":2,"viewing_time":74128.39999997616},{"page_index":3,"viewing_time":28089.80000001192},{"page_index":4,"viewing_time":4819.899999976158},{"page_index":5,"viewing_time":5891.199999988079},{"page_index":6,"viewing_time":16118.800000011921},{"page_index":7,"viewing_time":6123.699999988079},{"page_index":8,"viewing_time":7930.900000035763},{"page_index":9,"viewing_time":5193.099999964237},{"page_index":10,"viewing_time":3882.300000011921},{"page_index":11,"viewing_time":11242.300000011921},{"page_index":12,"viewing_time":10162.5},{"page_index":13,"viewing_time":1882.699999988079},{"page_index":14,"viewing_time":2214.699999988079}],"rt":199995.69999998808,"trial_type":"instructions","trial_index":3,"time_elapsed":266493,"internal_node_id":"0.0-3.0-0.0","subject_id":"60fd7be50ef0ad8450c401bc","study_id":"6197b3f67c2b5cd3b6d9596a","session_id":"6197b5f4d3384da1a70c85d3","condition":"contingent","relevant_dimensions":["antennae","pattern"],"bee_group":{"antennae":"B","wings":"X","pattern":"D","legs":"X"},"bonus":1.240000000000001},{"rt":25097.5,"response":{"Q0":["Two or six legs","Stripes or spots on body","Single or double wings","Antennae or no antennae"]},"question_order":[0],"trial_type":"survey-multi-select","trial_index":4,"time_elapsed":291608,"internal_node_id":"0.0-3.0-1.0","subject_id":"60fd7be50ef0ad8450c401bc","study_id":"6197b3f67c2b5cd3b6d9596a","session_id":"6197b5f4d3384da1a70c85d3","condition":"contingent","relevant_dimensions":["antennae","pattern"],"bee_group":{"antennae":"B","wings":"X","pattern":"D","legs":"X"},"correct":true,"bonus":1.240000000000001},{"rt":18826.600000023842,"response":{"Q1":"No.","Q2":"Based on the four features of the bee.","Q3":"You do not learn if it was friendly or dangerous, and do not alter your bonus."},"question_order":[0,1,2],"trial_type":"survey-multi-choice","trial_index":5,"time_elapsed":310457,"internal_node_id":"0.0-3.0-2.0","subject_id":"60fd7be50ef0ad8450c401bc","study_id":"6197b3f67c2b5cd3b6d9596a","session_id":"6197b5f4d3384da1a70c85d3","condition":"contingent","relevant_dimensions":["antennae","pattern"],"bee_group":{"antennae":"B","wings":"X","pattern":"D","legs":"X"},"correct":true,"bonus":1.240000000000001},{"rt":2470.399999976158,"stimulus":"<p>Congrats, you got everything right<br>When you're ready, click the button below to continue to the experiment.</p>","response":0,"trial_type":"html-button-response","trial_index":6,"time_elapsed":312943,"internal_node_id":"0.0-3.0-3.0","subject_id":"60fd7be50ef0ad8450c401bc","study_id":"6197b3f67c2b5cd3b6d9596a","session_id":"6197b5f4d3384da1a70c85d3","condition":"contingent","relevant_dimensions":["antennae","pattern"],"bee_group":{"antennae":"B","wings":"X","pattern":"D","legs":"X"},"bonus":1.240000000000001},{"rt":7509.199999988079,"stimulus":"bees-with-color/bee-A2SM.svg","response":0,"trial_type":"image-button-response","trial_index":7,"time_elapsed":320462,"internal_node_id":"0.0-4.0-0.0","subject_id":"60fd7be50ef0ad8450c401bc","study_id":"6197b3f67c2b5cd3b6d9596a","session_id":"6197b5f4d3384da1a70c85d3","condition":"contingent","relevant_dimensions":["antennae","pattern"],"bee_group":{"antennae":"B","wings":"X","pattern":"D","legs":"X"},"action":"harvest","summary":"good-harvest","bonus":1.240000000000001},{"rt":28072.69999998808,"stimulus":"\n                    <p><b>Action: <em>harvest</em></b></p>\n                    <p>This is the bee that you just saw.</p>\n                    <img src=\"bees-with-color/bee-A2SM.svg\" width=\"200\">\n                    <p><span class=\"greenText\"><b>Successful harvest!</b></span><br>Your pay has increased by $0.02. Your bonus pay is now $0.56.</p>\n            ","response":0,"trial_type":"html-button-response","trial_index":8,"time_elapsed":348544,"internal_node_id":"0.0-4.0-1.0","subject_id":"60fd7be50ef0ad8450c401bc","study_id":"6197b3f67c2b5cd3b6d9596a","session_id":"6197b5f4d3384da1a70c85d3","condition":"contingent","relevant_dimensions":["antennae","pattern"],"bee_group":{"antennae":"B","wings":"X","pattern":"D","legs":"X"},"bonus":1.240000000000001},{"rt":8880.300000011921,"stimulus":"bees-with-color/bee-A2DM.svg","response":0,"trial_type":"image-button-response","trial_index":9,"time_elapsed":357432,"internal_node_id":"0.0-4.0-0.1","subject_id":"60fd7be50ef0ad8450c401bc","study_id":"6197b3f67c2b5cd3b6d9596a","session_id":"6197b5f4d3384da1a70c85d3","condition":"contingent","relevant_dimensions":["antennae","pattern"],"bee_group":{"antennae":"B","wings":"X","pattern":"D","legs":"X"},"action":"harvest","summary":"good-harvest","bonus":1.240000000000001},{"rt":13523.800000011921,"stimulus":"\n                    <p><b>Action: <em>harvest</em></b></p>\n                    <p>This is the bee that you just saw.</p>\n                    <img src=\"bees-with-color/bee-A2DM.svg\" width=\"200\">\n                    <p><span class=\"greenText\"><b>Successful harvest!</b></span><br>Your pay has increased by $0.02. Your bonus pay is now $0.58.</p>\n            ","response":0,"trial_type":"html-button-response","trial_index":10,"time_elapsed":370964,"internal_node_id":"0.0-4.0-1.1","subject_id":"60fd7be50ef0ad8450c401bc","study_id":"6197b3f67c2b5cd3b6d9596a","session_id":"6197b5f4d3384da1a70c85d3","condition":"contingent","relevant_dimensions":["antennae","pattern"],"bee_group":{"antennae":"B","wings":"X","pattern":"D","legs":"X"},"bonus":1.240000000000001},{"rt":2451.099999964237,"stimulus":"bees-with-color/bee-A1SF.svg","response":0,"trial_type":"image-button-response","trial_index":11,"time_elapsed":373424,"internal_node_id":"0.0-4.0-0.2","subject_id":"60fd7be50ef0ad8450c401bc","study_id":"6197b3f67c2b5cd3b6d9596a","session_id":"6197b5f4d3384da1a70c85d3","condition":"contingent","relevant_dimensions":["antennae","pattern"],"bee_group":{"antennae":"B","wings":"X","pattern":"D","legs":"X"},"action":"harvest","summary":"good-harvest","bonus":1.240000000000001},{"rt":13249.300000011921,"stimulus":"\n                    <p><b>Action: <em>harvest</em></b></p>\n                    <p>This is the bee that you just saw.</p>\n                    <img src=\"bees-with-color/bee-A1SF.svg\" width=\"200\">\n                    <p><span class=\"greenText\"><b>Successful harvest!</b></span><br>Your pay has increased by $0.02. Your bonus pay is now $0.60.</p>\n            ","response":0,"trial_type":"html-button-response","trial_index":12,"time_elapsed":386678,"internal_node_id":"0.0-4.0-1.2","subject_id":"60fd7be50ef0ad8450c401bc","study_id":"6197b3f67c2b5cd3b6d9596a","session_id":"6197b5f4d3384da1a70c85d3","condition":"contingent","relevant_dimensions":["antennae","pattern"],"bee_group":{"antennae":"B","wings":"X","pattern":"D","legs":"X"},"bonus":1.240000000000001},{"rt":15797.300000011921,"stimulus":"bees-with-color/bee-A2DF.svg","response":0,"trial_type":"image-button-response","trial_index":13,"time_elapsed":402482,"internal_node_id":"0.0-4.0-0.3","subject_id":"60fd7be50ef0ad8450c401bc","study_id":"6197b3f67c2b5cd3b6d9596a","session_id":"6197b5f4d3384da1a70c85d3","condition":"contingent","relevant_dimensions":["antennae","pattern"],"bee_group":{"antennae":"B","wings":"X","pattern":"D","legs":"X"},"action":"harvest","summary":"good-harvest","bonus":1.240000000000001},{"rt":12555.800000011921,"stimulus":"\n                    <p><b>Action: <em>harvest</em></b></p>\n                    <p>This is the bee that you just saw.</p>\n                    <img src=\"bees-with-color/bee-A2DF.svg\" width=\"200\">\n                    <p><span class=\"greenText\"><b>Successful harvest!</b></span><br>Your pay has increased by $0.02. Your bonus pay is now $0.62.</p>\n            ","response":0,"trial_type":"html-button-response","trial_index":14,"time_elapsed":415043,"internal_node_id":"0.0-4.0-1.3","subject_id":"60fd7be50ef0ad8450c401bc","study_id":"6197b3f67c2b5cd3b6d9596a","session_id":"6197b5f4d3384da1a70c85d3","condition":"contingent","relevant_dimensions":["antennae","pattern"],"bee_group":{"antennae":"B","wings":"X","pattern":"D","legs":"X"},"bonus":1.240000000000001},{"rt":10409.199999988079,"stimulus":"bees-with-color/bee-A2SF.svg","response":0,"trial_type":"image-button-response","trial_index":15,"time_elapsed":425459,"internal_node_id":"0.0-4.0-0.4","subject_id":"60fd7be50ef0ad8450c401bc","study_id":"6197b3f67c2b5cd3b6d9596a","session_id":"6197b5f4d3384da1a70c85d3","condition":"contingent","relevant_dimensions":["antennae","pattern"],"bee_group":{"antennae":"B","wings":"X","pattern":"D","legs":"X"},"action":"harvest","summary":"good-harvest","bonus":1.240000000000001},{"rt":12424.600000023842,"stimulus":"\n                    <p><b>Action: <em>harvest</em></b></p>\n                    <p>This is the bee that you just saw.</p>\n                    <img src=\"bees-with-color/bee-A2SF.svg\" width=\"200\">\n                    <p><span class=\"greenText\"><b>Successful harvest!</b></span><br>Your pay has increased by $0.02. Your bonus pay is now $0.64.</p>\n            ","response":0,"trial_type":"html-button-response","trial_index":16,"time_elapsed":437890,"internal_node_id":"0.0-4.0-1.4","subject_id":"60fd7be50ef0ad8450c401bc","study_id":"6197b3f67c2b5cd3b6d9596a","session_id":"6197b5f4d3384da1a70c85d3","condition":"contingent","relevant_dimensions":["antennae","pattern"],"bee_group":{"antennae":"B","wings":"X","pattern":"D","legs":"X"},"bonus":1.240000000000001},{"rt":6788.899999976158,"stimulus":"bees-with-color/bee-A1SM.svg","response":0,"trial_type":"image-button-response","trial_index":17,"time_elapsed":444686,"internal_node_id":"0.0-4.0-0.5","subject_id":"60fd7be50ef0ad8450c401bc","study_id":"6197b3f67c2b5cd3b6d9596a","session_id":"6197b5f4d3384da1a70c85d3","condition":"contingent","relevant_dimensions":["antennae","pattern"],"bee_group":{"antennae":"B","wings":"X","pattern":"D","legs":"X"},"action":"harvest","summary":"good-harvest","bonus":1.240000000000001},{"rt":15528.300000011921,"stimulus":"\n                    <p><b>Action: <em>harvest</em></b></p>\n                    <p>This is the bee that you just saw.</p>\n                    <img src=\"bees-with-color/bee-A1SM.svg\" width=\"200\">\n                    <p><span class=\"greenText\"><b>Successful harvest!</b></span><br>Your pay has increased by $0.02. Your bonus pay is now $0.66.</p>\n            ","response":0,"trial_type":"html-button-response","trial_index":18,"time_elapsed":460219,"internal_node_id":"0.0-4.0-1.5","subject_id":"60fd7be50ef0ad8450c401bc","study_id":"6197b3f67c2b5cd3b6d9596a","session_id":"6197b5f4d3384da1a70c85d3","condition":"contingent","relevant_dimensions":["antennae","pattern"],"bee_group":{"antennae":"B","wings":"X","pattern":"D","legs":"X"},"bonus":1.240000000000001},{"rt":5853.800000011921,"stimulus":"bees-with-color/bee-B2DM.svg","response":0,"trial_type":"image-button-response","trial_index":19,"time_elapsed":466080,"internal_node_id":"0.0-4.0-0.6","subject_id":"60fd7be50ef0ad8450c401bc","study_id":"6197b3f67c2b5cd3b6d9596a","session_id":"6197b5f4d3384da1a70c85d3","condition":"contingent","relevant_dimensions":["antennae","pattern"],"bee_group":{"antennae":"B","wings":"X","pattern":"D","legs":"X"},"action":"harvest","summary":"bad-harvest","bonus":1.240000000000001},{"rt":23862.900000035763,"stimulus":"\n                    <p><b>Action: <em>harvest</em></b></p>\n                    <p>This is the bee that you just saw.</p>\n                    <img src=\"bees-with-color/bee-B2DM.svg\" width=\"200\">\n                    <p><span class=\"redText\">Bad choice, the bee was angry.</span><br><b>You have been stung!</b><br>Your pay has been decreased by $0.10. Your bonus pay is now $0.56.</p>\n            ","response":0,"trial_type":"html-button-response","trial_index":20,"time_elapsed":489950,"internal_node_id":"0.0-4.0-1.6","subject_id":"60fd7be50ef0ad8450c401bc","study_id":"6197b3f67c2b5cd3b6d9596a","session_id":"6197b5f4d3384da1a70c85d3","condition":"contingent","relevant_dimensions":["antennae","pattern"],"bee_group":{"antennae":"B","wings":"X","pattern":"D","legs":"X"},"bonus":1.240000000000001},{"rt":8352.700000047684,"stimulus":"bees-with-color/bee-B1DF.svg","response":0,"trial_type":"image-button-response","trial_index":21,"time_elapsed":498309,"internal_node_id":"0.0-4.0-0.7","subject_id":"60fd7be50ef0ad8450c401bc","study_id":"6197b3f67c2b5cd3b6d9596a","session_id":"6197b5f4d3384da1a70c85d3","condition":"contingent","relevant_dimensions":["antennae","pattern"],"bee_group":{"antennae":"B","wings":"X","pattern":"D","legs":"X"},"action":"harvest","summary":"bad-harvest","bonus":1.240000000000001},{"rt":15975.5,"stimulus":"\n                    <p><b>Action: <em>harvest</em></b></p>\n                    <p>This is the bee that you just saw.</p>\n                    <img src=\"bees-with-color/bee-B1DF.svg\" width=\"200\">\n                    <p><span class=\"redText\">Bad choice, the bee was angry.</span><br><b>You have been stung!</b><br>Your pay has been decreased by $0.10. Your bonus pay is now $0.46.</p>\n            ","response":0,"trial_type":"html-button-response","trial_index":22,"time_elapsed":514290,"internal_node_id":"0.0-4.0-1.7","subject_id":"60fd7be50ef0ad8450c401bc","study_id":"6197b3f67c2b5cd3b6d9596a","session_id":"6197b5f4d3384da1a70c85d3","condition":"contingent","relevant_dimensions":["antennae","pattern"],"bee_group":{"antennae":"B","wings":"X","pattern":"D","legs":"X"},"bonus":1.240000000000001},{"rt":2209.300000011921,"stimulus":"bees-with-color/bee-B2SF.svg","response":1,"trial_type":"image-button-response","trial_index":23,"time_elapsed":516507,"internal_node_id":"0.0-4.0-0.8","subject_id":"60fd7be50ef0ad8450c401bc","study_id":"6197b3f67c2b5cd3b6d9596a","session_id":"6197b5f4d3384da1a70c85d3","condition":"contingent","relevant_dimensions":["antennae","pattern"],"bee_group":{"antennae":"B","wings":"X","pattern":"D","legs":"X"},"action":"avoid","summary":"bad-avoid","bonus":1.240000000000001},{"rt":6294.599999964237,"stimulus":"\n                    <p><b>Action: <em>avoid</em></b></p>\n                    <p>This is the bee that you just saw.</p>\n                    <img src=\"bees-with-color/bee-B2SF.svg\" width=\"200\">\n                    <p><br>Your bonus pay is unchanged, and remains at $0.46.</p>\n            ","response":0,"trial_type":"html-button-response","trial_index":24,"time_elapsed":522808,"internal_node_id":"0.0-4.0-1.8","subject_id":"60fd7be50ef0ad8450c401bc","study_id":"6197b3f67c2b5cd3b6d9596a","session_id":"6197b5f4d3384da1a70c85d3","condition":"contingent","relevant_dimensions":["antennae","pattern"],"bee_group":{"antennae":"B","wings":"X","pattern":"D","legs":"X"},"bonus":1.240000000000001},{"rt":1727.199999988079,"stimulus":"bees-with-color/bee-B1DM.svg","response":0,"trial_type":"image-button-response","trial_index":25,"time_elapsed":524542,"internal_node_id":"0.0-4.0-0.9","subject_id":"60fd7be50ef0ad8450c401bc","study_id":"6197b3f67c2b5cd3b6d9596a","session_id":"6197b5f4d3384da1a70c85d3","condition":"contingent","relevant_dimensions":["antennae","pattern"],"bee_group":{"antennae":"B","wings":"X","pattern":"D","legs":"X"},"action":"harvest","summary":"bad-harvest","bonus":1.240000000000001},{"rt":18947.799999952316,"stimulus":"\n                    <p><b>Action: <em>harvest</em></b></p>\n                    <p>This is the bee that you just saw.</p>\n                    <img src=\"bees-with-color/bee-B1DM.svg\" width=\"200\">\n                    <p><span class=\"redText\">Bad choice, the bee was angry.</span><br><b>You have been stung!</b><br>Your pay has been decreased by $0.10. Your bonus pay is now $0.36.</p>\n            ","response":0,"trial_type":"html-button-response","trial_index":26,"time_elapsed":543497,"internal_node_id":"0.0-4.0-1.9","subject_id":"60fd7be50ef0ad8450c401bc","study_id":"6197b3f67c2b5cd3b6d9596a","session_id":"6197b5f4d3384da1a70c85d3","condition":"contingent","relevant_dimensions":["antennae","pattern"],"bee_group":{"antennae":"B","wings":"X","pattern":"D","legs":"X"},"bonus":1.240000000000001},{"rt":8086.300000011921,"stimulus":"bees-with-color/bee-A1DF.svg","response":0,"trial_type":"image-button-response","trial_index":27,"time_elapsed":551591,"internal_node_id":"0.0-4.0-0.10","subject_id":"60fd7be50ef0ad8450c401bc","study_id":"6197b3f67c2b5cd3b6d9596a","session_id":"6197b5f4d3384da1a70c85d3","condition":"contingent","relevant_dimensions":["antennae","pattern"],"bee_group":{"antennae":"B","wings":"X","pattern":"D","legs":"X"},"action":"harvest","summary":"good-harvest","bonus":1.240000000000001},{"rt":1231.2000000476837,"stimulus":"\n                    <p><b>Action: <em>harvest</em></b></p>\n                    <p>This is the bee that you just saw.</p>\n                    <img src=\"bees-with-color/bee-A1DF.svg\" width=\"200\">\n                    <p><span class=\"greenText\"><b>Successful harvest!</b></span><br>Your pay has increased by $0.02. Your bonus pay is now $0.38.</p>\n            ","response":0,"trial_type":"html-button-response","trial_index":28,"time_elapsed":552828,"internal_node_id":"0.0-4.0-1.10","subject_id":"60fd7be50ef0ad8450c401bc","study_id":"6197b3f67c2b5cd3b6d9596a","session_id":"6197b5f4d3384da1a70c85d3","condition":"contingent","relevant_dimensions":["antennae","pattern"],"bee_group":{"antennae":"B","wings":"X","pattern":"D","legs":"X"},"bonus":1.240000000000001},{"rt":6354.099999964237,"stimulus":"bees-with-color/bee-B1SF.svg","response":0,"trial_type":"image-button-response","trial_index":29,"time_elapsed":559189,"internal_node_id":"0.0-4.0-0.11","subject_id":"60fd7be50ef0ad8450c401bc","study_id":"6197b3f67c2b5cd3b6d9596a","session_id":"6197b5f4d3384da1a70c85d3","condition":"contingent","relevant_dimensions":["antennae","pattern"],"bee_group":{"antennae":"B","wings":"X","pattern":"D","legs":"X"},"action":"harvest","summary":"good-harvest","bonus":1.240000000000001},{"rt":14392.399999976158,"stimulus":"\n                    <p><b>Action: <em>harvest</em></b></p>\n                    <p>This is the bee that you just saw.</p>\n                    <img src=\"bees-with-color/bee-B1SF.svg\" width=\"200\">\n                    <p><span class=\"greenText\"><b>Successful harvest!</b></span><br>Your pay has increased by $0.02. Your bonus pay is now $0.40.</p>\n            ","response":0,"trial_type":"html-button-response","trial_index":30,"time_elapsed":573587,"internal_node_id":"0.0-4.0-1.11","subject_id":"60fd7be50ef0ad8450c401bc","study_id":"6197b3f67c2b5cd3b6d9596a","session_id":"6197b5f4d3384da1a70c85d3","condition":"contingent","relevant_dimensions":["antennae","pattern"],"bee_group":{"antennae":"B","wings":"X","pattern":"D","legs":"X"},"bonus":1.240000000000001},{"rt":8754,"stimulus":"bees-with-color/bee-B1SM.svg","response":1,"trial_type":"image-button-response","trial_index":31,"time_elapsed":582348,"internal_node_id":"0.0-4.0-0.12","subject_id":"60fd7be50ef0ad8450c401bc","study_id":"6197b3f67c2b5cd3b6d9596a","session_id":"6197b5f4d3384da1a70c85d3","condition":"contingent","relevant_dimensions":["antennae","pattern"],"bee_group":{"antennae":"B","wings":"X","pattern":"D","legs":"X"},"action":"avoid","summary":"bad-avoid","bonus":1.240000000000001},{"rt":2760,"stimulus":"\n                    <p><b>Action: <em>avoid</em></b></p>\n                    <p>This is the bee that you just saw.</p>\n                    <img src=\"bees-with-color/bee-B1SM.svg\" width=\"200\">\n                    <p><br>Your bonus pay is unchanged, and remains at $0.40.</p>\n            ","response":0,"trial_type":"html-button-response","trial_index":32,"time_elapsed":585114,"internal_node_id":"0.0-4.0-1.12","subject_id":"60fd7be50ef0ad8450c401bc","study_id":"6197b3f67c2b5cd3b6d9596a","session_id":"6197b5f4d3384da1a70c85d3","condition":"contingent","relevant_dimensions":["antennae","pattern"],"bee_group":{"antennae":"B","wings":"X","pattern":"D","legs":"X"},"bonus":1.240000000000001},{"rt":16190.800000011921,"stimulus":"bees-with-color/bee-B2SM.svg","response":0,"trial_type":"image-button-response","trial_index":33,"time_elapsed":601312,"internal_node_id":"0.0-4.0-0.13","subject_id":"60fd7be50ef0ad8450c401bc","study_id":"6197b3f67c2b5cd3b6d9596a","session_id":"6197b5f4d3384da1a70c85d3","condition":"contingent","relevant_dimensions":["antennae","pattern"],"bee_group":{"antennae":"B","wings":"X","pattern":"D","legs":"X"},"action":"harvest","summary":"good-harvest","bonus":1.240000000000001},{"rt":15087.400000035763,"stimulus":"\n                    <p><b>Action: <em>harvest</em></b></p>\n                    <p>This is the bee that you just saw.</p>\n                    <img src=\"bees-with-color/bee-B2SM.svg\" width=\"200\">\n                    <p><span class=\"greenText\"><b>Successful harvest!</b></span><br>Your pay has increased by $0.02. Your bonus pay is now $0.42.</p>\n            ","response":0,"trial_type":"html-button-response","trial_index":34,"time_elapsed":616406,"internal_node_id":"0.0-4.0-1.13","subject_id":"60fd7be50ef0ad8450c401bc","study_id":"6197b3f67c2b5cd3b6d9596a","session_id":"6197b5f4d3384da1a70c85d3","condition":"contingent","relevant_dimensions":["antennae","pattern"],"bee_group":{"antennae":"B","wings":"X","pattern":"D","legs":"X"},"bonus":1.240000000000001},{"rt":18791.900000035763,"stimulus":"bees-with-color/bee-A1DM.svg","response":1,"trial_type":"image-button-response","trial_index":35,"time_elapsed":635207,"internal_node_id":"0.0-4.0-0.14","subject_id":"60fd7be50ef0ad8450c401bc","study_id":"6197b3f67c2b5cd3b6d9596a","session_id":"6197b5f4d3384da1a70c85d3","condition":"contingent","relevant_dimensions":["antennae","pattern"],"bee_group":{"antennae":"B","wings":"X","pattern":"D","legs":"X"},"action":"avoid","summary":"bad-avoid","bonus":1.240000000000001},{"rt":1925.2999999523163,"stimulus":"\n                    <p><b>Action: <em>avoid</em></b></p>\n                    <p>This is the bee that you just saw.</p>\n                    <img src=\"bees-with-color/bee-A1DM.svg\" width=\"200\">\n                    <p><br>Your bonus pay is unchanged, and remains at $0.42.</p>\n            ","response":0,"trial_type":"html-button-response","trial_index":36,"time_elapsed":637139,"internal_node_id":"0.0-4.0-1.14","subject_id":"60fd7be50ef0ad8450c401bc","study_id":"6197b3f67c2b5cd3b6d9596a","session_id":"6197b5f4d3384da1a70c85d3","condition":"contingent","relevant_dimensions":["antennae","pattern"],"bee_group":{"antennae":"B","wings":"X","pattern":"D","legs":"X"},"bonus":1.240000000000001},{"rt":27220.700000047684,"stimulus":"bees-with-color/bee-B2DF.svg","response":0,"trial_type":"image-button-response","trial_index":37,"time_elapsed":664367,"internal_node_id":"0.0-4.0-0.15","subject_id":"60fd7be50ef0ad8450c401bc","study_id":"6197b3f67c2b5cd3b6d9596a","session_id":"6197b5f4d3384da1a70c85d3","condition":"contingent","relevant_dimensions":["antennae","pattern"],"bee_group":{"antennae":"B","wings":"X","pattern":"D","legs":"X"},"action":"harvest","summary":"bad-harvest","bonus":1.240000000000001},{"rt":6853.400000035763,"stimulus":"\n                    <p><b>Action: <em>harvest</em></b></p>\n                    <p>This is the bee that you just saw.</p>\n                    <img src=\"bees-with-color/bee-B2DF.svg\" width=\"200\">\n                    <p><span class=\"redText\">Bad choice, the bee was angry.</span><br><b>You have been stung!</b><br>Your pay has been decreased by $0.10. Your bonus pay is now $0.32.</p>\n            ","response":0,"trial_type":"html-button-response","trial_index":38,"time_elapsed":671227,"internal_node_id":"0.0-4.0-1.15","subject_id":"60fd7be50ef0ad8450c401bc","study_id":"6197b3f67c2b5cd3b6d9596a","session_id":"6197b5f4d3384da1a70c85d3","condition":"contingent","relevant_dimensions":["antennae","pattern"],"bee_group":{"antennae":"B","wings":"X","pattern":"D","legs":"X"},"bonus":1.240000000000001},{"rt":8514.200000047684,"stimulus":"bees-with-color/bee-A2DF.svg","response":0,"trial_type":"image-button-response","trial_index":39,"time_elapsed":679749,"internal_node_id":"0.0-4.0-0.16","subject_id":"60fd7be50ef0ad8450c401bc","study_id":"6197b3f67c2b5cd3b6d9596a","session_id":"6197b5f4d3384da1a70c85d3","condition":"contingent","relevant_dimensions":["antennae","pattern"],"bee_group":{"antennae":"B","wings":"X","pattern":"D","legs":"X"},"action":"harvest","summary":"good-harvest","bonus":1.240000000000001},{"rt":1502.1000000238419,"stimulus":"\n                    <p><b>Action: <em>harvest</em></b></p>\n                    <p>This is the bee that you just saw.</p>\n                    <img src=\"bees-with-color/bee-A2DF.svg\" width=\"200\">\n                    <p><span class=\"greenText\"><b>Successful harvest!</b></span><br>Your pay has increased by $0.02. Your bonus pay is now $0.34.</p>\n            ","response":0,"trial_type":"html-button-response","trial_index":40,"time_elapsed":681259,"internal_node_id":"0.0-4.0-1.16","subject_id":"60fd7be50ef0ad8450c401bc","study_id":"6197b3f67c2b5cd3b6d9596a","session_id":"6197b5f4d3384da1a70c85d3","condition":"contingent","relevant_dimensions":["antennae","pattern"],"bee_group":{"antennae":"B","wings":"X","pattern":"D","legs":"X"},"bonus":1.240000000000001},{"rt":14083.199999988079,"stimulus":"bees-with-color/bee-A1DF.svg","response":1,"trial_type":"image-button-response","trial_index":41,"time_elapsed":695350,"internal_node_id":"0.0-4.0-0.17","subject_id":"60fd7be50ef0ad8450c401bc","study_id":"6197b3f67c2b5cd3b6d9596a","session_id":"6197b5f4d3384da1a70c85d3","condition":"contingent","relevant_dimensions":["antennae","pattern"],"bee_group":{"antennae":"B","wings":"X","pattern":"D","legs":"X"},"action":"avoid","summary":"bad-avoid","bonus":1.240000000000001},{"rt":2063.399999976158,"stimulus":"\n                    <p><b>Action: <em>avoid</em></b></p>\n                    <p>This is the bee that you just saw.</p>\n                    <img src=\"bees-with-color/bee-A1DF.svg\" width=\"200\">\n                    <p><br>Your bonus pay is unchanged, and remains at $0.34.</p>\n            ","response":0,"trial_type":"html-button-response","trial_index":42,"time_elapsed":697419,"internal_node_id":"0.0-4.0-1.17","subject_id":"60fd7be50ef0ad8450c401bc","study_id":"6197b3f67c2b5cd3b6d9596a","session_id":"6197b5f4d3384da1a70c85d3","condition":"contingent","relevant_dimensions":["antennae","pattern"],"bee_group":{"antennae":"B","wings":"X","pattern":"D","legs":"X"},"bonus":1.240000000000001},{"rt":8691.399999976158,"stimulus":"bees-with-color/bee-A1SM.svg","response":0,"trial_type":"image-button-response","trial_index":43,"time_elapsed":706118,"internal_node_id":"0.0-4.0-0.18","subject_id":"60fd7be50ef0ad8450c401bc","study_id":"6197b3f67c2b5cd3b6d9596a","session_id":"6197b5f4d3384da1a70c85d3","condition":"contingent","relevant_dimensions":["antennae","pattern"],"bee_group":{"antennae":"B","wings":"X","pattern":"D","legs":"X"},"action":"harvest","summary":"good-harvest","bonus":1.240000000000001},{"rt":1200.3999999761581,"stimulus":"\n                    <p><b>Action: <em>harvest</em></b></p>\n                    <p>This is the bee that you just saw.</p>\n                    <img src=\"bees-with-color/bee-A1SM.svg\" width=\"200\">\n                    <p><span class=\"greenText\"><b>Successful harvest!</b></span><br>Your pay has increased by $0.02. Your bonus pay is now $0.36.</p>\n            ","response":0,"trial_type":"html-button-response","trial_index":44,"time_elapsed":707323,"internal_node_id":"0.0-4.0-1.18","subject_id":"60fd7be50ef0ad8450c401bc","study_id":"6197b3f67c2b5cd3b6d9596a","session_id":"6197b5f4d3384da1a70c85d3","condition":"contingent","relevant_dimensions":["antennae","pattern"],"bee_group":{"antennae":"B","wings":"X","pattern":"D","legs":"X"},"bonus":1.240000000000001},{"rt":7477.400000035763,"stimulus":"bees-with-color/bee-A2SF.svg","response":0,"trial_type":"image-button-response","trial_index":45,"time_elapsed":714806,"internal_node_id":"0.0-4.0-0.19","subject_id":"60fd7be50ef0ad8450c401bc","study_id":"6197b3f67c2b5cd3b6d9596a","session_id":"6197b5f4d3384da1a70c85d3","condition":"contingent","relevant_dimensions":["antennae","pattern"],"bee_group":{"antennae":"B","wings":"X","pattern":"D","legs":"X"},"action":"harvest","summary":"good-harvest","bonus":1.240000000000001},{"rt":1124.2999999523163,"stimulus":"\n                    <p><b>Action: <em>harvest</em></b></p>\n                    <p>This is the bee that you just saw.</p>\n                    <img src=\"bees-with-color/bee-A2SF.svg\" width=\"200\">\n                    <p><span class=\"greenText\"><b>Successful harvest!</b></span><br>Your pay has increased by $0.02. Your bonus pay is now $0.38.</p>\n            ","response":0,"trial_type":"html-button-response","trial_index":46,"time_elapsed":715935,"internal_node_id":"0.0-4.0-1.19","subject_id":"60fd7be50ef0ad8450c401bc","study_id":"6197b3f67c2b5cd3b6d9596a","session_id":"6197b5f4d3384da1a70c85d3","condition":"contingent","relevant_dimensions":["antennae","pattern"],"bee_group":{"antennae":"B","wings":"X","pattern":"D","legs":"X"},"bonus":1.240000000000001},{"rt":5474.399999976158,"stimulus":"bees-with-color/bee-A1SF.svg","response":0,"trial_type":"image-button-response","trial_index":47,"time_elapsed":721416,"internal_node_id":"0.0-4.0-0.20","subject_id":"60fd7be50ef0ad8450c401bc","study_id":"6197b3f67c2b5cd3b6d9596a","session_id":"6197b5f4d3384da1a70c85d3","condition":"contingent","relevant_dimensions":["antennae","pattern"],"bee_group":{"antennae":"B","wings":"X","pattern":"D","legs":"X"},"action":"harvest","summary":"good-harvest","bonus":1.240000000000001},{"rt":1378.5999999642372,"stimulus":"\n                    <p><b>Action: <em>harvest</em></b></p>\n                    <p>This is the bee that you just saw.</p>\n                    <img src=\"bees-with-color/bee-A1SF.svg\" width=\"200\">\n                    <p><span class=\"greenText\"><b>Successful harvest!</b></span><br>Your pay has increased by $0.02. Your bonus pay is now $0.40.</p>\n            ","response":0,"trial_type":"html-button-response","trial_index":48,"time_elapsed":722799,"internal_node_id":"0.0-4.0-1.20","subject_id":"60fd7be50ef0ad8450c401bc","study_id":"6197b3f67c2b5cd3b6d9596a","session_id":"6197b5f4d3384da1a70c85d3","condition":"contingent","relevant_dimensions":["antennae","pattern"],"bee_group":{"antennae":"B","wings":"X","pattern":"D","legs":"X"},"bonus":1.240000000000001},{"rt":8465.399999976158,"stimulus":"bees-with-color/bee-B2DM.svg","response":1,"trial_type":"image-button-response","trial_index":49,"time_elapsed":731270,"internal_node_id":"0.0-4.0-0.21","subject_id":"60fd7be50ef0ad8450c401bc","study_id":"6197b3f67c2b5cd3b6d9596a","session_id":"6197b5f4d3384da1a70c85d3","condition":"contingent","relevant_dimensions":["antennae","pattern"],"bee_group":{"antennae":"B","wings":"X","pattern":"D","legs":"X"},"action":"avoid","summary":"good-avoid","bonus":1.240000000000001},{"rt":1438.699999988079,"stimulus":"\n                    <p><b>Action: <em>avoid</em></b></p>\n                    <p>This is the bee that you just saw.</p>\n                    <img src=\"bees-with-color/bee-B2DM.svg\" width=\"200\">\n                    <p><br>Your bonus pay is unchanged, and remains at $0.40.</p>\n            ","response":0,"trial_type":"html-button-response","trial_index":50,"time_elapsed":732714,"internal_node_id":"0.0-4.0-1.21","subject_id":"60fd7be50ef0ad8450c401bc","study_id":"6197b3f67c2b5cd3b6d9596a","session_id":"6197b5f4d3384da1a70c85d3","condition":"contingent","relevant_dimensions":["antennae","pattern"],"bee_group":{"antennae":"B","wings":"X","pattern":"D","legs":"X"},"bonus":1.240000000000001},{"rt":9817.599999964237,"stimulus":"bees-with-color/bee-B1DM.svg","response":1,"trial_type":"image-button-response","trial_index":51,"time_elapsed":742538,"internal_node_id":"0.0-4.0-0.22","subject_id":"60fd7be50ef0ad8450c401bc","study_id":"6197b3f67c2b5cd3b6d9596a","session_id":"6197b5f4d3384da1a70c85d3","condition":"contingent","relevant_dimensions":["antennae","pattern"],"bee_group":{"antennae":"B","wings":"X","pattern":"D","legs":"X"},"action":"avoid","summary":"good-avoid","bonus":1.240000000000001},{"rt":1416.199999988079,"stimulus":"\n                    <p><b>Action: <em>avoid</em></b></p>\n                    <p>This is the bee that you just saw.</p>\n                    <img src=\"bees-with-color/bee-B1DM.svg\" width=\"200\">\n                    <p><br>Your bonus pay is unchanged, and remains at $0.40.</p>\n            ","response":0,"trial_type":"html-button-response","trial_index":52,"time_elapsed":743959,"internal_node_id":"0.0-4.0-1.22","subject_id":"60fd7be50ef0ad8450c401bc","study_id":"6197b3f67c2b5cd3b6d9596a","session_id":"6197b5f4d3384da1a70c85d3","condition":"contingent","relevant_dimensions":["antennae","pattern"],"bee_group":{"antennae":"B","wings":"X","pattern":"D","legs":"X"},"bonus":1.240000000000001},{"rt":14158.100000023842,"stimulus":"bees-with-color/bee-B1SM.svg","response":1,"trial_type":"image-button-response","trial_index":53,"time_elapsed":758123,"internal_node_id":"0.0-4.0-0.23","subject_id":"60fd7be50ef0ad8450c401bc","study_id":"6197b3f67c2b5cd3b6d9596a","session_id":"6197b5f4d3384da1a70c85d3","condition":"contingent","relevant_dimensions":["antennae","pattern"],"bee_group":{"antennae":"B","wings":"X","pattern":"D","legs":"X"},"action":"avoid","summary":"bad-avoid","bonus":1.240000000000001},{"rt":1259.2000000476837,"stimulus":"\n                    <p><b>Action: <em>avoid</em></b></p>\n                    <p>This is the bee that you just saw.</p>\n                    <img src=\"bees-with-color/bee-B1SM.svg\" width=\"200\">\n                    <p><br>Your bonus pay is unchanged, and remains at $0.40.</p>\n            ","response":0,"trial_type":"html-button-response","trial_index":54,"time_elapsed":759387,"internal_node_id":"0.0-4.0-1.23","subject_id":"60fd7be50ef0ad8450c401bc","study_id":"6197b3f67c2b5cd3b6d9596a","session_id":"6197b5f4d3384da1a70c85d3","condition":"contingent","relevant_dimensions":["antennae","pattern"],"bee_group":{"antennae":"B","wings":"X","pattern":"D","legs":"X"},"bonus":1.240000000000001},{"rt":9983.899999976158,"stimulus":"bees-with-color/bee-B2DF.svg","response":1,"trial_type":"image-button-response","trial_index":55,"time_elapsed":769376,"internal_node_id":"0.0-4.0-0.24","subject_id":"60fd7be50ef0ad8450c401bc","study_id":"6197b3f67c2b5cd3b6d9596a","session_id":"6197b5f4d3384da1a70c85d3","condition":"contingent","relevant_dimensions":["antennae","pattern"],"bee_group":{"antennae":"B","wings":"X","pattern":"D","legs":"X"},"action":"avoid","summary":"good-avoid","bonus":1.240000000000001},{"rt":1409.4000000357628,"stimulus":"\n                    <p><b>Action: <em>avoid</em></b></p>\n                    <p>This is the bee that you just saw.</p>\n                    <img src=\"bees-with-color/bee-B2DF.svg\" width=\"200\">\n                    <p><br>Your bonus pay is unchanged, and remains at $0.40.</p>\n            ","response":0,"trial_type":"html-button-response","trial_index":56,"time_elapsed":770791,"internal_node_id":"0.0-4.0-1.24","subject_id":"60fd7be50ef0ad8450c401bc","study_id":"6197b3f67c2b5cd3b6d9596a","session_id":"6197b5f4d3384da1a70c85d3","condition":"contingent","relevant_dimensions":["antennae","pattern"],"bee_group":{"antennae":"B","wings":"X","pattern":"D","legs":"X"},"bonus":1.240000000000001},{"rt":5953.700000047684,"stimulus":"bees-with-color/bee-B1DF.svg","response":1,"trial_type":"image-button-response","trial_index":57,"time_elapsed":776751,"internal_node_id":"0.0-4.0-0.25","subject_id":"60fd7be50ef0ad8450c401bc","study_id":"6197b3f67c2b5cd3b6d9596a","session_id":"6197b5f4d3384da1a70c85d3","condition":"contingent","relevant_dimensions":["antennae","pattern"],"bee_group":{"antennae":"B","wings":"X","pattern":"D","legs":"X"},"action":"avoid","summary":"good-avoid","bonus":1.240000000000001},{"rt":6369.099999964237,"stimulus":"\n                    <p><b>Action: <em>avoid</em></b></p>\n                    <p>This is the bee that you just saw.</p>\n                    <img src=\"bees-with-color/bee-B1DF.svg\" width=\"200\">\n                    <p><br>Your bonus pay is unchanged, and remains at $0.40.</p>\n            ","response":0,"trial_type":"html-button-response","trial_index":58,"time_elapsed":783126,"internal_node_id":"0.0-4.0-1.25","subject_id":"60fd7be50ef0ad8450c401bc","study_id":"6197b3f67c2b5cd3b6d9596a","session_id":"6197b5f4d3384da1a70c85d3","condition":"contingent","relevant_dimensions":["antennae","pattern"],"bee_group":{"antennae":"B","wings":"X","pattern":"D","legs":"X"},"bonus":1.240000000000001},{"rt":9197.399999976158,"stimulus":"bees-with-color/bee-A1DM.svg","response":1,"trial_type":"image-button-response","trial_index":59,"time_elapsed":792331,"internal_node_id":"0.0-4.0-0.26","subject_id":"60fd7be50ef0ad8450c401bc","study_id":"6197b3f67c2b5cd3b6d9596a","session_id":"6197b5f4d3384da1a70c85d3","condition":"contingent","relevant_dimensions":["antennae","pattern"],"bee_group":{"antennae":"B","wings":"X","pattern":"D","legs":"X"},"action":"avoid","summary":"bad-avoid","bonus":1.240000000000001},{"rt":1425.5999999642372,"stimulus":"\n                    <p><b>Action: <em>avoid</em></b></p>\n                    <p>This is the bee that you just saw.</p>\n                    <img src=\"bees-with-color/bee-A1DM.svg\" width=\"200\">\n                    <p><br>Your bonus pay is unchanged, and remains at $0.40.</p>\n            ","response":0,"trial_type":"html-button-response","trial_index":60,"time_elapsed":793762,"internal_node_id":"0.0-4.0-1.26","subject_id":"60fd7be50ef0ad8450c401bc","study_id":"6197b3f67c2b5cd3b6d9596a","session_id":"6197b5f4d3384da1a70c85d3","condition":"contingent","relevant_dimensions":["antennae","pattern"],"bee_group":{"antennae":"B","wings":"X","pattern":"D","legs":"X"},"bonus":1.240000000000001},{"rt":17405.400000035763,"stimulus":"bees-with-color/bee-A2DM.svg","response":0,"trial_type":"image-button-response","trial_index":61,"time_elapsed":811173,"internal_node_id":"0.0-4.0-0.27","subject_id":"60fd7be50ef0ad8450c401bc","study_id":"6197b3f67c2b5cd3b6d9596a","session_id":"6197b5f4d3384da1a70c85d3","condition":"contingent","relevant_dimensions":["antennae","pattern"],"bee_group":{"antennae":"B","wings":"X","pattern":"D","legs":"X"},"action":"harvest","summary":"good-harvest","bonus":1.240000000000001},{"rt":1172.0999999642372,"stimulus":"\n                    <p><b>Action: <em>harvest</em></b></p>\n                    <p>This is the bee that you just saw.</p>\n                    <img src=\"bees-with-color/bee-A2DM.svg\" width=\"200\">\n                    <p><span class=\"greenText\"><b>Successful harvest!</b></span><br>Your pay has increased by $0.02. Your bonus pay is now $0.42.</p>\n            ","response":0,"trial_type":"html-button-response","trial_index":62,"time_elapsed":812350,"internal_node_id":"0.0-4.0-1.27","subject_id":"60fd7be50ef0ad8450c401bc","study_id":"6197b3f67c2b5cd3b6d9596a","session_id":"6197b5f4d3384da1a70c85d3","condition":"contingent","relevant_dimensions":["antennae","pattern"],"bee_group":{"antennae":"B","wings":"X","pattern":"D","legs":"X"},"bonus":1.240000000000001},{"rt":8633.5,"stimulus":"bees-with-color/bee-B2SF.svg","response":0,"trial_type":"image-button-response","trial_index":63,"time_elapsed":820990,"internal_node_id":"0.0-4.0-0.28","subject_id":"60fd7be50ef0ad8450c401bc","study_id":"6197b3f67c2b5cd3b6d9596a","session_id":"6197b5f4d3384da1a70c85d3","condition":"contingent","relevant_dimensions":["antennae","pattern"],"bee_group":{"antennae":"B","wings":"X","pattern":"D","legs":"X"},"action":"harvest","summary":"good-harvest","bonus":1.240000000000001},{"rt":17623,"stimulus":"\n                    <p><b>Action: <em>harvest</em></b></p>\n                    <p>This is the bee that you just saw.</p>\n                    <img src=\"bees-with-color/bee-B2SF.svg\" width=\"200\">\n                    <p><span class=\"greenText\"><b>Successful harvest!</b></span><br>Your pay has increased by $0.02. Your bonus pay is now $0.44.</p>\n            ","response":0,"trial_type":"html-button-response","trial_index":64,"time_elapsed":838619,"internal_node_id":"0.0-4.0-1.28","subject_id":"60fd7be50ef0ad8450c401bc","study_id":"6197b3f67c2b5cd3b6d9596a","session_id":"6197b5f4d3384da1a70c85d3","condition":"contingent","relevant_dimensions":["antennae","pattern"],"bee_group":{"antennae":"B","wings":"X","pattern":"D","legs":"X"},"bonus":1.240000000000001},{"rt":17329.299999952316,"stimulus":"bees-with-color/bee-B1SF.svg","response":0,"trial_type":"image-button-response","trial_index":65,"time_elapsed":855954,"internal_node_id":"0.0-4.0-0.29","subject_id":"60fd7be50ef0ad8450c401bc","study_id":"6197b3f67c2b5cd3b6d9596a","session_id":"6197b5f4d3384da1a70c85d3","condition":"contingent","relevant_dimensions":["antennae","pattern"],"bee_group":{"antennae":"B","wings":"X","pattern":"D","legs":"X"},"action":"harvest","summary":"good-harvest","bonus":1.240000000000001},{"rt":2309.5,"stimulus":"\n                    <p><b>Action: <em>harvest</em></b></p>\n                    <p>This is the bee that you just saw.</p>\n                    <img src=\"bees-with-color/bee-B1SF.svg\" width=\"200\">\n                    <p><span class=\"greenText\"><b>Successful harvest!</b></span><br>Your pay has increased by $0.02. Your bonus pay is now $0.46.</p>\n            ","response":0,"trial_type":"html-button-response","trial_index":66,"time_elapsed":858269,"internal_node_id":"0.0-4.0-1.29","subject_id":"60fd7be50ef0ad8450c401bc","study_id":"6197b3f67c2b5cd3b6d9596a","session_id":"6197b5f4d3384da1a70c85d3","condition":"contingent","relevant_dimensions":["antennae","pattern"],"bee_group":{"antennae":"B","wings":"X","pattern":"D","legs":"X"},"bonus":1.240000000000001},{"rt":17718.30000001192,"stimulus":"bees-with-color/bee-B2SM.svg","response":0,"trial_type":"image-button-response","trial_index":67,"time_elapsed":875994,"internal_node_id":"0.0-4.0-0.30","subject_id":"60fd7be50ef0ad8450c401bc","study_id":"6197b3f67c2b5cd3b6d9596a","session_id":"6197b5f4d3384da1a70c85d3","condition":"contingent","relevant_dimensions":["antennae","pattern"],"bee_group":{"antennae":"B","wings":"X","pattern":"D","legs":"X"},"action":"harvest","summary":"good-harvest","bonus":1.240000000000001},{"rt":1224,"stimulus":"\n                    <p><b>Action: <em>harvest</em></b></p>\n                    <p>This is the bee that you just saw.</p>\n                    <img src=\"bees-with-color/bee-B2SM.svg\" width=\"200\">\n                    <p><span class=\"greenText\"><b>Successful harvest!</b></span><br>Your pay has increased by $0.02. Your bonus pay is now $0.48.</p>\n            ","response":0,"trial_type":"html-button-response","trial_index":68,"time_elapsed":877222,"internal_node_id":"0.0-4.0-1.30","subject_id":"60fd7be50ef0ad8450c401bc","study_id":"6197b3f67c2b5cd3b6d9596a","session_id":"6197b5f4d3384da1a70c85d3","condition":"contingent","relevant_dimensions":["antennae","pattern"],"bee_group":{"antennae":"B","wings":"X","pattern":"D","legs":"X"},"bonus":1.240000000000001},{"rt":7426,"stimulus":"bees-with-color/bee-A2SM.svg","response":0,"trial_type":"image-button-response","trial_index":69,"time_elapsed":884654,"internal_node_id":"0.0-4.0-0.31","subject_id":"60fd7be50ef0ad8450c401bc","study_id":"6197b3f67c2b5cd3b6d9596a","session_id":"6197b5f4d3384da1a70c85d3","condition":"contingent","relevant_dimensions":["antennae","pattern"],"bee_group":{"antennae":"B","wings":"X","pattern":"D","legs":"X"},"action":"harvest","summary":"good-harvest","bonus":1.240000000000001},{"rt":1210,"stimulus":"\n                    <p><b>Action: <em>harvest</em></b></p>\n                    <p>This is the bee that you just saw.</p>\n                    <img src=\"bees-with-color/bee-A2SM.svg\" width=\"200\">\n                    <p><span class=\"greenText\"><b>Successful harvest!</b></span><br>Your pay has increased by $0.02. Your bonus pay is now $0.50.</p>\n            ","response":0,"trial_type":"html-button-response","trial_index":70,"time_elapsed":885869,"internal_node_id":"0.0-4.0-1.31","subject_id":"60fd7be50ef0ad8450c401bc","study_id":"6197b3f67c2b5cd3b6d9596a","session_id":"6197b5f4d3384da1a70c85d3","condition":"contingent","relevant_dimensions":["antennae","pattern"],"bee_group":{"antennae":"B","wings":"X","pattern":"D","legs":"X"},"bonus":1.240000000000001},{"rt":11428.800000011921,"stimulus":"bees-with-color/bee-A2DM.svg","response":0,"trial_type":"image-button-response","trial_index":71,"time_elapsed":897304,"internal_node_id":"0.0-4.0-0.32","subject_id":"60fd7be50ef0ad8450c401bc","study_id":"6197b3f67c2b5cd3b6d9596a","session_id":"6197b5f4d3384da1a70c85d3","condition":"contingent","relevant_dimensions":["antennae","pattern"],"bee_group":{"antennae":"B","wings":"X","pattern":"D","legs":"X"},"action":"harvest","summary":"good-harvest","bonus":1.240000000000001},{"rt":1062.1000000238419,"stimulus":"\n                    <p><b>Action: <em>harvest</em></b></p>\n                    <p>This is the bee that you just saw.</p>\n                    <img src=\"bees-with-color/bee-A2DM.svg\" width=\"200\">\n                    <p><span class=\"greenText\"><b>Successful harvest!</b></span><br>Your pay has increased by $0.02. Your bonus pay is now $0.52.</p>\n            ","response":0,"trial_type":"html-button-response","trial_index":72,"time_elapsed":898371,"internal_node_id":"0.0-4.0-1.32","subject_id":"60fd7be50ef0ad8450c401bc","study_id":"6197b3f67c2b5cd3b6d9596a","session_id":"6197b5f4d3384da1a70c85d3","condition":"contingent","relevant_dimensions":["antennae","pattern"],"bee_group":{"antennae":"B","wings":"X","pattern":"D","legs":"X"},"bonus":1.240000000000001},{"rt":7161.100000023842,"stimulus":"bees-with-color/bee-A1SF.svg","response":0,"trial_type":"image-button-response","trial_index":73,"time_elapsed":905539,"internal_node_id":"0.0-4.0-0.33","subject_id":"60fd7be50ef0ad8450c401bc","study_id":"6197b3f67c2b5cd3b6d9596a","session_id":"6197b5f4d3384da1a70c85d3","condition":"contingent","relevant_dimensions":["antennae","pattern"],"bee_group":{"antennae":"B","wings":"X","pattern":"D","legs":"X"},"action":"harvest","summary":"good-harvest","bonus":1.240000000000001},{"rt":1043.300000011921,"stimulus":"\n                    <p><b>Action: <em>harvest</em></b></p>\n                    <p>This is the bee that you just saw.</p>\n                    <img src=\"bees-with-color/bee-A1SF.svg\" width=\"200\">\n                    <p><span class=\"greenText\"><b>Successful harvest!</b></span><br>Your pay has increased by $0.02. Your bonus pay is now $0.54.</p>\n            ","response":0,"trial_type":"html-button-response","trial_index":74,"time_elapsed":906589,"internal_node_id":"0.0-4.0-1.33","subject_id":"60fd7be50ef0ad8450c401bc","study_id":"6197b3f67c2b5cd3b6d9596a","session_id":"6197b5f4d3384da1a70c85d3","condition":"contingent","relevant_dimensions":["antennae","pattern"],"bee_group":{"antennae":"B","wings":"X","pattern":"D","legs":"X"},"bonus":1.240000000000001},{"rt":42528.69999998808,"stimulus":"bees-with-color/bee-B1DF.svg","response":1,"trial_type":"image-button-response","trial_index":75,"time_elapsed":949123,"internal_node_id":"0.0-4.0-0.34","subject_id":"60fd7be50ef0ad8450c401bc","study_id":"6197b3f67c2b5cd3b6d9596a","session_id":"6197b5f4d3384da1a70c85d3","condition":"contingent","relevant_dimensions":["antennae","pattern"],"bee_group":{"antennae":"B","wings":"X","pattern":"D","legs":"X"},"action":"avoid","summary":"good-avoid","bonus":1.240000000000001},{"rt":2367.699999988079,"stimulus":"\n                    <p><b>Action: <em>avoid</em></b></p>\n                    <p>This is the bee that you just saw.</p>\n                    <img src=\"bees-with-color/bee-B1DF.svg\" width=\"200\">\n                    <p><br>Your bonus pay is unchanged, and remains at $0.54.</p>\n            ","response":0,"trial_type":"html-button-response","trial_index":76,"time_elapsed":951496,"internal_node_id":"0.0-4.0-1.34","subject_id":"60fd7be50ef0ad8450c401bc","study_id":"6197b3f67c2b5cd3b6d9596a","session_id":"6197b5f4d3384da1a70c85d3","condition":"contingent","relevant_dimensions":["antennae","pattern"],"bee_group":{"antennae":"B","wings":"X","pattern":"D","legs":"X"},"bonus":1.240000000000001},{"rt":11194.899999976158,"stimulus":"bees-with-color/bee-B2DF.svg","response":1,"trial_type":"image-button-response","trial_index":77,"time_elapsed":962698,"internal_node_id":"0.0-4.0-0.35","subject_id":"60fd7be50ef0ad8450c401bc","study_id":"6197b3f67c2b5cd3b6d9596a","session_id":"6197b5f4d3384da1a70c85d3","condition":"contingent","relevant_dimensions":["antennae","pattern"],"bee_group":{"antennae":"B","wings":"X","pattern":"D","legs":"X"},"action":"avoid","summary":"good-avoid","bonus":1.240000000000001},{"rt":1426.5,"stimulus":"\n                    <p><b>Action: <em>avoid</em></b></p>\n                    <p>This is the bee that you just saw.</p>\n                    <img src=\"bees-with-color/bee-B2DF.svg\" width=\"200\">\n                    <p><br>Your bonus pay is unchanged, and remains at $0.54.</p>\n            ","response":0,"trial_type":"html-button-response","trial_index":78,"time_elapsed":964130,"internal_node_id":"0.0-4.0-1.35","subject_id":"60fd7be50ef0ad8450c401bc","study_id":"6197b3f67c2b5cd3b6d9596a","session_id":"6197b5f4d3384da1a70c85d3","condition":"contingent","relevant_dimensions":["antennae","pattern"],"bee_group":{"antennae":"B","wings":"X","pattern":"D","legs":"X"},"bonus":1.240000000000001},{"rt":15474.400000035763,"stimulus":"bees-with-color/bee-A1SM.svg","response":0,"trial_type":"image-button-response","trial_index":79,"time_elapsed":979611,"internal_node_id":"0.0-4.0-0.36","subject_id":"60fd7be50ef0ad8450c401bc","study_id":"6197b3f67c2b5cd3b6d9596a","session_id":"6197b5f4d3384da1a70c85d3","condition":"contingent","relevant_dimensions":["antennae","pattern"],"bee_group":{"antennae":"B","wings":"X","pattern":"D","legs":"X"},"action":"harvest","summary":"good-harvest","bonus":1.240000000000001},{"rt":1229.5999999642372,"stimulus":"\n                    <p><b>Action: <em>harvest</em></b></p>\n                    <p>This is the bee that you just saw.</p>\n                    <img src=\"bees-with-color/bee-A1SM.svg\" width=\"200\">\n                    <p><span class=\"greenText\"><b>Successful harvest!</b></span><br>Your pay has increased by $0.02. Your bonus pay is now $0.56.</p>\n            ","response":0,"trial_type":"html-button-response","trial_index":80,"time_elapsed":980847,"internal_node_id":"0.0-4.0-1.36","subject_id":"60fd7be50ef0ad8450c401bc","study_id":"6197b3f67c2b5cd3b6d9596a","session_id":"6197b5f4d3384da1a70c85d3","condition":"contingent","relevant_dimensions":["antennae","pattern"],"bee_group":{"antennae":"B","wings":"X","pattern":"D","legs":"X"},"bonus":1.240000000000001},{"rt":12785.800000011921,"stimulus":"bees-with-color/bee-A2SM.svg","response":0,"trial_type":"image-button-response","trial_index":81,"time_elapsed":993641,"internal_node_id":"0.0-4.0-0.37","subject_id":"60fd7be50ef0ad8450c401bc","study_id":"6197b3f67c2b5cd3b6d9596a","session_id":"6197b5f4d3384da1a70c85d3","condition":"contingent","relevant_dimensions":["antennae","pattern"],"bee_group":{"antennae":"B","wings":"X","pattern":"D","legs":"X"},"action":"harvest","summary":"good-harvest","bonus":1.240000000000001},{"rt":1278,"stimulus":"\n                    <p><b>Action: <em>harvest</em></b></p>\n                    <p>This is the bee that you just saw.</p>\n                    <img src=\"bees-with-color/bee-A2SM.svg\" width=\"200\">\n                    <p><span class=\"greenText\"><b>Successful harvest!</b></span><br>Your pay has increased by $0.02. Your bonus pay is now $0.58.</p>\n            ","response":0,"trial_type":"html-button-response","trial_index":82,"time_elapsed":994926,"internal_node_id":"0.0-4.0-1.37","subject_id":"60fd7be50ef0ad8450c401bc","study_id":"6197b3f67c2b5cd3b6d9596a","session_id":"6197b5f4d3384da1a70c85d3","condition":"contingent","relevant_dimensions":["antennae","pattern"],"bee_group":{"antennae":"B","wings":"X","pattern":"D","legs":"X"},"bonus":1.240000000000001},{"rt":6851.699999988079,"stimulus":"bees-with-color/bee-A1DM.svg","response":0,"trial_type":"image-button-response","trial_index":83,"time_elapsed":1001785,"internal_node_id":"0.0-4.0-0.38","subject_id":"60fd7be50ef0ad8450c401bc","study_id":"6197b3f67c2b5cd3b6d9596a","session_id":"6197b5f4d3384da1a70c85d3","condition":"contingent","relevant_dimensions":["antennae","pattern"],"bee_group":{"antennae":"B","wings":"X","pattern":"D","legs":"X"},"action":"harvest","summary":"good-harvest","bonus":1.240000000000001},{"rt":1210.800000011921,"stimulus":"\n                    <p><b>Action: <em>harvest</em></b></p>\n                    <p>This is the bee that you just saw.</p>\n                    <img src=\"bees-with-color/bee-A1DM.svg\" width=\"200\">\n                    <p><span class=\"greenText\"><b>Successful harvest!</b></span><br>Your pay has increased by $0.02. Your bonus pay is now $0.60.</p>\n            ","response":0,"trial_type":"html-button-response","trial_index":84,"time_elapsed":1003001,"internal_node_id":"0.0-4.0-1.38","subject_id":"60fd7be50ef0ad8450c401bc","study_id":"6197b3f67c2b5cd3b6d9596a","session_id":"6197b5f4d3384da1a70c85d3","condition":"contingent","relevant_dimensions":["antennae","pattern"],"bee_group":{"antennae":"B","wings":"X","pattern":"D","legs":"X"},"bonus":1.240000000000001},{"rt":12401.300000011921,"stimulus":"bees-with-color/bee-A2SF.svg","response":0,"trial_type":"image-button-response","trial_index":85,"time_elapsed":1015411,"internal_node_id":"0.0-4.0-0.39","subject_id":"60fd7be50ef0ad8450c401bc","study_id":"6197b3f67c2b5cd3b6d9596a","session_id":"6197b5f4d3384da1a70c85d3","condition":"contingent","relevant_dimensions":["antennae","pattern"],"bee_group":{"antennae":"B","wings":"X","pattern":"D","legs":"X"},"action":"harvest","summary":"good-harvest","bonus":1.240000000000001},{"rt":1102,"stimulus":"\n                    <p><b>Action: <em>harvest</em></b></p>\n                    <p>This is the bee that you just saw.</p>\n                    <img src=\"bees-with-color/bee-A2SF.svg\" width=\"200\">\n                    <p><span class=\"greenText\"><b>Successful harvest!</b></span><br>Your pay has increased by $0.02. Your bonus pay is now $0.62.</p>\n            ","response":0,"trial_type":"html-button-response","trial_index":86,"time_elapsed":1016520,"internal_node_id":"0.0-4.0-1.39","subject_id":"60fd7be50ef0ad8450c401bc","study_id":"6197b3f67c2b5cd3b6d9596a","session_id":"6197b5f4d3384da1a70c85d3","condition":"contingent","relevant_dimensions":["antennae","pattern"],"bee_group":{"antennae":"B","wings":"X","pattern":"D","legs":"X"},"bonus":1.240000000000001},{"rt":6928.599999964237,"stimulus":"bees-with-color/bee-B2DM.svg","response":1,"trial_type":"image-button-response","trial_index":87,"time_elapsed":1023455,"internal_node_id":"0.0-4.0-0.40","subject_id":"60fd7be50ef0ad8450c401bc","study_id":"6197b3f67c2b5cd3b6d9596a","session_id":"6197b5f4d3384da1a70c85d3","condition":"contingent","relevant_dimensions":["antennae","pattern"],"bee_group":{"antennae":"B","wings":"X","pattern":"D","legs":"X"},"action":"avoid","summary":"good-avoid","bonus":1.240000000000001},{"rt":2280.600000023842,"stimulus":"\n                    <p><b>Action: <em>avoid</em></b></p>\n                    <p>This is the bee that you just saw.</p>\n                    <img src=\"bees-with-color/bee-B2DM.svg\" width=\"200\">\n                    <p><br>Your bonus pay is unchanged, and remains at $0.62.</p>\n            ","response":0,"trial_type":"html-button-response","trial_index":88,"time_elapsed":1025741,"internal_node_id":"0.0-4.0-1.40","subject_id":"60fd7be50ef0ad8450c401bc","study_id":"6197b3f67c2b5cd3b6d9596a","session_id":"6197b5f4d3384da1a70c85d3","condition":"contingent","relevant_dimensions":["antennae","pattern"],"bee_group":{"antennae":"B","wings":"X","pattern":"D","legs":"X"},"bonus":1.240000000000001},{"rt":19214.19999998808,"stimulus":"bees-with-color/bee-B1SM.svg","response":1,"trial_type":"image-button-response","trial_index":89,"time_elapsed":1044961,"internal_node_id":"0.0-4.0-0.41","subject_id":"60fd7be50ef0ad8450c401bc","study_id":"6197b3f67c2b5cd3b6d9596a","session_id":"6197b5f4d3384da1a70c85d3","condition":"contingent","relevant_dimensions":["antennae","pattern"],"bee_group":{"antennae":"B","wings":"X","pattern":"D","legs":"X"},"action":"avoid","summary":"bad-avoid","bonus":1.240000000000001},{"rt":2681.800000011921,"stimulus":"\n                    <p><b>Action: <em>avoid</em></b></p>\n                    <p>This is the bee that you just saw.</p>\n                    <img src=\"bees-with-color/bee-B1SM.svg\" width=\"200\">\n                    <p><br>Your bonus pay is unchanged, and remains at $0.62.</p>\n            ","response":0,"trial_type":"html-button-response","trial_index":90,"time_elapsed":1047647,"internal_node_id":"0.0-4.0-1.41","subject_id":"60fd7be50ef0ad8450c401bc","study_id":"6197b3f67c2b5cd3b6d9596a","session_id":"6197b5f4d3384da1a70c85d3","condition":"contingent","relevant_dimensions":["antennae","pattern"],"bee_group":{"antennae":"B","wings":"X","pattern":"D","legs":"X"},"bonus":1.240000000000001},{"rt":25228.899999976158,"stimulus":"bees-with-color/bee-B2SF.svg","response":0,"trial_type":"image-button-response","trial_index":91,"time_elapsed":1072882,"internal_node_id":"0.0-4.0-0.42","subject_id":"60fd7be50ef0ad8450c401bc","study_id":"6197b3f67c2b5cd3b6d9596a","session_id":"6197b5f4d3384da1a70c85d3","condition":"contingent","relevant_dimensions":["antennae","pattern"],"bee_group":{"antennae":"B","wings":"X","pattern":"D","legs":"X"},"action":"harvest","summary":"good-harvest","bonus":1.240000000000001},{"rt":3053.699999988079,"stimulus":"\n                    <p><b>Action: <em>harvest</em></b></p>\n                    <p>This is the bee that you just saw.</p>\n                    <img src=\"bees-with-color/bee-B2SF.svg\" width=\"200\">\n                    <p><span class=\"greenText\"><b>Successful harvest!</b></span><br>Your pay has increased by $0.02. Your bonus pay is now $0.64.</p>\n            ","response":0,"trial_type":"html-button-response","trial_index":92,"time_elapsed":1075941,"internal_node_id":"0.0-4.0-1.42","subject_id":"60fd7be50ef0ad8450c401bc","study_id":"6197b3f67c2b5cd3b6d9596a","session_id":"6197b5f4d3384da1a70c85d3","condition":"contingent","relevant_dimensions":["antennae","pattern"],"bee_group":{"antennae":"B","wings":"X","pattern":"D","legs":"X"},"bonus":1.240000000000001},{"rt":61320.10000002384,"stimulus":"bees-with-color/bee-B1DM.svg","response":1,"trial_type":"image-button-response","trial_index":93,"time_elapsed":1137266,"internal_node_id":"0.0-4.0-0.43","subject_id":"60fd7be50ef0ad8450c401bc","study_id":"6197b3f67c2b5cd3b6d9596a","session_id":"6197b5f4d3384da1a70c85d3","condition":"contingent","relevant_dimensions":["antennae","pattern"],"bee_group":{"antennae":"B","wings":"X","pattern":"D","legs":"X"},"action":"avoid","summary":"good-avoid","bonus":1.240000000000001},{"rt":2321.7000000476837,"stimulus":"\n                    <p><b>Action: <em>avoid</em></b></p>\n                    <p>This is the bee that you just saw.</p>\n                    <img src=\"bees-with-color/bee-B1DM.svg\" width=\"200\">\n                    <p><br>Your bonus pay is unchanged, and remains at $0.64.</p>\n            ","response":0,"trial_type":"html-button-response","trial_index":94,"time_elapsed":1139591,"internal_node_id":"0.0-4.0-1.43","subject_id":"60fd7be50ef0ad8450c401bc","study_id":"6197b3f67c2b5cd3b6d9596a","session_id":"6197b5f4d3384da1a70c85d3","condition":"contingent","relevant_dimensions":["antennae","pattern"],"bee_group":{"antennae":"B","wings":"X","pattern":"D","legs":"X"},"bonus":1.240000000000001},{"rt":22310.799999952316,"stimulus":"bees-with-color/bee-B2SM.svg","response":0,"trial_type":"image-button-response","trial_index":95,"time_elapsed":1161907,"internal_node_id":"0.0-4.0-0.44","subject_id":"60fd7be50ef0ad8450c401bc","study_id":"6197b3f67c2b5cd3b6d9596a","session_id":"6197b5f4d3384da1a70c85d3","condition":"contingent","relevant_dimensions":["antennae","pattern"],"bee_group":{"antennae":"B","wings":"X","pattern":"D","legs":"X"},"action":"harvest","summary":"good-harvest","bonus":1.240000000000001},{"rt":1202.4000000357628,"stimulus":"\n                    <p><b>Action: <em>harvest</em></b></p>\n                    <p>This is the bee that you just saw.</p>\n                    <img src=\"bees-with-color/bee-B2SM.svg\" width=\"200\">\n                    <p><span class=\"greenText\"><b>Successful harvest!</b></span><br>Your pay has increased by $0.02. Your bonus pay is now $0.66.</p>\n            ","response":0,"trial_type":"html-button-response","trial_index":96,"time_elapsed":1163114,"internal_node_id":"0.0-4.0-1.44","subject_id":"60fd7be50ef0ad8450c401bc","study_id":"6197b3f67c2b5cd3b6d9596a","session_id":"6197b5f4d3384da1a70c85d3","condition":"contingent","relevant_dimensions":["antennae","pattern"],"bee_group":{"antennae":"B","wings":"X","pattern":"D","legs":"X"},"bonus":1.240000000000001},{"rt":11803,"stimulus":"bees-with-color/bee-A1DF.svg","response":0,"trial_type":"image-button-response","trial_index":97,"time_elapsed":1174923,"internal_node_id":"0.0-4.0-0.45","subject_id":"60fd7be50ef0ad8450c401bc","study_id":"6197b3f67c2b5cd3b6d9596a","session_id":"6197b5f4d3384da1a70c85d3","condition":"contingent","relevant_dimensions":["antennae","pattern"],"bee_group":{"antennae":"B","wings":"X","pattern":"D","legs":"X"},"action":"harvest","summary":"good-harvest","bonus":1.240000000000001},{"rt":1164.699999988079,"stimulus":"\n                    <p><b>Action: <em>harvest</em></b></p>\n                    <p>This is the bee that you just saw.</p>\n                    <img src=\"bees-with-color/bee-A1DF.svg\" width=\"200\">\n                    <p><span class=\"greenText\"><b>Successful harvest!</b></span><br>Your pay has increased by $0.02. Your bonus pay is now $0.68.</p>\n            ","response":0,"trial_type":"html-button-response","trial_index":98,"time_elapsed":1176092,"internal_node_id":"0.0-4.0-1.45","subject_id":"60fd7be50ef0ad8450c401bc","study_id":"6197b3f67c2b5cd3b6d9596a","session_id":"6197b5f4d3384da1a70c85d3","condition":"contingent","relevant_dimensions":["antennae","pattern"],"bee_group":{"antennae":"B","wings":"X","pattern":"D","legs":"X"},"bonus":1.240000000000001},{"rt":9722.400000035763,"stimulus":"bees-with-color/bee-B1SF.svg","response":0,"trial_type":"image-button-response","trial_index":99,"time_elapsed":1185821,"internal_node_id":"0.0-4.0-0.46","subject_id":"60fd7be50ef0ad8450c401bc","study_id":"6197b3f67c2b5cd3b6d9596a","session_id":"6197b5f4d3384da1a70c85d3","condition":"contingent","relevant_dimensions":["antennae","pattern"],"bee_group":{"antennae":"B","wings":"X","pattern":"D","legs":"X"},"action":"harvest","summary":"good-harvest","bonus":1.240000000000001},{"rt":1565.300000011921,"stimulus":"\n                    <p><b>Action: <em>harvest</em></b></p>\n                    <p>This is the bee that you just saw.</p>\n                    <img src=\"bees-with-color/bee-B1SF.svg\" width=\"200\">\n                    <p><span class=\"greenText\"><b>Successful harvest!</b></span><br>Your pay has increased by $0.02. Your bonus pay is now $0.70.</p>\n            ","response":0,"trial_type":"html-button-response","trial_index":100,"time_elapsed":1187391,"internal_node_id":"0.0-4.0-1.46","subject_id":"60fd7be50ef0ad8450c401bc","study_id":"6197b3f67c2b5cd3b6d9596a","session_id":"6197b5f4d3384da1a70c85d3","condition":"contingent","relevant_dimensions":["antennae","pattern"],"bee_group":{"antennae":"B","wings":"X","pattern":"D","legs":"X"},"bonus":1.240000000000001},{"rt":8721.800000011921,"stimulus":"bees-with-color/bee-A2DF.svg","response":0,"trial_type":"image-button-response","trial_index":101,"time_elapsed":1196119,"internal_node_id":"0.0-4.0-0.47","subject_id":"60fd7be50ef0ad8450c401bc","study_id":"6197b3f67c2b5cd3b6d9596a","session_id":"6197b5f4d3384da1a70c85d3","condition":"contingent","relevant_dimensions":["antennae","pattern"],"bee_group":{"antennae":"B","wings":"X","pattern":"D","legs":"X"},"action":"harvest","summary":"good-harvest","bonus":1.240000000000001},{"rt":1289.5,"stimulus":"\n                    <p><b>Action: <em>harvest</em></b></p>\n                    <p>This is the bee that you just saw.</p>\n                    <img src=\"bees-with-color/bee-A2DF.svg\" width=\"200\">\n                    <p><span class=\"greenText\"><b>Successful harvest!</b></span><br>Your pay has increased by $0.02. Your bonus pay is now $0.72.</p>\n            ","response":0,"trial_type":"html-button-response","trial_index":102,"time_elapsed":1197413,"internal_node_id":"0.0-4.0-1.47","subject_id":"60fd7be50ef0ad8450c401bc","study_id":"6197b3f67c2b5cd3b6d9596a","session_id":"6197b5f4d3384da1a70c85d3","condition":"contingent","relevant_dimensions":["antennae","pattern"],"bee_group":{"antennae":"B","wings":"X","pattern":"D","legs":"X"},"bonus":1.240000000000001},{"rt":2515.399999976158,"stimulus":"bees-with-color/bee-A2SF.svg","response":0,"trial_type":"image-button-response","trial_index":103,"time_elapsed":1199935,"internal_node_id":"0.0-4.0-0.48","subject_id":"60fd7be50ef0ad8450c401bc","study_id":"6197b3f67c2b5cd3b6d9596a","session_id":"6197b5f4d3384da1a70c85d3","condition":"contingent","relevant_dimensions":["antennae","pattern"],"bee_group":{"antennae":"B","wings":"X","pattern":"D","legs":"X"},"action":"harvest","summary":"good-harvest","bonus":1.240000000000001},{"rt":994.5999999642372,"stimulus":"\n                    <p><b>Action: <em>harvest</em></b></p>\n                    <p>This is the bee that you just saw.</p>\n                    <img src=\"bees-with-color/bee-A2SF.svg\" width=\"200\">\n                    <p><span class=\"greenText\"><b>Successful harvest!</b></span><br>Your pay has increased by $0.02. Your bonus pay is now $0.74.</p>\n            ","response":0,"trial_type":"html-button-response","trial_index":104,"time_elapsed":1200934,"internal_node_id":"0.0-4.0-1.48","subject_id":"60fd7be50ef0ad8450c401bc","study_id":"6197b3f67c2b5cd3b6d9596a","session_id":"6197b5f4d3384da1a70c85d3","condition":"contingent","relevant_dimensions":["antennae","pattern"],"bee_group":{"antennae":"B","wings":"X","pattern":"D","legs":"X"},"bonus":1.240000000000001},{"rt":9742.300000011921,"stimulus":"bees-with-color/bee-B1SM.svg","response":1,"trial_type":"image-button-response","trial_index":105,"time_elapsed":1210682,"internal_node_id":"0.0-4.0-0.49","subject_id":"60fd7be50ef0ad8450c401bc","study_id":"6197b3f67c2b5cd3b6d9596a","session_id":"6197b5f4d3384da1a70c85d3","condition":"contingent","relevant_dimensions":["antennae","pattern"],"bee_group":{"antennae":"B","wings":"X","pattern":"D","legs":"X"},"action":"avoid","summary":"bad-avoid","bonus":1.240000000000001},{"rt":1446,"stimulus":"\n                    <p><b>Action: <em>avoid</em></b></p>\n                    <p>This is the bee that you just saw.</p>\n                    <img src=\"bees-with-color/bee-B1SM.svg\" width=\"200\">\n                    <p><br>Your bonus pay is unchanged, and remains at $0.74.</p>\n            ","response":0,"trial_type":"html-button-response","trial_index":106,"time_elapsed":1212135,"internal_node_id":"0.0-4.0-1.49","subject_id":"60fd7be50ef0ad8450c401bc","study_id":"6197b3f67c2b5cd3b6d9596a","session_id":"6197b5f4d3384da1a70c85d3","condition":"contingent","relevant_dimensions":["antennae","pattern"],"bee_group":{"antennae":"B","wings":"X","pattern":"D","legs":"X"},"bonus":1.240000000000001},{"rt":30782,"stimulus":"bees-with-color/bee-A1SF.svg","response":0,"trial_type":"image-button-response","trial_index":107,"time_elapsed":1242924,"internal_node_id":"0.0-4.0-0.50","subject_id":"60fd7be50ef0ad8450c401bc","study_id":"6197b3f67c2b5cd3b6d9596a","session_id":"6197b5f4d3384da1a70c85d3","condition":"contingent","relevant_dimensions":["antennae","pattern"],"bee_group":{"antennae":"B","wings":"X","pattern":"D","legs":"X"},"action":"harvest","summary":"good-harvest","bonus":1.240000000000001},{"rt":1565.199999988079,"stimulus":"\n                    <p><b>Action: <em>harvest</em></b></p>\n                    <p>This is the bee that you just saw.</p>\n                    <img src=\"bees-with-color/bee-A1SF.svg\" width=\"200\">\n                    <p><span class=\"greenText\"><b>Successful harvest!</b></span><br>Your pay has increased by $0.02. Your bonus pay is now $0.76.</p>\n            ","response":0,"trial_type":"html-button-response","trial_index":108,"time_elapsed":1244494,"internal_node_id":"0.0-4.0-1.50","subject_id":"60fd7be50ef0ad8450c401bc","study_id":"6197b3f67c2b5cd3b6d9596a","session_id":"6197b5f4d3384da1a70c85d3","condition":"contingent","relevant_dimensions":["antennae","pattern"],"bee_group":{"antennae":"B","wings":"X","pattern":"D","legs":"X"},"bonus":1.240000000000001},{"rt":9868.300000011921,"stimulus":"bees-with-color/bee-A1SM.svg","response":0,"trial_type":"image-button-response","trial_index":109,"time_elapsed":1254369,"internal_node_id":"0.0-4.0-0.51","subject_id":"60fd7be50ef0ad8450c401bc","study_id":"6197b3f67c2b5cd3b6d9596a","session_id":"6197b5f4d3384da1a70c85d3","condition":"contingent","relevant_dimensions":["antennae","pattern"],"bee_group":{"antennae":"B","wings":"X","pattern":"D","legs":"X"},"action":"harvest","summary":"good-harvest","bonus":1.240000000000001},{"rt":1093.6000000238419,"stimulus":"\n                    <p><b>Action: <em>harvest</em></b></p>\n                    <p>This is the bee that you just saw.</p>\n                    <img src=\"bees-with-color/bee-A1SM.svg\" width=\"200\">\n                    <p><span class=\"greenText\"><b>Successful harvest!</b></span><br>Your pay has increased by $0.02. Your bonus pay is now $0.78.</p>\n            ","response":0,"trial_type":"html-button-response","trial_index":110,"time_elapsed":1255468,"internal_node_id":"0.0-4.0-1.51","subject_id":"60fd7be50ef0ad8450c401bc","study_id":"6197b3f67c2b5cd3b6d9596a","session_id":"6197b5f4d3384da1a70c85d3","condition":"contingent","relevant_dimensions":["antennae","pattern"],"bee_group":{"antennae":"B","wings":"X","pattern":"D","legs":"X"},"bonus":1.240000000000001},{"rt":19181.399999976158,"stimulus":"bees-with-color/bee-B2DF.svg","response":1,"trial_type":"image-button-response","trial_index":111,"time_elapsed":1274656,"internal_node_id":"0.0-4.0-0.52","subject_id":"60fd7be50ef0ad8450c401bc","study_id":"6197b3f67c2b5cd3b6d9596a","session_id":"6197b5f4d3384da1a70c85d3","condition":"contingent","relevant_dimensions":["antennae","pattern"],"bee_group":{"antennae":"B","wings":"X","pattern":"D","legs":"X"},"action":"avoid","summary":"good-avoid","bonus":1.240000000000001},{"rt":1504.9000000357628,"stimulus":"\n                    <p><b>Action: <em>avoid</em></b></p>\n                    <p>This is the bee that you just saw.</p>\n                    <img src=\"bees-with-color/bee-B2DF.svg\" width=\"200\">\n                    <p><br>Your bonus pay is unchanged, and remains at $0.78.</p>\n            ","response":0,"trial_type":"html-button-response","trial_index":112,"time_elapsed":1276167,"internal_node_id":"0.0-4.0-1.52","subject_id":"60fd7be50ef0ad8450c401bc","study_id":"6197b3f67c2b5cd3b6d9596a","session_id":"6197b5f4d3384da1a70c85d3","condition":"contingent","relevant_dimensions":["antennae","pattern"],"bee_group":{"antennae":"B","wings":"X","pattern":"D","legs":"X"},"bonus":1.240000000000001},{"rt":40050,"stimulus":"bees-with-color/bee-A2DF.svg","response":0,"trial_type":"image-button-response","trial_index":113,"time_elapsed":1316223,"internal_node_id":"0.0-4.0-0.53","subject_id":"60fd7be50ef0ad8450c401bc","study_id":"6197b3f67c2b5cd3b6d9596a","session_id":"6197b5f4d3384da1a70c85d3","condition":"contingent","relevant_dimensions":["antennae","pattern"],"bee_group":{"antennae":"B","wings":"X","pattern":"D","legs":"X"},"action":"harvest","summary":"good-harvest","bonus":1.240000000000001},{"rt":1517.199999988079,"stimulus":"\n                    <p><b>Action: <em>harvest</em></b></p>\n                    <p>This is the bee that you just saw.</p>\n                    <img src=\"bees-with-color/bee-A2DF.svg\" width=\"200\">\n                    <p><span class=\"greenText\"><b>Successful harvest!</b></span><br>Your pay has increased by $0.02. Your bonus pay is now $0.80.</p>\n            ","response":0,"trial_type":"html-button-response","trial_index":114,"time_elapsed":1317746,"internal_node_id":"0.0-4.0-1.53","subject_id":"60fd7be50ef0ad8450c401bc","study_id":"6197b3f67c2b5cd3b6d9596a","session_id":"6197b5f4d3384da1a70c85d3","condition":"contingent","relevant_dimensions":["antennae","pattern"],"bee_group":{"antennae":"B","wings":"X","pattern":"D","legs":"X"},"bonus":1.240000000000001},{"rt":10454.800000011921,"stimulus":"bees-with-color/bee-B1DF.svg","response":1,"trial_type":"image-button-response","trial_index":115,"time_elapsed":1328208,"internal_node_id":"0.0-4.0-0.54","subject_id":"60fd7be50ef0ad8450c401bc","study_id":"6197b3f67c2b5cd3b6d9596a","session_id":"6197b5f4d3384da1a70c85d3","condition":"contingent","relevant_dimensions":["antennae","pattern"],"bee_group":{"antennae":"B","wings":"X","pattern":"D","legs":"X"},"action":"avoid","summary":"good-avoid","bonus":1.240000000000001},{"rt":1989.3999999761581,"stimulus":"\n                    <p><b>Action: <em>avoid</em></b></p>\n                    <p>This is the bee that you just saw.</p>\n                    <img src=\"bees-with-color/bee-B1DF.svg\" width=\"200\">\n                    <p><br>Your bonus pay is unchanged, and remains at $0.80.</p>\n            ","response":0,"trial_type":"html-button-response","trial_index":116,"time_elapsed":1330202,"internal_node_id":"0.0-4.0-1.54","subject_id":"60fd7be50ef0ad8450c401bc","study_id":"6197b3f67c2b5cd3b6d9596a","session_id":"6197b5f4d3384da1a70c85d3","condition":"contingent","relevant_dimensions":["antennae","pattern"],"bee_group":{"antennae":"B","wings":"X","pattern":"D","legs":"X"},"bonus":1.240000000000001},{"rt":1887.8999999761581,"stimulus":"bees-with-color/bee-A2SM.svg","response":0,"trial_type":"image-button-response","trial_index":117,"time_elapsed":1332096,"internal_node_id":"0.0-4.0-0.55","subject_id":"60fd7be50ef0ad8450c401bc","study_id":"6197b3f67c2b5cd3b6d9596a","session_id":"6197b5f4d3384da1a70c85d3","condition":"contingent","relevant_dimensions":["antennae","pattern"],"bee_group":{"antennae":"B","wings":"X","pattern":"D","legs":"X"},"action":"harvest","summary":"good-harvest","bonus":1.240000000000001},{"rt":1023.5,"stimulus":"\n                    <p><b>Action: <em>harvest</em></b></p>\n                    <p>This is the bee that you just saw.</p>\n                    <img src=\"bees-with-color/bee-A2SM.svg\" width=\"200\">\n                    <p><span class=\"greenText\"><b>Successful harvest!</b></span><br>Your pay has increased by $0.02. Your bonus pay is now $0.82.</p>\n            ","response":0,"trial_type":"html-button-response","trial_index":118,"time_elapsed":1333126,"internal_node_id":"0.0-4.0-1.55","subject_id":"60fd7be50ef0ad8450c401bc","study_id":"6197b3f67c2b5cd3b6d9596a","session_id":"6197b5f4d3384da1a70c85d3","condition":"contingent","relevant_dimensions":["antennae","pattern"],"bee_group":{"antennae":"B","wings":"X","pattern":"D","legs":"X"},"bonus":1.240000000000001},{"rt":9616.800000011921,"stimulus":"bees-with-color/bee-B2SF.svg","response":0,"trial_type":"image-button-response","trial_index":119,"time_elapsed":1342749,"internal_node_id":"0.0-4.0-0.56","subject_id":"60fd7be50ef0ad8450c401bc","study_id":"6197b3f67c2b5cd3b6d9596a","session_id":"6197b5f4d3384da1a70c85d3","condition":"contingent","relevant_dimensions":["antennae","pattern"],"bee_group":{"antennae":"B","wings":"X","pattern":"D","legs":"X"},"action":"harvest","summary":"good-harvest","bonus":1.240000000000001},{"rt":2018.9000000357628,"stimulus":"\n                    <p><b>Action: <em>harvest</em></b></p>\n                    <p>This is the bee that you just saw.</p>\n                    <img src=\"bees-with-color/bee-B2SF.svg\" width=\"200\">\n                    <p><span class=\"greenText\"><b>Successful harvest!</b></span><br>Your pay has increased by $0.02. Your bonus pay is now $0.84.</p>\n            ","response":0,"trial_type":"html-button-response","trial_index":120,"time_elapsed":1344773,"internal_node_id":"0.0-4.0-1.56","subject_id":"60fd7be50ef0ad8450c401bc","study_id":"6197b3f67c2b5cd3b6d9596a","session_id":"6197b5f4d3384da1a70c85d3","condition":"contingent","relevant_dimensions":["antennae","pattern"],"bee_group":{"antennae":"B","wings":"X","pattern":"D","legs":"X"},"bonus":1.240000000000001},{"rt":20086.100000023842,"stimulus":"bees-with-color/bee-B2SM.svg","response":0,"trial_type":"image-button-response","trial_index":121,"time_elapsed":1364866,"internal_node_id":"0.0-4.0-0.57","subject_id":"60fd7be50ef0ad8450c401bc","study_id":"6197b3f67c2b5cd3b6d9596a","session_id":"6197b5f4d3384da1a70c85d3","condition":"contingent","relevant_dimensions":["antennae","pattern"],"bee_group":{"antennae":"B","wings":"X","pattern":"D","legs":"X"},"action":"harvest","summary":"good-harvest","bonus":1.240000000000001},{"rt":1016.1000000238419,"stimulus":"\n                    <p><b>Action: <em>harvest</em></b></p>\n                    <p>This is the bee that you just saw.</p>\n                    <img src=\"bees-with-color/bee-B2SM.svg\" width=\"200\">\n                    <p><span class=\"greenText\"><b>Successful harvest!</b></span><br>Your pay has increased by $0.02. Your bonus pay is now $0.86.</p>\n            ","response":0,"trial_type":"html-button-response","trial_index":122,"time_elapsed":1365887,"internal_node_id":"0.0-4.0-1.57","subject_id":"60fd7be50ef0ad8450c401bc","study_id":"6197b3f67c2b5cd3b6d9596a","session_id":"6197b5f4d3384da1a70c85d3","condition":"contingent","relevant_dimensions":["antennae","pattern"],"bee_group":{"antennae":"B","wings":"X","pattern":"D","legs":"X"},"bonus":1.240000000000001},{"rt":15426.5,"stimulus":"bees-with-color/bee-A1DF.svg","response":1,"trial_type":"image-button-response","trial_index":123,"time_elapsed":1381320,"internal_node_id":"0.0-4.0-0.58","subject_id":"60fd7be50ef0ad8450c401bc","study_id":"6197b3f67c2b5cd3b6d9596a","session_id":"6197b5f4d3384da1a70c85d3","condition":"contingent","relevant_dimensions":["antennae","pattern"],"bee_group":{"antennae":"B","wings":"X","pattern":"D","legs":"X"},"action":"avoid","summary":"bad-avoid","bonus":1.240000000000001},{"rt":3421,"stimulus":"\n                    <p><b>Action: <em>avoid</em></b></p>\n                    <p>This is the bee that you just saw.</p>\n                    <img src=\"bees-with-color/bee-A1DF.svg\" width=\"200\">\n                    <p><br>Your bonus pay is unchanged, and remains at $0.86.</p>\n            ","response":0,"trial_type":"html-button-response","trial_index":124,"time_elapsed":1384746,"internal_node_id":"0.0-4.0-1.58","subject_id":"60fd7be50ef0ad8450c401bc","study_id":"6197b3f67c2b5cd3b6d9596a","session_id":"6197b5f4d3384da1a70c85d3","condition":"contingent","relevant_dimensions":["antennae","pattern"],"bee_group":{"antennae":"B","wings":"X","pattern":"D","legs":"X"},"bonus":1.240000000000001},{"rt":47265.700000047684,"stimulus":"bees-with-color/bee-A1DM.svg","response":1,"trial_type":"image-button-response","trial_index":125,"time_elapsed":1432018,"internal_node_id":"0.0-4.0-0.59","subject_id":"60fd7be50ef0ad8450c401bc","study_id":"6197b3f67c2b5cd3b6d9596a","session_id":"6197b5f4d3384da1a70c85d3","condition":"contingent","relevant_dimensions":["antennae","pattern"],"bee_group":{"antennae":"B","wings":"X","pattern":"D","legs":"X"},"action":"avoid","summary":"bad-avoid","bonus":1.240000000000001},{"rt":1211,"stimulus":"\n                    <p><b>Action: <em>avoid</em></b></p>\n                    <p>This is the bee that you just saw.</p>\n                    <img src=\"bees-with-color/bee-A1DM.svg\" width=\"200\">\n                    <p><br>Your bonus pay is unchanged, and remains at $0.86.</p>\n            ","response":0,"trial_type":"html-button-response","trial_index":126,"time_elapsed":1433235,"internal_node_id":"0.0-4.0-1.59","subject_id":"60fd7be50ef0ad8450c401bc","study_id":"6197b3f67c2b5cd3b6d9596a","session_id":"6197b5f4d3384da1a70c85d3","condition":"contingent","relevant_dimensions":["antennae","pattern"],"bee_group":{"antennae":"B","wings":"X","pattern":"D","legs":"X"},"bonus":1.240000000000001},{"rt":12789.599999964237,"stimulus":"bees-with-color/bee-A2DM.svg","response":1,"trial_type":"image-button-response","trial_index":127,"time_elapsed":1446032,"internal_node_id":"0.0-4.0-0.60","subject_id":"60fd7be50ef0ad8450c401bc","study_id":"6197b3f67c2b5cd3b6d9596a","session_id":"6197b5f4d3384da1a70c85d3","condition":"contingent","relevant_dimensions":["antennae","pattern"],"bee_group":{"antennae":"B","wings":"X","pattern":"D","legs":"X"},"action":"avoid","summary":"bad-avoid","bonus":1.240000000000001},{"rt":3172.599999964237,"stimulus":"\n                    <p><b>Action: <em>avoid</em></b></p>\n                    <p>This is the bee that you just saw.</p>\n                    <img src=\"bees-with-color/bee-A2DM.svg\" width=\"200\">\n                    <p><br>Your bonus pay is unchanged, and remains at $0.86.</p>\n            ","response":0,"trial_type":"html-button-response","trial_index":128,"time_elapsed":1449211,"internal_node_id":"0.0-4.0-1.60","subject_id":"60fd7be50ef0ad8450c401bc","study_id":"6197b3f67c2b5cd3b6d9596a","session_id":"6197b5f4d3384da1a70c85d3","condition":"contingent","relevant_dimensions":["antennae","pattern"],"bee_group":{"antennae":"B","wings":"X","pattern":"D","legs":"X"},"bonus":1.240000000000001},{"rt":3672.900000035763,"stimulus":"bees-with-color/bee-B2DM.svg","response":1,"trial_type":"image-button-response","trial_index":129,"time_elapsed":1452890,"internal_node_id":"0.0-4.0-0.61","subject_id":"60fd7be50ef0ad8450c401bc","study_id":"6197b3f67c2b5cd3b6d9596a","session_id":"6197b5f4d3384da1a70c85d3","condition":"contingent","relevant_dimensions":["antennae","pattern"],"bee_group":{"antennae":"B","wings":"X","pattern":"D","legs":"X"},"action":"avoid","summary":"good-avoid","bonus":1.240000000000001},{"rt":1651.5,"stimulus":"\n                    <p><b>Action: <em>avoid</em></b></p>\n                    <p>This is the bee that you just saw.</p>\n                    <img src=\"bees-with-color/bee-B2DM.svg\" width=\"200\">\n                    <p><br>Your bonus pay is unchanged, and remains at $0.86.</p>\n            ","response":0,"trial_type":"html-button-response","trial_index":130,"time_elapsed":1454549,"internal_node_id":"0.0-4.0-1.61","subject_id":"60fd7be50ef0ad8450c401bc","study_id":"6197b3f67c2b5cd3b6d9596a","session_id":"6197b5f4d3384da1a70c85d3","condition":"contingent","relevant_dimensions":["antennae","pattern"],"bee_group":{"antennae":"B","wings":"X","pattern":"D","legs":"X"},"bonus":1.240000000000001},{"rt":7477.899999976158,"stimulus":"bees-with-color/bee-B1DM.svg","response":1,"trial_type":"image-button-response","trial_index":131,"time_elapsed":1462033,"internal_node_id":"0.0-4.0-0.62","subject_id":"60fd7be50ef0ad8450c401bc","study_id":"6197b3f67c2b5cd3b6d9596a","session_id":"6197b5f4d3384da1a70c85d3","condition":"contingent","relevant_dimensions":["antennae","pattern"],"bee_group":{"antennae":"B","wings":"X","pattern":"D","legs":"X"},"action":"avoid","summary":"good-avoid","bonus":1.240000000000001},{"rt":1299.4000000357628,"stimulus":"\n                    <p><b>Action: <em>avoid</em></b></p>\n                    <p>This is the bee that you just saw.</p>\n                    <img src=\"bees-with-color/bee-B1DM.svg\" width=\"200\">\n                    <p><br>Your bonus pay is unchanged, and remains at $0.86.</p>\n            ","response":0,"trial_type":"html-button-response","trial_index":132,"time_elapsed":1463339,"internal_node_id":"0.0-4.0-1.62","subject_id":"60fd7be50ef0ad8450c401bc","study_id":"6197b3f67c2b5cd3b6d9596a","session_id":"6197b5f4d3384da1a70c85d3","condition":"contingent","relevant_dimensions":["antennae","pattern"],"bee_group":{"antennae":"B","wings":"X","pattern":"D","legs":"X"},"bonus":1.240000000000001},{"rt":10760,"stimulus":"bees-with-color/bee-B1SF.svg","response":0,"trial_type":"image-button-response","trial_index":133,"time_elapsed":1474106,"internal_node_id":"0.0-4.0-0.63","subject_id":"60fd7be50ef0ad8450c401bc","study_id":"6197b3f67c2b5cd3b6d9596a","session_id":"6197b5f4d3384da1a70c85d3","condition":"contingent","relevant_dimensions":["antennae","pattern"],"bee_group":{"antennae":"B","wings":"X","pattern":"D","legs":"X"},"action":"harvest","summary":"good-harvest","bonus":1.240000000000001},{"rt":1190.800000011921,"stimulus":"\n                    <p><b>Action: <em>harvest</em></b></p>\n                    <p>This is the bee that you just saw.</p>\n                    <img src=\"bees-with-color/bee-B1SF.svg\" width=\"200\">\n                    <p><span class=\"greenText\"><b>Successful harvest!</b></span><br>Your pay has increased by $0.02. Your bonus pay is now $0.88.</p>\n            ","response":0,"trial_type":"html-button-response","trial_index":134,"time_elapsed":1475302,"internal_node_id":"0.0-4.0-1.63","subject_id":"60fd7be50ef0ad8450c401bc","study_id":"6197b3f67c2b5cd3b6d9596a","session_id":"6197b5f4d3384da1a70c85d3","condition":"contingent","relevant_dimensions":["antennae","pattern"],"bee_group":{"antennae":"B","wings":"X","pattern":"D","legs":"X"},"bonus":1.240000000000001},{"rt":7439.100000023842,"stimulus":"You have completed the first part of this experiment.<br><br>You will now begin a shorter second part, in which you will receive no feedback.<br>The same rules regarding bonus pay apply.<br><br>Press any key to begin.","response":" ","trial_type":"html-keyboard-response","trial_index":135,"time_elapsed":1482748,"internal_node_id":"0.0-5.0","subject_id":"60fd7be50ef0ad8450c401bc","study_id":"6197b3f67c2b5cd3b6d9596a","session_id":"6197b5f4d3384da1a70c85d3","condition":"contingent","relevant_dimensions":["antennae","pattern"],"bee_group":{"antennae":"B","wings":"X","pattern":"D","legs":"X"},"bonus":1.240000000000001},{"rt":7497.800000011921,"stimulus":"bees-with-color/bee-A2SM.svg","response":0,"trial_type":"image-button-response","trial_index":136,"time_elapsed":1490290,"internal_node_id":"0.0-6.0-0.0","subject_id":"60fd7be50ef0ad8450c401bc","study_id":"6197b3f67c2b5cd3b6d9596a","session_id":"6197b5f4d3384da1a70c85d3","condition":"contingent","relevant_dimensions":["antennae","pattern"],"bee_group":{"antennae":"B","wings":"X","pattern":"D","legs":"X"},"bonus":1.240000000000001},{"rt":15455.199999988079,"stimulus":"bees-with-color/bee-A2DF.svg","response":0,"trial_type":"image-button-response","trial_index":137,"time_elapsed":1505755,"internal_node_id":"0.0-6.0-0.1","subject_id":"60fd7be50ef0ad8450c401bc","study_id":"6197b3f67c2b5cd3b6d9596a","session_id":"6197b5f4d3384da1a70c85d3","condition":"contingent","relevant_dimensions":["antennae","pattern"],"bee_group":{"antennae":"B","wings":"X","pattern":"D","legs":"X"},"bonus":1.240000000000001},{"rt":7044.400000035763,"stimulus":"bees-with-color/bee-B2DF.svg","response":1,"trial_type":"image-button-response","trial_index":138,"time_elapsed":1512808,"internal_node_id":"0.0-6.0-0.2","subject_id":"60fd7be50ef0ad8450c401bc","study_id":"6197b3f67c2b5cd3b6d9596a","session_id":"6197b5f4d3384da1a70c85d3","condition":"contingent","relevant_dimensions":["antennae","pattern"],"bee_group":{"antennae":"B","wings":"X","pattern":"D","legs":"X"},"bonus":1.240000000000001},{"rt":4286.300000011921,"stimulus":"bees-with-color/bee-B1DM.svg","response":1,"trial_type":"image-button-response","trial_index":139,"time_elapsed":1517102,"internal_node_id":"0.0-6.0-0.3","subject_id":"60fd7be50ef0ad8450c401bc","study_id":"6197b3f67c2b5cd3b6d9596a","session_id":"6197b5f4d3384da1a70c85d3","condition":"contingent","relevant_dimensions":["antennae","pattern"],"bee_group":{"antennae":"B","wings":"X","pattern":"D","legs":"X"},"bonus":1.240000000000001},{"rt":6553.5,"stimulus":"bees-with-color/bee-A2SF.svg","response":0,"trial_type":"image-button-response","trial_index":140,"time_elapsed":1523665,"internal_node_id":"0.0-6.0-0.4","subject_id":"60fd7be50ef0ad8450c401bc","study_id":"6197b3f67c2b5cd3b6d9596a","session_id":"6197b5f4d3384da1a70c85d3","condition":"contingent","relevant_dimensions":["antennae","pattern"],"bee_group":{"antennae":"B","wings":"X","pattern":"D","legs":"X"},"bonus":1.240000000000001},{"rt":13152.700000047684,"stimulus":"bees-with-color/bee-B1SM.svg","response":1,"trial_type":"image-button-response","trial_index":141,"time_elapsed":1536826,"internal_node_id":"0.0-6.0-0.5","subject_id":"60fd7be50ef0ad8450c401bc","study_id":"6197b3f67c2b5cd3b6d9596a","session_id":"6197b5f4d3384da1a70c85d3","condition":"contingent","relevant_dimensions":["antennae","pattern"],"bee_group":{"antennae":"B","wings":"X","pattern":"D","legs":"X"},"bonus":1.240000000000001},{"rt":11561.300000011921,"stimulus":"bees-with-color/bee-B2SM.svg","response":0,"trial_type":"image-button-response","trial_index":142,"time_elapsed":1548395,"internal_node_id":"0.0-6.0-0.6","subject_id":"60fd7be50ef0ad8450c401bc","study_id":"6197b3f67c2b5cd3b6d9596a","session_id":"6197b5f4d3384da1a70c85d3","condition":"contingent","relevant_dimensions":["antennae","pattern"],"bee_group":{"antennae":"B","wings":"X","pattern":"D","legs":"X"},"bonus":1.240000000000001},{"rt":13211.199999988079,"stimulus":"bees-with-color/bee-A1DM.svg","response":1,"trial_type":"image-button-response","trial_index":143,"time_elapsed":1561613,"internal_node_id":"0.0-6.0-0.7","subject_id":"60fd7be50ef0ad8450c401bc","study_id":"6197b3f67c2b5cd3b6d9596a","session_id":"6197b5f4d3384da1a70c85d3","condition":"contingent","relevant_dimensions":["antennae","pattern"],"bee_group":{"antennae":"B","wings":"X","pattern":"D","legs":"X"},"bonus":1.240000000000001},{"rt":5856.300000011921,"stimulus":"bees-with-color/bee-B1SF.svg","response":0,"trial_type":"image-button-response","trial_index":144,"time_elapsed":1567477,"internal_node_id":"0.0-6.0-0.8","subject_id":"60fd7be50ef0ad8450c401bc","study_id":"6197b3f67c2b5cd3b6d9596a","session_id":"6197b5f4d3384da1a70c85d3","condition":"contingent","relevant_dimensions":["antennae","pattern"],"bee_group":{"antennae":"B","wings":"X","pattern":"D","legs":"X"},"bonus":1.240000000000001},{"rt":7394.5,"stimulus":"bees-with-color/bee-A1DF.svg","response":0,"trial_type":"image-button-response","trial_index":145,"time_elapsed":1574881,"internal_node_id":"0.0-6.0-0.9","subject_id":"60fd7be50ef0ad8450c401bc","study_id":"6197b3f67c2b5cd3b6d9596a","session_id":"6197b5f4d3384da1a70c85d3","condition":"contingent","relevant_dimensions":["antennae","pattern"],"bee_group":{"antennae":"B","wings":"X","pattern":"D","legs":"X"},"bonus":1.240000000000001},{"rt":5010.599999964237,"stimulus":"bees-with-color/bee-B2DM.svg","response":1,"trial_type":"image-button-response","trial_index":146,"time_elapsed":1579900,"internal_node_id":"0.0-6.0-0.10","subject_id":"60fd7be50ef0ad8450c401bc","study_id":"6197b3f67c2b5cd3b6d9596a","session_id":"6197b5f4d3384da1a70c85d3","condition":"contingent","relevant_dimensions":["antennae","pattern"],"bee_group":{"antennae":"B","wings":"X","pattern":"D","legs":"X"},"bonus":1.240000000000001},{"rt":21706.5,"stimulus":"bees-with-color/bee-A1SM.svg","response":0,"trial_type":"image-button-response","trial_index":147,"time_elapsed":1601616,"internal_node_id":"0.0-6.0-0.11","subject_id":"60fd7be50ef0ad8450c401bc","study_id":"6197b3f67c2b5cd3b6d9596a","session_id":"6197b5f4d3384da1a70c85d3","condition":"contingent","relevant_dimensions":["antennae","pattern"],"bee_group":{"antennae":"B","wings":"X","pattern":"D","legs":"X"},"bonus":1.240000000000001},{"rt":61167.60000002384,"stimulus":"bees-with-color/bee-B2SF.svg","response":0,"trial_type":"image-button-response","trial_index":148,"time_elapsed":1662793,"internal_node_id":"0.0-6.0-0.12","subject_id":"60fd7be50ef0ad8450c401bc","study_id":"6197b3f67c2b5cd3b6d9596a","session_id":"6197b5f4d3384da1a70c85d3","condition":"contingent","relevant_dimensions":["antennae","pattern"],"bee_group":{"antennae":"B","wings":"X","pattern":"D","legs":"X"},"bonus":1.240000000000001},{"rt":2972.300000011921,"stimulus":"bees-with-color/bee-B1DF.svg","response":1,"trial_type":"image-button-response","trial_index":149,"time_elapsed":1665774,"internal_node_id":"0.0-6.0-0.13","subject_id":"60fd7be50ef0ad8450c401bc","study_id":"6197b3f67c2b5cd3b6d9596a","session_id":"6197b5f4d3384da1a70c85d3","condition":"contingent","relevant_dimensions":["antennae","pattern"],"bee_group":{"antennae":"B","wings":"X","pattern":"D","legs":"X"},"bonus":1.240000000000001},{"rt":9240.800000011921,"stimulus":"bees-with-color/bee-A2DM.svg","response":0,"trial_type":"image-button-response","trial_index":150,"time_elapsed":1675021,"internal_node_id":"0.0-6.0-0.14","subject_id":"60fd7be50ef0ad8450c401bc","study_id":"6197b3f67c2b5cd3b6d9596a","session_id":"6197b5f4d3384da1a70c85d3","condition":"contingent","relevant_dimensions":["antennae","pattern"],"bee_group":{"antennae":"B","wings":"X","pattern":"D","legs":"X"},"bonus":1.240000000000001},{"rt":10925.800000011921,"stimulus":"bees-with-color/bee-A1SF.svg","response":0,"trial_type":"image-button-response","trial_index":151,"time_elapsed":1685955,"internal_node_id":"0.0-6.0-0.15","subject_id":"60fd7be50ef0ad8450c401bc","study_id":"6197b3f67c2b5cd3b6d9596a","session_id":"6197b5f4d3384da1a70c85d3","condition":"contingent","relevant_dimensions":["antennae","pattern"],"bee_group":{"antennae":"B","wings":"X","pattern":"D","legs":"X"},"bonus":1.240000000000001},{"rt":1790.1000000238419,"stimulus":"bees-with-color/bee-A1SF.svg","response":0,"trial_type":"image-button-response","trial_index":152,"time_elapsed":1687752,"internal_node_id":"0.0-6.0-0.16","subject_id":"60fd7be50ef0ad8450c401bc","study_id":"6197b3f67c2b5cd3b6d9596a","session_id":"6197b5f4d3384da1a70c85d3","condition":"contingent","relevant_dimensions":["antennae","pattern"],"bee_group":{"antennae":"B","wings":"X","pattern":"D","legs":"X"},"bonus":1.240000000000001},{"rt":7711.600000023842,"stimulus":"bees-with-color/bee-A1SM.svg","response":0,"trial_type":"image-button-response","trial_index":153,"time_elapsed":1695469,"internal_node_id":"0.0-6.0-0.17","subject_id":"60fd7be50ef0ad8450c401bc","study_id":"6197b3f67c2b5cd3b6d9596a","session_id":"6197b5f4d3384da1a70c85d3","condition":"contingent","relevant_dimensions":["antennae","pattern"],"bee_group":{"antennae":"B","wings":"X","pattern":"D","legs":"X"},"bonus":1.240000000000001},{"rt":4865.800000011921,"stimulus":"bees-with-color/bee-A2SM.svg","response":0,"trial_type":"image-button-response","trial_index":154,"time_elapsed":1700342,"internal_node_id":"0.0-6.0-0.18","subject_id":"60fd7be50ef0ad8450c401bc","study_id":"6197b3f67c2b5cd3b6d9596a","session_id":"6197b5f4d3384da1a70c85d3","condition":"contingent","relevant_dimensions":["antennae","pattern"],"bee_group":{"antennae":"B","wings":"X","pattern":"D","legs":"X"},"bonus":1.240000000000001},{"rt":3890,"stimulus":"bees-with-color/bee-B1SF.svg","response":0,"trial_type":"image-button-response","trial_index":155,"time_elapsed":1704239,"internal_node_id":"0.0-6.0-0.19","subject_id":"60fd7be50ef0ad8450c401bc","study_id":"6197b3f67c2b5cd3b6d9596a","session_id":"6197b5f4d3384da1a70c85d3","condition":"contingent","relevant_dimensions":["antennae","pattern"],"bee_group":{"antennae":"B","wings":"X","pattern":"D","legs":"X"},"bonus":1.240000000000001},{"rt":5534.199999988079,"stimulus":"bees-with-color/bee-B1SM.svg","response":1,"trial_type":"image-button-response","trial_index":156,"time_elapsed":1709780,"internal_node_id":"0.0-6.0-0.20","subject_id":"60fd7be50ef0ad8450c401bc","study_id":"6197b3f67c2b5cd3b6d9596a","session_id":"6197b5f4d3384da1a70c85d3","condition":"contingent","relevant_dimensions":["antennae","pattern"],"bee_group":{"antennae":"B","wings":"X","pattern":"D","legs":"X"},"bonus":1.240000000000001},{"rt":1248,"stimulus":"bees-with-color/bee-B2DM.svg","response":1,"trial_type":"image-button-response","trial_index":157,"time_elapsed":1711036,"internal_node_id":"0.0-6.0-0.21","subject_id":"60fd7be50ef0ad8450c401bc","study_id":"6197b3f67c2b5cd3b6d9596a","session_id":"6197b5f4d3384da1a70c85d3","condition":"contingent","relevant_dimensions":["antennae","pattern"],"bee_group":{"antennae":"B","wings":"X","pattern":"D","legs":"X"},"bonus":1.240000000000001},{"rt":14675.799999952316,"stimulus":"bees-with-color/bee-A1DM.svg","response":1,"trial_type":"image-button-response","trial_index":158,"time_elapsed":1725717,"internal_node_id":"0.0-6.0-0.22","subject_id":"60fd7be50ef0ad8450c401bc","study_id":"6197b3f67c2b5cd3b6d9596a","session_id":"6197b5f4d3384da1a70c85d3","condition":"contingent","relevant_dimensions":["antennae","pattern"],"bee_group":{"antennae":"B","wings":"X","pattern":"D","legs":"X"},"bonus":1.240000000000001},{"rt":1357.699999988079,"stimulus":"bees-with-color/bee-B1DF.svg","response":1,"trial_type":"image-button-response","trial_index":159,"time_elapsed":1727082,"internal_node_id":"0.0-6.0-0.23","subject_id":"60fd7be50ef0ad8450c401bc","study_id":"6197b3f67c2b5cd3b6d9596a","session_id":"6197b5f4d3384da1a70c85d3","condition":"contingent","relevant_dimensions":["antennae","pattern"],"bee_group":{"antennae":"B","wings":"X","pattern":"D","legs":"X"},"bonus":1.240000000000001},{"rt":10507.199999988079,"stimulus":"bees-with-color/bee-A2DF.svg","response":0,"trial_type":"image-button-response","trial_index":160,"time_elapsed":1737595,"internal_node_id":"0.0-6.0-0.24","subject_id":"60fd7be50ef0ad8450c401bc","study_id":"6197b3f67c2b5cd3b6d9596a","session_id":"6197b5f4d3384da1a70c85d3","condition":"contingent","relevant_dimensions":["antennae","pattern"],"bee_group":{"antennae":"B","wings":"X","pattern":"D","legs":"X"},"bonus":1.240000000000001},{"rt":6876.600000023842,"stimulus":"bees-with-color/bee-A1DF.svg","response":1,"trial_type":"image-button-response","trial_index":161,"time_elapsed":1744480,"internal_node_id":"0.0-6.0-0.25","subject_id":"60fd7be50ef0ad8450c401bc","study_id":"6197b3f67c2b5cd3b6d9596a","session_id":"6197b5f4d3384da1a70c85d3","condition":"contingent","relevant_dimensions":["antennae","pattern"],"bee_group":{"antennae":"B","wings":"X","pattern":"D","legs":"X"},"bonus":1.240000000000001},{"rt":8002.5,"stimulus":"