[{"success":true,"trial_type":"fullscreen","trial_index":0,"time_elapsed":19106,"internal_node_id":"0.0-0.0","subject_id":"5c58d8472edc490001c80bda","study_id":"6197b3f67c2b5cd3b6d9596a","session_id":"6197b9edfd787a515f6be155","condition":"full-information","relevant_dimensions":["wings","legs"],"bee_group":{"antennae":"X","wings":"2","pattern":"X","legs":"M"},"bonus":0.24000000000000016},{"success":true,"timeout":false,"failed_images":[],"failed_audio":[],"failed_video":[],"trial_type":"preload","trial_index":1,"time_elapsed":22499,"internal_node_id":"0.0-1.0","subject_id":"5c58d8472edc490001c80bda","study_id":"6197b3f67c2b5cd3b6d9596a","session_id":"6197b9edfd787a515f6be155","condition":"full-information","relevant_dimensions":["wings","legs"],"bee_group":{"antennae":"X","wings":"2","pattern":"X","legs":"M"},"bonus":0.24000000000000016},{"rt":2938,"stimulus":"Welcome! Press any key to begin.","response":" ","trial_type":"html-keyboard-response","trial_index":2,"time_elapsed":25439,"internal_node_id":"0.0-2.0","subject_id":"5c58d8472edc490001c80bda","study_id":"6197b3f67c2b5cd3b6d9596a","session_id":"6197b9edfd787a515f6be155","condition":"full-information","relevant_dimensions":["wings","legs"],"bee_group":{"antennae":"X","wings":"2","pattern":"X","legs":"M"},"bonus":0.24000000000000016},{"view_history":[{"page_index":0,"viewing_time":2996},{"page_index":1,"viewing_time":28861},{"page_index":2,"viewing_time":7728},{"page_index":3,"viewing_time":8248},{"page_index":4,"viewing_time":6968},{"page_index":5,"viewing_time":3120},{"page_index":6,"viewing_time":6808},{"page_index":7,"viewing_time":4712},{"page_index":8,"viewing_time":3609},{"page_index":9,"viewing_time":3016},{"page_index":10,"viewing_time":1711},{"page_index":11,"viewing_time":5063},{"page_index":12,"viewing_time":13170},{"page_index":13,"viewing_time":1031},{"page_index":14,"viewing_time":1752}],"rt":98793,"trial_type":"instructions","trial_index":3,"time_elapsed":124232,"internal_node_id":"0.0-3.0-0.0","subject_id":"5c58d8472edc490001c80bda","study_id":"6197b3f67c2b5cd3b6d9596a","session_id":"6197b9edfd787a515f6be155","condition":"full-information","relevant_dimensions":["wings","legs"],"bee_group":{"antennae":"X","wings":"2","pattern":"X","legs":"M"},"bonus":0.24000000000000016},{"rt":10551,"response":{"Q0":["Two or six legs","Stripes or spots on body","Single or double wings","Antennae or no antennae"]},"question_order":[0],"trial_type":"survey-multi-select","trial_index":4,"time_elapsed":134793,"internal_node_id":"0.0-3.0-1.0","subject_id":"5c58d8472edc490001c80bda","study_id":"6197b3f67c2b5cd3b6d9596a","session_id":"6197b9edfd787a515f6be155","condition":"full-information","relevant_dimensions":["wings","legs"],"bee_group":{"antennae":"X","wings":"2","pattern":"X","legs":"M"},"correct":true,"bonus":0.24000000000000016},{"rt":24194,"response":{"Q1":"No.","Q2":"Based on the four features of the bee.","Q3":"You learn if it was friendly or dangerous, but do not alter your bonus."},"question_order":[0,1,2],"trial_type":"survey-multi-choice","trial_index":5,"time_elapsed":158994,"internal_node_id":"0.0-3.0-2.0","subject_id":"5c58d8472edc490001c80bda","study_id":"6197b3f67c2b5cd3b6d9596a","session_id":"6197b9edfd787a515f6be155","condition":"full-information","relevant_dimensions":["wings","legs"],"bee_group":{"antennae":"X","wings":"2","pattern":"X","legs":"M"},"correct":true,"bonus":0.24000000000000016},{"rt":1402,"stimulus":"<p>Congrats, you got everything right<br>When you're ready, click the button below to continue to the experiment.</p>","response":0,"trial_type":"html-button-response","trial_index":6,"time_elapsed":160400,"internal_node_id":"0.0-3.0-3.0","subject_id":"5c58d8472edc490001c80bda","study_id":"6197b3f67c2b5cd3b6d9596a","session_id":"6197b9edfd787a515f6be155","condition":"full-information","relevant_dimensions":["wings","legs"],"bee_group":{"antennae":"X","wings":"2","pattern":"X","legs":"M"},"bonus":0.24000000000000016},{"rt":5660,"stimulus":"bees-with-color/bee-A2SM.svg","response":0,"trial_type":"image-button-response","trial_index":7,"time_elapsed":166064,"internal_node_id":"0.0-4.0-0.0","subject_id":"5c58d8472edc490001c80bda","study_id":"6197b3f67c2b5cd3b6d9596a","session_id":"6197b9edfd787a515f6be155","condition":"full-information","relevant_dimensions":["wings","legs"],"bee_group":{"antennae":"X","wings":"2","pattern":"X","legs":"M"},"action":"harvest","summary":"bad-harvest","bonus":0.24000000000000016},{"rt":5349,"stimulus":"\n                    <p><b>Action: <em>harvest</em></b></p>\n                    <p>This is the bee that you just saw.</p>\n                    <img src=\"bees-with-color/bee-A2SM.svg\" width=\"200\">\n                    <p><span class=\"redText\">Bad choice, the bee was angry.</span><br><b>You have been stung!</b><br>Your pay has been decreased by $0.10. Your bonus pay is now $0.44.</p>\n            ","response":0,"trial_type":"html-button-response","trial_index":8,"time_elapsed":171457,"internal_node_id":"0.0-4.0-1.0","subject_id":"5c58d8472edc490001c80bda","study_id":"6197b3f67c2b5cd3b6d9596a","session_id":"6197b9edfd787a515f6be155","condition":"full-information","relevant_dimensions":["wings","legs"],"bee_group":{"antennae":"X","wings":"2","pattern":"X","legs":"M"},"bonus":0.24000000000000016},{"rt":3268,"stimulus":"bees-with-color/bee-A1SM.svg","response":1,"trial_type":"image-button-response","trial_index":9,"time_elapsed":174728,"internal_node_id":"0.0-4.0-0.1","subject_id":"5c58d8472edc490001c80bda","study_id":"6197b3f67c2b5cd3b6d9596a","session_id":"6197b9edfd787a515f6be155","condition":"full-information","relevant_dimensions":["wings","legs"],"bee_group":{"antennae":"X","wings":"2","pattern":"X","legs":"M"},"action":"avoid","summary":"bad-avoid","bonus":0.24000000000000016},{"rt":3653,"stimulus":"\n                    <p><b>Action: <em>avoid</em></b></p>\n                    <p>This is the bee that you just saw.</p>\n                    <img src=\"bees-with-color/bee-A1SM.svg\" width=\"200\">\n                    <p><span class=\"redText\">Bad choice,</span> the bee was friendly.<br>Your bonus pay is unchanged, and remains at $0.44.</p>\n            ","response":0,"trial_type":"html-button-response","trial_index":10,"time_elapsed":178384,"internal_node_id":"0.0-4.0-1.1","subject_id":"5c58d8472edc490001c80bda","study_id":"6197b3f67c2b5cd3b6d9596a","session_id":"6197b9edfd787a515f6be155","condition":"full-information","relevant_dimensions":["wings","legs"],"bee_group":{"antennae":"X","wings":"2","pattern":"X","legs":"M"},"bonus":0.24000000000000016},{"rt":3140,"stimulus":"bees-with-color/bee-B1SF.svg","response":0,"trial_type":"image-button-response","trial_index":11,"time_elapsed":181529,"internal_node_id":"0.0-4.0-0.2","subject_id":"5c58d8472edc490001c80bda","study_id":"6197b3f67c2b5cd3b6d9596a","session_id":"6197b9edfd787a515f6be155","condition":"full-information","relevant_dimensions":["wings","legs"],"bee_group":{"antennae":"X","wings":"2","pattern":"X","legs":"M"},"action":"harvest","summary":"good-harvest","bonus":0.24000000000000016},{"rt":1685,"stimulus":"\n                    <p><b>Action: <em>harvest</em></b></p>\n                    <p>This is the bee that you just saw.</p>\n                    <img src=\"bees-with-color/bee-B1SF.svg\" width=\"200\">\n                    <p><span class=\"greenText\"><b>Successful harvest!</b></span><br>Your pay has increased by $0.02. Your bonus pay is now $0.46.</p>\n            ","response":0,"trial_type":"html-button-response","trial_index":12,"time_elapsed":183216,"internal_node_id":"0.0-4.0-1.2","subject_id":"5c58d8472edc490001c80bda","study_id":"6197b3f67c2b5cd3b6d9596a","session_id":"6197b9edfd787a515f6be155","condition":"full-information","relevant_dimensions":["wings","legs"],"bee_group":{"antennae":"X","wings":"2","pattern":"X","legs":"M"},"bonus":0.24000000000000016},{"rt":1174,"stimulus":"bees-with-color/bee-A2SF.svg","response":1,"trial_type":"image-button-response","trial_index":13,"time_elapsed":184391,"internal_node_id":"0.0-4.0-0.3","subject_id":"5c58d8472edc490001c80bda","study_id":"6197b3f67c2b5cd3b6d9596a","session_id":"6197b9edfd787a515f6be155","condition":"full-information","relevant_dimensions":["wings","legs"],"bee_group":{"antennae":"X","wings":"2","pattern":"X","legs":"M"},"action":"avoid","summary":"bad-avoid","bonus":0.24000000000000016},{"rt":4221,"stimulus":"\n                    <p><b>Action: <em>avoid</em></b></p>\n                    <p>This is the bee that you just saw.</p>\n                    <img src=\"bees-with-color/bee-A2SF.svg\" width=\"200\">\n                    <p><span class=\"redText\">Bad choice,</span> the bee was friendly.<br>Your bonus pay is unchanged, and remains at $0.46.</p>\n            ","response":0,"trial_type":"html-button-response","trial_index":14,"time_elapsed":188616,"internal_node_id":"0.0-4.0-1.3","subject_id":"5c58d8472edc490001c80bda","study_id":"6197b3f67c2b5cd3b6d9596a","session_id":"6197b9edfd787a515f6be155","condition":"full-information","relevant_dimensions":["wings","legs"],"bee_group":{"antennae":"X","wings":"2","pattern":"X","legs":"M"},"bonus":0.24000000000000016},{"rt":5550,"stimulus":"bees-with-color/bee-B2DF.svg","response":1,"trial_type":"image-button-response","trial_index":15,"time_elapsed":194168,"internal_node_id":"0.0-4.0-0.4","subject_id":"5c58d8472edc490001c80bda","study_id":"6197b3f67c2b5cd3b6d9596a","session_id":"6197b9edfd787a515f6be155","condition":"full-information","relevant_dimensions":["wings","legs"],"bee_group":{"antennae":"X","wings":"2","pattern":"X","legs":"M"},"action":"avoid","summary":"bad-avoid","bonus":0.24000000000000016},{"rt":2549,"stimulus":"\n                    <p><b>Action: <em>avoid</em></b></p>\n                    <p>This is the bee that you just saw.</p>\n                    <img src=\"bees-with-color/bee-B2DF.svg\" width=\"200\">\n                    <p><span class=\"redText\">Bad choice,</span> the bee was friendly.<br>Your bonus pay is unchanged, and remains at $0.46.</p>\n            ","response":0,"trial_type":"html-button-response","trial_index":16,"time_elapsed":196720,"internal_node_id":"0.0-4.0-1.4","subject_id":"5c58d8472edc490001c80bda","study_id":"6197b3f67c2b5cd3b6d9596a","session_id":"6197b9edfd787a515f6be155","condition":"full-information","relevant_dimensions":["wings","legs"],"bee_group":{"antennae":"X","wings":"2","pattern":"X","legs":"M"},"bonus":0.24000000000000016},{"rt":5358,"stimulus":"bees-with-color/bee-B2SM.svg","response":0,"trial_type":"image-button-response","trial_index":17,"time_elapsed":202080,"internal_node_id":"0.0-4.0-0.5","subject_id":"5c58d8472edc490001c80bda","study_id":"6197b3f67c2b5cd3b6d9596a","session_id":"6197b9edfd787a515f6be155","condition":"full-information","relevant_dimensions":["wings","legs"],"bee_group":{"antennae":"X","wings":"2","pattern":"X","legs":"M"},"action":"harvest","summary":"bad-harvest","bonus":0.24000000000000016},{"rt":4781,"stimulus":"\n                    <p><b>Action: <em>harvest</em></b></p>\n                    <p>This is the bee that you just saw.</p>\n                    <img src=\"bees-with-color/bee-B2SM.svg\" width=\"200\">\n                    <p><span class=\"redText\">Bad choice, the bee was angry.</span><br><b>You have been stung!</b><br>Your pay has been decreased by $0.10. Your bonus pay is now $0.36.</p>\n            ","response":0,"trial_type":"html-button-response","trial_index":18,"time_elapsed":206864,"internal_node_id":"0.0-4.0-1.5","subject_id":"5c58d8472edc490001c80bda","study_id":"6197b3f67c2b5cd3b6d9596a","session_id":"6197b9edfd787a515f6be155","condition":"full-information","relevant_dimensions":["wings","legs"],"bee_group":{"antennae":"X","wings":"2","pattern":"X","legs":"M"},"bonus":0.24000000000000016},{"rt":1995,"stimulus":"bees-with-color/bee-A1DF.svg","response":0,"trial_type":"image-button-response","trial_index":19,"time_elapsed":208864,"internal_node_id":"0.0-4.0-0.6","subject_id":"5c58d8472edc490001c80bda","study_id":"6197b3f67c2b5cd3b6d9596a","session_id":"6197b9edfd787a515f6be155","condition":"full-information","relevant_dimensions":["wings","legs"],"bee_group":{"antennae":"X","wings":"2","pattern":"X","legs":"M"},"action":"harvest","summary":"good-harvest","bonus":0.24000000000000016},{"rt":1508,"stimulus":"\n                    <p><b>Action: <em>harvest</em></b></p>\n                    <p>This is the bee that you just saw.</p>\n                    <img src=\"bees-with-color/bee-A1DF.svg\" width=\"200\">\n                    <p><span class=\"greenText\"><b>Successful harvest!</b></span><br>Your pay has increased by $0.02. Your bonus pay is now $0.38.</p>\n            ","response":0,"trial_type":"html-button-response","trial_index":20,"time_elapsed":210377,"internal_node_id":"0.0-4.0-1.6","subject_id":"5c58d8472edc490001c80bda","study_id":"6197b3f67c2b5cd3b6d9596a","session_id":"6197b9edfd787a515f6be155","condition":"full-information","relevant_dimensions":["wings","legs"],"bee_group":{"antennae":"X","wings":"2","pattern":"X","legs":"M"},"bonus":0.24000000000000016},{"rt":3478,"stimulus":"bees-with-color/bee-B1SM.svg","response":1,"trial_type":"image-button-response","trial_index":21,"time_elapsed":213857,"internal_node_id":"0.0-4.0-0.7","subject_id":"5c58d8472edc490001c80bda","study_id":"6197b3f67c2b5cd3b6d9596a","session_id":"6197b9edfd787a515f6be155","condition":"full-information","relevant_dimensions":["wings","legs"],"bee_group":{"antennae":"X","wings":"2","pattern":"X","legs":"M"},"action":"avoid","summary":"bad-avoid","bonus":0.24000000000000016},{"rt":2149,"stimulus":"\n                    <p><b>Action: <em>avoid</em></b></p>\n                    <p>This is the bee that you just saw.</p>\n                    <img src=\"bees-with-color/bee-B1SM.svg\" width=\"200\">\n                    <p><span class=\"redText\">Bad choice,</span> the bee was friendly.<br>Your bonus pay is unchanged, and remains at $0.38.</p>\n            ","response":0,"trial_type":"html-button-response","trial_index":22,"time_elapsed":216008,"internal_node_id":"0.0-4.0-1.7","subject_id":"5c58d8472edc490001c80bda","study_id":"6197b3f67c2b5cd3b6d9596a","session_id":"6197b9edfd787a515f6be155","condition":"full-information","relevant_dimensions":["wings","legs"],"bee_group":{"antennae":"X","wings":"2","pattern":"X","legs":"M"},"bonus":0.24000000000000016},{"rt":3086,"stimulus":"bees-with-color/bee-B2SF.svg","response":0,"trial_type":"image-button-response","trial_index":23,"time_elapsed":219097,"internal_node_id":"0.0-4.0-0.8","subject_id":"5c58d8472edc490001c80bda","study_id":"6197b3f67c2b5cd3b6d9596a","session_id":"6197b9edfd787a515f6be155","condition":"full-information","relevant_dimensions":["wings","legs"],"bee_group":{"antennae":"X","wings":"2","pattern":"X","legs":"M"},"action":"harvest","summary":"good-harvest","bonus":0.24000000000000016},{"rt":1173,"stimulus":"\n                    <p><b>Action: <em>harvest</em></b></p>\n                    <p>This is the bee that you just saw.</p>\n                    <img src=\"bees-with-color/bee-B2SF.svg\" width=\"200\">\n                    <p><span class=\"greenText\"><b>Successful harvest!</b></span><br>Your pay has increased by $0.02. Your bonus pay is now $0.40.</p>\n            ","response":0,"trial_type":"html-button-response","trial_index":24,"time_elapsed":220272,"internal_node_id":"0.0-4.0-1.8","subject_id":"5c58d8472edc490001c80bda","study_id":"6197b3f67c2b5cd3b6d9596a","session_id":"6197b9edfd787a515f6be155","condition":"full-information","relevant_dimensions":["wings","legs"],"bee_group":{"antennae":"X","wings":"2","pattern":"X","legs":"M"},"bonus":0.24000000000000016},{"rt":1678,"stimulus":"bees-with-color/bee-A1DM.svg","response":1,"trial_type":"image-button-response","trial_index":25,"time_elapsed":221952,"internal_node_id":"0.0-4.0-0.9","subject_id":"5c58d8472edc490001c80bda","study_id":"6197b3f67c2b5cd3b6d9596a","session_id":"6197b9edfd787a515f6be155","condition":"full-information","relevant_dimensions":["wings","legs"],"bee_group":{"antennae":"X","wings":"2","pattern":"X","legs":"M"},"action":"avoid","summary":"bad-avoid","bonus":0.24000000000000016},{"rt":1647,"stimulus":"\n                    <p><b>Action: <em>avoid</em></b></p>\n                    <p>This is the bee that you just saw.</p>\n                    <img src=\"bees-with-color/bee-A1DM.svg\" width=\"200\">\n                    <p><span class=\"redText\">Bad choice,</span> the bee was friendly.<br>Your bonus pay is unchanged, and remains at $0.40.</p>\n            ","response":0,"trial_type":"html-button-response","trial_index":26,"time_elapsed":223600,"internal_node_id":"0.0-4.0-1.9","subject_id":"5c58d8472edc490001c80bda","study_id":"6197b3f67c2b5cd3b6d9596a","session_id":"6197b9edfd787a515f6be155","condition":"full-information","relevant_dimensions":["wings","legs"],"bee_group":{"antennae":"X","wings":"2","pattern":"X","legs":"M"},"bonus":0.24000000000000016},{"rt":1830,"stimulus":"bees-with-color/bee-B1DM.svg","response":1,"trial_type":"image-button-response","trial_index":27,"time_elapsed":225432,"internal_node_id":"0.0-4.0-0.10","subject_id":"5c58d8472edc490001c80bda","study_id":"6197b3f67c2b5cd3b6d9596a","session_id":"6197b9edfd787a515f6be155","condition":"full-information","relevant_dimensions":["wings","legs"],"bee_group":{"antennae":"X","wings":"2","pattern":"X","legs":"M"},"action":"avoid","summary":"bad-avoid","bonus":0.24000000000000016},{"rt":1190,"stimulus":"\n                    <p><b>Action: <em>avoid</em></b></p>\n                    <p>This is the bee that you just saw.</p>\n                    <img src=\"bees-with-color/bee-B1DM.svg\" width=\"200\">\n                    <p><span class=\"redText\">Bad choice,</span> the bee was friendly.<br>Your bonus pay is unchanged, and remains at $0.40.</p>\n            ","response":0,"trial_type":"html-button-response","trial_index":28,"time_elapsed":226624,"internal_node_id":"0.0-4.0-1.10","subject_id":"5c58d8472edc490001c80bda","study_id":"6197b3f67c2b5cd3b6d9596a","session_id":"6197b9edfd787a515f6be155","condition":"full-information","relevant_dimensions":["wings","legs"],"bee_group":{"antennae":"X","wings":"2","pattern":"X","legs":"M"},"bonus":0.24000000000000016},{"rt":1950,"stimulus":"bees-with-color/bee-A2DF.svg","response":1,"trial_type":"image-button-response","trial_index":29,"time_elapsed":228576,"internal_node_id":"0.0-4.0-0.11","subject_id":"5c58d8472edc490001c80bda","study_id":"6197b3f67c2b5cd3b6d9596a","session_id":"6197b9edfd787a515f6be155","condition":"full-information","relevant_dimensions":["wings","legs"],"bee_group":{"antennae":"X","wings":"2","pattern":"X","legs":"M"},"action":"avoid","summary":"bad-avoid","bonus":0.24000000000000016},{"rt":1077,"stimulus":"\n                    <p><b>Action: <em>avoid</em></b></p>\n                    <p>This is the bee that you just saw.</p>\n                    <img src=\"bees-with-color/bee-A2DF.svg\" width=\"200\">\n                    <p><span class=\"redText\">Bad choice,</span> the bee was friendly.<br>Your bonus pay is unchanged, and remains at $0.40.</p>\n            ","response":0,"trial_type":"html-button-response","trial_index":30,"time_elapsed":229656,"internal_node_id":"0.0-4.0-1.11","subject_id":"5c58d8472edc490001c80bda","study_id":"6197b3f67c2b5cd3b6d9596a","session_id":"6197b9edfd787a515f6be155","condition":"full-information","relevant_dimensions":["wings","legs"],"bee_group":{"antennae":"X","wings":"2","pattern":"X","legs":"M"},"bonus":0.24000000000000016},{"rt":3942,"stimulus":"bees-with-color/bee-B1DF.svg","response":1,"trial_type":"image-button-response","trial_index":31,"time_elapsed":233600,"internal_node_id":"0.0-4.0-0.12","subject_id":"5c58d8472edc490001c80bda","study_id":"6197b3f67c2b5cd3b6d9596a","session_id":"6197b9edfd787a515f6be155","condition":"full-information","relevant_dimensions":["wings","legs"],"bee_group":{"antennae":"X","wings":"2","pattern":"X","legs":"M"},"action":"avoid","summary":"bad-avoid","bonus":0.24000000000000016},{"rt":1110,"stimulus":"\n                    <p><b>Action: <em>avoid</em></b></p>\n                    <p>This is the bee that you just saw.</p>\n                    <img src=\"bees-with-color/bee-B1DF.svg\" width=\"200\">\n                    <p><span class=\"redText\">Bad choice,</span> the bee was friendly.<br>Your bonus pay is unchanged, and remains at $0.40.</p>\n            ","response":0,"trial_type":"html-button-response","trial_index":32,"time_elapsed":234712,"internal_node_id":"0.0-4.0-1.12","subject_id":"5c58d8472edc490001c80bda","study_id":"6197b3f67c2b5cd3b6d9596a","session_id":"6197b9edfd787a515f6be155","condition":"full-information","relevant_dimensions":["wings","legs"],"bee_group":{"antennae":"X","wings":"2","pattern":"X","legs":"M"},"bonus":0.24000000000000016},{"rt":1623,"stimulus":"bees-with-color/bee-A1SF.svg","response":1,"trial_type":"image-button-response","trial_index":33,"time_elapsed":236336,"internal_node_id":"0.0-4.0-0.13","subject_id":"5c58d8472edc490001c80bda","study_id":"6197b3f67c2b5cd3b6d9596a","session_id":"6197b9edfd787a515f6be155","condition":"full-information","relevant_dimensions":["wings","legs"],"bee_group":{"antennae":"X","wings":"2","pattern":"X","legs":"M"},"action":"avoid","summary":"bad-avoid","bonus":0.24000000000000016},{"rt":989,"stimulus":"\n                    <p><b>Action: <em>avoid</em></b></p>\n                    <p>This is the bee that you just saw.</p>\n                    <img src=\"bees-with-color/bee-A1SF.svg\" width=\"200\">\n                    <p><span class=\"redText\">Bad choice,</span> the bee was friendly.<br>Your bonus pay is unchanged, and remains at $0.40.</p>\n            ","response":0,"trial_type":"html-button-response","trial_index":34,"time_elapsed":237328,"internal_node_id":"0.0-4.0-1.13","subject_id":"5c58d8472edc490001c80bda","study_id":"6197b3f67c2b5cd3b6d9596a","session_id":"6197b9edfd787a515f6be155","condition":"full-information","relevant_dimensions":["wings","legs"],"bee_group":{"antennae":"X","wings":"2","pattern":"X","legs":"M"},"bonus":0.24000000000000016},{"rt":1417,"stimulus":"bees-with-color/bee-A2DM.svg","response":0,"trial_type":"image-button-response","trial_index":35,"time_elapsed":238748,"internal_node_id":"0.0-4.0-0.14","subject_id":"5c58d8472edc490001c80bda","study_id":"6197b3f67c2b5cd3b6d9596a","session_id":"6197b9edfd787a515f6be155","condition":"full-information","relevant_dimensions":["wings","legs"],"bee_group":{"antennae":"X","wings":"2","pattern":"X","legs":"M"},"action":"harvest","summary":"bad-harvest","bonus":0.24000000000000016},{"rt":889,"stimulus":"\n                    <p><b>Action: <em>harvest</em></b></p>\n                    <p>This is the bee that you just saw.</p>\n                    <img src=\"bees-with-color/bee-A2DM.svg\" width=\"200\">\n                    <p><span class=\"redText\">Bad choice, the bee was angry.</span><br><b>You have been stung!</b><br>Your pay has been decreased by $0.10. Your bonus pay is now $0.30.</p>\n            ","response":0,"trial_type":"html-button-response","trial_index":36,"time_elapsed":239640,"internal_node_id":"0.0-4.0-1.14","subject_id":"5c58d8472edc490001c80bda","study_id":"6197b3f67c2b5cd3b6d9596a","session_id":"6197b9edfd787a515f6be155","condition":"full-information","relevant_dimensions":["wings","legs"],"bee_group":{"antennae":"X","wings":"2","pattern":"X","legs":"M"},"bonus":0.24000000000000016},{"rt":1439,"stimulus":"bees-with-color/bee-B2DM.svg","response":0,"trial_type":"image-button-response","trial_index":37,"time_elapsed":241079,"internal_node_id":"0.0-4.0-0.15","subject_id":"5c58d8472edc490001c80bda","study_id":"6197b3f67c2b5cd3b6d9596a","session_id":"6197b9edfd787a515f6be155","condition":"full-information","relevant_dimensions":["wings","legs"],"bee_group":{"antennae":"X","wings":"2","pattern":"X","legs":"M"},"action":"harvest","summary":"bad-harvest","bonus":0.24000000000000016},{"rt":1065,"stimulus":"\n                    <p><b>Action: <em>harvest</em></b></p>\n                    <p>This is the bee that you just saw.</p>\n                    <img src=\"bees-with-color/bee-B2DM.svg\" width=\"200\">\n                    <p><span class=\"redText\">Bad choice, the bee was angry.</span><br><b>You have been stung!</b><br>Your pay has been decreased by $0.10. Your bonus pay is now $0.20.</p>\n            ","response":0,"trial_type":"html-button-response","trial_index":38,"time_elapsed":242147,"internal_node_id":"0.0-4.0-1.15","subject_id":"5c58d8472edc490001c80bda","study_id":"6197b3f67c2b5cd3b6d9596a","session_id":"6197b9edfd787a515f6be155","condition":"full-information","relevant_dimensions":["wings","legs"],"bee_group":{"antennae":"X","wings":"2","pattern":"X","legs":"M"},"bonus":0.24000000000000016},{"rt":1784,"stimulus":"bees-with-color/bee-A2DM.svg","response":1,"trial_type":"image-button-response","trial_index":39,"time_elapsed":243937,"internal_node_id":"0.0-4.0-0.16","subject_id":"5c58d8472edc490001c80bda","study_id":"6197b3f67c2b5cd3b6d9596a","session_id":"6197b9edfd787a515f6be155","condition":"full-information","relevant_dimensions":["wings","legs"],"bee_group":{"antennae":"X","wings":"2","pattern":"X","legs":"M"},"action":"avoid","summary":"good-avoid","bonus":0.24000000000000016},{"rt":1157,"stimulus":"\n                    <p><b>Action: <em>avoid</em></b></p>\n                    <p>This is the bee that you just saw.</p>\n                    <img src=\"bees-with-color/bee-A2DM.svg\" width=\"200\">\n                    <p><span class=\"greenText\">Good choice!</span>  This bee would have stung you.<br>Your bonus pay is unchanged, and remains at $0.20.</p>\n            ","response":0,"trial_type":"html-button-response","trial_index":40,"time_elapsed":245096,"internal_node_id":"0.0-4.0-1.16","subject_id":"5c58d8472edc490001c80bda","study_id":"6197b3f67c2b5cd3b6d9596a","session_id":"6197b9edfd787a515f6be155","condition":"full-information","relevant_dimensions":["wings","legs"],"bee_group":{"antennae":"X","wings":"2","pattern":"X","legs":"M"},"bonus":0.24000000000000016},{"rt":1222,"stimulus":"bees-with-color/bee-B1DF.svg","response":0,"trial_type":"image-button-response","trial_index":41,"time_elapsed":246320,"internal_node_id":"0.0-4.0-0.17","subject_id":"5c58d8472edc490001c80bda","study_id":"6197b3f67c2b5cd3b6d9596a","session_id":"6197b9edfd787a515f6be155","condition":"full-information","relevant_dimensions":["wings","legs"],"bee_group":{"antennae":"X","wings":"2","pattern":"X","legs":"M"},"action":"harvest","summary":"good-harvest","bonus":0.24000000000000016},{"rt":1022,"stimulus":"\n                    <p><b>Action: <em>harvest</em></b></p>\n                    <p>This is the bee that you just saw.</p>\n                    <img src=\"bees-with-color/bee-B1DF.svg\" width=\"200\">\n                    <p><span class=\"greenText\"><b>Successful harvest!</b></span><br>Your pay has increased by $0.02. Your bonus pay is now $0.22.</p>\n            ","response":0,"trial_type":"html-button-response","trial_index":42,"time_elapsed":247344,"internal_node_id":"0.0-4.0-1.17","subject_id":"5c58d8472edc490001c80bda","study_id":"6197b3f67c2b5cd3b6d9596a","session_id":"6197b9edfd787a515f6be155","condition":"full-information","relevant_dimensions":["wings","legs"],"bee_group":{"antennae":"X","wings":"2","pattern":"X","legs":"M"},"bonus":0.24000000000000016},{"rt":1260,"stimulus":"bees-with-color/bee-A2SF.svg","response":1,"trial_type":"image-button-response","trial_index":43,"time_elapsed":248608,"internal_node_id":"0.0-4.0-0.18","subject_id":"5c58d8472edc490001c80bda","study_id":"6197b3f67c2b5cd3b6d9596a","session_id":"6197b9edfd787a515f6be155","condition":"full-information","relevant_dimensions":["wings","legs"],"bee_group":{"antennae":"X","wings":"2","pattern":"X","legs":"M"},"action":"avoid","summary":"bad-avoid","bonus":0.24000000000000016},{"rt":927,"stimulus":"\n                    <p><b>Action: <em>avoid</em></b></p>\n                    <p>This is the bee that you just saw.</p>\n                    <img src=\"bees-with-color/bee-A2SF.svg\" width=\"200\">\n                    <p><span class=\"redText\">Bad choice,</span> the bee was friendly.<br>Your bonus pay is unchanged, and remains at $0.22.</p>\n            ","response":0,"trial_type":"html-button-response","trial_index":44,"time_elapsed":249537,"internal_node_id":"0.0-4.0-1.18","subject_id":"5c58d8472edc490001c80bda","study_id":"6197b3f67c2b5cd3b6d9596a","session_id":"6197b9edfd787a515f6be155","condition":"full-information","relevant_dimensions":["wings","legs"],"bee_group":{"antennae":"X","wings":"2","pattern":"X","legs":"M"},"bonus":0.24000000000000016},{"rt":1374,"stimulus":"bees-with-color/bee-B1SF.svg","response":0,"trial_type":"image-button-response","trial_index":45,"time_elapsed":250911,"internal_node_id":"0.0-4.0-0.19","subject_id":"5c58d8472edc490001c80bda","study_id":"6197b3f67c2b5cd3b6d9596a","session_id":"6197b9edfd787a515f6be155","condition":"full-information","relevant_dimensions":["wings","legs"],"bee_group":{"antennae":"X","wings":"2","pattern":"X","legs":"M"},"action":"harvest","summary":"good-harvest","bonus":0.24000000000000016},{"rt":781,"stimulus":"\n                    <p><b>Action: <em>harvest</em></b></p>\n                    <p>This is the bee that you just saw.</p>\n                    <img src=\"bees-with-color/bee-B1SF.svg\" width=\"200\">\n                    <p><span class=\"greenText\"><b>Successful harvest!</b></span><br>Your pay has increased by $0.02. Your bonus pay is now $0.24.</p>\n            ","response":0,"trial_type":"html-button-response","trial_index":46,"time_elapsed":251697,"internal_node_id":"0.0-4.0-1.19","subject_id":"5c58d8472edc490001c80bda","study_id":"6197b3f67c2b5cd3b6d9596a","session_id":"6197b9edfd787a515f6be155","condition":"full-information","relevant_dimensions":["wings","legs"],"bee_group":{"antennae":"X","wings":"2","pattern":"X","legs":"M"},"bonus":0.24000000000000016},{"rt":1926,"stimulus":"bees-with-color/bee-A1DM.svg","response":0,"trial_type":"image-button-response","trial_index":47,"time_elapsed":253624,"internal_node_id":"0.0-4.0-0.20","subject_id":"5c58d8472edc490001c80bda","study_id":"6197b3f67c2b5cd3b6d9596a","session_id":"6197b9edfd787a515f6be155","condition":"full-information","relevant_dimensions":["wings","legs"],"bee_group":{"antennae":"X","wings":"2","pattern":"X","legs":"M"},"action":"harvest","summary":"good-harvest","bonus":0.24000000000000016},{"rt":806,"stimulus":"\n                    <p><b>Action: <em>harvest</em></b></p>\n                    <p>This is the bee that you just saw.</p>\n                    <img src=\"bees-with-color/bee-A1DM.svg\" width=\"200\">\n                    <p><span class=\"greenText\"><b>Successful harvest!</b></span><br>Your pay has increased by $0.02. Your bonus pay is now $0.26.</p>\n            ","response":0,"trial_type":"html-button-response","trial_index":48,"time_elapsed":254433,"internal_node_id":"0.0-4.0-1.20","subject_id":"5c58d8472edc490001c80bda","study_id":"6197b3f67c2b5cd3b6d9596a","session_id":"6197b9edfd787a515f6be155","condition":"full-information","relevant_dimensions":["wings","legs"],"bee_group":{"antennae":"X","wings":"2","pattern":"X","legs":"M"},"bonus":0.24000000000000016},{"rt":1094,"stimulus":"bees-with-color/bee-A2SM.svg","response":1,"trial_type":"image-button-response","trial_index":49,"time_elapsed":255528,"internal_node_id":"0.0-4.0-0.21","subject_id":"5c58d8472edc490001c80bda","study_id":"6197b3f67c2b5cd3b6d9596a","session_id":"6197b9edfd787a515f6be155","condition":"full-information","relevant_dimensions":["wings","legs"],"bee_group":{"antennae":"X","wings":"2","pattern":"X","legs":"M"},"action":"avoid","summary":"good-avoid","bonus":0.24000000000000016},{"rt":862,"stimulus":"\n                    <p><b>Action: <em>avoid</em></b></p>\n                    <p>This is the bee that you just saw.</p>\n                    <img src=\"bees-with-color/bee-A2SM.svg\" width=\"200\">\n                    <p><span class=\"greenText\">Good choice!</span>  This bee would have stung you.<br>Your bonus pay is unchanged, and remains at $0.26.</p>\n            ","response":0,"trial_type":"html-button-response","trial_index":50,"time_elapsed":256392,"internal_node_id":"0.0-4.0-1.21","subject_id":"5c58d8472edc490001c80bda","study_id":"6197b3f67c2b5cd3b6d9596a","session_id":"6197b9edfd787a515f6be155","condition":"full-information","relevant_dimensions":["wings","legs"],"bee_group":{"antennae":"X","wings":"2","pattern":"X","legs":"M"},"bonus":0.24000000000000016},{"rt":1175,"stimulus":"bees-with-color/bee-B1DM.svg","response":0,"trial_type":"image-button-response","trial_index":51,"time_elapsed":257569,"internal_node_id":"0.0-4.0-0.22","subject_id":"5c58d8472edc490001c80bda","study_id":"6197b3f67c2b5cd3b6d9596a","session_id":"6197b9edfd787a515f6be155","condition":"full-information","relevant_dimensions":["wings","legs"],"bee_group":{"antennae":"X","wings":"2","pattern":"X","legs":"M"},"action":"harvest","summary":"good-harvest","bonus":0.24000000000000016},{"rt":771,"stimulus":"\n                    <p><b>Action: <em>harvest</em></b></p>\n                    <p>This is the bee that you just saw.</p>\n                    <img src=\"bees-with-color/bee-B1DM.svg\" width=\"200\">\n                    <p><span class=\"greenText\"><b>Successful harvest!</b></span><br>Your pay has increased by $0.02. Your bonus pay is now $0.28.</p>\n            ","response":0,"trial_type":"html-button-response","trial_index":52,"time_elapsed":258344,"internal_node_id":"0.0-4.0-1.22","subject_id":"5c58d8472edc490001c80bda","study_id":"6197b3f67c2b5cd3b6d9596a","session_id":"6197b9edfd787a515f6be155","condition":"full-information","relevant_dimensions":["wings","legs"],"bee_group":{"antennae":"X","wings":"2","pattern":"X","legs":"M"},"bonus":0.24000000000000016},{"rt":1638,"stimulus":"bees-with-color/bee-B1SM.svg","response":0,"trial_type":"image-button-response","trial_index":53,"time_elapsed":259984,"internal_node_id":"0.0-4.0-0.23","subject_id":"5c58d8472edc490001c80bda","study_id":"6197b3f67c2b5cd3b6d9596a","session_id":"6197b9edfd787a515f6be155","condition":"full-information","relevant_dimensions":["wings","legs"],"bee_group":{"antennae":"X","wings":"2","pattern":"X","legs":"M"},"action":"harvest","summary":"good-harvest","bonus":0.24000000000000016},{"rt":709,"stimulus":"\n                    <p><b>Action: <em>harvest</em></b></p>\n                    <p>This is the bee that you just saw.</p>\n                    <img src=\"bees-with-color/bee-B1SM.svg\" width=\"200\">\n                    <p><span class=\"greenText\"><b>Successful harvest!</b></span><br>Your pay has increased by $0.02. Your bonus pay is now $0.30.</p>\n            ","response":0,"trial_type":"html-button-response","trial_index":54,"time_elapsed":260697,"internal_node_id":"0.0-4.0-1.23","subject_id":"5c58d8472edc490001c80bda","study_id":"6197b3f67c2b5cd3b6d9596a","session_id":"6197b9edfd787a515f6be155","condition":"full-information","relevant_dimensions":["wings","legs"],"bee_group":{"antennae":"X","wings":"2","pattern":"X","legs":"M"},"bonus":0.24000000000000016},{"rt":2031,"stimulus":"bees-with-color/bee-A1DF.svg","response":0,"trial_type":"image-button-response","trial_index":55,"time_elapsed":262729,"internal_node_id":"0.0-4.0-0.24","subject_id":"5c58d8472edc490001c80bda","study_id":"6197b3f67c2b5cd3b6d9596a","session_id":"6197b9edfd787a515f6be155","condition":"full-information","relevant_dimensions":["wings","legs"],"bee_group":{"antennae":"X","wings":"2","pattern":"X","legs":"M"},"action":"harvest","summary":"good-harvest","bonus":0.24000000000000016},{"rt":821,"stimulus":"\n                    <p><b>Action: <em>harvest</em></b></p>\n                    <p>This is the bee that you just saw.</p>\n                    <img src=\"bees-with-color/bee-A1DF.svg\" width=\"200\">\n                    <p><span class=\"greenText\"><b>Successful harvest!</b></span><br>Your pay has increased by $0.02. Your bonus pay is now $0.32.</p>\n            ","response":0,"trial_type":"html-button-response","trial_index":56,"time_elapsed":263552,"internal_node_id":"0.0-4.0-1.24","subject_id":"5c58d8472edc490001c80bda","study_id":"6197b3f67c2b5cd3b6d9596a","session_id":"6197b9edfd787a515f6be155","condition":"full-information","relevant_dimensions":["wings","legs"],"bee_group":{"antennae":"X","wings":"2","pattern":"X","legs":"M"},"bonus":0.24000000000000016},{"rt":1307,"stimulus":"bees-with-color/bee-B2SM.svg","response":0,"trial_type":"image-button-response","trial_index":57,"time_elapsed":264863,"internal_node_id":"0.0-4.0-0.25","subject_id":"5c58d8472edc490001c80bda","study_id":"6197b3f67c2b5cd3b6d9596a","session_id":"6197b9edfd787a515f6be155","condition":"full-information","relevant_dimensions":["wings","legs"],"bee_group":{"antennae":"X","wings":"2","pattern":"X","legs":"M"},"action":"harvest","summary":"bad-harvest","bonus":0.24000000000000016},{"rt":854,"stimulus":"\n                    <p><b>Action: <em>harvest</em></b></p>\n                    <p>This is the bee that you just saw.</p>\n                    <img src=\"bees-with-color/bee-B2SM.svg\" width=\"200\">\n                    <p><span class=\"redText\">Bad choice, the bee was angry.</span><br><b>You have been stung!</b><br>Your pay has been decreased by $0.10. Your bonus pay is now $0.22.</p>\n            ","response":0,"trial_type":"html-button-response","trial_index":58,"time_elapsed":265720,"internal_node_id":"0.0-4.0-1.25","subject_id":"5c58d8472edc490001c80bda","study_id":"6197b3f67c2b5cd3b6d9596a","session_id":"6197b9edfd787a515f6be155","condition":"full-information","relevant_dimensions":["wings","legs"],"bee_group":{"antennae":"X","wings":"2","pattern":"X","legs":"M"},"bonus":0.24000000000000016},{"rt":1169,"stimulus":"bees-with-color/bee-A1SM.svg","response":1,"trial_type":"image-button-response","trial_index":59,"time_elapsed":266891,"internal_node_id":"0.0-4.0-0.26","subject_id":"5c58d8472edc490001c80bda","study_id":"6197b3f67c2b5cd3b6d9596a","session_id":"6197b9edfd787a515f6be155","condition":"full-information","relevant_dimensions":["wings","legs"],"bee_group":{"antennae":"X","wings":"2","pattern":"X","legs":"M"},"action":"avoid","summary":"bad-avoid","bonus":0.24000000000000016},{"rt":606,"stimulus":"\n                    <p><b>Action: <em>avoid</em></b></p>\n                    <p>This is the bee that you just saw.</p>\n                    <img src=\"bees-with-color/bee-A1SM.svg\" width=\"200\">\n                    <p><span class=\"redText\">Bad choice,</span> the bee was friendly.<br>Your bonus pay is unchanged, and remains at $0.22.</p>\n            ","response":0,"trial_type":"html-button-response","trial_index":60,"time_elapsed":267499,"internal_node_id":"0.0-4.0-1.26","subject_id":"5c58d8472edc490001c80bda","study_id":"6197b3f67c2b5cd3b6d9596a","session_id":"6197b9edfd787a515f6be155","condition":"full-information","relevant_dimensions":["wings","legs"],"bee_group":{"antennae":"X","wings":"2","pattern":"X","legs":"M"},"bonus":0.24000000000000016},{"rt":1665,"stimulus":"bees-with-color/bee-A1SF.svg","response":1,"trial_type":"image-button-response","trial_index":61,"time_elapsed":269168,"internal_node_id":"0.0-4.0-0.27","subject_id":"5c58d8472edc490001c80bda","study_id":"6197b3f67c2b5cd3b6d9596a","session_id":"6197b9edfd787a515f6be155","condition":"full-information","relevant_dimensions":["wings","legs"],"bee_group":{"antennae":"X","wings":"2","pattern":"X","legs":"M"},"action":"avoid","summary":"bad-avoid","bonus":0.24000000000000016},{"rt":637,"stimulus":"\n                    <p><b>Action: <em>avoid</em></b></p>\n                    <p>This is the bee that you just saw.</p>\n                    <img src=\"bees-with-color/bee-A1SF.svg\" width=\"200\">\n                    <p><span class=\"redText\">Bad choice,</span> the bee was friendly.<br>Your bonus pay is unchanged, and remains at $0.22.</p>\n            ","response":0,"trial_type":"html-button-response","trial_index":62,"time_elapsed":269807,"internal_node_id":"0.0-4.0-1.27","subject_id":"5c58d8472edc490001c80bda","study_id":"6197b3f67c2b5cd3b6d9596a","session_id":"6197b9edfd787a515f6be155","condition":"full-information","relevant_dimensions":["wings","legs"],"bee_group":{"antennae":"X","wings":"2","pattern":"X","legs":"M"},"bonus":0.24000000000000016},{"rt":1446,"stimulus":"bees-with-color/bee-B2DM.svg","response":0,"trial_type":"image-button-response","trial_index":63,"time_elapsed":271256,"internal_node_id":"0.0-4.0-0.28","subject_id":"5c58d8472edc490001c80bda","study_id":"6197b3f67c2b5cd3b6d9596a","session_id":"6197b9edfd787a515f6be155","condition":"full-information","relevant_dimensions":["wings","legs"],"bee_group":{"antennae":"X","wings":"2","pattern":"X","legs":"M"},"action":"harvest","summary":"bad-harvest","bonus":0.24000000000000016},{"rt":629,"stimulus":"\n                    <p><b>Action: <em>harvest</em></b></p>\n                    <p>This is the bee that you just saw.</p>\n                    <img src=\"bees-with-color/bee-B2DM.svg\" width=\"200\">\n                    <p><span class=\"redText\">Bad choice, the bee was angry.</span><br><b>You have been stung!</b><br>Your pay has been decreased by $0.10. Your bonus pay is now $0.12.</p>\n            ","response":0,"trial_type":"html-button-response","trial_index":64,"time_elapsed":271888,"internal_node_id":"0.0-4.0-1.28","subject_id":"5c58d8472edc490001c80bda","study_id":"6197b3f67c2b5cd3b6d9596a","session_id":"6197b9edfd787a515f6be155","condition":"full-information","relevant_dimensions":["wings","legs"],"bee_group":{"antennae":"X","wings":"2","pattern":"X","legs":"M"},"bonus":0.24000000000000016},{"rt":1119,"stimulus":"bees-with-color/bee-B2DF.svg","response":0,"trial_type":"image-button-response","trial_index":65,"time_elapsed":273008,"internal_node_id":"0.0-4.0-0.29","subject_id":"5c58d8472edc490001c80bda","study_id":"6197b3f67c2b5cd3b6d9596a","session_id":"6197b9edfd787a515f6be155","condition":"full-information","relevant_dimensions":["wings","legs"],"bee_group":{"antennae":"X","wings":"2","pattern":"X","legs":"M"},"action":"harvest","summary":"good-harvest","bonus":0.24000000000000016},{"rt":589,"stimulus":"\n                    <p><b>Action: <em>harvest</em></b></p>\n                    <p>This is the bee that you just saw.</p>\n                    <img src=\"bees-with-color/bee-B2DF.svg\" width=\"200\">\n                    <p><span class=\"greenText\"><b>Successful harvest!</b></span><br>Your pay has increased by $0.02. Your bonus pay is now $0.14.</p>\n            ","response":0,"trial_type":"html-button-response","trial_index":66,"time_elapsed":273600,"internal_node_id":"0.0-4.0-1.29","subject_id":"5c58d8472edc490001c80bda","study_id":"6197b3f67c2b5cd3b6d9596a","session_id":"6197b9edfd787a515f6be155","condition":"full-information","relevant_dimensions":["wings","legs"],"bee_group":{"antennae":"X","wings":"2","pattern":"X","legs":"M"},"bonus":0.24000000000000016},{"rt":950,"stimulus":"bees-with-color/bee-B2SF.svg","response":0,"trial_type":"image-button-response","trial_index":67,"time_elapsed":274552,"internal_node_id":"0.0-4.0-0.30","subject_id":"5c58d8472edc490001c80bda","study_id":"6197b3f67c2b5cd3b6d9596a","session_id":"6197b9edfd787a515f6be155","condition":"full-information","relevant_dimensions":["wings","legs"],"bee_group":{"antennae":"X","wings":"2","pattern":"X","legs":"M"},"action":"harvest","summary":"good-harvest","bonus":0.24000000000000016},{"rt":566,"stimulus":"\n                    <p><b>Action: <em>harvest</em></b></p>\n                    <p>This is the bee that you just saw.</p>\n                    <img src=\"bees-with-color/bee-B2SF.svg\" width=\"200\">\n                    <p><span class=\"greenText\"><b>Successful harvest!</b></span><br>Your pay has increased by $0.02. Your bonus pay is now $0.16.</p>\n            ","response":0,"trial_type":"html-button-response","trial_index":68,"time_elapsed":275119,"internal_node_id":"0.0-4.0-1.30","subject_id":"5c58d8472edc490001c80bda","study_id":"6197b3f67c2b5cd3b6d9596a","session_id":"6197b9edfd787a515f6be155","condition":"full-information","relevant_dimensions":["wings","legs"],"bee_group":{"antennae":"X","wings":"2","pattern":"X","legs":"M"},"bonus":0.24000000000000016},{"rt":919,"stimulus":"bees-with-color/bee-A2DF.svg","response":1,"trial_type":"image-button-response","trial_index":69,"time_elapsed":276040,"internal_node_id":"0.0-4.0-0.31","subject_id":"5c58d8472edc490001c80bda","study_id":"6197b3f67c2b5cd3b6d9596a","session_id":"6197b9edfd787a515f6be155","condition":"full-information","relevant_dimensions":["wings","legs"],"bee_group":{"antennae":"X","wings":"2","pattern":"X","legs":"M"},"action":"avoid","summary":"bad-avoid","bonus":0.24000000000000016},{"rt":549,"stimulus":"\n                    <p><b>Action: <em>avoid</em></b></p>\n                    <p>This is the bee that you just saw.</p>\n                    <img src=\"bees-with-color/bee-A2DF.svg\" width=\"200\">\n                    <p><span class=\"redText\">Bad choice,</span> the bee was friendly.<br>Your bonus pay is unchanged, and remains at $0.16.</p>\n            ","response":0,"trial_type":"html-button-response","trial_index":70,"time_elapsed":276593,"internal_node_id":"0.0-4.0-1.31","subject_id":"5c58d8472edc490001c80bda","study_id":"6197b3f67c2b5cd3b6d9596a","session_id":"6197b9edfd787a515f6be155","condition":"full-information","relevant_dimensions":["wings","legs"],"bee_group":{"antennae":"X","wings":"2","pattern":"X","legs":"M"},"bonus":0.24000000000000016},{"rt":1029,"stimulus":"bees-with-color/bee-A1DM.svg","response":1,"trial_type":"image-button-response","trial_index":71,"time_elapsed":277624,"internal_node_id":"0.0-4.0-0.32","subject_id":"5c58d8472edc490001c80bda","study_id":"6197b3f67c2b5cd3b6d9596a","session_id":"6197b9edfd787a515f6be155","condition":"full-information","relevant_dimensions":["wings","legs"],"bee_group":{"antennae":"X","wings":"2","pattern":"X","legs":"M"},"action":"avoid","summary":"bad-avoid","bonus":0.24000000000000016},{"rt":511,"stimulus":"\n                    <p><b>Action: <em>avoid</em></b></p>\n                    <p>This is the bee that you just saw.</p>\n                    <img src=\"bees-with-color/bee-A1DM.svg\" width=\"200\">\n                    <p><span class=\"redText\">Bad choice,</span> the bee was friendly.<br>Your bonus pay is unchanged, and remains at $0.16.</p>\n            ","response":0,"trial_type":"html-button-response","trial_index":72,"time_elapsed":278138,"internal_node_id":"0.0-4.0-1.32","subject_id":"5c58d8472edc490001c80bda","study_id":"6197b3f67c2b5cd3b6d9596a","session_id":"6197b9edfd787a515f6be155","condition":"full-information","relevant_dimensions":["wings","legs"],"bee_group":{"antennae":"X","wings":"2","pattern":"X","legs":"M"},"bonus":0.24000000000000016},{"rt":1308,"stimulus":"bees-with-color/bee-B2DM.svg","response":1,"trial_type":"image-button-response","trial_index":73,"time_elapsed":279448,"internal_node_id":"0.0-4.0-0.33","subject_id":"5c58d8472edc490001c80bda","study_id":"6197b3f67c2b5cd3b6d9596a","session_id":"6197b9edfd787a515f6be155","condition":"full-information","relevant_dimensions":["wings","legs"],"bee_group":{"antennae":"X","wings":"2","pattern":"X","legs":"M"},"action":"avoid","summary":"good-avoid","bonus":0.24000000000000016},{"rt":647,"stimulus":"\n                    <p><b>Action: <em>avoid</em></b></p>\n                    <p>This is the bee that you just saw.</p>\n                    <img src=\"bees-with-color/bee-B2DM.svg\" width=\"200\">\n                    <p><span class=\"greenText\">Good choice!</span>  This bee would have stung you.<br>Your bonus pay is unchanged, and remains at $0.16.</p>\n            ","response":0,"trial_type":"html-button-response","trial_index":74,"time_elapsed":280098,"internal_node_id":"0.0-4.0-1.33","subject_id":"5c58d8472edc490001c80bda","study_id":"6197b3f67c2b5cd3b6d9596a","session_id":"6197b9edfd787a515f6be155","condition":"full-information","relevant_dimensions":["wings","legs"],"bee_group":{"antennae":"X","wings":"2","pattern":"X","legs":"M"},"bonus":0.24000000000000016},{"rt":1268,"stimulus":"bees-with-color/bee-A2SM.svg","response":1,"trial_type":"image-button-response","trial_index":75,"time_elapsed":281369,"internal_node_id":"0.0-4.0-0.34","subject_id":"5c58d8472edc490001c80bda","study_id":"6197b3f67c2b5cd3b6d9596a","session_id":"6197b9edfd787a515f6be155","condition":"full-information","relevant_dimensions":["wings","legs"],"bee_group":{"antennae":"X","wings":"2","pattern":"X","legs":"M"},"action":"avoid","summary":"good-avoid","bonus":0.24000000000000016},{"rt":566,"stimulus":"\n                    <p><b>Action: <em>avoid</em></b></p>\n                    <p>This is the bee that you just saw.</p>\n                    <img src=\"bees-with-color/bee-A2SM.svg\" width=\"200\">\n                    <p><span class=\"greenText\">Good choice!</span>  This bee would have stung you.<br>Your bonus pay is unchanged, and remains at $0.16.</p>\n            ","response":0,"trial_type":"html-button-response","trial_index":76,"time_elapsed":281937,"internal_node_id":"0.0-4.0-1.34","subject_id":"5c58d8472edc490001c80bda","study_id":"6197b3f67c2b5cd3b6d9596a","session_id":"6197b9edfd787a515f6be155","condition":"full-information","relevant_dimensions":["wings","legs"],"bee_group":{"antennae":"X","wings":"2","pattern":"X","legs":"M"},"bonus":0.24000000000000016},{"rt":1334,"stimulus":"bees-with-color/bee-A1SF.svg","response":0,"trial_type":"image-button-response","trial_index":77,"time_elapsed":283272,"internal_node_id":"0.0-4.0-0.35","subject_id":"5c58d8472edc490001c80bda","study_id":"6197b3f67c2b5cd3b6d9596a","session_id":"6197b9edfd787a515f6be155","condition":"full-information","relevant_dimensions":["wings","legs"],"bee_group":{"antennae":"X","wings":"2","pattern":"X","legs":"M"},"action":"harvest","summary":"good-harvest","bonus":0.24000000000000016},{"rt":631,"stimulus":"\n                    <p><b>Action: <em>harvest</em></b></p>\n                    <p>This is the bee that you just saw.</p>\n                    <img src=\"bees-with-color/bee-A1SF.svg\" width=\"200\">\n                    <p><span class=\"greenText\"><b>Successful harvest!</b></span><br>Your pay has increased by $0.02. Your bonus pay is now $0.18.</p>\n            ","response":0,"trial_type":"html-button-response","trial_index":78,"time_elapsed":283904,"internal_node_id":"0.0-4.0-1.35","subject_id":"5c58d8472edc490001c80bda","study_id":"6197b3f67c2b5cd3b6d9596a","session_id":"6197b9edfd787a515f6be155","condition":"full-information","relevant_dimensions":["wings","legs"],"bee_group":{"antennae":"X","wings":"2","pattern":"X","legs":"M"},"bonus":0.24000000000000016},{"rt":975,"stimulus":"bees-with-color/bee-B1SF.svg","response":0,"trial_type":"image-button-response","trial_index":79,"time_elapsed":284880,"internal_node_id":"0.0-4.0-0.36","subject_id":"5c58d8472edc490001c80bda","study_id":"6197b3f67c2b5cd3b6d9596a","session_id":"6197b9edfd787a515f6be155","condition":"full-information","relevant_dimensions":["wings","legs"],"bee_group":{"antennae":"X","wings":"2","pattern":"X","legs":"M"},"action":"harvest","summary":"good-harvest","bonus":0.24000000000000016},{"rt":782,"stimulus":"\n                    <p><b>Action: <em>harvest</em></b></p>\n                    <p>This is the bee that you just saw.</p>\n                    <img src=\"bees-with-color/bee-B1SF.svg\" width=\"200\">\n                    <p><span class=\"greenText\"><b>Successful harvest!</b></span><br>Your pay has increased by $0.02. Your bonus pay is now $0.20.</p>\n            ","response":0,"trial_type":"html-button-response","trial_index":80,"time_elapsed":285664,"internal_node_id":"0.0-4.0-1.36","subject_id":"5c58d8472edc490001c80bda","study_id":"6197b3f67c2b5cd3b6d9596a","session_id":"6197b9edfd787a515f6be155","condition":"full-information","relevant_dimensions":["wings","legs"],"bee_group":{"antennae":"X","wings":"2","pattern":"X","legs":"M"},"bonus":0.24000000000000016},{"rt":1653,"stimulus":"bees-with-color/bee-B2SF.svg","response":1,"trial_type":"image-button-response","trial_index":81,"time_elapsed":287320,"internal_node_id":"0.0-4.0-0.37","subject_id":"5c58d8472edc490001c80bda","study_id":"6197b3f67c2b5cd3b6d9596a","session_id":"6197b9edfd787a515f6be155","condition":"full-information","relevant_dimensions":["wings","legs"],"bee_group":{"antennae":"X","wings":"2","pattern":"X","legs":"M"},"action":"avoid","summary":"bad-avoid","bonus":0.24000000000000016},{"rt":742,"stimulus":"\n                    <p><b>Action: <em>avoid</em></b></p>\n                    <p>This is the bee that you just saw.</p>\n                    <img src=\"bees-with-color/bee-B2SF.svg\" width=\"200\">\n                    <p><span class=\"redText\">Bad choice,</span> the bee was friendly.<br>Your bonus pay is unchanged, and remains at $0.20.</p>\n            ","response":0,"trial_type":"html-button-response","trial_index":82,"time_elapsed":288063,"internal_node_id":"0.0-4.0-1.37","subject_id":"5c58d8472edc490001c80bda","study_id":"6197b3f67c2b5cd3b6d9596a","session_id":"6197b9edfd787a515f6be155","condition":"full-information","relevant_dimensions":["wings","legs"],"bee_group":{"antennae":"X","wings":"2","pattern":"X","legs":"M"},"bonus":0.24000000000000016},{"rt":1527,"stimulus":"bees-with-color/bee-A1SM.svg","response":1,"trial_type":"image-button-response","trial_index":83,"time_elapsed":289592,"internal_node_id":"0.0-4.0-0.38","subject_id":"5c58d8472edc490001c80bda","study_id":"6197b3f67c2b5cd3b6d9596a","session_id":"6197b9edfd787a515f6be155","condition":"full-information","relevant_dimensions":["wings","legs"],"bee_group":{"antennae":"X","wings":"2","pattern":"X","legs":"M"},"action":"avoid","summary":"bad-avoid","bonus":0.24000000000000016},{"rt":710,"stimulus":"\n                    <p><b>Action: <em>avoid</em></b></p>\n                    <p>This is the bee that you just saw.</p>\n                    <img src=\"bees-with-color/bee-A1SM.svg\" width=\"200\">\n                    <p><span class=\"redText\">Bad choice,</span> the bee was friendly.<br>Your bonus pay is unchanged, and remains at $0.20.</p>\n            ","response":0,"trial_type":"html-button-response","trial_index":84,"time_elapsed":290305,"internal_node_id":"0.0-4.0-1.38","subject_id":"5c58d8472edc490001c80bda","study_id":"6197b3f67c2b5cd3b6d9596a","session_id":"6197b9edfd787a515f6be155","condition":"full-information","relevant_dimensions":["wings","legs"],"bee_group":{"antennae":"X","wings":"2","pattern":"X","legs":"M"},"bonus":0.24000000000000016},{"rt":852,"stimulus":"bees-with-color/bee-B1DF.svg","response":0,"trial_type":"image-button-response","trial_index":85,"time_elapsed":291161,"internal_node_id":"0.0-4.0-0.39","subject_id":"5c58d8472edc490001c80bda","study_id":"6197b3f67c2b5cd3b6d9596a","session_id":"6197b9edfd787a515f6be155","condition":"full-information","relevant_dimensions":["wings","legs"],"bee_group":{"antennae":"X","wings":"2","pattern":"X","legs":"M"},"action":"harvest","summary":"good-harvest","bonus":0.24000000000000016},{"rt":582,"stimulus":"\n                    <p><b>Action: <em>harvest</em></b></p>\n                    <p>This is the bee that you just saw.</p>\n                    <img src=\"bees-with-color/bee-B1DF.svg\" width=\"200\">\n                    <p><span class=\"greenText\"><b>Successful harvest!</b></span><br>Your pay has increased by $0.02. Your bonus pay is now $0.22.</p>\n            ","response":0,"trial_type":"html-button-response","trial_index":86,"time_elapsed":291744,"internal_node_id":"0.0-4.0-1.39","subject_id":"5c58d8472edc490001c80bda","study_id":"6197b3f67c2b5cd3b6d9596a","session_id":"6197b9edfd787a515f6be155","condition":"full-information","relevant_dimensions":["wings","legs"],"bee_group":{"antennae":"X","wings":"2","pattern":"X","legs":"M"},"bonus":0.24000000000000016},{"rt":1246,"stimulus":"bees-with-color/bee-A1DF.svg","response":1,"trial_type":"image-button-response","trial_index":87,"time_elapsed":292992,"internal_node_id":"0.0-4.0-0.40","subject_id":"5c58d8472edc490001c80bda","study_id":"6197b3f67c2b5cd3b6d9596a","session_id":"6197b9edfd787a515f6be155","condition":"full-information","relevant_dimensions":["wings","legs"],"bee_group":{"antennae":"X","wings":"2","pattern":"X","legs":"M"},"action":"avoid","summary":"bad-avoid","bonus":0.24000000000000016},{"rt":928,"stimulus":"\n                    <p><b>Action: <em>avoid</em></b></p>\n                    <p>This is the bee that you just saw.</p>\n                    <img src=\"bees-with-color/bee-A1DF.svg\" width=\"200\">\n                    <p><span class=\"redText\">Bad choice,</span> the bee was friendly.<br>Your bonus pay is unchanged, and remains at $0.22.</p>\n            ","response":0,"trial_type":"html-button-response","trial_index":88,"time_elapsed":293921,"internal_node_id":"0.0-4.0-1.40","subject_id":"5c58d8472edc490001c80bda","study_id":"6197b3f67c2b5cd3b6d9596a","session_id":"6197b9edfd787a515f6be155","condition":"full-information","relevant_dimensions":["wings","legs"],"bee_group":{"antennae":"X","wings":"2","pattern":"X","legs":"M"},"bonus":0.24000000000000016},{"rt":1244,"stimulus":"bees-with-color/bee-B2DF.svg","response":0,"trial_type":"image-button-response","trial_index":89,"time_elapsed":295168,"internal_node_id":"0.0-4.0-0.41","subject_id":"5c58d8472edc490001c80bda","study_id":"6197b3f67c2b5cd3b6d9596a","session_id":"6197b9edfd787a515f6be155","condition":"full-information","relevant_dimensions":["wings","legs"],"bee_group":{"antennae":"X","wings":"2","pattern":"X","legs":"M"},"action":"harvest","summary":"good-harvest","bonus":0.24000000000000016},{"rt":590,"stimulus":"\n                    <p><b>Action: <em>harvest</em></b></p>\n                    <p>This is the bee that you just saw.</p>\n                    <img src=\"bees-with-color/bee-B2DF.svg\" width=\"200\">\n                    <p><span class=\"greenText\"><b>Successful harvest!</b></span><br>Your pay has increased by $0.02. Your bonus pay is now $0.24.</p>\n            ","response":0,"trial_type":"html-button-response","trial_index":90,"time_elapsed":295760,"internal_node_id":"0.0-4.0-1.41","subject_id":"5c58d8472edc490001c80bda","study_id":"6197b3f67c2b5cd3b6d9596a","session_id":"6197b9edfd787a515f6be155","condition":"full-information","relevant_dimensions":["wings","legs"],"bee_group":{"antennae":"X","wings":"2","pattern":"X","legs":"M"},"bonus":0.24000000000000016},{"rt":2509,"stimulus":"bees-with-color/bee-B1SM.svg","response":1,"trial_type":"image-button-response","trial_index":91,"time_elapsed":298271,"internal_node_id":"0.0-4.0-0.42","subject_id":"5c58d8472edc490001c80bda","study_id":"6197b3f67c2b5cd3b6d9596a","session_id":"6197b9edfd787a515f6be155","condition":"full-information","relevant_dimensions":["wings","legs"],"bee_group":{"antennae":"X","wings":"2","pattern":"X","legs":"M"},"action":"avoid","summary":"bad-avoid","bonus":0.24000000000000016},{"rt":586,"stimulus":"\n                    <p><b>Action: <em>avoid</em></b></p>\n                    <p>This is the bee that you just saw.</p>\n                    <img src=\"bees-with-color/bee-B1SM.svg\" width=\"200\">\n                    <p><span class=\"redText\">Bad choice,</span> the bee was friendly.<br>Your bonus pay is unchanged, and remains at $0.24.</p>\n            ","response":0,"trial_type":"html-button-response","trial_index":92,"time_elapsed":298859,"internal_node_id":"0.0-4.0-1.42","subject_id":"5c58d8472edc490001c80bda","study_id":"6197b3f67c2b5cd3b6d9596a","session_id":"6197b9edfd787a515f6be155","condition":"full-information","relevant_dimensions":["wings","legs"],"bee_group":{"antennae":"X","wings":"2","pattern":"X","legs":"M"},"bonus":0.24000000000000016},{"rt":1034,"stimulus":"bees-with-color/bee-B1DM.svg","response":0,"trial_type":"image-button-response","trial_index":93,"time_elapsed":299896,"internal_node_id":"0.0-4.0-0.43","subject_id":"5c58d8472edc490001c80bda","study_id":"6197b3f67c2b5cd3b6d9596a","session_id":"6197b9edfd787a515f6be155","condition":"full-information","relevant_dimensions":["wings","legs"],"bee_group":{"antennae":"X","wings":"2","pattern":"X","legs":"M"},"action":"harvest","summary":"good-harvest","bonus":0.24000000000000016},{"rt":533,"stimulus":"\n                    <p><b>Action: <em>harvest</em></b></p>\n                    <p>This is the bee that you just saw.</p>\n                    <img src=\"bees-with-color/bee-B1DM.svg\" width=\"200\">\n                    <p><span class=\"greenText\"><b>Successful harvest!</b></span><br>Your pay has increased by $0.02. Your bonus pay is now $0.26.</p>\n            ","response":0,"trial_type":"html-button-response","trial_index":94,"time_elapsed":300432,"internal_node_id":"0.0-4.0-1.43","subject_id":"5c58d8472edc490001c80bda","study_id":"6197b3f67c2b5cd3b6d9596a","session_id":"6197b9edfd787a515f6be155","condition":"full-information","relevant_dimensions":["wings","legs"],"bee_group":{"antennae":"X","wings":"2","pattern":"X","legs":"M"},"bonus":0.24000000000000016},{"rt":839,"stimulus":"bees-with-color/bee-A2SF.svg","response":1,"trial_type":"image-button-response","trial_index":95,"time_elapsed":301272,"internal_node_id":"0.0-4.0-0.44","subject_id":"5c58d8472edc490001c80bda","study_id":"6197b3f67c2b5cd3b6d9596a","session_id":"6197b9edfd787a515f6be155","condition":"full-information","relevant_dimensions":["wings","legs"],"bee_group":{"antennae":"X","wings":"2","pattern":"X","legs":"M"},"action":"avoid","summary":"bad-avoid","bonus":0.24000000000000016},{"rt":542,"stimulus":"\n                    <p><b>Action: <em>avoid</em></b></p>\n                    <p>This is the bee that you just saw.</p>\n                    <img src=\"bees-with-color/bee-A2SF.svg\" width=\"200\">\n                    <p><span class=\"redText\">Bad choice,</span> the bee was friendly.<br>Your bonus pay is unchanged, and remains at $0.26.</p>\n            ","response":0,"trial_type":"html-button-response","trial_index":96,"time_elapsed":301816,"internal_node_id":"0.0-4.0-1.44","subject_id":"5c58d8472edc490001c80bda","study_id":"6197b3f67c2b5cd3b6d9596a","session_id":"6197b9edfd787a515f6be155","condition":"full-information","relevant_dimensions":["wings","legs"],"bee_group":{"antennae":"X","wings":"2","pattern":"X","legs":"M"},"bonus":0.24000000000000016},{"rt":1110,"stimulus":"bees-with-color/bee-B2SM.svg","response":1,"trial_type":"image-button-response","trial_index":97,"time_elapsed":302928,"internal_node_id":"0.0-4.0-0.45","subject_id":"5c58d8472edc490001c80bda","study_id":"6197b3f67c2b5cd3b6d9596a","session_id":"6197b9edfd787a515f6be155","condition":"full-information","relevant_dimensions":["wings","legs"],"bee_group":{"antennae":"X","wings":"2","pattern":"X","legs":"M"},"action":"avoid","summary":"good-avoid","bonus":0.24000000000000016},{"rt":661,"stimulus":"\n                    <p><b>Action: <em>avoid</em></b></p>\n                    <p>This is the bee that you just saw.</p>\n                    <img src=\"bees-with-color/bee-B2SM.svg\" width=\"200\">\n                    <p><span class=\"greenText\">Good choice!</span>  This bee would have stung you.<br>Your bonus pay is unchanged, and remains at $0.26.</p>\n            ","response":0,"trial_type":"html-button-response","trial_index":98,"time_elapsed":303592,"internal_node_id":"0.0-4.0-1.45","subject_id":"5c58d8472edc490001c80bda","study_id":"6197b3f67c2b5cd3b6d9596a","session_id":"6197b9edfd787a515f6be155","condition":"full-information","relevant_dimensions":["wings","legs"],"bee_group":{"antennae":"X","wings":"2","pattern":"X","legs":"M"},"bonus":0.24000000000000016},{"rt":990,"stimulus":"bees-with-color/bee-A2DM.svg","response":1,"trial_type":"image-button-response","trial_index":99,"time_elapsed":304584,"internal_node_id":"0.0-4.0-0.46","subject_id":"5c58d8472edc490001c80bda","study_id":"6197b3f67c2b5cd3b6d9596a","session_id":"6197b9edfd787a515f6be155","condition":"full-information","relevant_dimensions":["wings","legs"],"bee_group":{"antennae":"X","wings":"2","pattern":"X","legs":"M"},"action":"avoid","summary":"good-avoid","bonus":0.24000000000000016},{"rt":606,"stimulus":"\n                    <p><b>Action: <em>avoid</em></b></p>\n                    <p>This is the bee that you just saw.</p>\n                    <img src=\"bees-with-color/bee-A2DM.svg\" width=\"200\">\n                    <p><span class=\"greenText\">Good choice!</span>  This bee would have stung you.<br>Your bonus pay is unchanged, and remains at $0.26.</p>\n            ","response":0,"trial_type":"html-button-response","trial_index":100,"time_elapsed":305192,"internal_node_id":"0.0-4.0-1.46","subject_id":"5c58d8472edc490001c80bda","study_id":"6197b3f67c2b5cd3b6d9596a","session_id":"6197b9edfd787a515f6be155","condition":"full-information","relevant_dimensions":["wings","legs"],"bee_group":{"antennae":"X","wings":"2","pattern":"X","legs":"M"},"bonus":0.24000000000000016},{"rt":1390,"stimulus":"bees-with-color/bee-A2DF.svg","response":1,"trial_type":"image-button-response","trial_index":101,"time_elapsed":306583,"internal_node_id":"0.0-4.0-0.47","subject_id":"5c58d8472edc490001c80bda","study_id":"6197b3f67c2b5cd3b6d9596a","session_id":"6197b9edfd787a515f6be155","condition":"full-information","relevant_dimensions":["wings","legs"],"bee_group":{"antennae":"X","wings":"2","pattern":"X","legs":"M"},"action":"avoid","summary":"bad-avoid","bonus":0.24000000000000016},{"rt":496,"stimulus":"\n                    <p><b>Action: <em>avoid</em></b></p>\n                    <p>This is the bee that you just saw.</p>\n                    <img src=\"bees-with-color/bee-A2DF.svg\" width=\"200\">\n                    <p><span class=\"redText\">Bad choice,</span> the bee was friendly.<br>Your bonus pay is unchanged, and remains at $0.26.</p>\n            ","response":0,"trial_type":"html-button-response","trial_index":102,"time_elapsed":307080,"internal_node_id":"0.0-4.0-1.47","subject_id":"5c58d8472edc490001c80bda","study_id":"6197b3f67c2b5cd3b6d9596a","session_id":"6197b9edfd787a515f6be155","condition":"full-information","relevant_dimensions":["wings","legs"],"bee_group":{"antennae":"X","wings":"2","pattern":"X","legs":"M"},"bonus":0.24000000000000016},{"rt":750,"stimulus":"bees-with-color/bee-B1DF.svg","response":0,"trial_type":"image-button-response","trial_index":103,"time_elapsed":307832,"internal_node_id":"0.0-4.0-0.48","subject_id":"5c58d8472edc490001c80bda","study_id":"6197b3f67c2b5cd3b6d9596a","session_id":"6197b9edfd787a515f6be155","condition":"full-information","relevant_dimensions":["wings","legs"],"bee_group":{"antennae":"X","wings":"2","pattern":"X","legs":"M"},"action":"harvest","summary":"good-harvest","bonus":0.24000000000000016},{"rt":510,"stimulus":"\n                    <p><b>Action: <em>harvest</em></b></p>\n                    <p>This is the bee that you just saw.</p>\n                    <img src=\"bees-with-color/bee-B1DF.svg\" width=\"200\">\n                    <p><span class=\"greenText\"><b>Successful harvest!</b></span><br>Your pay has increased by $0.02. Your bonus pay is now $0.28.</p>\n            ","response":0,"trial_type":"html-button-response","trial_index":104,"time_elapsed":308344,"internal_node_id":"0.0-4.0-1.48","subject_id":"5c58d8472edc490001c80bda","study_id":"6197b3f67c2b5cd3b6d9596a","session_id":"6197b9edfd787a515f6be155","condition":"full-information","relevant_dimensions":["wings","legs"],"bee_group":{"antennae":"X","wings":"2","pattern":"X","legs":"M"},"bonus":0.24000000000000016},{"rt":1589,"stimulus":"bees-with-color/bee-B2SM.svg","response":1,"trial_type":"image-button-response","trial_index":105,"time_elapsed":309937,"internal_node_id":"0.0-4.0-0.49","subject_id":"5c58d8472edc490001c80bda","study_id":"6197b3f67c2b5cd3b6d9596a","session_id":"6197b9edfd787a515f6be155","condition":"full-information","relevant_dimensions":["wings","legs"],"bee_group":{"antennae":"X","wings":"2","pattern":"X","legs":"M"},"action":"avoid","summary":"good-avoid","bonus":0.24000000000000016},{"rt":639,"stimulus":"\n                    <p><b>Action: <em>avoid</em></b></p>\n                    <p>This is the bee that you just saw.</p>\n                    <img src=\"bees-with-color/bee-B2SM.svg\" width=\"200\">\n                    <p><span class=\"greenText\">Good choice!</span>  This bee would have stung you.<br>Your bonus pay is unchanged, and remains at $0.28.</p>\n            ","response":0,"trial_type":"html-button-response","trial_index":106,"time_elapsed":310577,"internal_node_id":"0.0-4.0-1.49","subject_id":"5c58d8472edc490001c80bda","study_id":"6197b3f67c2b5cd3b6d9596a","session_id":"6197b9edfd787a515f6be155","condition":"full-information","relevant_dimensions":["wings","legs"],"bee_group":{"antennae":"X","wings":"2","pattern":"X","legs":"M"},"bonus":0.24000000000000016},{"rt":1275,"stimulus":"bees-with-color/bee-A1SM.svg","response":1,"trial_type":"image-button-response","trial_index":107,"time_elapsed":311856,"internal_node_id":"0.0-4.0-0.50","subject_id":"5c58d8472edc490001c80bda","study_id":"6197b3f67c2b5cd3b6d9596a","session_id":"6197b9edfd787a515f6be155","condition":"full-information","relevant_dimensions":["wings","legs"],"bee_group":{"antennae":"X","wings":"2","pattern":"X","legs":"M"},"action":"avoid","summary":"bad-avoid","bonus":0.24000000000000016},{"rt":582,"stimulus":"\n                    <p><b>Action: <em>avoid</em></b></p>\n                    <p>This is the bee that you just saw.</p>\n                    <img src=\"bees-with-color/bee-A1SM.svg\" width=\"200\">\n                    <p><span class=\"redText\">Bad choice,</span> the bee was friendly.<br>Your bonus pay is unchanged, and remains at $0.28.</p>\n            ","response":0,"trial_type":"html-button-response","trial_index":108,"time_elapsed":312440,"internal_node_id":"0.0-4.0-1.50","subject_id":"5c58d8472edc490001c80bda","study_id":"6197b3f67c2b5cd3b6d9596a","session_id":"6197b9edfd787a515f6be155","condition":"full-information","relevant_dimensions":["wings","legs"],"bee_group":{"antennae":"X","wings":"2","pattern":"X","legs":"M"},"bonus":0.24000000000000016},{"rt":862,"stimulus":"bees-with-color/bee-B1DM.svg","response":0,"trial_type":"image-button-response","trial_index":109,"time_elapsed":313304,"internal_node_id":"0.0-4.0-0.51","subject_id":"5c58d8472edc490001c80bda","study_id":"6197b3f67c2b5cd3b6d9596a","session_id":"6197b9edfd787a515f6be155","condition":"full-information","relevant_dimensions":["wings","legs"],"bee_group":{"antennae":"X","wings":"2","pattern":"X","legs":"M"},"action":"harvest","summary":"good-harvest","bonus":0.24000000000000016},{"rt":663,"stimulus":"\n                    <p><b>Action: <em>harvest</em></b></p>\n                    <p>This is the bee that you just saw.</p>\n                    <img src=\"bees-with-color/bee-B1DM.svg\" width=\"200\">\n                    <p><span class=\"greenText\"><b>Successful harvest!</b></span><br>Your pay has increased by $0.02. Your bonus pay is now $0.30.</p>\n            ","response":0,"trial_type":"html-button-response","trial_index":110,"time_elapsed":313968,"internal_node_id":"0.0-4.0-1.51","subject_id":"5c58d8472edc490001c80bda","study_id":"6197b3f67c2b5cd3b6d9596a","session_id":"6197b9edfd787a515f6be155","condition":"full-information","relevant_dimensions":["wings","legs"],"bee_group":{"antennae":"X","wings":"2","pattern":"X","legs":"M"},"bonus":0.24000000000000016},{"rt":1182,"stimulus":"bees-with-color/bee-A1DF.svg","response":1,"trial_type":"image-button-response","trial_index":111,"time_elapsed":315152,"internal_node_id":"0.0-4.0-0.52","subject_id":"5c58d8472edc490001c80bda","study_id":"6197b3f67c2b5cd3b6d9596a","session_id":"6197b9edfd787a515f6be155","condition":"full-information","relevant_dimensions":["wings","legs"],"bee_group":{"antennae":"X","wings":"2","pattern":"X","legs":"M"},"action":"avoid","summary":"bad-avoid","bonus":0.24000000000000016},{"rt":878,"stimulus":"\n                    <p><b>Action: <em>avoid</em></b></p>\n                    <p>This is the bee that you just saw.</p>\n                    <img src=\"bees-with-color/bee-A1DF.svg\" width=\"200\">\n                    <p><span class=\"redText\">Bad choice,</span> the bee was friendly.<br>Your bonus pay is unchanged, and remains at $0.30.</p>\n            ","response":0,"trial_type":"html-button-response","trial_index":112,"time_elapsed":316032,"internal_node_id":"0.0-4.0-1.52","subject_id":"5c58d8472edc490001c80bda","study_id":"6197b3f67c2b5cd3b6d9596a","session_id":"6197b9edfd787a515f6be155","condition":"full-information","relevant_dimensions":["wings","legs"],"bee_group":{"antennae":"X","wings":"2","pattern":"X","legs":"M"},"bonus":0.24000000000000016},{"rt":975,"stimulus":"bees-with-color/bee-A2DM.svg","response":1,"trial_type":"image-button-response","trial_index":113,"time_elapsed":317008,"internal_node_id":"0.0-4.0-0.53","subject_id":"5c58d8472edc490001c80bda","study_id":"6197b3f67c2b5cd3b6d9596a","session_id":"6197b9edfd787a515f6be155","condition":"full-information","relevant_dimensions":["wings","legs"],"bee_group":{"antennae":"X","wings":"2","pattern":"X","legs":"M"},"action":"avoid","summary":"good-avoid","bonus":0.24000000000000016},{"rt":1278,"stimulus":"\n                    <p><b>Action: <em>avoid</em></b></p>\n                    <p>This is the bee that you just saw.</p>\n                    <img src=\"bees-with-color/bee-A2DM.svg\" width=\"200\">\n                    <p><span class=\"greenText\">Good choice!</span>  This bee would have stung you.<br>Your bonus pay is unchanged, and remains at $0.30.</p>\n            ","response":0,"trial_type":"html-button-response","trial_index":114,"time_elapsed":318288,"internal_node_id":"0.0-4.0-1.53","subject_id":"5c58d8472edc490001c80bda","study_id":"6197b3f67c2b5cd3b6d9596a","session_id":"6197b9edfd787a515f6be155","condition":"full-information","relevant_dimensions":["wings","legs"],"bee_group":{"antennae":"X","wings":"2","pattern":"X","legs":"M"},"bonus":0.24000000000000016},{"rt":1069,"stimulus":"bees-with-color/bee-A1SF.svg","response":1,"trial_type":"image-button-response","trial_index":115,"time_elapsed":319361,"internal_node_id":"0.0-4.0-0.54","subject_id":"5c58d8472edc490001c80bda","study_id":"6197b3f67c2b5cd3b6d9596a","session_id":"6197b9edfd787a515f6be155","condition":"full-information","relevant_dimensions":["wings","legs"],"bee_group":{"antennae":"X","wings":"2","pattern":"X","legs":"M"},"action":"avoid","summary":"bad-avoid","bonus":0.24000000000000016},{"rt":550,"stimulus":"\n                    <p><b>Action: <em>avoid</em></b></p>\n                    <p>This is the bee that you just saw.</p>\n                    <img src=\"bees-with-color/bee-A1SF.svg\" width=\"200\">\n                    <p><span class=\"redText\">Bad choice,</span> the bee was friendly.<br>Your bonus pay is unchanged, and remains at $0.30.</p>\n            ","response":0,"trial_type":"html-button-response","trial_index":116,"time_elapsed":319912,"internal_node_id":"0.0-4.0-1.54","subject_id":"5c58d8472edc490001c80bda","study_id":"6197b3f67c2b5cd3b6d9596a","session_id":"6197b9edfd787a515f6be155","condition":"full-information","relevant_dimensions":["wings","legs"],"bee_group":{"antennae":"X","wings":"2","pattern":"X","legs":"M"},"bonus":0.24000000000000016},{"rt":758,"stimulus":"bees-with-color/bee-B2DF.svg","response":0,"trial_type":"image-button-response","trial_index":117,"time_elapsed":320671,"internal_node_id":"0.0-4.0-0.55","subject_id":"5c58d8472edc490001c80bda","study_id":"6197b3f67c2b5cd3b6d9596a","session_id":"6197b9edfd787a515f6be155","condition":"full-information","relevant_dimensions":["wings","legs"],"bee_group":{"antennae":"X","wings":"2","pattern":"X","legs":"M"},"action":"harvest","summary":"good-harvest","bonus":0.24000000000000016},{"rt":1526,"stimulus":"\n                    <p><b>Action: <em>harvest</em></b></p>\n                    <p>This is the bee that you just saw.</p>\n                    <img src=\"bees-with-color/bee-B2DF.svg\" width=\"200\">\n                    <p><span class=\"greenText\"><b>Successful harvest!</b></span><br>Your pay has increased by $0.02. Your bonus pay is now $0.32.</p>\n            ","response":0,"trial_type":"html-button-response","trial_index":118,"time_elapsed":322200,"internal_node_id":"0.0-4.0-1.55","subject_id":"5c58d8472edc490001c80bda","study_id":"6197b3f67c2b5cd3b6d9596a","session_id":"6197b9edfd787a515f6be155","condition":"full-information","relevant_dimensions":["wings","legs"],"bee_group":{"antennae":"X","wings":"2","pattern":"X","legs":"M"},"bonus":0.24000000000000016},{"rt":1037,"stimulus":"bees-with-color/bee-B1SM.svg","response":1,"trial_type":"image-button-response","trial_index":119,"time_elapsed":323240,"internal_node_id":"0.0-4.0-0.56","subject_id":"5c58d8472edc490001c80bda","study_id":"6197b3f67c2b5cd3b6d9596a","session_id":"6197b9edfd787a515f6be155","condition":"full-information","relevant_dimensions":["wings","legs"],"bee_group":{"antennae":"X","wings":"2","pattern":"X","legs":"M"},"action":"avoid","summary":"bad-avoid","bonus":0.24000000000000016},{"rt":502,"stimulus":"\n                    <p><b>Action: <em>avoid</em></b></p>\n                    <p>This is the bee that you just saw.</p>\n                    <img src=\"bees-with-color/bee-B1SM.svg\" width=\"200\">\n                    <p><span class=\"redText\">Bad choice,</span> the bee was friendly.<br>Your bonus pay is unchanged, and remains at $0.32.</p>\n            ","response":0,"trial_type":"html-button-response","trial_index":120,"time_elapsed":323744,"internal_node_id":"0.0-4.0-1.56","subject_id":"5c58d8472edc490001c80bda","study_id":"6197b3f67c2b5cd3b6d9596a","session_id":"6197b9edfd787a515f6be155","condition":"full-information","relevant_dimensions":["wings","legs"],"bee_group":{"antennae":"X","wings":"2","pattern":"X","legs":"M"},"bonus":0.24000000000000016},{"rt":885,"stimulus":"bees-with-color/bee-B1SF.svg","response":0,"trial_type":"image-button-response","trial_index":121,"time_elapsed":324632,"internal_node_id":"0.0-4.0-0.57","subject_id":"5c58d8472edc490001c80bda","study_id":"6197b3f67c2b5cd3b6d9596a","session_id":"6197b9edfd787a515f6be155","condition":"full-information","relevant_dimensions":["wings","legs"],"bee_group":{"antennae":"X","wings":"2","pattern":"X","legs":"M"},"action":"harvest","summary":"good-harvest","bonus":0.24000000000000016},{"rt":574,"stimulus":"\n                    <p><b>Action: <em>harvest</em></b></p>\n                    <p>This is the bee that you just saw.</p>\n                    <img src=\"bees-with-color/bee-B1SF.svg\" width=\"200\">\n                    <p><span class=\"greenText\"><b>Successful harvest!</b></span><br>Your pay has increased by $0.02. Your bonus pay is now $0.34.</p>\n            ","response":0,"trial_type":"html-button-response","trial_index":122,"time_elapsed":325208,"internal_node_id":"0.0-4.0-1.57","subject_id":"5c58d8472edc490001c80bda","study_id":"6197b3f67c2b5cd3b6d9596a","session_id":"6197b9edfd787a515f6be155","condition":"full-information","relevant_dimensions":["wings","legs"],"bee_group":{"antennae":"X","wings":"2","pattern":"X","legs":"M"},"bonus":0.24000000000000016},{"rt":982,"stimulus":"bees-with-color/bee-B2SF.svg","response":1,"trial_type":"image-button-response","trial_index":123,"time_elapsed":326192,"internal_node_id":"0.0-4.0-0.58","subject_id":"5c58d8472edc490001c80bda","study_id":"6197b3f67c2b5cd3b6d9596a","session_id":"6197b9edfd787a515f6be155","condition":"full-information","relevant_dimensions":["wings","legs"],"bee_group":{"antennae":"X","wings":"2","pattern":"X","legs":"M"},"action":"avoid","summary":"bad-avoid","bonus":0.24000000000000016},{"rt":502,"stimulus":"\n                    <p><b>Action: <em>avoid</em></b></p>\n                    <p>This is the bee that you just saw.</p>\n                    <img src=\"bees-with-color/bee-B2SF.svg\" width=\"200\">\n                    <p><span class=\"redText\">Bad choice,</span> the bee was friendly.<br>Your bonus pay is unchanged, and remains at $0.34.</p>\n            ","response":0,"trial_type":"html-button-response","trial_index":124,"time_elapsed":326696,"internal_node_id":"0.0-4.0-1.58","subject_id":"5c58d8472edc490001c80bda","study_id":"6197b3f67c2b5cd3b6d9596a","session_id":"6197b9edfd787a515f6be155","condition":"full-information","relevant_dimensions":["wings","legs"],"bee_group":{"antennae":"X","wings":"2","pattern":"X","legs":"M"},"bonus":0.24000000000000016},{"rt":782,"stimulus":"bees-with-color/bee-A2SM.svg","response":1,"trial_type":"image-button-response","trial_index":125,"time_elapsed":327480,"internal_node_id":"0.0-4.0-0.59","subject_id":"5c58d8472edc490001c80bda","study_id":"6197b3f67c2b5cd3b6d9596a","session_id":"6197b9edfd787a515f6be155","condition":"full-information","relevant_dimensions":["wings","legs"],"bee_group":{"antennae":"X","wings":"2","pattern":"X","legs":"M"},"action":"avoid","summary":"good-avoid","bonus":0.24000000000000016},{"rt":526,"stimulus":"\n                    <p><b>Action: <em>avoid</em></b></p>\n                    <p>This is the bee that you just saw.</p>\n                    <img src=\"bees-with-color/bee-A2SM.svg\" width=\"200\">\n                    <p><span class=\"greenText\">Good choice!</span>  This bee would have stung you.<br>Your bonus pay is unchanged, and remains at $0.34.</p>\n            ","response":0,"trial_type":"html-button-response","trial_index":126,"time_elapsed":328008,"internal_node_id":"0.0-4.0-1.59","subject_id":"5c58d8472edc490001c80bda","study_id":"6197b3f67c2b5cd3b6d9596a","session_id":"6197b9edfd787a515f6be155","condition":"full-information","relevant_dimensions":["wings","legs"],"bee_group":{"antennae":"X","wings":"2","pattern":"X","legs":"M"},"bonus":0.24000000000000016},{"rt":1029,"stimulus":"bees-with-color/bee-A2SF.svg","response":1,"trial_type":"image-button-response","trial_index":127,"time_elapsed":329038,"internal_node_id":"0.0-4.0-0.60","subject_id":"5c58d8472edc490001c80bda","study_id":"6197b3f67c2b5cd3b6d9596a","session_id":"6197b9edfd787a515f6be155","condition":"full-information","relevant_dimensions":["wings","legs"],"bee_group":{"antennae":"X","wings":"2","pattern":"X","legs":"M"},"action":"avoid","summary":"bad-avoid","bonus":0.24000000000000016},{"rt":671,"stimulus":"\n                    <p><b>Action: <em>avoid</em></b></p>\n                    <p>This is the bee that you just saw.</p>\n                    <img src=\"bees-with-color/bee-A2SF.svg\" width=\"200\">\n                    <p><span class=\"redText\">Bad choice,</span> the bee was friendly.<br>Your bonus pay is unchanged, and remains at $0.34.</p>\n            ","response":0,"trial_type":"html-button-response","trial_index":128,"time_elapsed":329712,"internal_node_id":"0.0-4.0-1.60","subject_id":"5c58d8472edc490001c80bda","study_id":"6197b3f67c2b5cd3b6d9596a","session_id":"6197b9edfd787a515f6be155","condition":"full-information","relevant_dimensions":["wings","legs"],"bee_group":{"antennae":"X","wings":"2","pattern":"X","legs":"M"},"bonus":0.24000000000000016},{"rt":1008,"stimulus":"bees-with-color/bee-A1DM.svg","response":1,"trial_type":"image-button-response","trial_index":129,"time_elapsed":330722,"internal_node_id":"0.0-4.0-0.61","subject_id":"5c58d8472edc490001c80bda","study_id":"6197b3f67c2b5cd3b6d9596a","session_id":"6197b9edfd787a515f6be155","condition":"full-information","relevant_dimensions":["wings","legs"],"bee_group":{"antennae":"X","wings":"2","pattern":"X","legs":"M"},"action":"avoid","summary":"bad-avoid","bonus":0.24000000000000016},{"rt":513,"stimulus":"\n                    <p><b>Action: <em>avoid</em></b></p>\n                    <p>This is the bee that you just saw.</p>\n                    <img src=\"bees-with-color/bee-A1DM.svg\" width=\"200\">\n                    <p><span class=\"redText\">Bad choice,</span> the bee was friendly.<br>Your bonus pay is unchanged, and remains at $0.34.</p>\n            ","response":0,"trial_type":"html-button-response","trial_index":130,"time_elapsed":331240,"internal_node_id":"0.0-4.0-1.61","subject_id":"5c58d8472edc490001c80bda","study_id":"6197b3f67c2b5cd3b6d9596a","session_id":"6197b9edfd787a515f6be155","condition":"full-information","relevant_dimensions":["wings","legs"],"bee_group":{"antennae":"X","wings":"2","pattern":"X","legs":"M"},"bonus":0.24000000000000016},{"rt":1271,"stimulus":"bees-with-color/bee-B2DM.svg","response":1,"trial_type":"image-button-response","trial_index":131,"time_elapsed":332513,"internal_node_id":"0.0-4.0-0.62","subject_id":"5c58d8472edc490001c80bda","study_id":"6197b3f67c2b5cd3b6d9596a","session_id":"6197b9edfd787a515f6be155","condition":"full-information","relevant_dimensions":["wings","legs"],"bee_group":{"antennae":"X","wings":"2","pattern":"X","legs":"M"},"action":"avoid","summary":"good-avoid","bonus":0.24000000000000016},{"rt":645,"stimulus":"\n                    <p><b>Action: <em>avoid</em></b></p>\n                    <p>This is the bee that you just saw.</p>\n                    <img src=\"bees-with-color/bee-B2DM.svg\" width=\"200\">\n                    <p><span class=\"greenText\">Good choice!</span>  This bee would have stung you.<br>Your bonus pay is unchanged, and remains at $0.34.</p>\n            ","response":0,"trial_type":"html-button-response","trial_index":132,"time_elapsed":333160,"internal_node_id":"0.0-4.0-1.62","subject_id":"5c58d8472edc490001c80bda","study_id":"6197b3f67c2b5cd3b6d9596a","session_id":"6197b9edfd787a515f6be155","condition":"full-information","relevant_dimensions":["wings","legs"],"bee_group":{"antennae":"X","wings":"2","pattern":"X","legs":"M"},"bonus":0.24000000000000016},{"rt":1118,"stimulus":"bees-with-color/bee-A2DF.svg","response":1,"trial_type":"image-button-response","trial_index":133,"time_elapsed":334280,"internal_node_id":"0.0-4.0-0.63","subject_id":"5c58d8472edc490001c80bda","study_id":"6197b3f67c2b5cd3b6d9596a","session_id":"6197b9edfd787a515f6be155","condition":"full-information","relevant_dimensions":["wings","legs"],"bee_group":{"antennae":"X","wings":"2","pattern":"X","legs":"M"},"action":"avoid","summary":"bad-avoid","bonus":0.24000000000000016},{"rt":454,"stimulus":"\n                    <p><b>Action: <em>avoid</em></b></p>\n                    <p>This is the bee that you just saw.</p>\n                    <img src=\"bees-with-color/bee-A2DF.svg\" width=\"200\">\n                    <p><span class=\"redText\">Bad choice,</span> the bee was friendly.<br>Your bonus pay is unchanged, and remains at $0.34.</p>\n            ","response":0,"trial_type":"html-button-response","trial_index":134,"time_elapsed":334736,"internal_node_id":"0.0-4.0-1.63","subject_id":"5c58d8472edc490001c80bda","study_id":"6197b3f67c2b5cd3b6d9596a","session_id":"6197b9edfd787a515f6be155","condition":"full-information","relevant_dimensions":["wings","legs"],"bee_group":{"antennae":"X","wings":"2","pattern":"X","legs":"M"},"bonus":0.24000000000000016},{"rt":2610,"stimulus":"You have completed the first part of this experiment.<br><br>You will now begin a shorter second part, in which you will receive no feedback.<br>The same rules regarding bonus pay apply.<br><br>Press any key to begin.","response":" ","trial_type":"html-keyboard-response","trial_index":135,"time_elapsed":337350,"internal_node_id":"0.0-5.0","subject_id":"5c58d8472edc490001c80bda","study_id":"6197b3f67c2b5cd3b6d9596a","session_id":"6197b9edfd787a515f6be155","condition":"full-information","relevant_dimensions":["wings","legs"],"bee_group":{"antennae":"X","wings":"2","pattern":"X","legs":"M"},"bonus":0.24000000000000016},{"rt":3808,"stimulus":"bees-with-color/bee-B2SM.svg","response":0,"trial_type":"image-button-response","trial_index":136,"time_elapsed":341161,"internal_node_id":"0.0-6.0-0.0","subject_id":"5c58d8472edc490001c80bda","study_id":"6197b3f67c2b5cd3b6d9596a","session_id":"6197b9edfd787a515f6be155","condition":"full-information","relevant_dimensions":["wings","legs"],"bee_group":{"antennae":"X","wings":"2","pattern":"X","legs":"M"},"bonus":0.24000000000000016},{"rt":7869,"stimulus":"bees-with-color/bee-A1SM.svg","response":0,"trial_type":"image-button-response","trial_index":137,"time_elapsed":349032,"internal_node_id":"0.0-6.0-0.1","subject_id":"5c58d8472edc490001c80bda","study_id":"6197b3f67c2b5cd3b6d9596a","session_id":"6197b9edfd787a515f6be155","condition":"full-information","relevant_dimensions":["wings","legs"],"bee_group":{"antennae":"X","wings":"2","pattern":"X","legs":"M"},"bonus":0.24000000000000016},{"rt":1726,"stimulus":"bees-with-color/bee-B2DF.svg","response":0,"trial_type":"image-button-response","trial_index":138,"time_elapsed":350760,"internal_node_id":"0.0-6.0-0.2","subject_id":"5c58d8472edc490001c80bda","study_id":"6197b3f67c2b5cd3b6d9596a","session_id":"6197b9edfd787a515f6be155","condition":"full-information","relevant_dimensions":["wings","legs"],"bee_group":{"antennae":"X","wings":"2","pattern":"X","legs":"M"},"bonus":0.24000000000000016},{"rt":854,"stimulus":"bees-with-color/bee-A1DF.svg","response":1,"trial_type":"image-button-response","trial_index":139,"time_elapsed":351617,"internal_node_id":"0.0-6.0-0.3","subject_id":"5c58d8472edc490001c80bda","study_id":"6197b3f67c2b5cd3b6d9596a","session_id":"6197b9edfd787a515f6be155","condition":"full-information","relevant_dimensions":["wings","legs"],"bee_group":{"antennae":"X","wings":"2","pattern":"X","legs":"M"},"bonus":0.24000000000000016},{"rt":1246,"stimulus":"bees-with-color/bee-A2SF.svg","response":1,"trial_type":"image-button-response","trial_index":140,"time_elapsed":352864,"internal_node_id":"0.0-6.0-0.4","subject_id":"5c58d8472edc490001c80bda","study_id":"6197b3f67c2b5cd3b6d9596a","session_id":"6197b9edfd787a515f6be155","condition":"full-information","relevant_dimensions":["wings","legs"],"bee_group":{"antennae":"X","wings":"2","pattern":"X","legs":"M"},"bonus":0.24000000000000016},{"rt":814,"stimulus":"bees-with-color/bee-B1DF.svg","response":0,"trial_type":"image-button-response","trial_index":141,"time_elapsed":353680,"internal_node_id":"0.0-6.0-0.5","subject_id":"5c58d8472edc490001c80bda","study_id":"6197b3f67c2b5cd3b6d9596a","session_id":"6197b9edfd787a515f6be155","condition":"full-information","relevant_dimensions":["wings","legs"],"bee_group":{"antennae":"X","wings":"2","pattern":"X","legs":"M"},"bonus":0.24000000000000016},{"rt":1398,"stimulus":"bees-with-color/bee-B1DM.svg","response":1,"trial_type":"image-button-response","trial_index":142,"time_elapsed":355080,"internal_node_id":"0.0-6.0-0.6","subject_id":"5c58d8472edc490001c80bda","study_id":"6197b3f67c2b5cd3b6d9596a","session_id":"6197b9edfd787a515f6be155","condition":"full-information","relevant_dimensions":["wings","legs"],"bee_group":{"antennae":"X","wings":"2","pattern":"X","legs":"M"},"bonus":0.24000000000000016},{"rt":902,"stimulus":"bees-with-color/bee-B2DM.svg","response":0,"trial_type":"image-button-response","trial_index":143,"time_elapsed":355984,"internal_node_id":"0.0-6.0-0.7","subject_id":"5c58d8472edc490001c80bda","study_id":"6197b3f67c2b5cd3b6d9596a","session_id":"6197b9edfd787a515f6be155","condition":"full-information","relevant_dimensions":["wings","legs"],"bee_group":{"antennae":"X","wings":"2","pattern":"X","legs":"M"},"bonus":0.24000000000000016},{"rt":1183,"stimulus":"bees-with-color/bee-A2DM.svg","response":1,"trial_type":"image-button-response","trial_index":144,"time_elapsed":357168,"internal_node_id":"0.0-6.0-0.8","subject_id":"5c58d8472edc490001c80bda","study_id":"6197b3f67c2b5cd3b6d9596a","session_id":"6197b9edfd787a515f6be155","condition":"full-information","relevant_dimensions":["wings","legs"],"bee_group":{"antennae":"X","wings":"2","pattern":"X","legs":"M"},"bonus":0.24000000000000016},{"rt":350,"stimulus":"bees-with-color/bee-A2SM.svg","response":1,"trial_type":"image-button-response","trial_index":145,"time_elapsed":357521,"internal_node_id":"0.0-6.0-0.9","subject_id":"5c58d8472edc490001c80bda","study_id":"6197b3f67c2b5cd3b6d9596a","session_id":"6197b9edfd787a515f6be155","condition":"full-information","relevant_dimensions":["wings","legs"],"bee_group":{"antennae":"X","wings":"2","pattern":"X","legs":"M"},"bonus":0.24000000000000016},{"rt":838,"stimulus":"bees-with-color/bee-A1SF.svg","response":0,"trial_type":"image-button-response","trial_index":146,"time_elapsed":358361,"internal_node_id":"0.0-6.0-0.10","subject_id":"5c58d8472edc490001c80bda","study_id":"6197b3f67c2b5cd3b6d9596a","session_id":"6197b9edfd787a515f6be155","condition":"full-information","relevant_dimensions":["wings","legs"],"bee_group":{"antennae":"X","wings":"2","pattern":"X","legs":"M"},"bonus":0.24000000000000016},{"rt":789,"stimulus":"bees-with-color/bee-B2SF.svg","response":1,"trial_type":"image-button-response","trial_index":147,"time_elapsed":359152,"internal_node_id":"0.0-6.0-0.11","subject_id":"5c58d8472edc490001c80bda","study_id":"6197b3f67c2b5cd3b6d9596a","session_id":"6197b9edfd787a515f6be155","condition":"full-information","relevant_dimensions":["wings","legs"],"bee_group":{"antennae":"X","wings":"2","pattern":"X","legs":"M"},"bonus":0.24000000000000016},{"rt":597,"stimulus":"bees-with-color/bee-B1SF.svg","response":0,"trial_type":"image-button-response","trial_index":148,"time_elapsed":359752,"internal_node_id":"0.0-6.0-0.12","subject_id":"5c58d8472edc490001c80bda","study_id":"6197b3f67c2b5cd3b6d9596a","session_id":"6197b9edfd787a515f6be155","condition":"full-information","relevant_dimensions":["wings","legs"],"bee_group":{"antennae":"X","wings":"2","pattern":"X","legs":"M"},"bonus":0.24000000000000016},{"rt":1166,"stimulus":"bees-with-color/bee-B1SM.svg","response":1,"trial_type":"image-button-response","trial_index":149,"time_elapsed":360921,"internal_node_id":"0.0-6.0-0.13","subject_id":"5c58d8472edc490001c80bda","study_id":"6197b3f67c2b5cd3b6d9596a","session_id":"6197b9edfd787a515f6be155","condition":"full-information","relevant_dimensions":["wings","legs"],"bee_group":{"antennae":"X","wings":"2","pattern":"X","legs":"M"},"bonus":0.24000000000000016},{"rt":654,"stimulus":"bees-with-color/bee-A2DF.svg","response":1,"trial_type":"image-button-response","trial_index":150,"time_elapsed":361577,"internal_node_id":"0.0-6.0-0.14","subject_id":"5c58d8472edc490001c80bda","study_id":"6197b3f67c2b5cd3b6d9596a","session_id":"6197b9edfd787a515f6be155","condition":"full-information","relevant_dimensions":["wings","legs"],"bee_group":{"antennae":"X","wings":"2","pattern":"X","legs":"M"},"bonus":0.24000000000000016},{"rt":1748,"stimulus":"bees-with-color/bee-A1DM.svg","response":0,"trial_type":"image-button-response","trial_index":151,"time_elapsed":363328,"internal_node_id":"0.0-6.0-0.15","subject_id":"5c58d8472edc490001c80bda","study_id":"6197b3f67c2b5cd3b6d9596a","session_id":"6197b9edfd787a515f6be155","condition":"full-information","relevant_dimensions":["wings","legs"],"bee_group":{"antennae":"X","wings":"2","pattern":"X","legs":"M"},"bonus":0.24000000000000016},{"rt":314,"stimulus":"bees-with-color/bee-A2SF.svg","response":0,"trial_type":"image-button-response","trial_index":152,"time_elapsed":363646,"internal_node_id":"0.0-6.0-0.16","subject_id":"5c58d8472edc490001c80bda","study_id":"6197b3f67c2b5cd3b6d9596a","session_id":"6197b9edfd787a515f6be155","condition":"full-information","relevant_dimensions":["wings","legs"],"bee_group":{"antennae":"X","wings":"2","pattern":"X","legs":"M"},"bonus":0.24000000000000016},{"rt":513,"stimulus":"bees-with-color/bee-B1DM.svg","response":1,"trial_type":"image-button-response","trial_index":153,"time_elapsed":364160,"internal_node_id":"0.0-6.0-0.17","subject_id":"5c58d8472edc490001c80bda","study_id":"6197b3f67c2b5cd3b6d9596a","session_id":"6197b9edfd787a515f6be155","condition":"full-information","relevant_dimensions":["wings","legs"],"bee_group":{"antennae":"X","wings":"2","pattern":"X","legs":"M"},"bonus":0.24000000000000016},{"rt":726,"stimulus":"bees-with-color/bee-B1SM.svg","response":0,"trial_type":"image-button-response","trial_index":154,"time_elapsed":364888,"internal_node_id":"0.0-6.0-0.18","subject_id":"5c58d8472edc490001c80bda","study_id":"6197b3f67c2b5cd3b6d9596a","session_id":"6197b9edfd787a515f6be155","condition":"full-information","relevant_dimensions":["wings","legs"],"bee_group":{"antennae":"X","wings":"2","pattern":"X","legs":"M"},"bonus":0.24000000000000016},{"rt":302,"stimulus":"bees-with-color/bee-B2SM.svg","response":0,"trial_type":"image-button-response","trial_index":155,"time_elapsed":365192,"internal_node_id":"0.0-6.0-0.19","subject_id":"5c58d8472edc490001c80bda","study_id":"6197b3f67c2b5cd3b6d9596a","session_id":"6197b9edfd787a515f6be155","condition":"full-information","relevant_dimensions":["wings","legs"],"bee_group":{"antennae":"X","wings":"2","pattern":"X","legs":"M"},"bonus":0.24000000000000016},{"rt":309,"stimulus":"bees-with-color/bee-B2SF.svg","response":0,"trial_type":"image-button-response","trial_index":156,"time_elapsed":365504,"internal_node_id":"0.0-6.0-0.20","subject_id":"5c58d8472edc490001c80bda","study_id":"6197b3f67c2b5cd3b6d9596a","session_id":"6197b9edfd787a515f6be155","condition":"full-information","relevant_dimensions":["wings","legs"],"bee_group":{"antennae":"X","wings":"2","pattern":"X","legs":"M"},"bonus":0.24000000000000016},{"rt":670,"stimulus":"bees-with-color/bee-A1DM.svg","response":1,"trial_type":"image-button-response","trial_index":157,"time_elapsed":366178,"internal_node_id":"0.0-6.0-0.21","subject_id":"5c58d8472edc490001c80bda","study_id":"6197b3f67c2b5cd3b6d9596a","session_id":"6197b9edfd787a515f6be155","condition":"full-information","relevant_dimensions":["wings","legs"],"bee_group":{"antennae":"X","wings":"2","pattern":"X","legs":"M"},"bonus":0.24000000000000016},{"rt":573,"stimulus":"bees-with-color/bee-B2DM.svg","response":1,"trial_type":"image-button-response","trial_index":158,"time_elapsed":366752,"internal_node_id":"0.0-6.0-0.22","subject_id":"5c58d8472edc490001c80bda","study_id":"6197b3f67c2b5cd3b6d9596a","session_id":"6197b9edfd787a515f6be155","condition":"full-information","relevant_dimensions":["wings","legs"],"bee_group":{"antennae":"X","wings":"2","pattern":"X","legs":"M"},"bonus":0.24000000000000016},{"rt":518,"stimulus":"bees-with-color/bee-A2DF.svg","response":0,"trial_type":"image-button-response","trial_index":159,"time_elapsed":367272,"internal_node_id":"0.0-6.0-0.23","subject_id":"5c58d8472edc490001c80bda","study_id":"6197b3f67c2b5cd3b6d9596a","session_id":"6197b9edfd787a515f6be155","condition":"full-information","relevant_dimensions":["wings","legs"],"bee_group":{"antennae":"X","wings":"2","pattern":"X","legs":"M"},"bonus":0.24000000000000016},{"rt":527,"stimulus":"bees-with-color/bee-B1DF.svg","response":0,"trial_type":"image-button-response","trial_index":160,"time_elapsed":367800,"internal_node_id":"0.0-6.0-0.24","subject_id":"5c58d8472edc490001c80bda","study_id":"6197b3f67c2b5cd3b6d9596a","session_id":"6197b9edfd787a515f6be155","condition":"full-information","relevant_dimensions":["wings","legs"],"bee_group":{"antennae":"X","wings":"2","pattern":"X","legs":"M"},"bonus":0.24000000000000016},{"rt":452,"stimulus":"bees-with-color/bee-A1SM.svg","response":0,"trial_type":"image-button-response","trial_index":161,"time_elapsed":368256,"internal_node_id":"0.0-6.0-0.25","subject_id":"5c58d8472edc490001c80bda","study_id":"6197b3f67c2b5cd3b6d9596a","session_id":"6197b9edfd787a515f6be155","condition":"full-information","relevant_dimensions":["wings","legs"],"bee_group":{"antennae":"X","wings":"2","pattern":"X","legs":"M"},"bonus":0.24000000000000016},{"rt":446,"stimulus":"bees-with-color/bee-A2DM.svg","response":0,"trial_type":"image-button-response","trial_index":162,"time_elapsed":368704,"internal_node_id":"0.0-6.0-0.26","subject_id":"5c58d8472edc490001c80bda","study_id":"6197b3f67c2b5cd3b6d9596a","session_id":"6197b9edfd787a515f6be155","condition":"full-information","relevant_dimensions":["wings","legs"],"