[{"success":true,"trial_type":"fullscreen","trial_index":0,"time_elapsed":71510,"internal_node_id":"0.0-0.0","subject_id":"60e1e24c2cefa1327bb77476","study_id":"6197b3f67c2b5cd3b6d9596a","session_id":"6197b89140117ef0f58c4b25","condition":"full-information","relevant_dimensions":["pattern","legs"],"bee_group":{"antennae":"X","wings":"X","pattern":"D","legs":"M"},"bonus":1.9000000000000012},{"success":true,"timeout":false,"failed_images":[],"failed_audio":[],"failed_video":[],"trial_type":"preload","trial_index":1,"time_elapsed":74600,"internal_node_id":"0.0-1.0","subject_id":"60e1e24c2cefa1327bb77476","study_id":"6197b3f67c2b5cd3b6d9596a","session_id":"6197b89140117ef0f58c4b25","condition":"full-information","relevant_dimensions":["pattern","legs"],"bee_group":{"antennae":"X","wings":"X","pattern":"D","legs":"M"},"bonus":1.9000000000000012},{"rt":3553.9000000059605,"stimulus":"Welcome! Press any key to begin.","response":" ","trial_type":"html-keyboard-response","trial_index":2,"time_elapsed":78155,"internal_node_id":"0.0-2.0","subject_id":"60e1e24c2cefa1327bb77476","study_id":"6197b3f67c2b5cd3b6d9596a","session_id":"6197b89140117ef0f58c4b25","condition":"full-information","relevant_dimensions":["pattern","legs"],"bee_group":{"antennae":"X","wings":"X","pattern":"D","legs":"M"},"bonus":1.9000000000000012},{"view_history":[{"page_index":0,"viewing_time":10877.09999999404},{"page_index":1,"viewing_time":23592.69999998808},{"page_index":2,"viewing_time":31874.80000001192},{"page_index":3,"viewing_time":38727.29999998212},{"page_index":4,"viewing_time":17412.600000023842},{"page_index":5,"viewing_time":20248.399999976158},{"page_index":6,"viewing_time":27188.80000001192},{"page_index":7,"viewing_time":14646.199999988079},{"page_index":8,"viewing_time":11881.40000000596},{"page_index":9,"viewing_time":14504.09999999404},{"page_index":10,"viewing_time":10726.800000011921},{"page_index":11,"viewing_time":16673.40000000596},{"page_index":12,"viewing_time":26154.69999998808},{"page_index":13,"viewing_time":2348.0999999940395},{"page_index":14,"viewing_time":5089.4000000059605}],"rt":271946.1999999881,"trial_type":"instructions","trial_index":3,"time_elapsed":350102,"internal_node_id":"0.0-3.0-0.0","subject_id":"60e1e24c2cefa1327bb77476","study_id":"6197b3f67c2b5cd3b6d9596a","session_id":"6197b89140117ef0f58c4b25","condition":"full-information","relevant_dimensions":["pattern","legs"],"bee_group":{"antennae":"X","wings":"X","pattern":"D","legs":"M"},"bonus":1.9000000000000012},{"rt":16420.90000000596,"response":{"Q0":["Two or six legs","Stripes or spots on body","Single or double wings","Antennae or no antennae"]},"question_order":[0],"trial_type":"survey-multi-select","trial_index":4,"time_elapsed":366529,"internal_node_id":"0.0-3.0-1.0","subject_id":"60e1e24c2cefa1327bb77476","study_id":"6197b3f67c2b5cd3b6d9596a","session_id":"6197b89140117ef0f58c4b25","condition":"full-information","relevant_dimensions":["pattern","legs"],"bee_group":{"antennae":"X","wings":"X","pattern":"D","legs":"M"},"correct":true,"bonus":1.9000000000000012},{"rt":39343.09999999404,"response":{"Q1":"No.","Q2":"Based on the four features of the bee.","Q3":"You learn if it was friendly or dangerous, but do not alter your bonus."},"question_order":[0,1,2],"trial_type":"survey-multi-choice","trial_index":5,"time_elapsed":405875,"internal_node_id":"0.0-3.0-2.0","subject_id":"60e1e24c2cefa1327bb77476","study_id":"6197b3f67c2b5cd3b6d9596a","session_id":"6197b89140117ef0f58c4b25","condition":"full-information","relevant_dimensions":["pattern","legs"],"bee_group":{"antennae":"X","wings":"X","pattern":"D","legs":"M"},"correct":true,"bonus":1.9000000000000012},{"rt":6292.200000017881,"stimulus":"<p>Congrats, you got everything right<br>When you're ready, click the button below to continue to the experiment.</p>","response":0,"trial_type":"html-button-response","trial_index":6,"time_elapsed":412169,"internal_node_id":"0.0-3.0-3.0","subject_id":"60e1e24c2cefa1327bb77476","study_id":"6197b3f67c2b5cd3b6d9596a","session_id":"6197b89140117ef0f58c4b25","condition":"full-information","relevant_dimensions":["pattern","legs"],"bee_group":{"antennae":"X","wings":"X","pattern":"D","legs":"M"},"bonus":1.9000000000000012},{"rt":58520.70000001788,"stimulus":"bees-with-color/bee-B2SF.svg","response":1,"trial_type":"image-button-response","trial_index":7,"time_elapsed":470693,"internal_node_id":"0.0-4.0-0.0","subject_id":"60e1e24c2cefa1327bb77476","study_id":"6197b3f67c2b5cd3b6d9596a","session_id":"6197b89140117ef0f58c4b25","condition":"full-information","relevant_dimensions":["pattern","legs"],"bee_group":{"antennae":"X","wings":"X","pattern":"D","legs":"M"},"action":"avoid","summary":"bad-avoid","bonus":1.9000000000000012},{"rt":16458.40000000596,"stimulus":"\n                    <p><b>Action: <em>avoid</em></b></p>\n                    <p>This is the bee that you just saw.</p>\n                    <img src=\"bees-with-color/bee-B2SF.svg\" width=\"200\">\n                    <p><span class=\"redText\">Bad choice,</span> the bee was friendly.<br>Your bonus pay is unchanged, and remains at $0.54.</p>\n            ","response":0,"trial_type":"html-button-response","trial_index":8,"time_elapsed":487156,"internal_node_id":"0.0-4.0-1.0","subject_id":"60e1e24c2cefa1327bb77476","study_id":"6197b3f67c2b5cd3b6d9596a","session_id":"6197b89140117ef0f58c4b25","condition":"full-information","relevant_dimensions":["pattern","legs"],"bee_group":{"antennae":"X","wings":"X","pattern":"D","legs":"M"},"bonus":1.9000000000000012},{"rt":6969.699999988079,"stimulus":"bees-with-color/bee-B2DM.svg","response":1,"trial_type":"image-button-response","trial_index":9,"time_elapsed":494129,"internal_node_id":"0.0-4.0-0.1","subject_id":"60e1e24c2cefa1327bb77476","study_id":"6197b3f67c2b5cd3b6d9596a","session_id":"6197b89140117ef0f58c4b25","condition":"full-information","relevant_dimensions":["pattern","legs"],"bee_group":{"antennae":"X","wings":"X","pattern":"D","legs":"M"},"action":"avoid","summary":"good-avoid","bonus":1.9000000000000012},{"rt":32315.40000000596,"stimulus":"\n                    <p><b>Action: <em>avoid</em></b></p>\n                    <p>This is the bee that you just saw.</p>\n                    <img src=\"bees-with-color/bee-B2DM.svg\" width=\"200\">\n                    <p><span class=\"greenText\">Good choice!</span>  This bee would have stung you.<br>Your bonus pay is unchanged, and remains at $0.54.</p>\n            ","response":0,"trial_type":"html-button-response","trial_index":10,"time_elapsed":526448,"internal_node_id":"0.0-4.0-1.1","subject_id":"60e1e24c2cefa1327bb77476","study_id":"6197b3f67c2b5cd3b6d9596a","session_id":"6197b89140117ef0f58c4b25","condition":"full-information","relevant_dimensions":["pattern","legs"],"bee_group":{"antennae":"X","wings":"X","pattern":"D","legs":"M"},"bonus":1.9000000000000012},{"rt":4549.300000011921,"stimulus":"bees-with-color/bee-A2SF.svg","response":0,"trial_type":"image-button-response","trial_index":11,"time_elapsed":531000,"internal_node_id":"0.0-4.0-0.2","subject_id":"60e1e24c2cefa1327bb77476","study_id":"6197b3f67c2b5cd3b6d9596a","session_id":"6197b89140117ef0f58c4b25","condition":"full-information","relevant_dimensions":["pattern","legs"],"bee_group":{"antennae":"X","wings":"X","pattern":"D","legs":"M"},"action":"harvest","summary":"good-harvest","bonus":1.9000000000000012},{"rt":21159.40000000596,"stimulus":"\n                    <p><b>Action: <em>harvest</em></b></p>\n                    <p>This is the bee that you just saw.</p>\n                    <img src=\"bees-with-color/bee-A2SF.svg\" width=\"200\">\n                    <p><span class=\"greenText\"><b>Successful harvest!</b></span><br>Your pay has increased by $0.02. Your bonus pay is now $0.56.</p>\n            ","response":0,"trial_type":"html-button-response","trial_index":12,"time_elapsed":552162,"internal_node_id":"0.0-4.0-1.2","subject_id":"60e1e24c2cefa1327bb77476","study_id":"6197b3f67c2b5cd3b6d9596a","session_id":"6197b89140117ef0f58c4b25","condition":"full-information","relevant_dimensions":["pattern","legs"],"bee_group":{"antennae":"X","wings":"X","pattern":"D","legs":"M"},"bonus":1.9000000000000012},{"rt":4157.0999999940395,"stimulus":"bees-with-color/bee-A1DM.svg","response":1,"trial_type":"image-button-response","trial_index":13,"time_elapsed":556321,"internal_node_id":"0.0-4.0-0.3","subject_id":"60e1e24c2cefa1327bb77476","study_id":"6197b3f67c2b5cd3b6d9596a","session_id":"6197b89140117ef0f58c4b25","condition":"full-information","relevant_dimensions":["pattern","legs"],"bee_group":{"antennae":"X","wings":"X","pattern":"D","legs":"M"},"action":"avoid","summary":"good-avoid","bonus":1.9000000000000012},{"rt":9031.799999982119,"stimulus":"\n                    <p><b>Action: <em>avoid</em></b></p>\n                    <p>This is the bee that you just saw.</p>\n                    <img src=\"bees-with-color/bee-A1DM.svg\" width=\"200\">\n                    <p><span class=\"greenText\">Good choice!</span>  This bee would have stung you.<br>Your bonus pay is unchanged, and remains at $0.56.</p>\n            ","response":0,"trial_type":"html-button-response","trial_index":14,"time_elapsed":565355,"internal_node_id":"0.0-4.0-1.3","subject_id":"60e1e24c2cefa1327bb77476","study_id":"6197b3f67c2b5cd3b6d9596a","session_id":"6197b89140117ef0f58c4b25","condition":"full-information","relevant_dimensions":["pattern","legs"],"bee_group":{"antennae":"X","wings":"X","pattern":"D","legs":"M"},"bonus":1.9000000000000012},{"rt":16826.5,"stimulus":"bees-with-color/bee-A2DF.svg","response":1,"trial_type":"image-button-response","trial_index":15,"time_elapsed":582184,"internal_node_id":"0.0-4.0-0.4","subject_id":"60e1e24c2cefa1327bb77476","study_id":"6197b3f67c2b5cd3b6d9596a","session_id":"6197b89140117ef0f58c4b25","condition":"full-information","relevant_dimensions":["pattern","legs"],"bee_group":{"antennae":"X","wings":"X","pattern":"D","legs":"M"},"action":"avoid","summary":"bad-avoid","bonus":1.9000000000000012},{"rt":11439.300000011921,"stimulus":"\n                    <p><b>Action: <em>avoid</em></b></p>\n                    <p>This is the bee that you just saw.</p>\n                    <img src=\"bees-with-color/bee-A2DF.svg\" width=\"200\">\n                    <p><span class=\"redText\">Bad choice,</span> the bee was friendly.<br>Your bonus pay is unchanged, and remains at $0.56.</p>\n            ","response":0,"trial_type":"html-button-response","trial_index":16,"time_elapsed":593625,"internal_node_id":"0.0-4.0-1.4","subject_id":"60e1e24c2cefa1327bb77476","study_id":"6197b3f67c2b5cd3b6d9596a","session_id":"6197b89140117ef0f58c4b25","condition":"full-information","relevant_dimensions":["pattern","legs"],"bee_group":{"antennae":"X","wings":"X","pattern":"D","legs":"M"},"bonus":1.9000000000000012},{"rt":10474.59999999404,"stimulus":"bees-with-color/bee-A1DF.svg","response":0,"trial_type":"image-button-response","trial_index":17,"time_elapsed":604101,"internal_node_id":"0.0-4.0-0.5","subject_id":"60e1e24c2cefa1327bb77476","study_id":"6197b3f67c2b5cd3b6d9596a","session_id":"6197b89140117ef0f58c4b25","condition":"full-information","relevant_dimensions":["pattern","legs"],"bee_group":{"antennae":"X","wings":"X","pattern":"D","legs":"M"},"action":"harvest","summary":"good-harvest","bonus":1.9000000000000012},{"rt":14069.799999982119,"stimulus":"\n                    <p><b>Action: <em>harvest</em></b></p>\n                    <p>This is the bee that you just saw.</p>\n                    <img src=\"bees-with-color/bee-A1DF.svg\" width=\"200\">\n                    <p><span class=\"greenText\"><b>Successful harvest!</b></span><br>Your pay has increased by $0.02. Your bonus pay is now $0.58.</p>\n            ","response":0,"trial_type":"html-button-response","trial_index":18,"time_elapsed":618175,"internal_node_id":"0.0-4.0-1.5","subject_id":"60e1e24c2cefa1327bb77476","study_id":"6197b3f67c2b5cd3b6d9596a","session_id":"6197b89140117ef0f58c4b25","condition":"full-information","relevant_dimensions":["pattern","legs"],"bee_group":{"antennae":"X","wings":"X","pattern":"D","legs":"M"},"bonus":1.9000000000000012},{"rt":4214.9000000059605,"stimulus":"bees-with-color/bee-B1DF.svg","response":0,"trial_type":"image-button-response","trial_index":19,"time_elapsed":622393,"internal_node_id":"0.0-4.0-0.6","subject_id":"60e1e24c2cefa1327bb77476","study_id":"6197b3f67c2b5cd3b6d9596a","session_id":"6197b89140117ef0f58c4b25","condition":"full-information","relevant_dimensions":["pattern","legs"],"bee_group":{"antennae":"X","wings":"X","pattern":"D","legs":"M"},"action":"harvest","summary":"good-harvest","bonus":1.9000000000000012},{"rt":10306.59999999404,"stimulus":"\n                    <p><b>Action: <em>harvest</em></b></p>\n                    <p>This is the bee that you just saw.</p>\n                    <img src=\"bees-with-color/bee-B1DF.svg\" width=\"200\">\n                    <p><span class=\"greenText\"><b>Successful harvest!</b></span><br>Your pay has increased by $0.02. Your bonus pay is now $0.60.</p>\n            ","response":0,"trial_type":"html-button-response","trial_index":20,"time_elapsed":632702,"internal_node_id":"0.0-4.0-1.6","subject_id":"60e1e24c2cefa1327bb77476","study_id":"6197b3f67c2b5cd3b6d9596a","session_id":"6197b89140117ef0f58c4b25","condition":"full-information","relevant_dimensions":["pattern","legs"],"bee_group":{"antennae":"X","wings":"X","pattern":"D","legs":"M"},"bonus":1.9000000000000012},{"rt":6456.9000000059605,"stimulus":"bees-with-color/bee-B2DF.svg","response":1,"trial_type":"image-button-response","trial_index":21,"time_elapsed":639161,"internal_node_id":"0.0-4.0-0.7","subject_id":"60e1e24c2cefa1327bb77476","study_id":"6197b3f67c2b5cd3b6d9596a","session_id":"6197b89140117ef0f58c4b25","condition":"full-information","relevant_dimensions":["pattern","legs"],"bee_group":{"antennae":"X","wings":"X","pattern":"D","legs":"M"},"action":"avoid","summary":"bad-avoid","bonus":1.9000000000000012},{"rt":14144.600000023842,"stimulus":"\n                    <p><b>Action: <em>avoid</em></b></p>\n                    <p>This is the bee that you just saw.</p>\n                    <img src=\"bees-with-color/bee-B2DF.svg\" width=\"200\">\n                    <p><span class=\"redText\">Bad choice,</span> the bee was friendly.<br>Your bonus pay is unchanged, and remains at $0.60.</p>\n            ","response":0,"trial_type":"html-button-response","trial_index":22,"time_elapsed":653308,"internal_node_id":"0.0-4.0-1.7","subject_id":"60e1e24c2cefa1327bb77476","study_id":"6197b3f67c2b5cd3b6d9596a","session_id":"6197b89140117ef0f58c4b25","condition":"full-information","relevant_dimensions":["pattern","legs"],"bee_group":{"antennae":"X","wings":"X","pattern":"D","legs":"M"},"bonus":1.9000000000000012},{"rt":3142.5999999940395,"stimulus":"bees-with-color/bee-B1DM.svg","response":1,"trial_type":"image-button-response","trial_index":23,"time_elapsed":656454,"internal_node_id":"0.0-4.0-0.8","subject_id":"60e1e24c2cefa1327bb77476","study_id":"6197b3f67c2b5cd3b6d9596a","session_id":"6197b89140117ef0f58c4b25","condition":"full-information","relevant_dimensions":["pattern","legs"],"bee_group":{"antennae":"X","wings":"X","pattern":"D","legs":"M"},"action":"avoid","summary":"good-avoid","bonus":1.9000000000000012},{"rt":6540.199999988079,"stimulus":"\n                    <p><b>Action: <em>avoid</em></b></p>\n                    <p>This is the bee that you just saw.</p>\n                    <img src=\"bees-with-color/bee-B1DM.svg\" width=\"200\">\n                    <p><span class=\"greenText\">Good choice!</span>  This bee would have stung you.<br>Your bonus pay is unchanged, and remains at $0.60.</p>\n            ","response":0,"trial_type":"html-button-response","trial_index":24,"time_elapsed":662997,"internal_node_id":"0.0-4.0-1.8","subject_id":"60e1e24c2cefa1327bb77476","study_id":"6197b3f67c2b5cd3b6d9596a","session_id":"6197b89140117ef0f58c4b25","condition":"full-information","relevant_dimensions":["pattern","legs"],"bee_group":{"antennae":"X","wings":"X","pattern":"D","legs":"M"},"bonus":1.9000000000000012},{"rt":6637,"stimulus":"bees-with-color/bee-A1SF.svg","response":0,"trial_type":"image-button-response","trial_index":25,"time_elapsed":669636,"internal_node_id":"0.0-4.0-0.9","subject_id":"60e1e24c2cefa1327bb77476","study_id":"6197b3f67c2b5cd3b6d9596a","session_id":"6197b89140117ef0f58c4b25","condition":"full-information","relevant_dimensions":["pattern","legs"],"bee_group":{"antennae":"X","wings":"X","pattern":"D","legs":"M"},"action":"harvest","summary":"good-harvest","bonus":1.9000000000000012},{"rt":6716.5,"stimulus":"\n                    <p><b>Action: <em>harvest</em></b></p>\n                    <p>This is the bee that you just saw.</p>\n                    <img src=\"bees-with-color/bee-A1SF.svg\" width=\"200\">\n                    <p><span class=\"greenText\"><b>Successful harvest!</b></span><br>Your pay has increased by $0.02. Your bonus pay is now $0.62.</p>\n            ","response":0,"trial_type":"html-button-response","trial_index":26,"time_elapsed":676356,"internal_node_id":"0.0-4.0-1.9","subject_id":"60e1e24c2cefa1327bb77476","study_id":"6197b3f67c2b5cd3b6d9596a","session_id":"6197b89140117ef0f58c4b25","condition":"full-information","relevant_dimensions":["pattern","legs"],"bee_group":{"antennae":"X","wings":"X","pattern":"D","legs":"M"},"bonus":1.9000000000000012},{"rt":3943.7999999821186,"stimulus":"bees-with-color/bee-A2SM.svg","response":1,"trial_type":"image-button-response","trial_index":27,"time_elapsed":680302,"internal_node_id":"0.0-4.0-0.10","subject_id":"60e1e24c2cefa1327bb77476","study_id":"6197b3f67c2b5cd3b6d9596a","session_id":"6197b89140117ef0f58c4b25","condition":"full-information","relevant_dimensions":["pattern","legs"],"bee_group":{"antennae":"X","wings":"X","pattern":"D","legs":"M"},"action":"avoid","summary":"bad-avoid","bonus":1.9000000000000012},{"rt":43592.59999999404,"stimulus":"\n                    <p><b>Action: <em>avoid</em></b></p>\n                    <p>This is the bee that you just saw.</p>\n                    <img src=\"bees-with-color/bee-A2SM.svg\" width=\"200\">\n                    <p><span class=\"redText\">Bad choice,</span> the bee was friendly.<br>Your bonus pay is unchanged, and remains at $0.62.</p>\n            ","response":0,"trial_type":"html-button-response","trial_index":28,"time_elapsed":723897,"internal_node_id":"0.0-4.0-1.10","subject_id":"60e1e24c2cefa1327bb77476","study_id":"6197b3f67c2b5cd3b6d9596a","session_id":"6197b89140117ef0f58c4b25","condition":"full-information","relevant_dimensions":["pattern","legs"],"bee_group":{"antennae":"X","wings":"X","pattern":"D","legs":"M"},"bonus":1.9000000000000012},{"rt":10010.5,"stimulus":"bees-with-color/bee-B2SM.svg","response":0,"trial_type":"image-button-response","trial_index":29,"time_elapsed":733911,"internal_node_id":"0.0-4.0-0.11","subject_id":"60e1e24c2cefa1327bb77476","study_id":"6197b3f67c2b5cd3b6d9596a","session_id":"6197b89140117ef0f58c4b25","condition":"full-information","relevant_dimensions":["pattern","legs"],"bee_group":{"antennae":"X","wings":"X","pattern":"D","legs":"M"},"action":"harvest","summary":"good-harvest","bonus":1.9000000000000012},{"rt":20884.20000001788,"stimulus":"\n                    <p><b>Action: <em>harvest</em></b></p>\n                    <p>This is the bee that you just saw.</p>\n                    <img src=\"bees-with-color/bee-B2SM.svg\" width=\"200\">\n                    <p><span class=\"greenText\"><b>Successful harvest!</b></span><br>Your pay has increased by $0.02. Your bonus pay is now $0.64.</p>\n            ","response":0,"trial_type":"html-button-response","trial_index":30,"time_elapsed":754797,"internal_node_id":"0.0-4.0-1.11","subject_id":"60e1e24c2cefa1327bb77476","study_id":"6197b3f67c2b5cd3b6d9596a","session_id":"6197b89140117ef0f58c4b25","condition":"full-information","relevant_dimensions":["pattern","legs"],"bee_group":{"antennae":"X","wings":"X","pattern":"D","legs":"M"},"bonus":1.9000000000000012},{"rt":7684.699999988079,"stimulus":"bees-with-color/bee-A2DM.svg","response":1,"trial_type":"image-button-response","trial_index":31,"time_elapsed":762484,"internal_node_id":"0.0-4.0-0.12","subject_id":"60e1e24c2cefa1327bb77476","study_id":"6197b3f67c2b5cd3b6d9596a","session_id":"6197b89140117ef0f58c4b25","condition":"full-information","relevant_dimensions":["pattern","legs"],"bee_group":{"antennae":"X","wings":"X","pattern":"D","legs":"M"},"action":"avoid","summary":"good-avoid","bonus":1.9000000000000012},{"rt":27067,"stimulus":"\n                    <p><b>Action: <em>avoid</em></b></p>\n                    <p>This is the bee that you just saw.</p>\n                    <img src=\"bees-with-color/bee-A2DM.svg\" width=\"200\">\n                    <p><span class=\"greenText\">Good choice!</span>  This bee would have stung you.<br>Your bonus pay is unchanged, and remains at $0.64.</p>\n            ","response":0,"trial_type":"html-button-response","trial_index":32,"time_elapsed":789554,"internal_node_id":"0.0-4.0-1.12","subject_id":"60e1e24c2cefa1327bb77476","study_id":"6197b3f67c2b5cd3b6d9596a","session_id":"6197b89140117ef0f58c4b25","condition":"full-information","relevant_dimensions":["pattern","legs"],"bee_group":{"antennae":"X","wings":"X","pattern":"D","legs":"M"},"bonus":1.9000000000000012},{"rt":2964.4000000059605,"stimulus":"bees-with-color/bee-B1SF.svg","response":0,"trial_type":"image-button-response","trial_index":33,"time_elapsed":792520,"internal_node_id":"0.0-4.0-0.13","subject_id":"60e1e24c2cefa1327bb77476","study_id":"6197b3f67c2b5cd3b6d9596a","session_id":"6197b89140117ef0f58c4b25","condition":"full-information","relevant_dimensions":["pattern","legs"],"bee_group":{"antennae":"X","wings":"X","pattern":"D","legs":"M"},"action":"harvest","summary":"good-harvest","bonus":1.9000000000000012},{"rt":22609.90000000596,"stimulus":"\n                    <p><b>Action: <em>harvest</em></b></p>\n                    <p>This is the bee that you just saw.</p>\n                    <img src=\"bees-with-color/bee-B1SF.svg\" width=\"200\">\n                    <p><span class=\"greenText\"><b>Successful harvest!</b></span><br>Your pay has increased by $0.02. Your bonus pay is now $0.66.</p>\n            ","response":0,"trial_type":"html-button-response","trial_index":34,"time_elapsed":815132,"internal_node_id":"0.0-4.0-1.13","subject_id":"60e1e24c2cefa1327bb77476","study_id":"6197b3f67c2b5cd3b6d9596a","session_id":"6197b89140117ef0f58c4b25","condition":"full-information","relevant_dimensions":["pattern","legs"],"bee_group":{"antennae":"X","wings":"X","pattern":"D","legs":"M"},"bonus":1.9000000000000012},{"rt":4155.300000011921,"stimulus":"bees-with-color/bee-A1SM.svg","response":0,"trial_type":"image-button-response","trial_index":35,"time_elapsed":819290,"internal_node_id":"0.0-4.0-0.14","subject_id":"60e1e24c2cefa1327bb77476","study_id":"6197b3f67c2b5cd3b6d9596a","session_id":"6197b89140117ef0f58c4b25","condition":"full-information","relevant_dimensions":["pattern","legs"],"bee_group":{"antennae":"X","wings":"X","pattern":"D","legs":"M"},"action":"harvest","summary":"good-harvest","bonus":1.9000000000000012},{"rt":8101.5,"stimulus":"\n                    <p><b>Action: <em>harvest</em></b></p>\n                    <p>This is the bee that you just saw.</p>\n                    <img src=\"bees-with-color/bee-A1SM.svg\" width=\"200\">\n                    <p><span class=\"greenText\"><b>Successful harvest!</b></span><br>Your pay has increased by $0.02. Your bonus pay is now $0.68.</p>\n            ","response":0,"trial_type":"html-button-response","trial_index":36,"time_elapsed":827394,"internal_node_id":"0.0-4.0-1.14","subject_id":"60e1e24c2cefa1327bb77476","study_id":"6197b3f67c2b5cd3b6d9596a","session_id":"6197b89140117ef0f58c4b25","condition":"full-information","relevant_dimensions":["pattern","legs"],"bee_group":{"antennae":"X","wings":"X","pattern":"D","legs":"M"},"bonus":1.9000000000000012},{"rt":4261.9000000059605,"stimulus":"bees-with-color/bee-B1SM.svg","response":0,"trial_type":"image-button-response","trial_index":37,"time_elapsed":831661,"internal_node_id":"0.0-4.0-0.15","subject_id":"60e1e24c2cefa1327bb77476","study_id":"6197b3f67c2b5cd3b6d9596a","session_id":"6197b89140117ef0f58c4b25","condition":"full-information","relevant_dimensions":["pattern","legs"],"bee_group":{"antennae":"X","wings":"X","pattern":"D","legs":"M"},"action":"harvest","summary":"good-harvest","bonus":1.9000000000000012},{"rt":2560.5999999940395,"stimulus":"\n                    <p><b>Action: <em>harvest</em></b></p>\n                    <p>This is the bee that you just saw.</p>\n                    <img src=\"bees-with-color/bee-B1SM.svg\" width=\"200\">\n                    <p><span class=\"greenText\"><b>Successful harvest!</b></span><br>Your pay has increased by $0.02. Your bonus pay is now $0.70.</p>\n            ","response":0,"trial_type":"html-button-response","trial_index":38,"time_elapsed":834224,"internal_node_id":"0.0-4.0-1.15","subject_id":"60e1e24c2cefa1327bb77476","study_id":"6197b3f67c2b5cd3b6d9596a","session_id":"6197b89140117ef0f58c4b25","condition":"full-information","relevant_dimensions":["pattern","legs"],"bee_group":{"antennae":"X","wings":"X","pattern":"D","legs":"M"},"bonus":1.9000000000000012},{"rt":4824.4000000059605,"stimulus":"bees-with-color/bee-B1DM.svg","response":1,"trial_type":"image-button-response","trial_index":39,"time_elapsed":839050,"internal_node_id":"0.0-4.0-0.16","subject_id":"60e1e24c2cefa1327bb77476","study_id":"6197b3f67c2b5cd3b6d9596a","session_id":"6197b89140117ef0f58c4b25","condition":"full-information","relevant_dimensions":["pattern","legs"],"bee_group":{"antennae":"X","wings":"X","pattern":"D","legs":"M"},"action":"avoid","summary":"good-avoid","bonus":1.9000000000000012},{"rt":13152.300000011921,"stimulus":"\n                    <p><b>Action: <em>avoid</em></b></p>\n                    <p>This is the bee that you just saw.</p>\n                    <img src=\"bees-with-color/bee-B1DM.svg\" width=\"200\">\n                    <p><span class=\"greenText\">Good choice!</span>  This bee would have stung you.<br>Your bonus pay is unchanged, and remains at $0.70.</p>\n            ","response":0,"trial_type":"html-button-response","trial_index":40,"time_elapsed":852205,"internal_node_id":"0.0-4.0-1.16","subject_id":"60e1e24c2cefa1327bb77476","study_id":"6197b3f67c2b5cd3b6d9596a","session_id":"6197b89140117ef0f58c4b25","condition":"full-information","relevant_dimensions":["pattern","legs"],"bee_group":{"antennae":"X","wings":"X","pattern":"D","legs":"M"},"bonus":1.9000000000000012},{"rt":2358.100000023842,"stimulus":"bees-with-color/bee-B1SM.svg","response":0,"trial_type":"image-button-response","trial_index":41,"time_elapsed":854565,"internal_node_id":"0.0-4.0-0.17","subject_id":"60e1e24c2cefa1327bb77476","study_id":"6197b3f67c2b5cd3b6d9596a","session_id":"6197b89140117ef0f58c4b25","condition":"full-information","relevant_dimensions":["pattern","legs"],"bee_group":{"antennae":"X","wings":"X","pattern":"D","legs":"M"},"action":"harvest","summary":"good-harvest","bonus":1.9000000000000012},{"rt":3190.0999999940395,"stimulus":"\n                    <p><b>Action: <em>harvest</em></b></p>\n                    <p>This is the bee that you just saw.</p>\n                    <img src=\"bees-with-color/bee-B1SM.svg\" width=\"200\">\n                    <p><span class=\"greenText\"><b>Successful harvest!</b></span><br>Your pay has increased by $0.02. Your bonus pay is now $0.72.</p>\n            ","response":0,"trial_type":"html-button-response","trial_index":42,"time_elapsed":857759,"internal_node_id":"0.0-4.0-1.17","subject_id":"60e1e24c2cefa1327bb77476","study_id":"6197b3f67c2b5cd3b6d9596a","session_id":"6197b89140117ef0f58c4b25","condition":"full-information","relevant_dimensions":["pattern","legs"],"bee_group":{"antennae":"X","wings":"X","pattern":"D","legs":"M"},"bonus":1.9000000000000012},{"rt":1928.800000011921,"stimulus":"bees-with-color/bee-A1SF.svg","response":0,"trial_type":"image-button-response","trial_index":43,"time_elapsed":859690,"internal_node_id":"0.0-4.0-0.18","subject_id":"60e1e24c2cefa1327bb77476","study_id":"6197b3f67c2b5cd3b6d9596a","session_id":"6197b89140117ef0f58c4b25","condition":"full-information","relevant_dimensions":["pattern","legs"],"bee_group":{"antennae":"X","wings":"X","pattern":"D","legs":"M"},"action":"harvest","summary":"good-harvest","bonus":1.9000000000000012},{"rt":1618.7999999821186,"stimulus":"\n                    <p><b>Action: <em>harvest</em></b></p>\n                    <p>This is the bee that you just saw.</p>\n                    <img src=\"bees-with-color/bee-A1SF.svg\" width=\"200\">\n                    <p><span class=\"greenText\"><b>Successful harvest!</b></span><br>Your pay has increased by $0.02. Your bonus pay is now $0.74.</p>\n            ","response":0,"trial_type":"html-button-response","trial_index":44,"time_elapsed":861310,"internal_node_id":"0.0-4.0-1.18","subject_id":"60e1e24c2cefa1327bb77476","study_id":"6197b3f67c2b5cd3b6d9596a","session_id":"6197b89140117ef0f58c4b25","condition":"full-information","relevant_dimensions":["pattern","legs"],"bee_group":{"antennae":"X","wings":"X","pattern":"D","legs":"M"},"bonus":1.9000000000000012},{"rt":2691.699999988079,"stimulus":"bees-with-color/bee-A2DM.svg","response":1,"trial_type":"image-button-response","trial_index":45,"time_elapsed":864004,"internal_node_id":"0.0-4.0-0.19","subject_id":"60e1e24c2cefa1327bb77476","study_id":"6197b3f67c2b5cd3b6d9596a","session_id":"6197b89140117ef0f58c4b25","condition":"full-information","relevant_dimensions":["pattern","legs"],"bee_group":{"antennae":"X","wings":"X","pattern":"D","legs":"M"},"action":"avoid","summary":"good-avoid","bonus":1.9000000000000012},{"rt":2047.7000000178814,"stimulus":"\n                    <p><b>Action: <em>avoid</em></b></p>\n                    <p>This is the bee that you just saw.</p>\n                    <img src=\"bees-with-color/bee-A2DM.svg\" width=\"200\">\n                    <p><span class=\"greenText\">Good choice!</span>  This bee would have stung you.<br>Your bonus pay is unchanged, and remains at $0.74.</p>\n            ","response":0,"trial_type":"html-button-response","trial_index":46,"time_elapsed":866054,"internal_node_id":"0.0-4.0-1.19","subject_id":"60e1e24c2cefa1327bb77476","study_id":"6197b3f67c2b5cd3b6d9596a","session_id":"6197b89140117ef0f58c4b25","condition":"full-information","relevant_dimensions":["pattern","legs"],"bee_group":{"antennae":"X","wings":"X","pattern":"D","legs":"M"},"bonus":1.9000000000000012},{"rt":2619.9000000059605,"stimulus":"bees-with-color/bee-B1DF.svg","response":0,"trial_type":"image-button-response","trial_index":47,"time_elapsed":868676,"internal_node_id":"0.0-4.0-0.20","subject_id":"60e1e24c2cefa1327bb77476","study_id":"6197b3f67c2b5cd3b6d9596a","session_id":"6197b89140117ef0f58c4b25","condition":"full-information","relevant_dimensions":["pattern","legs"],"bee_group":{"antennae":"X","wings":"X","pattern":"D","legs":"M"},"action":"harvest","summary":"good-harvest","bonus":1.9000000000000012},{"rt":1975.9000000059605,"stimulus":"\n                    <p><b>Action: <em>harvest</em></b></p>\n                    <p>This is the bee that you just saw.</p>\n                    <img src=\"bees-with-color/bee-B1DF.svg\" width=\"200\">\n                    <p><span class=\"greenText\"><b>Successful harvest!</b></span><br>Your pay has increased by $0.02. Your bonus pay is now $0.76.</p>\n            ","response":0,"trial_type":"html-button-response","trial_index":48,"time_elapsed":870654,"internal_node_id":"0.0-4.0-1.20","subject_id":"60e1e24c2cefa1327bb77476","study_id":"6197b3f67c2b5cd3b6d9596a","session_id":"6197b89140117ef0f58c4b25","condition":"full-information","relevant_dimensions":["pattern","legs"],"bee_group":{"antennae":"X","wings":"X","pattern":"D","legs":"M"},"bonus":1.9000000000000012},{"rt":2632.5,"stimulus":"bees-with-color/bee-A2SM.svg","response":0,"trial_type":"image-button-response","trial_index":49,"time_elapsed":873288,"internal_node_id":"0.0-4.0-0.21","subject_id":"60e1e24c2cefa1327bb77476","study_id":"6197b3f67c2b5cd3b6d9596a","session_id":"6197b89140117ef0f58c4b25","condition":"full-information","relevant_dimensions":["pattern","legs"],"bee_group":{"antennae":"X","wings":"X","pattern":"D","legs":"M"},"action":"harvest","summary":"good-harvest","bonus":1.9000000000000012},{"rt":1904.300000011921,"stimulus":"\n                    <p><b>Action: <em>harvest</em></b></p>\n                    <p>This is the bee that you just saw.</p>\n                    <img src=\"bees-with-color/bee-A2SM.svg\" width=\"200\">\n                    <p><span class=\"greenText\"><b>Successful harvest!</b></span><br>Your pay has increased by $0.02. Your bonus pay is now $0.78.</p>\n            ","response":0,"trial_type":"html-button-response","trial_index":50,"time_elapsed":875195,"internal_node_id":"0.0-4.0-1.21","subject_id":"60e1e24c2cefa1327bb77476","study_id":"6197b3f67c2b5cd3b6d9596a","session_id":"6197b89140117ef0f58c4b25","condition":"full-information","relevant_dimensions":["pattern","legs"],"bee_group":{"antennae":"X","wings":"X","pattern":"D","legs":"M"},"bonus":1.9000000000000012},{"rt":2298,"stimulus":"bees-with-color/bee-A1DF.svg","response":0,"trial_type":"image-button-response","trial_index":51,"time_elapsed":877494,"internal_node_id":"0.0-4.0-0.22","subject_id":"60e1e24c2cefa1327bb77476","study_id":"6197b3f67c2b5cd3b6d9596a","session_id":"6197b89140117ef0f58c4b25","condition":"full-information","relevant_dimensions":["pattern","legs"],"bee_group":{"antennae":"X","wings":"X","pattern":"D","legs":"M"},"action":"harvest","summary":"good-harvest","bonus":1.9000000000000012},{"rt":1701.5999999940395,"stimulus":"\n                    <p><b>Action: <em>harvest</em></b></p>\n                    <p>This is the bee that you just saw.</p>\n                    <img src=\"bees-with-color/bee-A1DF.svg\" width=\"200\">\n                    <p><span class=\"greenText\"><b>Successful harvest!</b></span><br>Your pay has increased by $0.02. Your bonus pay is now $0.80.</p>\n            ","response":0,"trial_type":"html-button-response","trial_index":52,"time_elapsed":879198,"internal_node_id":"0.0-4.0-1.22","subject_id":"60e1e24c2cefa1327bb77476","study_id":"6197b3f67c2b5cd3b6d9596a","session_id":"6197b89140117ef0f58c4b25","condition":"full-information","relevant_dimensions":["pattern","legs"],"bee_group":{"antennae":"X","wings":"X","pattern":"D","legs":"M"},"bonus":1.9000000000000012},{"rt":2514.199999988079,"stimulus":"bees-with-color/bee-A2SF.svg","response":0,"trial_type":"image-button-response","trial_index":53,"time_elapsed":881715,"internal_node_id":"0.0-4.0-0.23","subject_id":"60e1e24c2cefa1327bb77476","study_id":"6197b3f67c2b5cd3b6d9596a","session_id":"6197b89140117ef0f58c4b25","condition":"full-information","relevant_dimensions":["pattern","legs"],"bee_group":{"antennae":"X","wings":"X","pattern":"D","legs":"M"},"action":"harvest","summary":"good-harvest","bonus":1.9000000000000012},{"rt":1761.0999999940395,"stimulus":"\n                    <p><b>Action: <em>harvest</em></b></p>\n                    <p>This is the bee that you just saw.</p>\n                    <img src=\"bees-with-color/bee-A2SF.svg\" width=\"200\">\n                    <p><span class=\"greenText\"><b>Successful harvest!</b></span><br>Your pay has increased by $0.02. Your bonus pay is now $0.82.</p>\n            ","response":0,"trial_type":"html-button-response","trial_index":54,"time_elapsed":883478,"internal_node_id":"0.0-4.0-1.23","subject_id":"60e1e24c2cefa1327bb77476","study_id":"6197b3f67c2b5cd3b6d9596a","session_id":"6197b89140117ef0f58c4b25","condition":"full-information","relevant_dimensions":["pattern","legs"],"bee_group":{"antennae":"X","wings":"X","pattern":"D","legs":"M"},"bonus":1.9000000000000012},{"rt":1677.9000000059605,"stimulus":"bees-with-color/bee-B2DM.svg","response":1,"trial_type":"image-button-response","trial_index":55,"time_elapsed":885159,"internal_node_id":"0.0-4.0-0.24","subject_id":"60e1e24c2cefa1327bb77476","study_id":"6197b3f67c2b5cd3b6d9596a","session_id":"6197b89140117ef0f58c4b25","condition":"full-information","relevant_dimensions":["pattern","legs"],"bee_group":{"antennae":"X","wings":"X","pattern":"D","legs":"M"},"action":"avoid","summary":"good-avoid","bonus":1.9000000000000012},{"rt":1626.9000000059605,"stimulus":"\n                    <p><b>Action: <em>avoid</em></b></p>\n                    <p>This is the bee that you just saw.</p>\n                    <img src=\"bees-with-color/bee-B2DM.svg\" width=\"200\">\n                    <p><span class=\"greenText\">Good choice!</span>  This bee would have stung you.<br>Your bonus pay is unchanged, and remains at $0.82.</p>\n            ","response":0,"trial_type":"html-button-response","trial_index":56,"time_elapsed":886792,"internal_node_id":"0.0-4.0-1.24","subject_id":"60e1e24c2cefa1327bb77476","study_id":"6197b3f67c2b5cd3b6d9596a","session_id":"6197b89140117ef0f58c4b25","condition":"full-information","relevant_dimensions":["pattern","legs"],"bee_group":{"antennae":"X","wings":"X","pattern":"D","legs":"M"},"bonus":1.9000000000000012},{"rt":1797.5999999940395,"stimulus":"bees-with-color/bee-B2DF.svg","response":0,"trial_type":"image-button-response","trial_index":57,"time_elapsed":888591,"internal_node_id":"0.0-4.0-0.25","subject_id":"60e1e24c2cefa1327bb77476","study_id":"6197b3f67c2b5cd3b6d9596a","session_id":"6197b89140117ef0f58c4b25","condition":"full-information","relevant_dimensions":["pattern","legs"],"bee_group":{"antennae":"X","wings":"X","pattern":"D","legs":"M"},"action":"harvest","summary":"good-harvest","bonus":1.9000000000000012},{"rt":1583.2000000178814,"stimulus":"\n                    <p><b>Action: <em>harvest</em></b></p>\n                    <p>This is the bee that you just saw.</p>\n                    <img src=\"bees-with-color/bee-B2DF.svg\" width=\"200\">\n                    <p><span class=\"greenText\"><b>Successful harvest!</b></span><br>Your pay has increased by $0.02. Your bonus pay is now $0.84.</p>\n            ","response":0,"trial_type":"html-button-response","trial_index":58,"time_elapsed":890176,"internal_node_id":"0.0-4.0-1.25","subject_id":"60e1e24c2cefa1327bb77476","study_id":"6197b3f67c2b5cd3b6d9596a","session_id":"6197b89140117ef0f58c4b25","condition":"full-information","relevant_dimensions":["pattern","legs"],"bee_group":{"antennae":"X","wings":"X","pattern":"D","legs":"M"},"bonus":1.9000000000000012},{"rt":1988.7000000178814,"stimulus":"bees-with-color/bee-B2SF.svg","response":0,"trial_type":"image-button-response","trial_index":59,"time_elapsed":892166,"internal_node_id":"0.0-4.0-0.26","subject_id":"60e1e24c2cefa1327bb77476","study_id":"6197b3f67c2b5cd3b6d9596a","session_id":"6197b89140117ef0f58c4b25","condition":"full-information","relevant_dimensions":["pattern","legs"],"bee_group":{"antennae":"X","wings":"X","pattern":"D","legs":"M"},"action":"harvest","summary":"good-harvest","bonus":1.9000000000000012},{"rt":2714.5,"stimulus":"\n                    <p><b>Action: <em>harvest</em></b></p>\n                    <p>This is the bee that you just saw.</p>\n                    <img src=\"bees-with-color/bee-B2SF.svg\" width=\"200\">\n                    <p><span class=\"greenText\"><b>Successful harvest!</b></span><br>Your pay has increased by $0.02. Your bonus pay is now $0.86.</p>\n            ","response":0,"trial_type":"html-button-response","trial_index":60,"time_elapsed":894884,"internal_node_id":"0.0-4.0-1.26","subject_id":"60e1e24c2cefa1327bb77476","study_id":"6197b3f67c2b5cd3b6d9596a","session_id":"6197b89140117ef0f58c4b25","condition":"full-information","relevant_dimensions":["pattern","legs"],"bee_group":{"antennae":"X","wings":"X","pattern":"D","legs":"M"},"bonus":1.9000000000000012},{"rt":1846,"stimulus":"bees-with-color/bee-B2SM.svg","response":0,"trial_type":"image-button-response","trial_index":61,"time_elapsed":896732,"internal_node_id":"0.0-4.0-0.27","subject_id":"60e1e24c2cefa1327bb77476","study_id":"6197b3f67c2b5cd3b6d9596a","session_id":"6197b89140117ef0f58c4b25","condition":"full-information","relevant_dimensions":["pattern","legs"],"bee_group":{"antennae":"X","wings":"X","pattern":"D","legs":"M"},"action":"harvest","summary":"good-harvest","bonus":1.9000000000000012},{"rt":1618.9000000059605,"stimulus":"\n                    <p><b>Action: <em>harvest</em></b></p>\n                    <p>This is the bee that you just saw.</p>\n                    <img src=\"bees-with-color/bee-B2SM.svg\" width=\"200\">\n                    <p><span class=\"greenText\"><b>Successful harvest!</b></span><br>Your pay has increased by $0.02. Your bonus pay is now $0.88.</p>\n            ","response":0,"trial_type":"html-button-response","trial_index":62,"time_elapsed":898353,"internal_node_id":"0.0-4.0-1.27","subject_id":"60e1e24c2cefa1327bb77476","study_id":"6197b3f67c2b5cd3b6d9596a","session_id":"6197b89140117ef0f58c4b25","condition":"full-information","relevant_dimensions":["pattern","legs"],"bee_group":{"antennae":"X","wings":"X","pattern":"D","legs":"M"},"bonus":1.9000000000000012},{"rt":2358.699999988079,"stimulus":"bees-with-color/bee-A1SM.svg","response":0,"trial_type":"image-button-response","trial_index":63,"time_elapsed":900713,"internal_node_id":"0.0-4.0-0.28","subject_id":"60e1e24c2cefa1327bb77476","study_id":"6197b3f67c2b5cd3b6d9596a","session_id":"6197b89140117ef0f58c4b25","condition":"full-information","relevant_dimensions":["pattern","legs"],"bee_group":{"antennae":"X","wings":"X","pattern":"D","legs":"M"},"action":"harvest","summary":"good-harvest","bonus":1.9000000000000012},{"rt":1535.1000000238419,"stimulus":"\n                    <p><b>Action: <em>harvest</em></b></p>\n                    <p>This is the bee that you just saw.</p>\n                    <img src=\"bees-with-color/bee-A1SM.svg\" width=\"200\">\n                    <p><span class=\"greenText\"><b>Successful harvest!</b></span><br>Your pay has increased by $0.02. Your bonus pay is now $0.90.</p>\n            ","response":0,"trial_type":"html-button-response","trial_index":64,"time_elapsed":902250,"internal_node_id":"0.0-4.0-1.28","subject_id":"60e1e24c2cefa1327bb77476","study_id":"6197b3f67c2b5cd3b6d9596a","session_id":"6197b89140117ef0f58c4b25","condition":"full-information","relevant_dimensions":["pattern","legs"],"bee_group":{"antennae":"X","wings":"X","pattern":"D","legs":"M"},"bonus":1.9000000000000012},{"rt":1857.7000000178814,"stimulus":"bees-with-color/bee-A2DF.svg","response":0,"trial_type":"image-button-response","trial_index":65,"time_elapsed":904110,"internal_node_id":"0.0-4.0-0.29","subject_id":"60e1e24c2cefa1327bb77476","study_id":"6197b3f67c2b5cd3b6d9596a","session_id":"6197b89140117ef0f58c4b25","condition":"full-information","relevant_dimensions":["pattern","legs"],"bee_group":{"antennae":"X","wings":"X","pattern":"D","legs":"M"},"action":"harvest","summary":"good-harvest","bonus":1.9000000000000012},{"rt":1593.0999999940395,"stimulus":"\n                    <p><b>Action: <em>harvest</em></b></p>\n                    <p>This is the bee that you just saw.</p>\n                    <img src=\"bees-with-color/bee-A2DF.svg\" width=\"200\">\n                    <p><span class=\"greenText\"><b>Successful harvest!</b></span><br>Your pay has increased by $0.02. Your bonus pay is now $0.92.</p>\n            ","response":0,"trial_type":"html-button-response","trial_index":66,"time_elapsed":905705,"internal_node_id":"0.0-4.0-1.29","subject_id":"60e1e24c2cefa1327bb77476","study_id":"6197b3f67c2b5cd3b6d9596a","session_id":"6197b89140117ef0f58c4b25","condition":"full-information","relevant_dimensions":["pattern","legs"],"bee_group":{"antennae":"X","wings":"X","pattern":"D","legs":"M"},"bonus":1.9000000000000012},{"rt":2061.800000011921,"stimulus":"bees-with-color/bee-A1DM.svg","response":1,"trial_type":"image-button-response","trial_index":67,"time_elapsed":907769,"internal_node_id":"0.0-4.0-0.30","subject_id":"60e1e24c2cefa1327bb77476","study_id":"6197b3f67c2b5cd3b6d9596a","session_id":"6197b89140117ef0f58c4b25","condition":"full-information","relevant_dimensions":["pattern","legs"],"bee_group":{"antennae":"X","wings":"X","pattern":"D","legs":"M"},"action":"avoid","summary":"good-avoid","bonus":1.9000000000000012},{"rt":1785.5,"stimulus":"\n                    <p><b>Action: <em>avoid</em></b></p>\n                    <p>This is the bee that you just saw.</p>\n                    <img src=\"bees-with-color/bee-A1DM.svg\" width=\"200\">\n                    <p><span class=\"greenText\">Good choice!</span>  This bee would have stung you.<br>Your bonus pay is unchanged, and remains at $0.92.</p>\n            ","response":0,"trial_type":"html-button-response","trial_index":68,"time_elapsed":909556,"internal_node_id":"0.0-4.0-1.30","subject_id":"60e1e24c2cefa1327bb77476","study_id":"6197b3f67c2b5cd3b6d9596a","session_id":"6197b89140117ef0f58c4b25","condition":"full-information","relevant_dimensions":["pattern","legs"],"bee_group":{"antennae":"X","wings":"X","pattern":"D","legs":"M"},"bonus":1.9000000000000012},{"rt":1345.4000000059605,"stimulus":"bees-with-color/bee-B1SF.svg","response":0,"trial_type":"image-button-response","trial_index":69,"time_elapsed":910904,"internal_node_id":"0.0-4.0-0.31","subject_id":"60e1e24c2cefa1327bb77476","study_id":"6197b3f67c2b5cd3b6d9596a","session_id":"6197b89140117ef0f58c4b25","condition":"full-information","relevant_dimensions":["pattern","legs"],"bee_group":{"antennae":"X","wings":"X","pattern":"D","legs":"M"},"action":"harvest","summary":"good-harvest","bonus":1.9000000000000012},{"rt":1653.2999999821186,"stimulus":"\n                    <p><b>Action: <em>harvest</em></b></p>\n                    <p>This is the bee that you just saw.</p>\n                    <img src=\"bees-with-color/bee-B1SF.svg\" width=\"200\">\n                    <p><span class=\"greenText\"><b>Successful harvest!</b></span><br>Your pay has increased by $0.02. Your bonus pay is now $0.94.</p>\n            ","response":0,"trial_type":"html-button-response","trial_index":70,"time_elapsed":912560,"internal_node_id":"0.0-4.0-1.31","subject_id":"60e1e24c2cefa1327bb77476","study_id":"6197b3f67c2b5cd3b6d9596a","session_id":"6197b89140117ef0f58c4b25","condition":"full-information","relevant_dimensions":["pattern","legs"],"bee_group":{"antennae":"X","wings":"X","pattern":"D","legs":"M"},"bonus":1.9000000000000012},{"rt":1129.7000000178814,"stimulus":"bees-with-color/bee-B2SF.svg","response":0,"trial_type":"image-button-response","trial_index":71,"time_elapsed":913692,"internal_node_id":"0.0-4.0-0.32","subject_id":"60e1e24c2cefa1327bb77476","study_id":"6197b3f67c2b5cd3b6d9596a","session_id":"6197b89140117ef0f58c4b25","condition":"full-information","relevant_dimensions":["pattern","legs"],"bee_group":{"antennae":"X","wings":"X","pattern":"D","legs":"M"},"action":"harvest","summary":"good-harvest","bonus":1.9000000000000012},{"rt":1284.0999999940395,"stimulus":"\n                    <p><b>Action: <em>harvest</em></b></p>\n                    <p>This is the bee that you just saw.</p>\n                    <img src=\"bees-with-color/bee-B2SF.svg\" width=\"200\">\n                    <p><span class=\"greenText\"><b>Successful harvest!</b></span><br>Your pay has increased by $0.02. Your bonus pay is now $0.96.</p>\n            ","response":0,"trial_type":"html-button-response","trial_index":72,"time_elapsed":914979,"internal_node_id":"0.0-4.0-1.32","subject_id":"60e1e24c2cefa1327bb77476","study_id":"6197b3f67c2b5cd3b6d9596a","session_id":"6197b89140117ef0f58c4b25","condition":"full-information","relevant_dimensions":["pattern","legs"],"bee_group":{"antennae":"X","wings":"X","pattern":"D","legs":"M"},"bonus":1.9000000000000012},{"rt":1428.300000011921,"stimulus":"bees-with-color/bee-A1SF.svg","response":0,"trial_type":"image-button-response","trial_index":73,"time_elapsed":916409,"internal_node_id":"0.0-4.0-0.33","subject_id":"60e1e24c2cefa1327bb77476","study_id":"6197b3f67c2b5cd3b6d9596a","session_id":"6197b89140117ef0f58c4b25","condition":"full-information","relevant_dimensions":["pattern","legs"],"bee_group":{"antennae":"X","wings":"X","pattern":"D","legs":"M"},"action":"harvest","summary":"good-harvest","bonus":1.9000000000000012},{"rt":1189.7000000178814,"stimulus":"\n                    <p><b>Action: <em>harvest</em></b></p>\n                    <p>This is the bee that you just saw.</p>\n                    <img src=\"bees-with-color/bee-A1SF.svg\" width=\"200\">\n                    <p><span class=\"greenText\"><b>Successful harvest!</b></span><br>Your pay has increased by $0.02. Your bonus pay is now $0.98.</p>\n            ","response":0,"trial_type":"html-button-response","trial_index":74,"time_elapsed":917601,"internal_node_id":"0.0-4.0-1.33","subject_id":"60e1e24c2cefa1327bb77476","study_id":"6197b3f67c2b5cd3b6d9596a","session_id":"6197b89140117ef0f58c4b25","condition":"full-information","relevant_dimensions":["pattern","legs"],"bee_group":{"antennae":"X","wings":"X","pattern":"D","legs":"M"},"bonus":1.9000000000000012},{"rt":1844.5,"stimulus":"bees-with-color/bee-A1DF.svg","response":0,"trial_type":"image-button-response","trial_index":75,"time_elapsed":919447,"internal_node_id":"0.0-4.0-0.34","subject_id":"60e1e24c2cefa1327bb77476","study_id":"6197b3f67c2b5cd3b6d9596a","session_id":"6197b89140117ef0f58c4b25","condition":"full-information","relevant_dimensions":["pattern","legs"],"bee_group":{"antennae":"X","wings":"X","pattern":"D","legs":"M"},"action":"harvest","summary":"good-harvest","bonus":1.9000000000000012},{"rt":1048.5999999940395,"stimulus":"\n                    <p><b>Action: <em>harvest</em></b></p>\n                    <p>This is the bee that you just saw.</p>\n                    <img src=\"bees-with-color/bee-A1DF.svg\" width=\"200\">\n                    <p><span class=\"greenText\"><b>Successful harvest!</b></span><br>Your pay has increased by $0.02. Your bonus pay is now $1.00.</p>\n            ","response":0,"trial_type":"html-button-response","trial_index":76,"time_elapsed":920498,"internal_node_id":"0.0-4.0-1.34","subject_id":"60e1e24c2cefa1327bb77476","study_id":"6197b3f67c2b5cd3b6d9596a","session_id":"6197b89140117ef0f58c4b25","condition":"full-information","relevant_dimensions":["pattern","legs"],"bee_group":{"antennae":"X","wings":"X","pattern":"D","legs":"M"},"bonus":1.9000000000000012},{"rt":1356.5,"stimulus":"bees-with-color/bee-B1SF.svg","response":0,"trial_type":"image-button-response","trial_index":77,"time_elapsed":921856,"internal_node_id":"0.0-4.0-0.35","subject_id":"60e1e24c2cefa1327bb77476","study_id":"6197b3f67c2b5cd3b6d9596a","session_id":"6197b89140117ef0f58c4b25","condition":"full-information","relevant_dimensions":["pattern","legs"],"bee_group":{"antennae":"X","wings":"X","pattern":"D","legs":"M"},"action":"harvest","summary":"good-harvest","bonus":1.9000000000000012},{"rt":1322,"stimulus":"\n                    <p><b>Action: <em>harvest</em></b></p>\n                    <p>This is the bee that you just saw.</p>\n                    <img src=\"bees-with-color/bee-B1SF.svg\" width=\"200\">\n                    <p><span class=\"greenText\"><b>Successful harvest!</b></span><br>Your pay has increased by $0.02. Your bonus pay is now $1.02.</p>\n            ","response":0,"trial_type":"html-button-response","trial_index":78,"time_elapsed":923180,"internal_node_id":"0.0-4.0-1.35","subject_id":"60e1e24c2cefa1327bb77476","study_id":"6197b3f67c2b5cd3b6d9596a","session_id":"6197b89140117ef0f58c4b25","condition":"full-information","relevant_dimensions":["pattern","legs"],"bee_group":{"antennae":"X","wings":"X","pattern":"D","legs":"M"},"bonus":1.9000000000000012},{"rt":1523.300000011921,"stimulus":"bees-with-color/bee-B1SM.svg","response":0,"trial_type":"image-button-response","trial_index":79,"time_elapsed":924705,"internal_node_id":"0.0-4.0-0.36","subject_id":"60e1e24c2cefa1327bb77476","study_id":"6197b3f67c2b5cd3b6d9596a","session_id":"6197b89140117ef0f58c4b25","condition":"full-information","relevant_dimensions":["pattern","legs"],"bee_group":{"antennae":"X","wings":"X","pattern":"D","legs":"M"},"action":"harvest","summary":"good-harvest","bonus":1.9000000000000012},{"rt":1236.5999999940395,"stimulus":"\n                    <p><b>Action: <em>harvest</em></b></p>\n                    <p>This is the bee that you just saw.</p>\n                    <img src=\"bees-with-color/bee-B1SM.svg\" width=\"200\">\n                    <p><span class=\"greenText\"><b>Successful harvest!</b></span><br>Your pay has increased by $0.02. Your bonus pay is now $1.04.</p>\n            ","response":0,"trial_type":"html-button-response","trial_index":80,"time_elapsed":925944,"internal_node_id":"0.0-4.0-1.36","subject_id":"60e1e24c2cefa1327bb77476","study_id":"6197b3f67c2b5cd3b6d9596a","session_id":"6197b89140117ef0f58c4b25","condition":"full-information","relevant_dimensions":["pattern","legs"],"bee_group":{"antennae":"X","wings":"X","pattern":"D","legs":"M"},"bonus":1.9000000000000012},{"rt":1381.7000000178814,"stimulus":"bees-with-color/bee-A2DM.svg","response":1,"trial_type":"image-button-response","trial_index":81,"time_elapsed":927327,"internal_node_id":"0.0-4.0-0.37","subject_id":"60e1e24c2cefa1327bb77476","study_id":"6197b3f67c2b5cd3b6d9596a","session_id":"6197b89140117ef0f58c4b25","condition":"full-information","relevant_dimensions":["pattern","legs"],"bee_group":{"antennae":"X","wings":"X","pattern":"D","legs":"M"},"action":"avoid","summary":"good-avoid","bonus":1.9000000000000012},{"rt":1260.5,"stimulus":"\n                    <p><b>Action: <em>avoid</em></b></p>\n                    <p>This is the bee that you just saw.</p>\n                    <img src=\"bees-with-color/bee-A2DM.svg\" width=\"200\">\n                    <p><span class=\"greenText\">Good choice!</span>  This bee would have stung you.<br>Your bonus pay is unchanged, and remains at $1.04.</p>\n            ","response":0,"trial_type":"html-button-response","trial_index":82,"time_elapsed":928590,"internal_node_id":"0.0-4.0-1.37","subject_id":"60e1e24c2cefa1327bb77476","study_id":"6197b3f67c2b5cd3b6d9596a","session_id":"6197b89140117ef0f58c4b25","condition":"full-information","relevant_dimensions":["pattern","legs"],"bee_group":{"antennae":"X","wings":"X","pattern":"D","legs":"M"},"bonus":1.9000000000000012},{"rt":1618.5999999940395,"stimulus":"bees-with-color/bee-A2DF.svg","response":0,"trial_type":"image-button-response","trial_index":83,"time_elapsed":930212,"internal_node_id":"0.0-4.0-0.38","subject_id":"60e1e24c2cefa1327bb77476","study_id":"6197b3f67c2b5cd3b6d9596a","session_id":"6197b89140117ef0f58c4b25","condition":"full-information","relevant_dimensions":["pattern","legs"],"bee_group":{"antennae":"X","wings":"X","pattern":"D","legs":"M"},"action":"harvest","summary":"good-harvest","bonus":1.9000000000000012},{"rt":1260.699999988079,"stimulus":"\n                    <p><b>Action: <em>harvest</em></b></p>\n                    <p>This is the bee that you just saw.</p>\n                    <img src=\"bees-with-color/bee-A2DF.svg\" width=\"200\">\n                    <p><span class=\"greenText\"><b>Successful harvest!</b></span><br>Your pay has increased by $0.02. Your bonus pay is now $1.06.</p>\n            ","response":0,"trial_type":"html-button-response","trial_index":84,"time_elapsed":931476,"internal_node_id":"0.0-4.0-1.38","subject_id":"60e1e24c2cefa1327bb77476","study_id":"6197b3f67c2b5cd3b6d9596a","session_id":"6197b89140117ef0f58c4b25","condition":"full-information","relevant_dimensions":["pattern","legs"],"bee_group":{"antennae":"X","wings":"X","pattern":"D","legs":"M"},"bonus":1.9000000000000012},{"rt":2584.5999999940395,"stimulus":"bees-with-color/bee-A1DM.svg","response":1,"trial_type":"image-button-response","trial_index":85,"time_elapsed":934062,"internal_node_id":"0.0-4.0-0.39","subject_id":"60e1e24c2cefa1327bb77476","study_id":"6197b3f67c2b5cd3b6d9596a","session_id":"6197b89140117ef0f58c4b25","condition":"full-information","relevant_dimensions":["pattern","legs"],"bee_group":{"antennae":"X","wings":"X","pattern":"D","legs":"M"},"action":"avoid","summary":"good-avoid","bonus":1.9000000000000012},{"rt":1950.0999999940395,"stimulus":"\n                    <p><b>Action: <em>avoid</em></b></p>\n                    <p>This is the bee that you just saw.</p>\n                    <img src=\"bees-with-color/bee-A1DM.svg\" width=\"200\">\n                    <p><span class=\"greenText\">Good choice!</span>  This bee would have stung you.<br>Your bonus pay is unchanged, and remains at $1.06.</p>\n            ","response":0,"trial_type":"html-button-response","trial_index":86,"time_elapsed":936016,"internal_node_id":"0.0-4.0-1.39","subject_id":"60e1e24c2cefa1327bb77476","study_id":"6197b3f67c2b5cd3b6d9596a","session_id":"6197b89140117ef0f58c4b25","condition":"full-information","relevant_dimensions":["pattern","legs"],"bee_group":{"antennae":"X","wings":"X","pattern":"D","legs":"M"},"bonus":1.9000000000000012},{"rt":1380.9000000059605,"stimulus":"bees-with-color/bee-B2DF.svg","response":0,"trial_type":"image-button-response","trial_index":87,"time_elapsed":937399,"internal_node_id":"0.0-4.0-0.40","subject_id":"60e1e24c2cefa1327bb77476","study_id":"6197b3f67c2b5cd3b6d9596a","session_id":"6197b89140117ef0f58c4b25","condition":"full-information","relevant_dimensions":["pattern","legs"],"bee_group":{"antennae":"X","wings":"X","pattern":"D","legs":"M"},"action":"harvest","summary":"good-harvest","bonus":1.9000000000000012},{"rt":2081.699999988079,"stimulus":"\n                    <p><b>Action: <em>harvest</em></b></p>\n                    <p>This is the bee that you just saw.</p>\n                    <img src=\"bees-with-color/bee-B2DF.svg\" width=\"200\">\n                    <p><span class=\"greenText\"><b>Successful harvest!</b></span><br>Your pay has increased by $0.02. Your bonus pay is now $1.08.</p>\n            ","response":0,"trial_type":"html-button-response","trial_index":88,"time_elapsed":939485,"internal_node_id":"0.0-4.0-1.40","subject_id":"60e1e24c2cefa1327bb77476","study_id":"6197b3f67c2b5cd3b6d9596a","session_id":"6197b89140117ef0f58c4b25","condition":"full-information","relevant_dimensions":["pattern","legs"],"bee_group":{"antennae":"X","wings":"X","pattern":"D","legs":"M"},"bonus":1.9000000000000012},{"rt":1868.699999988079,"stimulus":"bees-with-color/bee-B2DM.svg","response":1,"trial_type":"image-button-response","trial_index":89,"time_elapsed":941356,"internal_node_id":"0.0-4.0-0.41","subject_id":"60e1e24c2cefa1327bb77476","study_id":"6197b3f67c2b5cd3b6d9596a","session_id":"6197b89140117ef0f58c4b25","condition":"full-information","relevant_dimensions":["pattern","legs"],"bee_group":{"antennae":"X","wings":"X","pattern":"D","legs":"M"},"action":"avoid","summary":"good-avoid","bonus":1.9000000000000012},{"rt":1975.0999999940395,"stimulus":"\n                    <p><b>Action: <em>avoid</em></b></p>\n                    <p>This is the bee that you just saw.</p>\n                    <img src=\"bees-with-color/bee-B2DM.svg\" width=\"200\">\n                    <p><span class=\"greenText\">Good choice!</span>  This bee would have stung you.<br>Your bonus pay is unchanged, and remains at $1.08.</p>\n            ","response":0,"trial_type":"html-button-response","trial_index":90,"time_elapsed":943335,"internal_node_id":"0.0-4.0-1.41","subject_id":"60e1e24c2cefa1327bb77476","study_id":"6197b3f67c2b5cd3b6d9596a","session_id":"6197b89140117ef0f58c4b25","condition":"full-information","relevant_dimensions":["pattern","legs"],"bee_group":{"antennae":"X","wings":"X","pattern":"D","legs":"M"},"bonus":1.9000000000000012},{"rt":1548.4000000059605,"stimulus":"bees-with-color/bee-B1DM.svg","response":1,"trial_type":"image-button-response","trial_index":91,"time_elapsed":944885,"internal_node_id":"0.0-4.0-0.42","subject_id":"60e1e24c2cefa1327bb77476","study_id":"6197b3f67c2b5cd3b6d9596a","session_id":"6197b89140117ef0f58c4b25","condition":"full-information","relevant_dimensions":["pattern","legs"],"bee_group":{"antennae":"X","wings":"X","pattern":"D","legs":"M"},"action":"avoid","summary":"good-avoid","bonus":1.9000000000000012},{"rt":1237.7000000178814,"stimulus":"\n                    <p><b>Action: <em>avoid</em></b></p>\n                    <p>This is the bee that you just saw.</p>\n                    <img src=\"bees-with-color/bee-B1DM.svg\" width=\"200\">\n                    <p><span class=\"greenText\">Good choice!</span>  This bee would have stung you.<br>Your bonus pay is unchanged, and remains at $1.08.</p>\n            ","response":0,"trial_type":"html-button-response","trial_index":92,"time_elapsed":946125,"internal_node_id":"0.0-4.0-1.42","subject_id":"60e1e24c2cefa1327bb77476","study_id":"6197b3f67c2b5cd3b6d9596a","session_id":"6197b89140117ef0f58c4b25","condition":"full-information","relevant_dimensions":["pattern","legs"],"bee_group":{"antennae":"X","wings":"X","pattern":"D","legs":"M"},"bonus":1.9000000000000012},{"rt":1142.0999999940395,"stimulus":"bees-with-color/bee-A2SF.svg","response":0,"trial_type":"image-button-response","trial_index":93,"time_elapsed":947268,"internal_node_id":"0.0-4.0-0.43","subject_id":"60e1e24c2cefa1327bb77476","study_id":"6197b3f67c2b5cd3b6d9596a","session_id":"6197b89140117ef0f58c4b25","condition":"full-information","relevant_dimensions":["pattern","legs"],"bee_group":{"antennae":"X","wings":"X","pattern":"D","legs":"M"},"action":"harvest","summary":"good-harvest","bonus":1.9000000000000012},{"rt":1119.0999999940395,"stimulus":"\n                    <p><b>Action: <em>harvest</em></b></p>\n                    <p>This is the bee that you just saw.</p>\n                    <img src=\"bees-with-color/bee-A2SF.svg\" width=\"200\">\n                    <p><span class=\"greenText\"><b>Successful harvest!</b></span><br>Your pay has increased by $0.02. Your bonus pay is now $1.10.</p>\n            ","response":0,"trial_type":"html-button-response","trial_index":94,"time_elapsed":948390,"internal_node_id":"0.0-4.0-1.43","subject_id":"60e1e24c2cefa1327bb77476","study_id":"6197b3f67c2b5cd3b6d9596a","session_id":"6197b89140117ef0f58c4b25","condition":"full-information","relevant_dimensions":["pattern","legs"],"bee_group":{"antennae":"X","wings":"X","pattern":"D","legs":"M"},"bonus":1.9000000000000012},{"rt":1320.300000011921,"stimulus":"bees-with-color/bee-A1SM.svg","response":0,"trial_type":"image-button-response","trial_index":95,"time_elapsed":949712,"internal_node_id":"0.0-4.0-0.44","subject_id":"60e1e24c2cefa1327bb77476","study_id":"6197b3f67c2b5cd3b6d9596a","session_id":"6197b89140117ef0f58c4b25","condition":"full-information","relevant_dimensions":["pattern","legs"],"bee_group":{"antennae":"X","wings":"X","pattern":"D","legs":"M"},"action":"harvest","summary":"good-harvest","bonus":1.9000000000000012},{"rt":1058.9000000059605,"stimulus":"\n                    <p><b>Action: <em>harvest</em></b></p>\n                    <p>This is the bee that you just saw.</p>\n                    <img src=\"bees-with-color/bee-A1SM.svg\" width=\"200\">\n                    <p><span class=\"greenText\"><b>Successful harvest!</b></span><br>Your pay has increased by $0.02. Your bonus pay is now $1.12.</p>\n            ","response":0,"trial_type":"html-button-response","trial_index":96,"time_elapsed":950773,"internal_node_id":"0.0-4.0-1.44","subject_id":"60e1e24c2cefa1327bb77476","study_id":"6197b3f67c2b5cd3b6d9596a","session_id":"6197b89140117ef0f58c4b25","condition":"full-information","relevant_dimensions":["pattern","legs"],"bee_group":{"antennae":"X","wings":"X","pattern":"D","legs":"M"},"bonus":1.9000000000000012},{"rt":1546.8999999761581,"stimulus":"bees-with-color/bee-A2SM.svg","response":0,"trial_type":"image-button-response","trial_index":97,"time_elapsed":952322,"internal_node_id":"0.0-4.0-0.45","subject_id":"60e1e24c2cefa1327bb77476","study_id":"6197b3f67c2b5cd3b6d9596a","session_id":"6197b89140117ef0f58c4b25","condition":"full-information","relevant_dimensions":["pattern","legs"],"bee_group":{"antennae":"X","wings":"X","pattern":"D","legs":"M"},"action":"harvest","summary":"good-harvest","bonus":1.9000000000000012},{"rt":1225,"stimulus":"\n                    <p><b>Action: <em>harvest</em></b></p>\n                    <p>This is the bee that you just saw.</p>\n                    <img src=\"bees-with-color/bee-A2SM.svg\" width=\"200\">\n                    <p><span class=\"greenText\"><b>Successful harvest!</b></span><br>Your pay has increased by $0.02. Your bonus pay is now $1.14.</p>\n            ","response":0,"trial_type":"html-button-response","trial_index":98,"time_elapsed":953550,"internal_node_id":"0.0-4.0-1.45","subject_id":"60e1e24c2cefa1327bb77476","study_id":"6197b3f67c2b5cd3b6d9596a","session_id":"6197b89140117ef0f58c4b25","condition":"full-information","relevant_dimensions":["pattern","legs"],"bee_group":{"antennae":"X","wings":"X","pattern":"D","legs":"M"},"bonus":1.9000000000000012},{"rt":1274.7000000178814,"stimulus":"bees-with-color/bee-B2SM.svg","response":0,"trial_type":"image-button-response","trial_index":99,"time_elapsed":954826,"internal_node_id":"0.0-4.0-0.46","subject_id":"60e1e24c2cefa1327bb77476","study_id":"6197b3f67c2b5cd3b6d9596a","session_id":"6197b89140117ef0f58c4b25","condition":"full-information","relevant_dimensions":["pattern","legs"],"bee_group":{"antennae":"X","wings":"X","pattern":"D","legs":"M"},"action":"harvest","summary":"good-harvest","bonus":1.9000000000000012},{"rt":1427.2000000178814,"stimulus":"\n                    <p><b>Action: <em>harvest</em></b></p>\n                    <p>This is the bee that you just saw.</p>\n                    <img src=\"bees-with-color/bee-B2SM.svg\" width=\"200\">\n                    <p><span class=\"greenText\"><b>Successful harvest!</b></span><br>Your pay has increased by $0.02. Your bonus pay is now $1.16.</p>\n            ","response":0,"trial_type":"html-button-response","trial_index":100,"time_elapsed":956255,"internal_node_id":"0.0-4.0-1.46","subject_id":"60e1e24c2cefa1327bb77476","study_id":"6197b3f67c2b5cd3b6d9596a","session_id":"6197b89140117ef0f58c4b25","condition":"full-information","relevant_dimensions":["pattern","legs"],"bee_group":{"antennae":"X","wings":"X","pattern":"D","legs":"M"},"bonus":1.9000000000000012},{"rt":3072.800000011921,"stimulus":"bees-with-color/bee-B1DF.svg","response":0,"trial_type":"image-button-response","trial_index":101,"time_elapsed":959330,"internal_node_id":"0.0-4.0-0.47","subject_id":"60e1e24c2cefa1327bb77476","study_id":"6197b3f67c2b5cd3b6d9596a","session_id":"6197b89140117ef0f58c4b25","condition":"full-information","relevant_dimensions":["pattern","legs"],"bee_group":{"antennae":"X","wings":"X","pattern":"D","legs":"M"},"action":"harvest","summary":"good-harvest","bonus":1.9000000000000012},{"rt":1143.300000011921,"stimulus":"\n                    <p><b>Action: <em>harvest</em></b></p>\n                    <p>This is the bee that you just saw.</p>\n                    <img src=\"bees-with-color/bee-B1DF.svg\" width=\"200\">\n                    <p><span class=\"greenText\"><b>Successful harvest!</b></span><br>Your pay has increased by $0.02. Your bonus pay is now $1.18.</p>\n            ","response":0,"trial_type":"html-button-response","trial_index":102,"time_elapsed":960475,"internal_node_id":"0.0-4.0-1.47","subject_id":"60e1e24c2cefa1327bb77476","study_id":"6197b3f67c2b5cd3b6d9596a","session_id":"6197b89140117ef0f58c4b25","condition":"full-information","relevant_dimensions":["pattern","legs"],"bee_group":{"antennae":"X","wings":"X","pattern":"D","legs":"M"},"bonus":1.9000000000000012},{"rt":1452.5,"stimulus":"bees-with-color/bee-A2SM.svg","response":0,"trial_type":"image-button-response","trial_index":103,"time_elapsed":961930,"internal_node_id":"0.0-4.0-0.48","subject_id":"60e1e24c2cefa1327bb77476","study_id":"6197b3f67c2b5cd3b6d9596a","session_id":"6197b89140117ef0f58c4b25","condition":"full-information","relevant_dimensions":["pattern","legs"],"bee_group":{"antennae":"X","wings":"X","pattern":"D","legs":"M"},"action":"harvest","summary":"good-harvest","bonus":1.9000000000000012},{"rt":1690.5999999940395,"stimulus":"\n                    <p><b>Action: <em>harvest</em></b></p>\n                    <p>This is the bee that you just saw.</p>\n                    <img src=\"bees-with-color/bee-A2SM.svg\" width=\"200\">\n                    <p><span class=\"greenText\"><b>Successful harvest!</b></span><br>Your pay has increased by $0.02. Your bonus pay is now $1.20.</p>\n            ","response":0,"trial_type":"html-button-response","trial_index":104,"time_elapsed":963622,"internal_node_id":"0.0-4.0-1.48","subject_id":"60e1e24c2cefa1327bb77476","study_id":"6197b3f67c2b5cd3b6d9596a","session_id":"6197b89140117ef0f58c4b25","condition":"full-information","relevant_dimensions":["pattern","legs"],"bee_group":{"antennae":"X","wings":"X","pattern":"D","legs":"M"},"bonus":1.9000000000000012},{"rt":2048.800000011921,"stimulus":"bees-with-color/bee-B2SM.svg","response":0,"trial_type":"image-button-response","trial_index":105,"time_elapsed":965672,"internal_node_id":"0.0-4.0-0.49","subject_id":"60e1e24c2cefa1327bb77476","study_id":"6197b3f67c2b5cd3b6d9596a","session_id":"6197b89140117ef0f58c4b25","condition":"full-information","relevant_dimensions":["pattern","legs"],"bee_group":{"antennae":"X","wings":"X","pattern":"D","legs":"M"},"action":"harvest","summary":"good-harvest","bonus":1.9000000000000012},{"rt":1867.5,"stimulus":"\n                    <p><b>Action: <em>harvest</em></b></p>\n                    <p>This is the bee that you just saw.</p>\n                    <img src=\"bees-with-color/bee-B2SM.svg\" width=\"200\">\n                    <p><span class=\"greenText\"><b>Successful harvest!</b></span><br>Your pay has increased by $0.02. Your bonus pay is now $1.22.</p>\n            ","response":0,"trial_type":"html-button-response","trial_index":106,"time_elapsed":967543,"internal_node_id":"0.0-4.0-1.49","subject_id":"60e1e24c2cefa1327bb77476","study_id":"6197b3f67c2b5cd3b6d9596a","session_id":"6197b89140117ef0f58c4b25","condition":"full-information","relevant_dimensions":["pattern","legs"],"bee_group":{"antennae":"X","wings":"X","pattern":"D","legs":"M"},"bonus":1.9000000000000012},{"rt":1548.0999999940395,"stimulus":"bees-with-color/bee-A2DM.svg","response":1,"trial_type":"image-button-response","trial_index":107,"time_elapsed":969093,"internal_node_id":"0.0-4.0-0.50","subject_id":"60e1e24c2cefa1327bb77476","study_id":"6197b3f67c2b5cd3b6d9596a","session_id":"6197b89140117ef0f58c4b25","condition":"full-information","relevant_dimensions":["pattern","legs"],"bee_group":{"antennae":"X","wings":"X","pattern":"D","legs":"M"},"action":"avoid","summary":"good-avoid","bonus":1.9000000000000012},{"rt":1310.4000000059605,"stimulus":"\n                    <p><b>Action: <em>avoid</em></b></p>\n                    <p>This is the bee that you just saw.</p>\n                    <img src=\"bees-with-color/bee-A2DM.svg\" width=\"200\">\n                    <p><span class=\"greenText\">Good choice!</span>  This bee would have stung you.<br>Your bonus pay is unchanged, and remains at $1.22.</p>\n            ","response":0,"trial_type":"html-button-response","trial_index":108,"time_elapsed":970406,"internal_node_id":"0.0-4.0-1.50","subject_id":"60e1e24c2cefa1327bb77476","study_id":"6197b3f67c2b5cd3b6d9596a","session_id":"6197b89140117ef0f58c4b25","condition":"full-information","relevant_dimensions":["pattern","legs"],"bee_group":{"antennae":"X","wings":"X","pattern":"D","legs":"M"},"bonus":1.9000000000000012},{"rt":3595.600000023842,"stimulus":"bees-with-color/bee-B2DM.svg","response":1,"trial_type":"image-button-response","trial_index":109,"time_elapsed":974004,"internal_node_id":"0.0-4.0-0.51","subject_id":"60e1e24c2cefa1327bb77476","study_id":"6197b3f67c2b5cd3b6d9596a","session_id":"6197b89140117ef0f58c4b25","condition":"full-information","relevant_dimensions":["pattern","legs"],"bee_group":{"antennae":"X","wings":"X","pattern":"D","legs":"M"},"action":"avoid","summary":"good-avoid","bonus":1.9000000000000012},{"rt":1212.7999999821186,"stimulus":"\n                    <p><b>Action: <em>avoid</em></b></p>\n                    <p>This is the bee that you just saw.</p>\n                    <img src=\"bees-with-color/bee-B2DM.svg\" width=\"200\">\n                    <p><span class=\"greenText\">Good choice!</span>  This bee would have stung you.<br>Your bonus pay is unchanged, and remains at $1.22.</p>\n            ","response":0,"trial_type":"html-button-response","trial_index":110,"time_elapsed":975219,"internal_node_id":"0.0-4.0-1.51","subject_id":"60e1e24c2cefa1327bb77476","study_id":"6197b3f67c2b5cd3b6d9596a","session_id":"6197b89140117ef0f58c4b25","condition":"full-information","relevant_dimensions":["pattern","legs"],"bee_group":{"antennae":"X","wings":"X","pattern":"D","legs":"M"},"bonus":1.9000000000000012},{"rt":1367.800000011921,"stimulus":"bees-with-color/bee-B1SM.svg","response":0,"trial_type":"image-button-response","trial_index":111,"time_elapsed":976590,"internal_node_id":"0.0-4.0-0.52","subject_id":"60e1e24c2cefa1327bb77476","study_id":"6197b3f67c2b5cd3b6d9596a","session_id":"6197b89140117ef0f58c4b25","condition":"full-information","relevant_dimensions":["pattern","legs"],"bee_group":{"antennae":"X","wings":"X","pattern":"D","legs":"M"},"action":"harvest","summary":"good-harvest","bonus":1.9000000000000012},{"rt":1618.699999988079,"stimulus":"\n                    <p><b>Action: <em>harvest</em></b></p>\n                    <p>This is the bee that you just saw.</p>\n                    <img src=\"bees-with-color/bee-B1SM.svg\" width=\"200\">\n                    <p><span class=\"greenText\"><b>Successful harvest!</b></span><br>Your pay has increased by $0.02. Your bonus pay is now $1.24.</p>\n            ","response":0,"trial_type":"html-button-response","trial_index":112,"time_elapsed":978210,"internal_node_id":"0.0-4.0-1.52","subject_id":"60e1e24c2cefa1327bb77476","study_id":"6197b3f67c2b5cd3b6d9596a","session_id":"6197b89140117ef0f58c4b25","condition":"full-information","relevant_dimensions":["pattern","legs"],"bee_group":{"antennae":"X","wings":"X","pattern":"D","legs":"M"},"bonus":1.9000000000000012},{"rt":1035.5,"stimulus":"bees-with-color/bee-B2SF.svg","response":0,"trial_type":"image-button-response","trial_index":113,"time_elapsed":979247,"internal_node_id":"0.0-4.0-0.53","subject_id":"60e1e24c2cefa1327bb77476","study_id":"6197b3f67c2b5cd3b6d9596a","session_id":"6197b89140117ef0f58c4b25","condition":"full-information","relevant_dimensions":["pattern","legs"],"bee_group":{"antennae":"X","wings":"X","pattern":"D","legs":"M"},"action":"harvest","summary":"good-harvest","bonus":1.9000000000000012},{"rt":1416.3999999761581,"stimulus":"\n                    <p><b>Action: <em>harvest</em></b></p>\n                    <p>This is the bee that you just saw.</p>\n                    <img src=\"bees-with-color/bee-B2SF.svg\" width=\"200\">\n                    <p><span class=\"greenText\"><b>Successful harvest!</b></span><br>Your pay has increased by $0.02. Your bonus pay is now $1.26.</p>\n            ","response":0,"trial_type":"html-button-response","trial_index":114,"time_elapsed":980666,"internal_node_id":"0.0-4.0-1.53","subject_id":"60e1e24c2cefa1327bb77476","study_id":"6197b3f67c2b5cd3b6d9596a","session_id":"6197b89140117ef0f58c4b25","condition":"full-information","relevant_dimensions":["pattern","legs"],"bee_group":{"antennae":"X","wings":"X","pattern":"D","legs":"M"},"bonus":1.9000000000000012},{"rt":3216.7999999821186,"stimulus":"bees-with-color/bee-A2DF.svg","response":0,"trial_type":"image-button-response","trial_index":115,"time_elapsed":983884,"internal_node_id":"0.0-4.0-0.54","subject_id":"60e1e24c2cefa1327bb77476","study_id":"6197b3f67c2b5cd3b6d9596a","session_id":"6197b89140117ef0f58c4b25","condition":"full-information","relevant_dimensions":["pattern","legs"],"bee_group":{"antennae":"X","wings":"X","pattern":"D","legs":"M"},"action":"harvest","summary":"good-harvest","bonus":1.9000000000000012},{"rt":1284.699999988079,"stimulus":"\n                    <p><b>Action: <em>harvest</em></b></p>\n                    <p>This is the bee that you just saw.</p>\n                    <img src=\"bees-with-color/bee-A2DF.svg\" width=\"200\">\n                    <p><span class=\"greenText\"><b>Successful harvest!</b></span><br>Your pay has increased by $0.02. Your bonus pay is now $1.28.</p>\n            ","response":0,"trial_type":"html-button-response","trial_index":116,"time_elapsed":985172,"internal_node_id":"0.0-4.0-1.54","subject_id":"60e1e24c2cefa1327bb77476","study_id":"6197b3f67c2b5cd3b6d9596a","session_id":"6197b89140117ef0f58c4b25","condition":"full-information","relevant_dimensions":["pattern","legs"],"bee_group":{"antennae":"X","wings":"X","pattern":"D","legs":"M"},"bonus":1.9000000000000012},{"rt":1226.5,"stimulus":"bees-with-color/bee-B1SF.svg","response":0,"trial_type":"image-button-response","trial_index":117,"time_elapsed":986400,"internal_node_id":"0.0-4.0-0.55","subject_id":"60e1e24c2cefa1327bb77476","study_id":"6197b3f67c2b5cd3b6d9596a","session_id":"6197b89140117ef0f58c4b25","condition":"full-information","relevant_dimensions":["pattern","legs"],"bee_group":{"antennae":"X","wings":"X","pattern":"D","legs":"M"},"action":"harvest","summary":"good-harvest","bonus":1.9000000000000012},{"rt":1294.1000000238419,"stimulus":"\n                    <p><b>Action: <em>harvest</em></b></p>\n                    <p>This is the bee that you just saw.</p>\n                    <img src=\"bees-with-color/bee-B1SF.svg\" width=\"200\">\n                    <p><span class=\"greenText\"><b>Successful harvest!</b></span><br>Your pay has increased by $0.02. Your bonus pay is now $1.30.</p>\n            ","response":0,"trial_type":"html-button-response","trial_index":118,"time_elapsed":987698,"internal_node_id":"0.0-4.0-1.55","subject_id":"60e1e24c2cefa1327bb77476","study_id":"6197b3f67c2b5cd3b6d9596a","session_id":"6197b89140117ef0f58c4b25","condition":"full-information","relevant_dimensions":["pattern","legs"],"bee_group":{"antennae":"X","wings":"X","pattern":"D","legs":"M"},"bonus":1.9000000000000012},{"rt":2287.9000000059605,"stimulus":"bees-with-color/bee-A1DF.svg","response":0,"trial_type":"image-button-response","trial_index":119,"time_elapsed":989987,"internal_node_id":"0.0-4.0-0.56","subject_id":"60e1e24c2cefa1327bb77476","study_id":"6197b3f67c2b5cd3b6d9596a","session_id":"6197b89140117ef0f58c4b25","condition":"full-information","relevant_dimensions":["pattern","legs"],"bee_group":{"antennae":"X","wings":"X","pattern":"D","legs":"M"},"action":"harvest","summary":"good-harvest","bonus":1.9000000000000012},{"rt":1679.5,"stimulus":"\n                    <p><b>Action: <em>harvest</em></b></p>\n                    <p>This is the bee that you just saw.</p>\n                    <img src=\"bees-with-color/bee-A1DF.svg\" width=\"200\">\n                    <p><span class=\"greenText\"><b>Successful harvest!</b></span><br>Your pay has increased by $0.02. Your bonus pay is now $1.32.</p>\n            ","response":0,"trial_type":"html-button-response","trial_index":120,"time_elapsed":991669,"internal_node_id":"0.0-4.0-1.56","subject_id":"60e1e24c2cefa1327bb77476","study_id":"6197b3f67c2b5cd3b6d9596a","session_id":"6197b89140117ef0f58c4b25","condition":"full-information","relevant_dimensions":["pattern","legs"],"bee_group":{"antennae":"X","wings":"X","pattern":"D","legs":"M"},"bonus":1.9000000000000012},{"rt":1451.300000011921,"stimulus":"bees-with-color/bee-B2DF.svg","response":0,"trial_type":"image-button-response","trial_index":121,"time_elapsed":993122,"internal_node_id":"0.0-4.0-0.57","subject_id":"60e1e24c2cefa1327bb77476","study_id":"6197b3f67c2b5cd3b6d9596a","session_id":"6197b89140117ef0f58c4b25","condition":"full-information","relevant_dimensions":["pattern","legs"],"bee_group":{"antennae":"X","wings":"X","pattern":"D","legs":"M"},"action":"harvest","summary":"good-harvest","bonus":1.9000000000000012},{"rt":1356.0999999940395,"stimulus":"\n                    <p><b>Action: <em>harvest</em></b></p>\n                    <p>This is the bee that you just saw.</p>\n                    <img src=\"bees-with-color/bee-B2DF.svg\" width=\"200\">\n                    <p><span class=\"greenText\"><b>Successful harvest!</b></span><br>Your pay has increased by $0.02. Your bonus pay is now $1.34.</p>\n            ","response":0,"trial_type":"html-button-response","trial_index":122,"time_elapsed":994480,"internal_node_id":"0.0-4.0-1.57","subject_id":"60e1e24c2cefa1327bb77476","study_id":"6197b3f67c2b5cd3b6d9596a","session_id":"6197b89140117ef0f58c4b25","condition":"full-information","relevant_dimensions":["pattern","legs"],"bee_group":{"antennae":"X","wings":"X","pattern":"D","legs":"M"},"bonus":1.9000000000000012},{"rt":1356.4000000059605,"stimulus":"bees-with-color/bee-A1DM.svg","response":1,"trial_type":"image-button-response","trial_index":123,"time_elapsed":995838,"internal_node_id":"0.0-4.0-0.58","subject_id":"60e1e24c2cefa1327bb77476","study_id":"6197b3f67c2b5cd3b6d9596a","session_id":"6197b89140117ef0f58c4b25","condition":"full-information","relevant_dimensions":["pattern","legs"],"bee_group":{"antennae":"X","wings":"X","pattern":"D","legs":"M"},"action":"avoid","summary":"good-avoid","bonus":1.9000000000000012},{"rt":1166,"stimulus":"\n                    <p><b>Action: <em>avoid</em></b></p>\n                    <p>This is the bee that you just saw.</p>\n                    <img src=\"bees-with-color/bee-A1DM.svg\" width=\"200\">\n                    <p><span class=\"greenText\">Good choice!</span>  This bee would have stung you.<br>Your bonus pay is unchanged, and remains at $1.34.</p>\n            ","response":0,"trial_type":"html-button-response","trial_index":124,"time_elapsed":997007,"internal_node_id":"0.0-4.0-1.58","subject_id":"60e1e24c2cefa1327bb77476","study_id":"6197b3f67c2b5cd3b6d9596a","session_id":"6197b89140117ef0f58c4b25","condition":"full-information","relevant_dimensions":["pattern","legs"],"bee_group":{"antennae":"X","wings":"X","pattern":"D","legs":"M"},"bonus":1.9000000000000012},{"rt":1299.1000000238419,"stimulus":"bees-with-color/bee-B1DF.svg","response":0,"trial_type":"image-button-response","trial_index":125,"time_elapsed":998308,"internal_node_id":"0.0-4.0-0.59","subject_id":"60e1e24c2cefa1327bb77476","study_id":"6197b3f67c2b5cd3b6d9596a","session_id":"6197b89140117ef0f58c4b25","condition":"full-information","relevant_dimensions":["pattern","legs"],"bee_group":{"antennae":"X","wings":"X","pattern":"D","legs":"M"},"action":"harvest","summary":"good-harvest","bonus":1.9000000000000012},{"rt":1682.9000000059605,"stimulus":"\n                    <p><b>Action: <em>harvest</em></b></p>\n                    <p>This is the bee that you just saw.</p>\n                    <img src=\"bees-with-color/bee-B1DF.svg\" width=\"200\">\n                    <p><span class=\"greenText\"><b>Successful harvest!</b></span><br>Your pay has increased by $0.02. Your bonus pay is now $1.36.</p>\n            ","response":0,"trial_type":"html-button-response","trial_index":126,"time_elapsed":1000071,"internal_node_id":"0.0-4.0-1.59","subject_id":"60e1e24c2cefa1327bb77476","study_id":"6197b3f67c2b5cd3b6d9596a","session_id":"6197b89140117ef0f58c4b25","condition":"full-information","relevant_dimensions":["pattern","legs"],"bee_group":{"antennae":"X","wings":"X","pattern":"D","legs":"M"},"bonus":1.9000000000000012},{"rt":1786.5,"stimulus":"bees-with-color/bee-B1DM.svg","response":1,"trial_type":"image-button-response","trial_index":127,"time_elapsed":1001859,"internal_node_id":"0.0-4.0-0.60","subject_id":"60e1e24c2cefa1327bb77476","study_id":"6197b3f67c2b5cd3b6d9596a","session_id":"6197b89140117ef0f58c4b25","condition":"full-information","relevant_dimensions":["pattern","legs"],"bee_group":{"antennae":"X","wings":"X","pattern":"D","legs":"M"},"action":"avoid","summary":"good-avoid","bonus":1.9000000000000012},{"rt":1095.300000011921,"stimulus":"\n                    <p><b>Action: <em>avoid</em></b></p>\n                    <p>This is the bee that you just saw.</p>\n                    <img src=\"bees-with-color/bee-B1DM.svg\" width=\"200\">\n                    <p><span class=\"greenText\">Good choice!</span>  This bee would have stung you.<br>Your bonus pay is unchanged, and remains at $1.36.</p>\n            ","response":0,"trial_type":"html-button-response","trial_index":128,"time_elapsed":1002956,"internal_node_id":"0.0-4.0-1.60","subject_id":"60e1e24c2cefa1327bb77476","study_id":"6197b3f67c2b5cd3b6d9596a","session_id":"6197b89140117ef0f58c4b25","condition":"full-information","relevant_dimensions":["pattern","legs"],"bee_group":{"antennae":"X","wings":"X","pattern":"D","legs":"M"},"bonus":1.9000000000000012},{"rt":1226,"stimulus":"bees-with-color/bee-A1SF.svg","response":0,"trial_type":"image-button-response","trial_index":129,"time_elapsed":1004184,"internal_node_id":"0.0-4.0-0.61","subject_id":"60e1e24c2cefa1327bb77476","study_id":"6197b3f67c2b5cd3b6d9596a","session_id":"6197b89140117ef0f58c4b25","condition":"full-information","relevant_dimensions":["pattern","legs"],"bee_group":{"antennae":"X","wings":"X","pattern":"D","legs":"M"},"action":"harvest","summary":"good-harvest","bonus":1.9000000000000012},{"rt":1224.2999999821186,"stimulus":"\n                    <p><b>Action: <em>harvest</em></b></p>\n                    <p>This is the bee that you just saw.</p>\n                    <img src=\"bees-with-color/bee-A1SF.svg\" width=\"200\">\n                    <p><span class=\"greenText\"><b>Successful harvest!</b></span><br>Your pay has increased by $0.02. Your bonus pay is now $1.38.</p>\n            ","response":0,"trial_type":"html-button-response","trial_index":130,"time_elapsed":1005411,"internal_node_id":"0.0-4.0-1.61","subject_id":"60e1e24c2cefa1327bb77476","study_id":"6197b3f67c2b5cd3b6d9596a","session_id":"6197b89140117ef0f58c4b25","condition":"full-information","relevant_dimensions":["pattern","legs"],"bee_group":{"antennae":"X","wings":"X","pattern":"D","legs":"M"},"bonus":1.9000000000000012},{"rt":2560.800000011921,"stimulus":"bees-with-color/bee-A1SM.svg","response":0,"trial_type":"image-button-response","trial_index":131,"time_elapsed":1007973,"internal_node_id":"0.0-4.0-0.62","subject_id":"60e1e24c2cefa1327bb77476","study_id":"6197b3f67c2b5cd3b6d9596a","session_id":"6197b89140117ef0f58c4b25","condition":"full-information","relevant_dimensions":["pattern","legs"],"bee_group":{"antennae":"X","wings":"X","pattern":"D","legs":"M"},"action":"harvest","summary":"good-harvest","bonus":1.9000000000000012},{"rt":1595.2999999821186,"stimulus":"\n                    <p><b>Action: <em>harvest</em></b></p>\n                    <p>This is the bee that you just saw.</p>\n                    <img src=\"bees-with-color/bee-A1SM.svg\" width=\"200\">\n                    <p><span class=\"greenText\"><b>Successful harvest!</b></span><br>Your pay has increased by $0.02. Your bonus pay is now $1.40.</p>\n            ","response":0,"trial_type":"html-button-response","trial_index":132,"time_elapsed":1009571,"internal_node_id":"0.0-4.0-1.62","subject_id":"60e1e24c2cefa1327bb77476","study_id":"6197b3f67c2b5cd3b6d9596a","session_id":"6197b89140117ef0f58c4b25","condition":"full-information","relevant_dimensions":["pattern","legs"],"bee_group":{"antennae":"X","wings":"X","pattern":"D","legs":"M"},"bonus":1.9000000000000012},{"rt":1416.7999999821186,"stimulus":"bees-with-color/bee-A2SF.svg","response":0,"trial_type":"image-button-response","trial_index":133,"time_elapsed":1010990,"internal_node_id":"0.0-4.0-0.63","subject_id":"60e1e24c2cefa1327bb77476","study_id":"6197b3f67c2b5cd3b6d9596a","session_id":"6197b89140117ef0f58c4b25","condition":"full-information","relevant_dimensions":["pattern","legs"],"bee_group":{"antennae":"X","wings":"X","pattern":"D","legs":"M"},"action":"harvest","summary":"good-harvest","bonus":1.9000000000000012},{"rt":1272.4000000059605,"stimulus":"\n                    <p><b>Action: <em>harvest</em></b></p>\n                    <p>This is the bee that you just saw.</p>\n                    <img src=\"bees-with-color/bee-A2SF.svg\" width=\"200\">\n                    <p><span class=\"greenText\"><b>Successful harvest!</b></span><br>Your pay has increased by $0.02. Your bonus pay is now $1.42.</p>\n            ","response":0,"trial_type":"html-button-response","trial_index":134,"time_elapsed":1012264,"internal_node_id":"0.0-4.0-1.63","subject_id":"60e1e24c2cefa1327bb77476","study_id":"6197b3f67c2b5cd3b6d9596a","session_id":"6197b89140117ef0f58c4b25","condition":"full-information","relevant_dimensions":["pattern","legs"],"bee_group":{"antennae":"X","wings":"X","pattern":"D","legs":"M"},"bonus":1.9000000000000012},{"rt":9933.09999999404,"stimulus":"You have completed the first part of this experiment.<br><br>You will now begin a shorter second part, in which you will receive no feedback.<br>The same rules regarding bonus pay apply.<br><br>Press any key to begin.","response":" ","trial_type":"html-keyboard-response","trial_index":135,"time_elapsed":1022199,"internal_node_id":"0.0-5.0","subject_id":"60e1e24c2cefa1327bb77476","study_id":"6197b3f67c2b5cd3b6d9596a","session_id":"6197b89140117ef0f58c4b25","condition":"full-information","relevant_dimensions":["pattern","legs"],"bee_group":{"antennae":"X","wings":"X","pattern":"D","legs":"M"},"bonus":1.9000000000000012},{"rt":11212.09999999404,"stimulus":"bees-with-color/bee-B1DM.svg","response":1,"trial_type":"image-button-response","trial_index":136,"time_elapsed":1033422,"internal_node_id":"0.0-6.0-0.0","subject_id":"60e1e24c2cefa1327bb77476","study_id":"6197b3f67c2b5cd3b6d9596a","session_id":"6197b89140117ef0f58c4b25","condition":"full-information","relevant_dimensions":["pattern","legs"],"bee_group":{"antennae":"X","wings":"X","pattern":"D","legs":"M"},"bonus":1.9000000000000012},{"rt":3108.399999976158,"stimulus":"bees-with-color/bee-A1SF.svg","response":0,"trial_type":"image-button-response","trial_index":137,"time_elapsed":1036534,"internal_node_id":"0.0-6.0-0.1","subject_id":"60e1e24c2cefa1327bb77476","study_id":"6197b3f67c2b5cd3b6d9596a","session_id":"6197b89140117ef0f58c4b25","condition":"full-information","relevant_dimensions":["pattern","legs"],"bee_group":{"antennae":"X","wings":"X","pattern":"D","legs":"M"},"bonus":1.9000000000000012},{"rt":1499.9000000059605,"stimulus":"bees-with-color/bee-B1SF.svg","response":0,"trial_type":"image-button-response","trial_index":138,"time_elapsed":1038036,"internal_node_id":"0.0-6.0-0.2","subject_id":"60e1e24c2cefa1327bb77476","study_id":"6197b3f67c2b5cd3b6d9596a","session_id":"6197b89140117ef0f58c4b25","condition":"full-information","relevant_dimensions":["pattern","legs"],"bee_group":{"antennae":"X","wings":"X","pattern":"D","legs":"M"},"bonus":1.9000000000000012},{"rt":2536.800000011921,"stimulus":"bees-with-color/bee-B2DM.svg","response":1,"trial_type":"image-button-response","trial_index":139,"time_elapsed":1040575,"internal_node_id":"0.0-6.0-0.3","subject_id":"60e1e24c2cefa1327bb77476","study_id":"6197b3f67c2b5cd3b6d9596a","session_id":"6197b89140117ef0f58c4b25","condition":"full-information","relevant_dimensions":["pattern","legs"],"bee_group":{"antennae":"X","wings":"X","pattern":"D","legs":"M"},"bonus":1.9000000000000012},{"rt":1678.300000011921,"stimulus":"bees-with-color/bee-A1DF.svg","response":0,"trial_type":"image-button-response","trial_index":140,"time_elapsed":1042255,"internal_node_id":"0.0-6.0-0.4","subject_id":"60e1e24c2cefa1327bb77476","study_id":"6197b3f67c2b5cd3b6d9596a","session_id":"6197b89140117ef0f58c4b25","condition":"full-information","relevant_dimensions":["pattern","legs"],"bee_group":{"antennae":"X","wings":"X","pattern":"D","legs":"M"},"bonus":1.9000000000000012},{"rt":1797.300000011921,"stimulus":"bees-with-color/bee-B1DF.svg","response":0,"trial_type":"image-button-response","trial_index":141,"time_elapsed":1044055,"internal_node_id":"0.0-6.0-0.5","subject_id":"60e1e24c2cefa1327bb77476","study_id":"6197b3f67c2b5cd3b6d9596a","session_id":"6197b89140117ef0f58c4b25","condition":"full-information","relevant_dimensions":["pattern","legs"],"bee_group":{"antennae":"X","wings":"X","pattern":"D","legs":"M"},"bonus":1.9000000000000012},{"rt":1595.2000000178814,"stimulus":"bees-with-color/bee-A2SM.svg","response":0,"trial_type":"image-button-response","trial_index":142,"time_elapsed":1045652,"internal_node_id":"0.0-6.0-0.6","subject_id":"60e1e24c2cefa1327bb77476","study_id":"6197b3f67c2b5cd3b6d9596a","session_id":"6197b89140117ef0f58c4b25","condition":"full-information","relevant_dimensions":["pattern","legs"],"bee_group":{"antennae":"X","wings":"X","pattern":"D","legs":"M"},"bonus":1.9000000000000012},{"rt":1536.2000000178814,"stimulus":"bees-with-color/bee-B2DF.svg","response":0,"trial_type":"image-button-response","trial_index":143,"time_elapsed":1047191,"internal_node_id":"0.0-6.0-0.7","subject_id":"60e1e24c2cefa1327bb77476","study_id":"6197b3f67c2b5cd3b6d9596a","session_id":"6197b89140117ef0f58c4b25","condition":"full-information","relevant_dimensions":["pattern","legs"],"bee_group":{"antennae":"X","wings":"X","pattern":"D","legs":"M"},"bonus":1.9000000000000012},{"rt":1891.9000000059605,"stimulus":"bees-with-color/bee-A1SM.svg","response":0,"trial_type":"image-button-response","trial_index":144,"time_elapsed":1049085,"internal_node_id":"0.0-6.0-0.8","subject_id":"60e1e24c2cefa1327bb77476","study_id":"6197b3f67c2b5cd3b6d9596a","session_id":"6197b89140117ef0f58c4b25","condition":"full-information","relevant_dimensions":["pattern","legs"],"bee_group":{"antennae":"X","wings":"X","pattern":"D","legs":"M"},"bonus":1.9000000000000012},{"rt":1082.7999999821186,"stimulus":"bees-with-color/bee-B2SM.svg","response":0,"trial_type":"image-button-response","trial_index":145,"time_elapsed":1050170,"internal_node_id":"0.0-6.0-0.9","subject_id":"60e1e24c2cefa1327bb77476","study_id":"6197b3f67c2b5cd3b6d9596a","session_id":"6197b89140117ef0f58c4b25","condition":"full-information","relevant_dimensions":["pattern","legs"],"bee_group":{"antennae":"X","wings":"X","pattern":"D","legs":"M"},"bonus":1.9000000000000012},{"rt":1296.7999999821186,"stimulus":"bees-with-color/bee-A2DF.svg","response":0,"trial_type":"image-button-response","trial_index":146,"time_elapsed":1051469,"internal_node_id":"0.0-6.0-0.10","subject_id":"60e1e24c2cefa1327bb77476","study_id":"6197b3f67c2b5cd3b6d9596a","session_id":"6197b89140117ef0f58c4b25","condition":"full-information","relevant_dimensions":["pattern","legs"],"bee_group":{"antennae":"X","wings":"X","pattern":"D","legs":"M"},"bonus":1.9000000000000012},{"rt":1391.9000000059605,"stimulus":"bees-with-color/bee-A1DM.svg","response":1,"trial_type":"image-button-response","trial_index":147,"time_elapsed":1052864,"internal_node_id":"0.0-6.0-0.11","subject_id":"60e1e24c2cefa1327bb77476","study_id":"6197b3f67c2b5cd3b6d9596a","session_id":"6197b89140117ef0f58c4b25","condition":"full-information","relevant_dimensions":["pattern","legs"],"bee_group":{"antennae":"X","wings":"X","pattern":"D","legs":"M"},"bonus":1.9000000000000012},{"rt":1702.300000011921,"stimulus":"bees-with-color/bee-A2DM.svg","response":1,"trial_type":"image-button-response","trial_index":148,"time_elapsed":1054568,"internal_node_id":"0.0-6.0-0.12","subject_id":"60e1e24c2cefa1327bb77476","study_id":"6197b3f67c2b5cd3b6d9596a","session_id":"6197b89140117ef0f58c4b25","condition":"full-information","relevant_dimensions":["pattern","legs"],"bee_group":{"antennae":"X","wings":"X","pattern":"D","legs":"M"},"bonus":1.9000000000000012},{"rt":1380.699999988079,"stimulus":"bees-with-color/bee-B1SM.svg","response":0,"trial_type":"image-button-response","trial_index":149,"time_elapsed":1055951,"internal_node_id":"0.0-6.0-0.13","subject_id":"60e1e24c2cefa1327bb77476","study_id":"6197b3f67c2b5cd3b6d9596a","session_id":"6197b89140117ef0f58c4b25","condition":"full-information","relevant_dimensions":["pattern","legs"],"bee_group":{"antennae":"X","wings":"X","pattern":"D","legs":"M"},"bonus":1.9000000000000012},{"rt":951.5,"stimulus":"bees-with-color/bee-A2SF.svg","response":0,"trial_type":"image-button-response","trial_index":150,"time_elapsed":1056905,"internal_node_id":"0.0-6.0-0.14","subject_id":"60e1e24c2cefa1327bb77476","study_id":"6197b3f67c2b5cd3b6d9596a","session_id":"6197b89140117ef0f58c4b25","condition":"full-information","relevant_dimensions":["pattern","legs"],"bee_group":{"antennae":"X","wings":"X","pattern":"D","legs":"M"},"bonus":1.9000000000000012},{"rt":878.6999999880791,"stimulus":"bees-with-color/bee-B2SF.svg","response":0,"trial_type":"image-button-response","trial_index":151,"time_elapsed":1057786,"internal_node_id":"0.0-6.0-0.15","subject_id":"60e1e24c2cefa1327bb77476","study_id":"6197b3f67c2b5cd3b6d9596a","session_id":"6197b89140117ef0f58c4b25","condition":"full-information","relevant_dimensions":["pattern","legs"],"bee_group":{"antennae":"X","wings":"X","pattern":"D","legs":"M"},"bonus":1.9000000000000012},{"rt":1310,"stimulus":"bees-with-color/bee-B1DF.svg","response":0,"trial_type":"image-button-response","trial_index":152,"time_elapsed":1059099,"internal_node_id":"0.0-6.0-0.16","subject_id":"60e1e24c2cefa1327bb77476","study_id":"6197b3f67c2b5cd3b6d9596a","session_id":"6197b89140117ef0f58c4b25","condition":"full-information","relevant_dimensions":["pattern","legs"],"bee_group":{"antennae":"X","wings":"X","pattern":"D","legs":"M"},"bonus":1.9000000000000012},{"rt":1178.199999988079,"stimulus":"bees-with-color/bee-B2SM.svg","response":0,"trial_type":"image-button-response","trial_index":153,"time_elapsed":1060279,"internal_node_id":"0.0-6.0-0.17","subject_id":"60e1e24c2cefa1327bb77476","study_id":"6197b3f67c2b5cd3b6d9596a","session_id":"6197b89140117ef0f58c4b25","condition":"full-information","relevant_dimensions":["pattern","legs"],"bee_group":{"antennae":"X","wings":"X","pattern":"D","legs":"M"},"bonus":1.9000000000000012},{"rt":2858.5,"stimulus":"bees-with-color/bee-B1SF.svg","response":0,"trial_type":"image-button-response","trial_index":154,"time_elapsed":1063139,"internal_node_id":"0.0-6.0-0.18","subject_id":"60e1e24c2cefa1327bb77476","study_id":"6197b3f67c2b5cd3b6d9596a","session_id":"6197b89140117ef0f58c4b25","condition":"full-information","relevant_dimensions":["pattern","legs"],"bee_group":{"antennae":"X","wings":"X","pattern":"D","legs":"M"},"bonus":1.9000000000000012},{"rt":1570.7000000178814,"stimulus":"bees-with-color/bee-A1DM.svg","response":1,"trial_type":"image-button-response","trial_index":155,"time_elapsed":1064712,"internal_node_id":"0.0-6.0-0.19","subject_id":"60e1e24c2cefa1327bb77476","study_id":"6197b3f67c2b5cd3b6d9596a","session_id":"6197b89140117ef0f58c4b25","condition":"full-information","relevant_dimensions":["pattern","legs"],"bee_group":{"antennae":"X","wings":"X","pattern":"D","legs":"M"},"bonus":1.9000000000000012},{"rt":1237.9000000059605,"stimulus":"bees-with-color/bee-A1DF.svg","response":0,"trial_type":"image-button-response","trial_index":156,"time_elapsed":1065952,"internal_node_id":"0.0-6.0-0.20","subject_id":"60e1e24c2cefa1327bb77476","study_id":"6197b3f67c2b5cd3b6d9596a","session_id":"6197b89140117ef0f58c4b25","condition":"full-information","relevant_dimensions":["pattern","legs"],"bee_group":{"antennae":"X","wings":"X","pattern":"D","legs":"M"},"bonus":1.9000000000000012},{"rt":1524.7000000178814,"stimulus":"bees-with-color/bee-A2DF.svg","response":0,"trial_type":"image-button-response","trial_index":157,"time_elapsed":1067479,"internal_node_id":"0.0-6.0-0.21","subject_id":"60e1e24c2cefa1327bb77476","study_id":"6197b3f67c2b5cd3b6d9596a","session_id":"6197b89140117ef0f58c4b25","condition":"full-inf