[{"success":true,"trial_type":"fullscreen","trial_index":0,"time_elapsed":10500,"internal_node_id":"0.0-0.0","subject_id":"613ebfd5056e5b82128e2d3c","study_id":"6197b3f67c2b5cd3b6d9596a","session_id":"6197b570f64b32a151fc49e7","condition":"full-information","relevant_dimensions":["antennae","legs"],"bee_group":{"antennae":"B","wings":"X","pattern":"X","legs":"F"},"bonus":0.9400000000000007},{"success":true,"timeout":false,"failed_images":[],"failed_audio":[],"failed_video":[],"trial_type":"preload","trial_index":1,"time_elapsed":17202,"internal_node_id":"0.0-1.0","subject_id":"613ebfd5056e5b82128e2d3c","study_id":"6197b3f67c2b5cd3b6d9596a","session_id":"6197b570f64b32a151fc49e7","condition":"full-information","relevant_dimensions":["antennae","legs"],"bee_group":{"antennae":"B","wings":"X","pattern":"X","legs":"F"},"bonus":0.9400000000000007},{"rt":14558.5,"stimulus":"Welcome! Press any key to begin.","response":"enter","trial_type":"html-keyboard-response","trial_index":2,"time_elapsed":31764,"internal_node_id":"0.0-2.0","subject_id":"613ebfd5056e5b82128e2d3c","study_id":"6197b3f67c2b5cd3b6d9596a","session_id":"6197b570f64b32a151fc49e7","condition":"full-information","relevant_dimensions":["antennae","legs"],"bee_group":{"antennae":"B","wings":"X","pattern":"X","legs":"F"},"bonus":0.9400000000000007},{"view_history":[{"page_index":0,"viewing_time":7847.399999991059},{"page_index":1,"viewing_time":31048},{"page_index":2,"viewing_time":22958.5},{"page_index":3,"viewing_time":4824.5},{"page_index":2,"viewing_time":11096.90000000596},{"page_index":3,"viewing_time":21755.40000000596},{"page_index":4,"viewing_time":6455.5},{"page_index":5,"viewing_time":7565.699999988079},{"page_index":6,"viewing_time":13134.800000011921},{"page_index":7,"viewing_time":3376.3999999910593},{"page_index":6,"viewing_time":2076.5},{"page_index":7,"viewing_time":6335.70000000298},{"page_index":8,"viewing_time":8055},{"page_index":9,"viewing_time":11683.90000000596},{"page_index":10,"viewing_time":3930.0999999940395},{"page_index":11,"viewing_time":14830.40000000596},{"page_index":12,"viewing_time":24314.89999999106},{"page_index":13,"viewing_time":1574.5},{"page_index":14,"viewing_time":2043.6000000089407}],"rt":204908.5,"trial_type":"instructions","trial_index":3,"time_elapsed":236672,"internal_node_id":"0.0-3.0-0.0","subject_id":"613ebfd5056e5b82128e2d3c","study_id":"6197b3f67c2b5cd3b6d9596a","session_id":"6197b570f64b32a151fc49e7","condition":"full-information","relevant_dimensions":["antennae","legs"],"bee_group":{"antennae":"B","wings":"X","pattern":"X","legs":"F"},"bonus":0.9400000000000007},{"rt":14940,"response":{"Q0":["Two or six legs","Stripes or spots on body","Single or double wings","Antennae or no antennae"]},"question_order":[0],"trial_type":"survey-multi-select","trial_index":4,"time_elapsed":251625,"internal_node_id":"0.0-3.0-1.0","subject_id":"613ebfd5056e5b82128e2d3c","study_id":"6197b3f67c2b5cd3b6d9596a","session_id":"6197b570f64b32a151fc49e7","condition":"full-information","relevant_dimensions":["antennae","legs"],"bee_group":{"antennae":"B","wings":"X","pattern":"X","legs":"F"},"correct":true,"bonus":0.9400000000000007},{"rt":30704.80000001192,"response":{"Q1":"No.","Q2":"Based on the four features of the bee.","Q3":"You do not learn if it was friendly or dangerous, and do not alter your bonus."},"question_order":[0,1,2],"trial_type":"survey-multi-choice","trial_index":5,"time_elapsed":282339,"internal_node_id":"0.0-3.0-2.0","subject_id":"613ebfd5056e5b82128e2d3c","study_id":"6197b3f67c2b5cd3b6d9596a","session_id":"6197b570f64b32a151fc49e7","condition":"full-information","relevant_dimensions":["antennae","legs"],"bee_group":{"antennae":"B","wings":"X","pattern":"X","legs":"F"},"correct":false,"bonus":0.9400000000000007},{"rt":2686.9000000059605,"stimulus":"<p>You did not answer all comprehension questions correctly.<br>Press <b>continue</b> to review the instructions again.</p>","response":0,"trial_type":"html-button-response","trial_index":6,"time_elapsed":285039,"internal_node_id":"0.0-3.0-3.0","subject_id":"613ebfd5056e5b82128e2d3c","study_id":"6197b3f67c2b5cd3b6d9596a","session_id":"6197b570f64b32a151fc49e7","condition":"full-information","relevant_dimensions":["antennae","legs"],"bee_group":{"antennae":"B","wings":"X","pattern":"X","legs":"F"},"bonus":0.9400000000000007},{"view_history":[{"page_index":0,"viewing_time":2185.1000000089407},{"page_index":1,"viewing_time":10522.09999999404},{"page_index":2,"viewing_time":9015},{"page_index":3,"viewing_time":9697.60000000894},{"page_index":4,"viewing_time":5725.5999999940395},{"page_index":5,"viewing_time":12098.09999999404},{"page_index":6,"viewing_time":2105.1000000089407},{"page_index":7,"viewing_time":1387.7000000029802},{"page_index":8,"viewing_time":761},{"page_index":9,"viewing_time":640.0999999940395},{"page_index":10,"viewing_time":765.2999999970198},{"page_index":11,"viewing_time":2130.7000000029802},{"page_index":10,"viewing_time":1732.5},{"page_index":9,"viewing_time":982.4000000059605},{"page_index":8,"viewing_time":1701.8999999910593},{"page_index":7,"viewing_time":1179},{"page_index":8,"viewing_time":387.79999999701977},{"page_index":9,"viewing_time":417},{"page_index":10,"viewing_time":450.70000000298023},{"page_index":11,"viewing_time":1995.4000000059605},{"page_index":12,"viewing_time":2391.0999999940395},{"page_index":13,"viewing_time":2040.7999999970198},{"page_index":14,"viewing_time":1372.5}],"rt":71685.5,"trial_type":"instructions","trial_index":7,"time_elapsed":356728,"internal_node_id":"0.0-3.0-4.0-0.0","subject_id":"613ebfd5056e5b82128e2d3c","study_id":"6197b3f67c2b5cd3b6d9596a","session_id":"6197b570f64b32a151fc49e7","condition":"full-information","relevant_dimensions":["antennae","legs"],"bee_group":{"antennae":"B","wings":"X","pattern":"X","legs":"F"},"bonus":0.9400000000000007},{"rt":9252.199999988079,"response":{"Q0":["Two or six legs","Stripes or spots on body","Single or double wings","Antennae or no antennae"]},"question_order":[0],"trial_type":"survey-multi-select","trial_index":8,"time_elapsed":365996,"internal_node_id":"0.0-3.0-4.0-1.0","subject_id":"613ebfd5056e5b82128e2d3c","study_id":"6197b3f67c2b5cd3b6d9596a","session_id":"6197b570f64b32a151fc49e7","condition":"full-information","relevant_dimensions":["antennae","legs"],"bee_group":{"antennae":"B","wings":"X","pattern":"X","legs":"F"},"correct":true,"bonus":0.9400000000000007},{"rt":16418.5,"response":{"Q1":"No.","Q2":"Based on the four features of the bee.","Q3":"You learn if it was friendly or dangerous, but do not alter your bonus."},"question_order":[0,1,2],"trial_type":"survey-multi-choice","trial_index":9,"time_elapsed":382429,"internal_node_id":"0.0-3.0-4.0-2.0","subject_id":"613ebfd5056e5b82128e2d3c","study_id":"6197b3f67c2b5cd3b6d9596a","session_id":"6197b570f64b32a151fc49e7","condition":"full-information","relevant_dimensions":["antennae","legs"],"bee_group":{"antennae":"B","wings":"X","pattern":"X","legs":"F"},"correct":true,"bonus":0.9400000000000007},{"rt":2543.699999988079,"stimulus":"<p>Congrats, you got everything right<br>When you're ready, click the button below to continue to the experiment.</p>","response":0,"trial_type":"html-button-response","trial_index":10,"time_elapsed":384985,"internal_node_id":"0.0-3.0-4.0-3.0","subject_id":"613ebfd5056e5b82128e2d3c","study_id":"6197b3f67c2b5cd3b6d9596a","session_id":"6197b570f64b32a151fc49e7","condition":"full-information","relevant_dimensions":["antennae","legs"],"bee_group":{"antennae":"B","wings":"X","pattern":"X","legs":"F"},"bonus":0.9400000000000007},{"rt":11685.29999999702,"stimulus":"bees-with-color/bee-B1SM.svg","response":0,"trial_type":"image-button-response","trial_index":11,"time_elapsed":396679,"internal_node_id":"0.0-4.0-0.0","subject_id":"613ebfd5056e5b82128e2d3c","study_id":"6197b3f67c2b5cd3b6d9596a","session_id":"6197b570f64b32a151fc49e7","condition":"full-information","relevant_dimensions":["antennae","legs"],"bee_group":{"antennae":"B","wings":"X","pattern":"X","legs":"F"},"action":"harvest","summary":"good-harvest","bonus":0.9400000000000007},{"rt":5732.100000008941,"stimulus":"\n                    <p><b>Action: <em>harvest</em></b></p>\n                    <p>This is the bee that you just saw.</p>\n                    <img src=\"bees-with-color/bee-B1SM.svg\" width=\"200\">\n                    <p><span class=\"greenText\"><b>Successful harvest!</b></span><br>Your pay has increased by $0.02. Your bonus pay is now $0.56.</p>\n            ","response":0,"trial_type":"html-button-response","trial_index":12,"time_elapsed":402419,"internal_node_id":"0.0-4.0-1.0","subject_id":"613ebfd5056e5b82128e2d3c","study_id":"6197b3f67c2b5cd3b6d9596a","session_id":"6197b570f64b32a151fc49e7","condition":"full-information","relevant_dimensions":["antennae","legs"],"bee_group":{"antennae":"B","wings":"X","pattern":"X","legs":"F"},"bonus":0.9400000000000007},{"rt":4694.79999999702,"stimulus":"bees-with-color/bee-A1SF.svg","response":0,"trial_type":"image-button-response","trial_index":13,"time_elapsed":407120,"internal_node_id":"0.0-4.0-0.1","subject_id":"613ebfd5056e5b82128e2d3c","study_id":"6197b3f67c2b5cd3b6d9596a","session_id":"6197b570f64b32a151fc49e7","condition":"full-information","relevant_dimensions":["antennae","legs"],"bee_group":{"antennae":"B","wings":"X","pattern":"X","legs":"F"},"action":"harvest","summary":"good-harvest","bonus":0.9400000000000007},{"rt":5200.9000000059605,"stimulus":"\n                    <p><b>Action: <em>harvest</em></b></p>\n                    <p>This is the bee that you just saw.</p>\n                    <img src=\"bees-with-color/bee-A1SF.svg\" width=\"200\">\n                    <p><span class=\"greenText\"><b>Successful harvest!</b></span><br>Your pay has increased by $0.02. Your bonus pay is now $0.58.</p>\n            ","response":0,"trial_type":"html-button-response","trial_index":14,"time_elapsed":412326,"internal_node_id":"0.0-4.0-1.1","subject_id":"613ebfd5056e5b82128e2d3c","study_id":"6197b3f67c2b5cd3b6d9596a","session_id":"6197b570f64b32a151fc49e7","condition":"full-information","relevant_dimensions":["antennae","legs"],"bee_group":{"antennae":"B","wings":"X","pattern":"X","legs":"F"},"bonus":0.9400000000000007},{"rt":4205,"stimulus":"bees-with-color/bee-B2DF.svg","response":1,"trial_type":"image-button-response","trial_index":15,"time_elapsed":416537,"internal_node_id":"0.0-4.0-0.2","subject_id":"613ebfd5056e5b82128e2d3c","study_id":"6197b3f67c2b5cd3b6d9596a","session_id":"6197b570f64b32a151fc49e7","condition":"full-information","relevant_dimensions":["antennae","legs"],"bee_group":{"antennae":"B","wings":"X","pattern":"X","legs":"F"},"action":"avoid","summary":"good-avoid","bonus":0.9400000000000007},{"rt":5972,"stimulus":"\n                    <p><b>Action: <em>avoid</em></b></p>\n                    <p>This is the bee that you just saw.</p>\n                    <img src=\"bees-with-color/bee-B2DF.svg\" width=\"200\">\n                    <p><span class=\"greenText\">Good choice!</span>  This bee would have stung you.<br>Your bonus pay is unchanged, and remains at $0.58.</p>\n            ","response":0,"trial_type":"html-button-response","trial_index":16,"time_elapsed":422514,"internal_node_id":"0.0-4.0-1.2","subject_id":"613ebfd5056e5b82128e2d3c","study_id":"6197b3f67c2b5cd3b6d9596a","session_id":"6197b570f64b32a151fc49e7","condition":"full-information","relevant_dimensions":["antennae","legs"],"bee_group":{"antennae":"B","wings":"X","pattern":"X","legs":"F"},"bonus":0.9400000000000007},{"rt":16223.90000000596,"stimulus":"bees-with-color/bee-A1DM.svg","response":1,"trial_type":"image-button-response","trial_index":17,"time_elapsed":438743,"internal_node_id":"0.0-4.0-0.3","subject_id":"613ebfd5056e5b82128e2d3c","study_id":"6197b3f67c2b5cd3b6d9596a","session_id":"6197b570f64b32a151fc49e7","condition":"full-information","relevant_dimensions":["antennae","legs"],"bee_group":{"antennae":"B","wings":"X","pattern":"X","legs":"F"},"action":"avoid","summary":"bad-avoid","bonus":0.9400000000000007},{"rt":2504.2000000029802,"stimulus":"\n                    <p><b>Action: <em>avoid</em></b></p>\n                    <p>This is the bee that you just saw.</p>\n                    <img src=\"bees-with-color/bee-A1DM.svg\" width=\"200\">\n                    <p><span class=\"redText\">Bad choice,</span> the bee was friendly.<br>Your bonus pay is unchanged, and remains at $0.58.</p>\n            ","response":0,"trial_type":"html-button-response","trial_index":18,"time_elapsed":441254,"internal_node_id":"0.0-4.0-1.3","subject_id":"613ebfd5056e5b82128e2d3c","study_id":"6197b3f67c2b5cd3b6d9596a","session_id":"6197b570f64b32a151fc49e7","condition":"full-information","relevant_dimensions":["antennae","legs"],"bee_group":{"antennae":"B","wings":"X","pattern":"X","legs":"F"},"bonus":0.9400000000000007},{"rt":3034.8999999910593,"stimulus":"bees-with-color/bee-A2DM.svg","response":1,"trial_type":"image-button-response","trial_index":19,"time_elapsed":444294,"internal_node_id":"0.0-4.0-0.4","subject_id":"613ebfd5056e5b82128e2d3c","study_id":"6197b3f67c2b5cd3b6d9596a","session_id":"6197b570f64b32a151fc49e7","condition":"full-information","relevant_dimensions":["antennae","legs"],"bee_group":{"antennae":"B","wings":"X","pattern":"X","legs":"F"},"action":"avoid","summary":"bad-avoid","bonus":0.9400000000000007},{"rt":2846,"stimulus":"\n                    <p><b>Action: <em>avoid</em></b></p>\n                    <p>This is the bee that you just saw.</p>\n                    <img src=\"bees-with-color/bee-A2DM.svg\" width=\"200\">\n                    <p><span class=\"redText\">Bad choice,</span> the bee was friendly.<br>Your bonus pay is unchanged, and remains at $0.58.</p>\n            ","response":0,"trial_type":"html-button-response","trial_index":20,"time_elapsed":447145,"internal_node_id":"0.0-4.0-1.4","subject_id":"613ebfd5056e5b82128e2d3c","study_id":"6197b3f67c2b5cd3b6d9596a","session_id":"6197b570f64b32a151fc49e7","condition":"full-information","relevant_dimensions":["antennae","legs"],"bee_group":{"antennae":"B","wings":"X","pattern":"X","legs":"F"},"bonus":0.9400000000000007},{"rt":3178.2000000029802,"stimulus":"bees-with-color/bee-B1SF.svg","response":0,"trial_type":"image-button-response","trial_index":21,"time_elapsed":450328,"internal_node_id":"0.0-4.0-0.5","subject_id":"613ebfd5056e5b82128e2d3c","study_id":"6197b3f67c2b5cd3b6d9596a","session_id":"6197b570f64b32a151fc49e7","condition":"full-information","relevant_dimensions":["antennae","legs"],"bee_group":{"antennae":"B","wings":"X","pattern":"X","legs":"F"},"action":"harvest","summary":"bad-harvest","bonus":0.9400000000000007},{"rt":3511.3999999910593,"stimulus":"\n                    <p><b>Action: <em>harvest</em></b></p>\n                    <p>This is the bee that you just saw.</p>\n                    <img src=\"bees-with-color/bee-B1SF.svg\" width=\"200\">\n                    <p><span class=\"redText\">Bad choice, the bee was angry.</span><br><b>You have been stung!</b><br>Your pay has been decreased by $0.10. Your bonus pay is now $0.48.</p>\n            ","response":0,"trial_type":"html-button-response","trial_index":22,"time_elapsed":453843,"internal_node_id":"0.0-4.0-1.5","subject_id":"613ebfd5056e5b82128e2d3c","study_id":"6197b3f67c2b5cd3b6d9596a","session_id":"6197b570f64b32a151fc49e7","condition":"full-information","relevant_dimensions":["antennae","legs"],"bee_group":{"antennae":"B","wings":"X","pattern":"X","legs":"F"},"bonus":0.9400000000000007},{"rt":4528.5,"stimulus":"bees-with-color/bee-B2DM.svg","response":1,"trial_type":"image-button-response","trial_index":23,"time_elapsed":458379,"internal_node_id":"0.0-4.0-0.6","subject_id":"613ebfd5056e5b82128e2d3c","study_id":"6197b3f67c2b5cd3b6d9596a","session_id":"6197b570f64b32a151fc49e7","condition":"full-information","relevant_dimensions":["antennae","legs"],"bee_group":{"antennae":"B","wings":"X","pattern":"X","legs":"F"},"action":"avoid","summary":"bad-avoid","bonus":0.9400000000000007},{"rt":4341,"stimulus":"\n                    <p><b>Action: <em>avoid</em></b></p>\n                    <p>This is the bee that you just saw.</p>\n                    <img src=\"bees-with-color/bee-B2DM.svg\" width=\"200\">\n                    <p><span class=\"redText\">Bad choice,</span> the bee was friendly.<br>Your bonus pay is unchanged, and remains at $0.48.</p>\n            ","response":0,"trial_type":"html-button-response","trial_index":24,"time_elapsed":462724,"internal_node_id":"0.0-4.0-1.6","subject_id":"613ebfd5056e5b82128e2d3c","study_id":"6197b3f67c2b5cd3b6d9596a","session_id":"6197b570f64b32a151fc49e7","condition":"full-information","relevant_dimensions":["antennae","legs"],"bee_group":{"antennae":"B","wings":"X","pattern":"X","legs":"F"},"bonus":0.9400000000000007},{"rt":2095.7999999970198,"stimulus":"bees-with-color/bee-B1DM.svg","response":1,"trial_type":"image-button-response","trial_index":25,"time_elapsed":464824,"internal_node_id":"0.0-4.0-0.7","subject_id":"613ebfd5056e5b82128e2d3c","study_id":"6197b3f67c2b5cd3b6d9596a","session_id":"6197b570f64b32a151fc49e7","condition":"full-information","relevant_dimensions":["antennae","legs"],"bee_group":{"antennae":"B","wings":"X","pattern":"X","legs":"F"},"action":"avoid","summary":"bad-avoid","bonus":0.9400000000000007},{"rt":1584.5,"stimulus":"\n                    <p><b>Action: <em>avoid</em></b></p>\n                    <p>This is the bee that you just saw.</p>\n                    <img src=\"bees-with-color/bee-B1DM.svg\" width=\"200\">\n                    <p><span class=\"redText\">Bad choice,</span> the bee was friendly.<br>Your bonus pay is unchanged, and remains at $0.48.</p>\n            ","response":0,"trial_type":"html-button-response","trial_index":26,"time_elapsed":466413,"internal_node_id":"0.0-4.0-1.7","subject_id":"613ebfd5056e5b82128e2d3c","study_id":"6197b3f67c2b5cd3b6d9596a","session_id":"6197b570f64b32a151fc49e7","condition":"full-information","relevant_dimensions":["antennae","legs"],"bee_group":{"antennae":"B","wings":"X","pattern":"X","legs":"F"},"bonus":0.9400000000000007},{"rt":2588.9000000059605,"stimulus":"bees-with-color/bee-A1SM.svg","response":0,"trial_type":"image-button-response","trial_index":27,"time_elapsed":469007,"internal_node_id":"0.0-4.0-0.8","subject_id":"613ebfd5056e5b82128e2d3c","study_id":"6197b3f67c2b5cd3b6d9596a","session_id":"6197b570f64b32a151fc49e7","condition":"full-information","relevant_dimensions":["antennae","legs"],"bee_group":{"antennae":"B","wings":"X","pattern":"X","legs":"F"},"action":"harvest","summary":"good-harvest","bonus":0.9400000000000007},{"rt":3595.8999999910593,"stimulus":"\n                    <p><b>Action: <em>harvest</em></b></p>\n                    <p>This is the bee that you just saw.</p>\n                    <img src=\"bees-with-color/bee-A1SM.svg\" width=\"200\">\n                    <p><span class=\"greenText\"><b>Successful harvest!</b></span><br>Your pay has increased by $0.02. Your bonus pay is now $0.50.</p>\n            ","response":0,"trial_type":"html-button-response","trial_index":28,"time_elapsed":472606,"internal_node_id":"0.0-4.0-1.8","subject_id":"613ebfd5056e5b82128e2d3c","study_id":"6197b3f67c2b5cd3b6d9596a","session_id":"6197b570f64b32a151fc49e7","condition":"full-information","relevant_dimensions":["antennae","legs"],"bee_group":{"antennae":"B","wings":"X","pattern":"X","legs":"F"},"bonus":0.9400000000000007},{"rt":2527,"stimulus":"bees-with-color/bee-B2SM.svg","response":0,"trial_type":"image-button-response","trial_index":29,"time_elapsed":475138,"internal_node_id":"0.0-4.0-0.9","subject_id":"613ebfd5056e5b82128e2d3c","study_id":"6197b3f67c2b5cd3b6d9596a","session_id":"6197b570f64b32a151fc49e7","condition":"full-information","relevant_dimensions":["antennae","legs"],"bee_group":{"antennae":"B","wings":"X","pattern":"X","legs":"F"},"action":"harvest","summary":"good-harvest","bonus":0.9400000000000007},{"rt":2011.7000000029802,"stimulus":"\n                    <p><b>Action: <em>harvest</em></b></p>\n                    <p>This is the bee that you just saw.</p>\n                    <img src=\"bees-with-color/bee-B2SM.svg\" width=\"200\">\n                    <p><span class=\"greenText\"><b>Successful harvest!</b></span><br>Your pay has increased by $0.02. Your bonus pay is now $0.52.</p>\n            ","response":0,"trial_type":"html-button-response","trial_index":30,"time_elapsed":477154,"internal_node_id":"0.0-4.0-1.9","subject_id":"613ebfd5056e5b82128e2d3c","study_id":"6197b3f67c2b5cd3b6d9596a","session_id":"6197b570f64b32a151fc49e7","condition":"full-information","relevant_dimensions":["antennae","legs"],"bee_group":{"antennae":"B","wings":"X","pattern":"X","legs":"F"},"bonus":0.9400000000000007},{"rt":4707.79999999702,"stimulus":"bees-with-color/bee-B1DF.svg","response":1,"trial_type":"image-button-response","trial_index":31,"time_elapsed":481866,"internal_node_id":"0.0-4.0-0.10","subject_id":"613ebfd5056e5b82128e2d3c","study_id":"6197b3f67c2b5cd3b6d9596a","session_id":"6197b570f64b32a151fc49e7","condition":"full-information","relevant_dimensions":["antennae","legs"],"bee_group":{"antennae":"B","wings":"X","pattern":"X","legs":"F"},"action":"avoid","summary":"good-avoid","bonus":0.9400000000000007},{"rt":2919.9000000059605,"stimulus":"\n                    <p><b>Action: <em>avoid</em></b></p>\n                    <p>This is the bee that you just saw.</p>\n                    <img src=\"bees-with-color/bee-B1DF.svg\" width=\"200\">\n                    <p><span class=\"greenText\">Good choice!</span>  This bee would have stung you.<br>Your bonus pay is unchanged, and remains at $0.52.</p>\n            ","response":0,"trial_type":"html-button-response","trial_index":32,"time_elapsed":484790,"internal_node_id":"0.0-4.0-1.10","subject_id":"613ebfd5056e5b82128e2d3c","study_id":"6197b3f67c2b5cd3b6d9596a","session_id":"6197b570f64b32a151fc49e7","condition":"full-information","relevant_dimensions":["antennae","legs"],"bee_group":{"antennae":"B","wings":"X","pattern":"X","legs":"F"},"bonus":0.9400000000000007},{"rt":5620.20000000298,"stimulus":"bees-with-color/bee-B2SF.svg","response":0,"trial_type":"image-button-response","trial_index":33,"time_elapsed":490415,"internal_node_id":"0.0-4.0-0.11","subject_id":"613ebfd5056e5b82128e2d3c","study_id":"6197b3f67c2b5cd3b6d9596a","session_id":"6197b570f64b32a151fc49e7","condition":"full-information","relevant_dimensions":["antennae","legs"],"bee_group":{"antennae":"B","wings":"X","pattern":"X","legs":"F"},"action":"harvest","summary":"bad-harvest","bonus":0.9400000000000007},{"rt":2099.9000000059605,"stimulus":"\n                    <p><b>Action: <em>harvest</em></b></p>\n                    <p>This is the bee that you just saw.</p>\n                    <img src=\"bees-with-color/bee-B2SF.svg\" width=\"200\">\n                    <p><span class=\"redText\">Bad choice, the bee was angry.</span><br><b>You have been stung!</b><br>Your pay has been decreased by $0.10. Your bonus pay is now $0.42.</p>\n            ","response":0,"trial_type":"html-button-response","trial_index":34,"time_elapsed":492519,"internal_node_id":"0.0-4.0-1.11","subject_id":"613ebfd5056e5b82128e2d3c","study_id":"6197b3f67c2b5cd3b6d9596a","session_id":"6197b570f64b32a151fc49e7","condition":"full-information","relevant_dimensions":["antennae","legs"],"bee_group":{"antennae":"B","wings":"X","pattern":"X","legs":"F"},"bonus":0.9400000000000007},{"rt":3231.7999999970198,"stimulus":"bees-with-color/bee-A2SM.svg","response":0,"trial_type":"image-button-response","trial_index":35,"time_elapsed":495755,"internal_node_id":"0.0-4.0-0.12","subject_id":"613ebfd5056e5b82128e2d3c","study_id":"6197b3f67c2b5cd3b6d9596a","session_id":"6197b570f64b32a151fc49e7","condition":"full-information","relevant_dimensions":["antennae","legs"],"bee_group":{"antennae":"B","wings":"X","pattern":"X","legs":"F"},"action":"harvest","summary":"good-harvest","bonus":0.9400000000000007},{"rt":1285.5,"stimulus":"\n                    <p><b>Action: <em>harvest</em></b></p>\n                    <p>This is the bee that you just saw.</p>\n                    <img src=\"bees-with-color/bee-A2SM.svg\" width=\"200\">\n                    <p><span class=\"greenText\"><b>Successful harvest!</b></span><br>Your pay has increased by $0.02. Your bonus pay is now $0.44.</p>\n            ","response":0,"trial_type":"html-button-response","trial_index":36,"time_elapsed":497046,"internal_node_id":"0.0-4.0-1.12","subject_id":"613ebfd5056e5b82128e2d3c","study_id":"6197b3f67c2b5cd3b6d9596a","session_id":"6197b570f64b32a151fc49e7","condition":"full-information","relevant_dimensions":["antennae","legs"],"bee_group":{"antennae":"B","wings":"X","pattern":"X","legs":"F"},"bonus":0.9400000000000007},{"rt":6446.600000008941,"stimulus":"bees-with-color/bee-A1DF.svg","response":1,"trial_type":"image-button-response","trial_index":37,"time_elapsed":503498,"internal_node_id":"0.0-4.0-0.13","subject_id":"613ebfd5056e5b82128e2d3c","study_id":"6197b3f67c2b5cd3b6d9596a","session_id":"6197b570f64b32a151fc49e7","condition":"full-information","relevant_dimensions":["antennae","legs"],"bee_group":{"antennae":"B","wings":"X","pattern":"X","legs":"F"},"action":"avoid","summary":"bad-avoid","bonus":0.9400000000000007},{"rt":2072.5,"stimulus":"\n                    <p><b>Action: <em>avoid</em></b></p>\n                    <p>This is the bee that you just saw.</p>\n                    <img src=\"bees-with-color/bee-A1DF.svg\" width=\"200\">\n                    <p><span class=\"redText\">Bad choice,</span> the bee was friendly.<br>Your bonus pay is unchanged, and remains at $0.44.</p>\n            ","response":0,"trial_type":"html-button-response","trial_index":38,"time_elapsed":505576,"internal_node_id":"0.0-4.0-1.13","subject_id":"613ebfd5056e5b82128e2d3c","study_id":"6197b3f67c2b5cd3b6d9596a","session_id":"6197b570f64b32a151fc49e7","condition":"full-information","relevant_dimensions":["antennae","legs"],"bee_group":{"antennae":"B","wings":"X","pattern":"X","legs":"F"},"bonus":0.9400000000000007},{"rt":5395,"stimulus":"bees-with-color/bee-A2SF.svg","response":0,"trial_type":"image-button-response","trial_index":39,"time_elapsed":510977,"internal_node_id":"0.0-4.0-0.14","subject_id":"613ebfd5056e5b82128e2d3c","study_id":"6197b3f67c2b5cd3b6d9596a","session_id":"6197b570f64b32a151fc49e7","condition":"full-information","relevant_dimensions":["antennae","legs"],"bee_group":{"antennae":"B","wings":"X","pattern":"X","legs":"F"},"action":"harvest","summary":"good-harvest","bonus":0.9400000000000007},{"rt":1500.699999988079,"stimulus":"\n                    <p><b>Action: <em>harvest</em></b></p>\n                    <p>This is the bee that you just saw.</p>\n                    <img src=\"bees-with-color/bee-A2SF.svg\" width=\"200\">\n                    <p><span class=\"greenText\"><b>Successful harvest!</b></span><br>Your pay has increased by $0.02. Your bonus pay is now $0.46.</p>\n            ","response":0,"trial_type":"html-button-response","trial_index":40,"time_elapsed":512482,"internal_node_id":"0.0-4.0-1.14","subject_id":"613ebfd5056e5b82128e2d3c","study_id":"6197b3f67c2b5cd3b6d9596a","session_id":"6197b570f64b32a151fc49e7","condition":"full-information","relevant_dimensions":["antennae","legs"],"bee_group":{"antennae":"B","wings":"X","pattern":"X","legs":"F"},"bonus":0.9400000000000007},{"rt":8064.79999999702,"stimulus":"bees-with-color/bee-A2DF.svg","response":1,"trial_type":"image-button-response","trial_index":41,"time_elapsed":520552,"internal_node_id":"0.0-4.0-0.15","subject_id":"613ebfd5056e5b82128e2d3c","study_id":"6197b3f67c2b5cd3b6d9596a","session_id":"6197b570f64b32a151fc49e7","condition":"full-information","relevant_dimensions":["antennae","legs"],"bee_group":{"antennae":"B","wings":"X","pattern":"X","legs":"F"},"action":"avoid","summary":"bad-avoid","bonus":0.9400000000000007},{"rt":1241.9000000059605,"stimulus":"\n                    <p><b>Action: <em>avoid</em></b></p>\n                    <p>This is the bee that you just saw.</p>\n                    <img src=\"bees-with-color/bee-A2DF.svg\" width=\"200\">\n                    <p><span class=\"redText\">Bad choice,</span> the bee was friendly.<br>Your bonus pay is unchanged, and remains at $0.46.</p>\n            ","response":0,"trial_type":"html-button-response","trial_index":42,"time_elapsed":521798,"internal_node_id":"0.0-4.0-1.15","subject_id":"613ebfd5056e5b82128e2d3c","study_id":"6197b3f67c2b5cd3b6d9596a","session_id":"6197b570f64b32a151fc49e7","condition":"full-information","relevant_dimensions":["antennae","legs"],"bee_group":{"antennae":"B","wings":"X","pattern":"X","legs":"F"},"bonus":0.9400000000000007},{"rt":9195,"stimulus":"bees-with-color/bee-A2DF.svg","response":1,"trial_type":"image-button-response","trial_index":43,"time_elapsed":531002,"internal_node_id":"0.0-4.0-0.16","subject_id":"613ebfd5056e5b82128e2d3c","study_id":"6197b3f67c2b5cd3b6d9596a","session_id":"6197b570f64b32a151fc49e7","condition":"full-information","relevant_dimensions":["antennae","legs"],"bee_group":{"antennae":"B","wings":"X","pattern":"X","legs":"F"},"action":"avoid","summary":"bad-avoid","bonus":0.9400000000000007},{"rt":1052.7000000029802,"stimulus":"\n                    <p><b>Action: <em>avoid</em></b></p>\n                    <p>This is the bee that you just saw.</p>\n                    <img src=\"bees-with-color/bee-A2DF.svg\" width=\"200\">\n                    <p><span class=\"redText\">Bad choice,</span> the bee was friendly.<br>Your bonus pay is unchanged, and remains at $0.46.</p>\n            ","response":0,"trial_type":"html-button-response","trial_index":44,"time_elapsed":532060,"internal_node_id":"0.0-4.0-1.16","subject_id":"613ebfd5056e5b82128e2d3c","study_id":"6197b3f67c2b5cd3b6d9596a","session_id":"6197b570f64b32a151fc49e7","condition":"full-information","relevant_dimensions":["antennae","legs"],"bee_group":{"antennae":"B","wings":"X","pattern":"X","legs":"F"},"bonus":0.9400000000000007},{"rt":4791.300000011921,"stimulus":"bees-with-color/bee-B2SF.svg","response":1,"trial_type":"image-button-response","trial_index":45,"time_elapsed":536858,"internal_node_id":"0.0-4.0-0.17","subject_id":"613ebfd5056e5b82128e2d3c","study_id":"6197b3f67c2b5cd3b6d9596a","session_id":"6197b570f64b32a151fc49e7","condition":"full-information","relevant_dimensions":["antennae","legs"],"bee_group":{"antennae":"B","wings":"X","pattern":"X","legs":"F"},"action":"avoid","summary":"good-avoid","bonus":0.9400000000000007},{"rt":1487.7000000029802,"stimulus":"\n                    <p><b>Action: <em>avoid</em></b></p>\n                    <p>This is the bee that you just saw.</p>\n                    <img src=\"bees-with-color/bee-B2SF.svg\" width=\"200\">\n                    <p><span class=\"greenText\">Good choice!</span>  This bee would have stung you.<br>Your bonus pay is unchanged, and remains at $0.46.</p>\n            ","response":0,"trial_type":"html-button-response","trial_index":46,"time_elapsed":538351,"internal_node_id":"0.0-4.0-1.17","subject_id":"613ebfd5056e5b82128e2d3c","study_id":"6197b3f67c2b5cd3b6d9596a","session_id":"6197b570f64b32a151fc49e7","condition":"full-information","relevant_dimensions":["antennae","legs"],"bee_group":{"antennae":"B","wings":"X","pattern":"X","legs":"F"},"bonus":0.9400000000000007},{"rt":3649,"stimulus":"bees-with-color/bee-A2DM.svg","response":0,"trial_type":"image-button-response","trial_index":47,"time_elapsed":542004,"internal_node_id":"0.0-4.0-0.18","subject_id":"613ebfd5056e5b82128e2d3c","study_id":"6197b3f67c2b5cd3b6d9596a","session_id":"6197b570f64b32a151fc49e7","condition":"full-information","relevant_dimensions":["antennae","legs"],"bee_group":{"antennae":"B","wings":"X","pattern":"X","legs":"F"},"action":"harvest","summary":"good-harvest","bonus":0.9400000000000007},{"rt":1318.800000011921,"stimulus":"\n                    <p><b>Action: <em>harvest</em></b></p>\n                    <p>This is the bee that you just saw.</p>\n                    <img src=\"bees-with-color/bee-A2DM.svg\" width=\"200\">\n                    <p><span class=\"greenText\"><b>Successful harvest!</b></span><br>Your pay has increased by $0.02. Your bonus pay is now $0.48.</p>\n            ","response":0,"trial_type":"html-button-response","trial_index":48,"time_elapsed":543328,"internal_node_id":"0.0-4.0-1.18","subject_id":"613ebfd5056e5b82128e2d3c","study_id":"6197b3f67c2b5cd3b6d9596a","session_id":"6197b570f64b32a151fc49e7","condition":"full-information","relevant_dimensions":["antennae","legs"],"bee_group":{"antennae":"B","wings":"X","pattern":"X","legs":"F"},"bonus":0.9400000000000007},{"rt":2535,"stimulus":"bees-with-color/bee-B1DF.svg","response":1,"trial_type":"image-button-response","trial_index":49,"time_elapsed":545868,"internal_node_id":"0.0-4.0-0.19","subject_id":"613ebfd5056e5b82128e2d3c","study_id":"6197b3f67c2b5cd3b6d9596a","session_id":"6197b570f64b32a151fc49e7","condition":"full-information","relevant_dimensions":["antennae","legs"],"bee_group":{"antennae":"B","wings":"X","pattern":"X","legs":"F"},"action":"avoid","summary":"good-avoid","bonus":0.9400000000000007},{"rt":2066.2999999970198,"stimulus":"\n                    <p><b>Action: <em>avoid</em></b></p>\n                    <p>This is the bee that you just saw.</p>\n                    <img src=\"bees-with-color/bee-B1DF.svg\" width=\"200\">\n                    <p><span class=\"greenText\">Good choice!</span>  This bee would have stung you.<br>Your bonus pay is unchanged, and remains at $0.48.</p>\n            ","response":0,"trial_type":"html-button-response","trial_index":50,"time_elapsed":547937,"internal_node_id":"0.0-4.0-1.19","subject_id":"613ebfd5056e5b82128e2d3c","study_id":"6197b3f67c2b5cd3b6d9596a","session_id":"6197b570f64b32a151fc49e7","condition":"full-information","relevant_dimensions":["antennae","legs"],"bee_group":{"antennae":"B","wings":"X","pattern":"X","legs":"F"},"bonus":0.9400000000000007},{"rt":1969.5,"stimulus":"bees-with-color/bee-A1SF.svg","response":0,"trial_type":"image-button-response","trial_index":51,"time_elapsed":549912,"internal_node_id":"0.0-4.0-0.20","subject_id":"613ebfd5056e5b82128e2d3c","study_id":"6197b3f67c2b5cd3b6d9596a","session_id":"6197b570f64b32a151fc49e7","condition":"full-information","relevant_dimensions":["antennae","legs"],"bee_group":{"antennae":"B","wings":"X","pattern":"X","legs":"F"},"action":"harvest","summary":"good-harvest","bonus":0.9400000000000007},{"rt":1192.2999999970198,"stimulus":"\n                    <p><b>Action: <em>harvest</em></b></p>\n                    <p>This is the bee that you just saw.</p>\n                    <img src=\"bees-with-color/bee-A1SF.svg\" width=\"200\">\n                    <p><span class=\"greenText\"><b>Successful harvest!</b></span><br>Your pay has increased by $0.02. Your bonus pay is now $0.50.</p>\n            ","response":0,"trial_type":"html-button-response","trial_index":52,"time_elapsed":551108,"internal_node_id":"0.0-4.0-1.20","subject_id":"613ebfd5056e5b82128e2d3c","study_id":"6197b3f67c2b5cd3b6d9596a","session_id":"6197b570f64b32a151fc49e7","condition":"full-information","relevant_dimensions":["antennae","legs"],"bee_group":{"antennae":"B","wings":"X","pattern":"X","legs":"F"},"bonus":0.9400000000000007},{"rt":3775.9000000059605,"stimulus":"bees-with-color/bee-A2SF.svg","response":0,"trial_type":"image-button-response","trial_index":53,"time_elapsed":554888,"internal_node_id":"0.0-4.0-0.21","subject_id":"613ebfd5056e5b82128e2d3c","study_id":"6197b3f67c2b5cd3b6d9596a","session_id":"6197b570f64b32a151fc49e7","condition":"full-information","relevant_dimensions":["antennae","legs"],"bee_group":{"antennae":"B","wings":"X","pattern":"X","legs":"F"},"action":"harvest","summary":"good-harvest","bonus":0.9400000000000007},{"rt":1209.9000000059605,"stimulus":"\n                    <p><b>Action: <em>harvest</em></b></p>\n                    <p>This is the bee that you just saw.</p>\n                    <img src=\"bees-with-color/bee-A2SF.svg\" width=\"200\">\n                    <p><span class=\"greenText\"><b>Successful harvest!</b></span><br>Your pay has increased by $0.02. Your bonus pay is now $0.52.</p>\n            ","response":0,"trial_type":"html-button-response","trial_index":54,"time_elapsed":556102,"internal_node_id":"0.0-4.0-1.21","subject_id":"613ebfd5056e5b82128e2d3c","study_id":"6197b3f67c2b5cd3b6d9596a","session_id":"6197b570f64b32a151fc49e7","condition":"full-information","relevant_dimensions":["antennae","legs"],"bee_group":{"antennae":"B","wings":"X","pattern":"X","legs":"F"},"bonus":0.9400000000000007},{"rt":7192.899999991059,"stimulus":"bees-with-color/bee-A1DM.svg","response":0,"trial_type":"image-button-response","trial_index":55,"time_elapsed":563299,"internal_node_id":"0.0-4.0-0.22","subject_id":"613ebfd5056e5b82128e2d3c","study_id":"6197b3f67c2b5cd3b6d9596a","session_id":"6197b570f64b32a151fc49e7","condition":"full-information","relevant_dimensions":["antennae","legs"],"bee_group":{"antennae":"B","wings":"X","pattern":"X","legs":"F"},"action":"harvest","summary":"good-harvest","bonus":0.9400000000000007},{"rt":1888.300000011921,"stimulus":"\n                    <p><b>Action: <em>harvest</em></b></p>\n                    <p>This is the bee that you just saw.</p>\n                    <img src=\"bees-with-color/bee-A1DM.svg\" width=\"200\">\n                    <p><span class=\"greenText\"><b>Successful harvest!</b></span><br>Your pay has increased by $0.02. Your bonus pay is now $0.54.</p>\n            ","response":0,"trial_type":"html-button-response","trial_index":56,"time_elapsed":565191,"internal_node_id":"0.0-4.0-1.22","subject_id":"613ebfd5056e5b82128e2d3c","study_id":"6197b3f67c2b5cd3b6d9596a","session_id":"6197b570f64b32a151fc49e7","condition":"full-information","relevant_dimensions":["antennae","legs"],"bee_group":{"antennae":"B","wings":"X","pattern":"X","legs":"F"},"bonus":0.9400000000000007},{"rt":2023.5,"stimulus":"bees-with-color/bee-B1DM.svg","response":1,"trial_type":"image-button-response","trial_index":57,"time_elapsed":567219,"internal_node_id":"0.0-4.0-0.23","subject_id":"613ebfd5056e5b82128e2d3c","study_id":"6197b3f67c2b5cd3b6d9596a","session_id":"6197b570f64b32a151fc49e7","condition":"full-information","relevant_dimensions":["antennae","legs"],"bee_group":{"antennae":"B","wings":"X","pattern":"X","legs":"F"},"action":"avoid","summary":"bad-avoid","bonus":0.9400000000000007},{"rt":2394.5,"stimulus":"\n                    <p><b>Action: <em>avoid</em></b></p>\n                    <p>This is the bee that you just saw.</p>\n                    <img src=\"bees-with-color/bee-B1DM.svg\" width=\"200\">\n                    <p><span class=\"redText\">Bad choice,</span> the bee was friendly.<br>Your bonus pay is unchanged, and remains at $0.54.</p>\n            ","response":0,"trial_type":"html-button-response","trial_index":58,"time_elapsed":569619,"internal_node_id":"0.0-4.0-1.23","subject_id":"613ebfd5056e5b82128e2d3c","study_id":"6197b3f67c2b5cd3b6d9596a","session_id":"6197b570f64b32a151fc49e7","condition":"full-information","relevant_dimensions":["antennae","legs"],"bee_group":{"antennae":"B","wings":"X","pattern":"X","legs":"F"},"bonus":0.9400000000000007},{"rt":7399.4000000059605,"stimulus":"bees-with-color/bee-A2SM.svg","response":0,"trial_type":"image-button-response","trial_index":59,"time_elapsed":577023,"internal_node_id":"0.0-4.0-0.24","subject_id":"613ebfd5056e5b82128e2d3c","study_id":"6197b3f67c2b5cd3b6d9596a","session_id":"6197b570f64b32a151fc49e7","condition":"full-information","relevant_dimensions":["antennae","legs"],"bee_group":{"antennae":"B","wings":"X","pattern":"X","legs":"F"},"action":"harvest","summary":"good-harvest","bonus":0.9400000000000007},{"rt":1707,"stimulus":"\n                    <p><b>Action: <em>harvest</em></b></p>\n                    <p>This is the bee that you just saw.</p>\n                    <img src=\"bees-with-color/bee-A2SM.svg\" width=\"200\">\n                    <p><span class=\"greenText\"><b>Successful harvest!</b></span><br>Your pay has increased by $0.02. Your bonus pay is now $0.56.</p>\n            ","response":0,"trial_type":"html-button-response","trial_index":60,"time_elapsed":578734,"internal_node_id":"0.0-4.0-1.24","subject_id":"613ebfd5056e5b82128e2d3c","study_id":"6197b3f67c2b5cd3b6d9596a","session_id":"6197b570f64b32a151fc49e7","condition":"full-information","relevant_dimensions":["antennae","legs"],"bee_group":{"antennae":"B","wings":"X","pattern":"X","legs":"F"},"bonus":0.9400000000000007},{"rt":5213.100000008941,"stimulus":"bees-with-color/bee-B2DF.svg","response":1,"trial_type":"image-button-response","trial_index":61,"time_elapsed":583951,"internal_node_id":"0.0-4.0-0.25","subject_id":"613ebfd5056e5b82128e2d3c","study_id":"6197b3f67c2b5cd3b6d9596a","session_id":"6197b570f64b32a151fc49e7","condition":"full-information","relevant_dimensions":["antennae","legs"],"bee_group":{"antennae":"B","wings":"X","pattern":"X","legs":"F"},"action":"avoid","summary":"good-avoid","bonus":0.9400000000000007},{"rt":1373.7999999970198,"stimulus":"\n                    <p><b>Action: <em>avoid</em></b></p>\n                    <p>This is the bee that you just saw.</p>\n                    <img src=\"bees-with-color/bee-B2DF.svg\" width=\"200\">\n                    <p><span class=\"greenText\">Good choice!</span>  This bee would have stung you.<br>Your bonus pay is unchanged, and remains at $0.56.</p>\n            ","response":0,"trial_type":"html-button-response","trial_index":62,"time_elapsed":585329,"internal_node_id":"0.0-4.0-1.25","subject_id":"613ebfd5056e5b82128e2d3c","study_id":"6197b3f67c2b5cd3b6d9596a","session_id":"6197b570f64b32a151fc49e7","condition":"full-information","relevant_dimensions":["antennae","legs"],"bee_group":{"antennae":"B","wings":"X","pattern":"X","legs":"F"},"bonus":0.9400000000000007},{"rt":5260.5,"stimulus":"bees-with-color/bee-B1SM.svg","response":0,"trial_type":"image-button-response","trial_index":63,"time_elapsed":590594,"internal_node_id":"0.0-4.0-0.26","subject_id":"613ebfd5056e5b82128e2d3c","study_id":"6197b3f67c2b5cd3b6d9596a","session_id":"6197b570f64b32a151fc49e7","condition":"full-information","relevant_dimensions":["antennae","legs"],"bee_group":{"antennae":"B","wings":"X","pattern":"X","legs":"F"},"action":"harvest","summary":"good-harvest","bonus":0.9400000000000007},{"rt":1894.4000000059605,"stimulus":"\n                    <p><b>Action: <em>harvest</em></b></p>\n                    <p>This is the bee that you just saw.</p>\n                    <img src=\"bees-with-color/bee-B1SM.svg\" width=\"200\">\n                    <p><span class=\"greenText\"><b>Successful harvest!</b></span><br>Your pay has increased by $0.02. Your bonus pay is now $0.58.</p>\n            ","response":0,"trial_type":"html-button-response","trial_index":64,"time_elapsed":592494,"internal_node_id":"0.0-4.0-1.26","subject_id":"613ebfd5056e5b82128e2d3c","study_id":"6197b3f67c2b5cd3b6d9596a","session_id":"6197b570f64b32a151fc49e7","condition":"full-information","relevant_dimensions":["antennae","legs"],"bee_group":{"antennae":"B","wings":"X","pattern":"X","legs":"F"},"bonus":0.9400000000000007},{"rt":3711.7000000029802,"stimulus":"bees-with-color/bee-B2DM.svg","response":1,"trial_type":"image-button-response","trial_index":65,"time_elapsed":596210,"internal_node_id":"0.0-4.0-0.27","subject_id":"613ebfd5056e5b82128e2d3c","study_id":"6197b3f67c2b5cd3b6d9596a","session_id":"6197b570f64b32a151fc49e7","condition":"full-information","relevant_dimensions":["antennae","legs"],"bee_group":{"antennae":"B","wings":"X","pattern":"X","legs":"F"},"action":"avoid","summary":"bad-avoid","bonus":0.9400000000000007},{"rt":1674.2000000029802,"stimulus":"\n                    <p><b>Action: <em>avoid</em></b></p>\n                    <p>This is the bee that you just saw.</p>\n                    <img src=\"bees-with-color/bee-B2DM.svg\" width=\"200\">\n                    <p><span class=\"redText\">Bad choice,</span> the bee was friendly.<br>Your bonus pay is unchanged, and remains at $0.58.</p>\n            ","response":0,"trial_type":"html-button-response","trial_index":66,"time_elapsed":597889,"internal_node_id":"0.0-4.0-1.27","subject_id":"613ebfd5056e5b82128e2d3c","study_id":"6197b3f67c2b5cd3b6d9596a","session_id":"6197b570f64b32a151fc49e7","condition":"full-information","relevant_dimensions":["antennae","legs"],"bee_group":{"antennae":"B","wings":"X","pattern":"X","legs":"F"},"bonus":0.9400000000000007},{"rt":5229.4000000059605,"stimulus":"bees-with-color/bee-B2SM.svg","response":1,"trial_type":"image-button-response","trial_index":67,"time_elapsed":603125,"internal_node_id":"0.0-4.0-0.28","subject_id":"613ebfd5056e5b82128e2d3c","study_id":"6197b3f67c2b5cd3b6d9596a","session_id":"6197b570f64b32a151fc49e7","condition":"full-information","relevant_dimensions":["antennae","legs"],"bee_group":{"antennae":"B","wings":"X","pattern":"X","legs":"F"},"action":"avoid","summary":"bad-avoid","bonus":0.9400000000000007},{"rt":1848,"stimulus":"\n                    <p><b>Action: <em>avoid</em></b></p>\n                    <p>This is the bee that you just saw.</p>\n                    <img src=\"bees-with-color/bee-B2SM.svg\" width=\"200\">\n                    <p><span class=\"redText\">Bad choice,</span> the bee was friendly.<br>Your bonus pay is unchanged, and remains at $0.58.</p>\n            ","response":0,"trial_type":"html-button-response","trial_index":68,"time_elapsed":604977,"internal_node_id":"0.0-4.0-1.28","subject_id":"613ebfd5056e5b82128e2d3c","study_id":"6197b3f67c2b5cd3b6d9596a","session_id":"6197b570f64b32a151fc49e7","condition":"full-information","relevant_dimensions":["antennae","legs"],"bee_group":{"antennae":"B","wings":"X","pattern":"X","legs":"F"},"bonus":0.9400000000000007},{"rt":3155.4000000059605,"stimulus":"bees-with-color/bee-A1DF.svg","response":1,"trial_type":"image-button-response","trial_index":69,"time_elapsed":608137,"internal_node_id":"0.0-4.0-0.29","subject_id":"613ebfd5056e5b82128e2d3c","study_id":"6197b3f67c2b5cd3b6d9596a","session_id":"6197b570f64b32a151fc49e7","condition":"full-information","relevant_dimensions":["antennae","legs"],"bee_group":{"antennae":"B","wings":"X","pattern":"X","legs":"F"},"action":"avoid","summary":"bad-avoid","bonus":0.9400000000000007},{"rt":1147.5,"stimulus":"\n                    <p><b>Action: <em>avoid</em></b></p>\n                    <p>This is the bee that you just saw.</p>\n                    <img src=\"bees-with-color/bee-A1DF.svg\" width=\"200\">\n                    <p><span class=\"redText\">Bad choice,</span> the bee was friendly.<br>Your bonus pay is unchanged, and remains at $0.58.</p>\n            ","response":0,"trial_type":"html-button-response","trial_index":70,"time_elapsed":609289,"internal_node_id":"0.0-4.0-1.29","subject_id":"613ebfd5056e5b82128e2d3c","study_id":"6197b3f67c2b5cd3b6d9596a","session_id":"6197b570f64b32a151fc49e7","condition":"full-information","relevant_dimensions":["antennae","legs"],"bee_group":{"antennae":"B","wings":"X","pattern":"X","legs":"F"},"bonus":0.9400000000000007},{"rt":1366.7999999970198,"stimulus":"bees-with-color/bee-B1SF.svg","response":1,"trial_type":"image-button-response","trial_index":71,"time_elapsed":610660,"internal_node_id":"0.0-4.0-0.30","subject_id":"613ebfd5056e5b82128e2d3c","study_id":"6197b3f67c2b5cd3b6d9596a","session_id":"6197b570f64b32a151fc49e7","condition":"full-information","relevant_dimensions":["antennae","legs"],"bee_group":{"antennae":"B","wings":"X","pattern":"X","legs":"F"},"action":"avoid","summary":"good-avoid","bonus":0.9400000000000007},{"rt":1351.1000000089407,"stimulus":"\n                    <p><b>Action: <em>avoid</em></b></p>\n                    <p>This is the bee that you just saw.</p>\n                    <img src=\"bees-with-color/bee-B1SF.svg\" width=\"200\">\n                    <p><span class=\"greenText\">Good choice!</span>  This bee would have stung you.<br>Your bonus pay is unchanged, and remains at $0.58.</p>\n            ","response":0,"trial_type":"html-button-response","trial_index":72,"time_elapsed":612016,"internal_node_id":"0.0-4.0-1.30","subject_id":"613ebfd5056e5b82128e2d3c","study_id":"6197b3f67c2b5cd3b6d9596a","session_id":"6197b570f64b32a151fc49e7","condition":"full-information","relevant_dimensions":["antennae","legs"],"bee_group":{"antennae":"B","wings":"X","pattern":"X","legs":"F"},"bonus":0.9400000000000007},{"rt":2784,"stimulus":"bees-with-color/bee-A1SM.svg","response":0,"trial_type":"image-button-response","trial_index":73,"time_elapsed":614805,"internal_node_id":"0.0-4.0-0.31","subject_id":"613ebfd5056e5b82128e2d3c","study_id":"6197b3f67c2b5cd3b6d9596a","session_id":"6197b570f64b32a151fc49e7","condition":"full-information","relevant_dimensions":["antennae","legs"],"bee_group":{"antennae":"B","wings":"X","pattern":"X","legs":"F"},"action":"harvest","summary":"good-harvest","bonus":0.9400000000000007},{"rt":1201.7000000029802,"stimulus":"\n                    <p><b>Action: <em>harvest</em></b></p>\n                    <p>This is the bee that you just saw.</p>\n                    <img src=\"bees-with-color/bee-A1SM.svg\" width=\"200\">\n                    <p><span class=\"greenText\"><b>Successful harvest!</b></span><br>Your pay has increased by $0.02. Your bonus pay is now $0.60.</p>\n            ","response":0,"trial_type":"html-button-response","trial_index":74,"time_elapsed":616013,"internal_node_id":"0.0-4.0-1.31","subject_id":"613ebfd5056e5b82128e2d3c","study_id":"6197b3f67c2b5cd3b6d9596a","session_id":"6197b570f64b32a151fc49e7","condition":"full-information","relevant_dimensions":["antennae","legs"],"bee_group":{"antennae":"B","wings":"X","pattern":"X","legs":"F"},"bonus":0.9400000000000007},{"rt":9047.70000000298,"stimulus":"bees-with-color/bee-A2DM.svg","response":1,"trial_type":"image-button-response","trial_index":75,"time_elapsed":625066,"internal_node_id":"0.0-4.0-0.32","subject_id":"613ebfd5056e5b82128e2d3c","study_id":"6197b3f67c2b5cd3b6d9596a","session_id":"6197b570f64b32a151fc49e7","condition":"full-information","relevant_dimensions":["antennae","legs"],"bee_group":{"antennae":"B","wings":"X","pattern":"X","legs":"F"},"action":"avoid","summary":"bad-avoid","bonus":0.9400000000000007},{"rt":1254.7000000029802,"stimulus":"\n                    <p><b>Action: <em>avoid</em></b></p>\n                    <p>This is the bee that you just saw.</p>\n                    <img src=\"bees-with-color/bee-A2DM.svg\" width=\"200\">\n                    <p><span class=\"redText\">Bad choice,</span> the bee was friendly.<br>Your bonus pay is unchanged, and remains at $0.60.</p>\n            ","response":0,"trial_type":"html-button-response","trial_index":76,"time_elapsed":626325,"internal_node_id":"0.0-4.0-1.32","subject_id":"613ebfd5056e5b82128e2d3c","study_id":"6197b3f67c2b5cd3b6d9596a","session_id":"6197b570f64b32a151fc49e7","condition":"full-information","relevant_dimensions":["antennae","legs"],"bee_group":{"antennae":"B","wings":"X","pattern":"X","legs":"F"},"bonus":0.9400000000000007},{"rt":4402.5999999940395,"stimulus":"bees-with-color/bee-A2SF.svg","response":1,"trial_type":"image-button-response","trial_index":77,"time_elapsed":630732,"internal_node_id":"0.0-4.0-0.33","subject_id":"613ebfd5056e5b82128e2d3c","study_id":"6197b3f67c2b5cd3b6d9596a","session_id":"6197b570f64b32a151fc49e7","condition":"full-information","relevant_dimensions":["antennae","legs"],"bee_group":{"antennae":"B","wings":"X","pattern":"X","legs":"F"},"action":"avoid","summary":"bad-avoid","bonus":0.9400000000000007},{"rt":2055.2999999970198,"stimulus":"\n                    <p><b>Action: <em>avoid</em></b></p>\n                    <p>This is the bee that you just saw.</p>\n                    <img src=\"bees-with-color/bee-A2SF.svg\" width=\"200\">\n                    <p><span class=\"redText\">Bad choice,</span> the bee was friendly.<br>Your bonus pay is unchanged, and remains at $0.60.</p>\n            ","response":0,"trial_type":"html-button-response","trial_index":78,"time_elapsed":632791,"internal_node_id":"0.0-4.0-1.33","subject_id":"613ebfd5056e5b82128e2d3c","study_id":"6197b3f67c2b5cd3b6d9596a","session_id":"6197b570f64b32a151fc49e7","condition":"full-information","relevant_dimensions":["antennae","legs"],"bee_group":{"antennae":"B","wings":"X","pattern":"X","legs":"F"},"bonus":0.9400000000000007},{"rt":2051.9000000059605,"stimulus":"bees-with-color/bee-B1SF.svg","response":1,"trial_type":"image-button-response","trial_index":79,"time_elapsed":634849,"internal_node_id":"0.0-4.0-0.34","subject_id":"613ebfd5056e5b82128e2d3c","study_id":"6197b3f67c2b5cd3b6d9596a","session_id":"6197b570f64b32a151fc49e7","condition":"full-information","relevant_dimensions":["antennae","legs"],"bee_group":{"antennae":"B","wings":"X","pattern":"X","legs":"F"},"action":"avoid","summary":"good-avoid","bonus":0.9400000000000007},{"rt":2031.3999999910593,"stimulus":"\n                    <p><b>Action: <em>avoid</em></b></p>\n                    <p>This is the bee that you just saw.</p>\n                    <img src=\"bees-with-color/bee-B1SF.svg\" width=\"200\">\n                    <p><span class=\"greenText\">Good choice!</span>  This bee would have stung you.<br>Your bonus pay is unchanged, and remains at $0.60.</p>\n            ","response":0,"trial_type":"html-button-response","trial_index":80,"time_elapsed":636884,"internal_node_id":"0.0-4.0-1.34","subject_id":"613ebfd5056e5b82128e2d3c","study_id":"6197b3f67c2b5cd3b6d9596a","session_id":"6197b570f64b32a151fc49e7","condition":"full-information","relevant_dimensions":["antennae","legs"],"bee_group":{"antennae":"B","wings":"X","pattern":"X","legs":"F"},"bonus":0.9400000000000007},{"rt":1673.0999999940395,"stimulus":"bees-with-color/bee-B2DM.svg","response":1,"trial_type":"image-button-response","trial_index":81,"time_elapsed":638563,"internal_node_id":"0.0-4.0-0.35","subject_id":"613ebfd5056e5b82128e2d3c","study_id":"6197b3f67c2b5cd3b6d9596a","session_id":"6197b570f64b32a151fc49e7","condition":"full-information","relevant_dimensions":["antennae","legs"],"bee_group":{"antennae":"B","wings":"X","pattern":"X","legs":"F"},"action":"avoid","summary":"bad-avoid","bonus":0.9400000000000007},{"rt":1087.1000000089407,"stimulus":"\n                    <p><b>Action: <em>avoid</em></b></p>\n                    <p>This is the bee that you just saw.</p>\n                    <img src=\"bees-with-color/bee-B2DM.svg\" width=\"200\">\n                    <p><span class=\"redText\">Bad choice,</span> the bee was friendly.<br>Your bonus pay is unchanged, and remains at $0.60.</p>\n            ","response":0,"trial_type":"html-button-response","trial_index":82,"time_elapsed":639655,"internal_node_id":"0.0-4.0-1.35","subject_id":"613ebfd5056e5b82128e2d3c","study_id":"6197b3f67c2b5cd3b6d9596a","session_id":"6197b570f64b32a151fc49e7","condition":"full-information","relevant_dimensions":["antennae","legs"],"bee_group":{"antennae":"B","wings":"X","pattern":"X","legs":"F"},"bonus":0.9400000000000007},{"rt":5984.29999999702,"stimulus":"bees-with-color/bee-B1SM.svg","response":0,"trial_type":"image-button-response","trial_index":83,"time_elapsed":645643,"internal_node_id":"0.0-4.0-0.36","subject_id":"613ebfd5056e5b82128e2d3c","study_id":"6197b3f67c2b5cd3b6d9596a","session_id":"6197b570f64b32a151fc49e7","condition":"full-information","relevant_dimensions":["antennae","legs"],"bee_group":{"antennae":"B","wings":"X","pattern":"X","legs":"F"},"action":"harvest","summary":"good-harvest","bonus":0.9400000000000007},{"rt":1193.9000000059605,"stimulus":"\n                    <p><b>Action: <em>harvest</em></b></p>\n                    <p>This is the bee that you just saw.</p>\n                    <img src=\"bees-with-color/bee-B1SM.svg\" width=\"200\">\n                    <p><span class=\"greenText\"><b>Successful harvest!</b></span><br>Your pay has increased by $0.02. Your bonus pay is now $0.62.</p>\n            ","response":0,"trial_type":"html-button-response","trial_index":84,"time_elapsed":646843,"internal_node_id":"0.0-4.0-1.36","subject_id":"613ebfd5056e5b82128e2d3c","study_id":"6197b3f67c2b5cd3b6d9596a","session_id":"6197b570f64b32a151fc49e7","condition":"full-information","relevant_dimensions":["antennae","legs"],"bee_group":{"antennae":"B","wings":"X","pattern":"X","legs":"F"},"bonus":0.9400000000000007},{"rt":3598,"stimulus":"bees-with-color/bee-A1SM.svg","response":0,"trial_type":"image-button-response","trial_index":85,"time_elapsed":650446,"internal_node_id":"0.0-4.0-0.37","subject_id":"613ebfd5056e5b82128e2d3c","study_id":"6197b3f67c2b5cd3b6d9596a","session_id":"6197b570f64b32a151fc49e7","condition":"full-information","relevant_dimensions":["antennae","legs"],"bee_group":{"antennae":"B","wings":"X","pattern":"X","legs":"F"},"action":"harvest","summary":"good-harvest","bonus":0.9400000000000007},{"rt":1666.5999999940395,"stimulus":"\n                    <p><b>Action: <em>harvest</em></b></p>\n                    <p>This is the bee that you just saw.</p>\n                    <img src=\"bees-with-color/bee-A1SM.svg\" width=\"200\">\n                    <p><span class=\"greenText\"><b>Successful harvest!</b></span><br>Your pay has increased by $0.02. Your bonus pay is now $0.64.</p>\n            ","response":0,"trial_type":"html-button-response","trial_index":86,"time_elapsed":652117,"internal_node_id":"0.0-4.0-1.37","subject_id":"613ebfd5056e5b82128e2d3c","study_id":"6197b3f67c2b5cd3b6d9596a","session_id":"6197b570f64b32a151fc49e7","condition":"full-information","relevant_dimensions":["antennae","legs"],"bee_group":{"antennae":"B","wings":"X","pattern":"X","legs":"F"},"bonus":0.9400000000000007},{"rt":8958.60000000894,"stimulus":"bees-with-color/bee-A1DF.svg","response":0,"trial_type":"image-button-response","trial_index":87,"time_elapsed":661080,"internal_node_id":"0.0-4.0-0.38","subject_id":"613ebfd5056e5b82128e2d3c","study_id":"6197b3f67c2b5cd3b6d9596a","session_id":"6197b570f64b32a151fc49e7","condition":"full-information","relevant_dimensions":["antennae","legs"],"bee_group":{"antennae":"B","wings":"X","pattern":"X","legs":"F"},"action":"harvest","summary":"good-harvest","bonus":0.9400000000000007},{"rt":2264.300000011921,"stimulus":"\n                    <p><b>Action: <em>harvest</em></b></p>\n                    <p>This is the bee that you just saw.</p>\n                    <img src=\"bees-with-color/bee-A1DF.svg\" width=\"200\">\n                    <p><span class=\"greenText\"><b>Successful harvest!</b></span><br>Your pay has increased by $0.02. Your bonus pay is now $0.66.</p>\n            ","response":0,"trial_type":"html-button-response","trial_index":88,"time_elapsed":663348,"internal_node_id":"0.0-4.0-1.38","subject_id":"613ebfd5056e5b82128e2d3c","study_id":"6197b3f67c2b5cd3b6d9596a","session_id":"6197b570f64b32a151fc49e7","condition":"full-information","relevant_dimensions":["antennae","legs"],"bee_group":{"antennae":"B","wings":"X","pattern":"X","legs":"F"},"bonus":0.9400000000000007},{"rt":7361.5,"stimulus":"bees-with-color/bee-B2SF.svg","response":1,"trial_type":"image-button-response","trial_index":89,"time_elapsed":670714,"internal_node_id":"0.0-4.0-0.39","subject_id":"613ebfd5056e5b82128e2d3c","study_id":"6197b3f67c2b5cd3b6d9596a","session_id":"6197b570f64b32a151fc49e7","condition":"full-information","relevant_dimensions":["antennae","legs"],"bee_group":{"antennae":"B","wings":"X","pattern":"X","legs":"F"},"action":"avoid","summary":"good-avoid","bonus":0.9400000000000007},{"rt":1649.4000000059605,"stimulus":"\n                    <p><b>Action: <em>avoid</em></b></p>\n                    <p>This is the bee that you just saw.</p>\n                    <img src=\"bees-with-color/bee-B2SF.svg\" width=\"200\">\n                    <p><span class=\"greenText\">Good choice!</span>  This bee would have stung you.<br>Your bonus pay is unchanged, and remains at $0.66.</p>\n            ","response":0,"trial_type":"html-button-response","trial_index":90,"time_elapsed":672368,"internal_node_id":"0.0-4.0-1.39","subject_id":"613ebfd5056e5b82128e2d3c","study_id":"6197b3f67c2b5cd3b6d9596a","session_id":"6197b570f64b32a151fc49e7","condition":"full-information","relevant_dimensions":["antennae","legs"],"bee_group":{"antennae":"B","wings":"X","pattern":"X","legs":"F"},"bonus":0.9400000000000007},{"rt":4447.5,"stimulus":"bees-with-color/bee-A1SF.svg","response":0,"trial_type":"image-button-response","trial_index":91,"time_elapsed":676821,"internal_node_id":"0.0-4.0-0.40","subject_id":"613ebfd5056e5b82128e2d3c","study_id":"6197b3f67c2b5cd3b6d9596a","session_id":"6197b570f64b32a151fc49e7","condition":"full-information","relevant_dimensions":["antennae","legs"],"bee_group":{"antennae":"B","wings":"X","pattern":"X","legs":"F"},"action":"harvest","summary":"good-harvest","bonus":0.9400000000000007},{"rt":1488.2000000029802,"stimulus":"\n                    <p><b>Action: <em>harvest</em></b></p>\n                    <p>This is the bee that you just saw.</p>\n                    <img src=\"bees-with-color/bee-A1SF.svg\" width=\"200\">\n                    <p><span class=\"greenText\"><b>Successful harvest!</b></span><br>Your pay has increased by $0.02. Your bonus pay is now $0.68.</p>\n            ","response":0,"trial_type":"html-button-response","trial_index":92,"time_elapsed":678314,"internal_node_id":"0.0-4.0-1.40","subject_id":"613ebfd5056e5b82128e2d3c","study_id":"6197b3f67c2b5cd3b6d9596a","session_id":"6197b570f64b32a151fc49e7","condition":"full-information","relevant_dimensions":["antennae","legs"],"bee_group":{"antennae":"B","wings":"X","pattern":"X","legs":"F"},"bonus":0.9400000000000007},{"rt":11390.40000000596,"stimulus":"bees-with-color/bee-B2DF.svg","response":1,"trial_type":"image-button-response","trial_index":93,"time_elapsed":689708,"internal_node_id":"0.0-4.0-0.41","subject_id":"613ebfd5056e5b82128e2d3c","study_id":"6197b3f67c2b5cd3b6d9596a","session_id":"6197b570f64b32a151fc49e7","condition":"full-information","relevant_dimensions":["antennae","legs"],"bee_group":{"antennae":"B","wings":"X","pattern":"X","legs":"F"},"action":"avoid","summary":"good-avoid","bonus":0.9400000000000007},{"rt":1361.5,"stimulus":"\n                    <p><b>Action: <em>avoid</em></b></p>\n                    <p>This is the bee that you just saw.</p>\n                    <img src=\"bees-with-color/bee-B2DF.svg\" width=\"200\">\n                    <p><span class=\"greenText\">Good choice!</span>  This bee would have stung you.<br>Your bonus pay is unchanged, and remains at $0.68.</p>\n            ","response":0,"trial_type":"html-button-response","trial_index":94,"time_elapsed":691073,"internal_node_id":"0.0-4.0-1.41","subject_id":"613ebfd5056e5b82128e2d3c","study_id":"6197b3f67c2b5cd3b6d9596a","session_id":"6197b570f64b32a151fc49e7","condition":"full-information","relevant_dimensions":["antennae","legs"],"bee_group":{"antennae":"B","wings":"X","pattern":"X","legs":"F"},"bonus":0.9400000000000007},{"rt":2821,"stimulus":"bees-with-color/bee-A2DF.svg","response":1,"trial_type":"image-button-response","trial_index":95,"time_elapsed":693899,"internal_node_id":"0.0-4.0-0.42","subject_id":"613ebfd5056e5b82128e2d3c","study_id":"6197b3f67c2b5cd3b6d9596a","session_id":"6197b570f64b32a151fc49e7","condition":"full-information","relevant_dimensions":["antennae","legs"],"bee_group":{"antennae":"B","wings":"X","pattern":"X","legs":"F"},"action":"avoid","summary":"bad-avoid","bonus":0.9400000000000007},{"rt":1366.0999999940395,"stimulus":"\n                    <p><b>Action: <em>avoid</em></b></p>\n                    <p>This is the bee that you just saw.</p>\n                    <img src=\"bees-with-color/bee-A2DF.svg\" width=\"200\">\n                    <p><span class=\"redText\">Bad choice,</span> the bee was friendly.<br>Your bonus pay is unchanged, and remains at $0.68.</p>\n            ","response":0,"trial_type":"html-button-response","trial_index":96,"time_elapsed":695268,"internal_node_id":"0.0-4.0-1.42","subject_id":"613ebfd5056e5b82128e2d3c","study_id":"6197b3f67c2b5cd3b6d9596a","session_id":"6197b570f64b32a151fc49e7","condition":"full-information","relevant_dimensions":["antennae","legs"],"bee_group":{"antennae":"B","wings":"X","pattern":"X","legs":"F"},"bonus":0.9400000000000007},{"rt":9590,"stimulus":"bees-with-color/bee-A1DM.svg","response":0,"trial_type":"image-button-response","trial_index":97,"time_elapsed":704863,"internal_node_id":"0.0-4.0-0.43","subject_id":"613ebfd5056e5b82128e2d3c","study_id":"6197b3f67c2b5cd3b6d9596a","session_id":"6197b570f64b32a151fc49e7","condition":"full-information","relevant_dimensions":["antennae","legs"],"bee_group":{"antennae":"B","wings":"X","pattern":"X","legs":"F"},"action":"harvest","summary":"good-harvest","bonus":0.9400000000000007},{"rt":1240.9000000059605,"stimulus":"\n                    <p><b>Action: <em>harvest</em></b></p>\n                    <p>This is the bee that you just saw.</p>\n                    <img src=\"bees-with-color/bee-A1DM.svg\" width=\"200\">\n                    <p><span class=\"greenText\"><b>Successful harvest!</b></span><br>Your pay has increased by $0.02. Your bonus pay is now $0.70.</p>\n            ","response":0,"trial_type":"html-button-response","trial_index":98,"time_elapsed":706107,"internal_node_id":"0.0-4.0-1.43","subject_id":"613ebfd5056e5b82128e2d3c","study_id":"6197b3f67c2b5cd3b6d9596a","session_id":"6197b570f64b32a151fc49e7","condition":"full-information","relevant_dimensions":["antennae","legs"],"bee_group":{"antennae":"B","wings":"X","pattern":"X","legs":"F"},"bonus":0.9400000000000007},{"rt":6202.4000000059605,"stimulus":"bees-with-color/bee-B2SM.svg","response":1,"trial_type":"image-button-response","trial_index":99,"time_elapsed":712314,"internal_node_id":"0.0-4.0-0.44","subject_id":"613ebfd5056e5b82128e2d3c","study_id":"6197b3f67c2b5cd3b6d9596a","session_id":"6197b570f64b32a151fc49e7","condition":"full-information","relevant_dimensions":["antennae","legs"],"bee_group":{"antennae":"B","wings":"X","pattern":"X","legs":"F"},"action":"avoid","summary":"bad-avoid","bonus":0.9400000000000007},{"rt":1258.5999999940395,"stimulus":"\n                    <p><b>Action: <em>avoid</em></b></p>\n                    <p>This is the bee that you just saw.</p>\n                    <img src=\"bees-with-color/bee-B2SM.svg\" width=\"200\">\n                    <p><span class=\"redText\">Bad choice,</span> the bee was friendly.<br>Your bonus pay is unchanged, and remains at $0.70.</p>\n            ","response":0,"trial_type":"html-button-response","trial_index":100,"time_elapsed":713576,"internal_node_id":"0.0-4.0-1.44","subject_id":"613ebfd5056e5b82128e2d3c","study_id":"6197b3f67c2b5cd3b6d9596a","session_id":"6197b570f64b32a151fc49e7","condition":"full-information","relevant_dimensions":["antennae","legs"],"bee_group":{"antennae":"B","wings":"X","pattern":"X","legs":"F"},"bonus":0.9400000000000007},{"rt":3004.7999999970198,"stimulus":"bees-with-color/bee-A2SM.svg","response":0,"trial_type":"image-button-response","trial_index":101,"time_elapsed":716587,"internal_node_id":"0.0-4.0-0.45","subject_id":"613ebfd5056e5b82128e2d3c","study_id":"6197b3f67c2b5cd3b6d9596a","session_id":"6197b570f64b32a151fc49e7","condition":"full-information","relevant_dimensions":["antennae","legs"],"bee_group":{"antennae":"B","wings":"X","pattern":"X","legs":"F"},"action":"harvest","summary":"good-harvest","bonus":0.9400000000000007},{"rt":1380.4000000059605,"stimulus":"\n                    <p><b>Action: <em>harvest</em></b></p>\n                    <p>This is the bee that you just saw.</p>\n                    <img src=\"bees-with-color/bee-A2SM.svg\" width=\"200\">\n                    <p><span class=\"greenText\"><b>Successful harvest!</b></span><br>Your pay has increased by $0.02. Your bonus pay is now $0.72.</p>\n            ","response":0,"trial_type":"html-button-response","trial_index":102,"time_elapsed":717973,"internal_node_id":"0.0-4.0-1.45","subject_id":"613ebfd5056e5b82128e2d3c","study_id":"6197b3f67c2b5cd3b6d9596a","session_id":"6197b570f64b32a151fc49e7","condition":"full-information","relevant_dimensions":["antennae","legs"],"bee_group":{"antennae":"B","wings":"X","pattern":"X","legs":"F"},"bonus":0.9400000000000007},{"rt":1896.2999999970198,"stimulus":"bees-with-color/bee-B1DF.svg","response":1,"trial_type":"image-button-response","trial_index":103,"time_elapsed":719875,"internal_node_id":"0.0-4.0-0.46","subject_id":"613ebfd5056e5b82128e2d3c","study_id":"6197b3f67c2b5cd3b6d9596a","session_id":"6197b570f64b32a151fc49e7","condition":"full-information","relevant_dimensions":["antennae","legs"],"bee_group":{"antennae":"B","wings":"X","pattern":"X","legs":"F"},"action":"avoid","summary":"good-avoid","bonus":0.9400000000000007},{"rt":1444,"stimulus":"\n                    <p><b>Action: <em>avoid</em></b></p>\n                    <p>This is the bee that you just saw.</p>\n                    <img src=\"bees-with-color/bee-B1DF.svg\" width=\"200\">\n                    <p><span class=\"greenText\">Good choice!</span>  This bee would have stung you.<br>Your bonus pay is unchanged, and remains at $0.72.</p>\n            ","response":0,"trial_type":"html-button-response","trial_index":104,"time_elapsed":721323,"internal_node_id":"0.0-4.0-1.46","subject_id":"613ebfd5056e5b82128e2d3c","study_id":"6197b3f67c2b5cd3b6d9596a","session_id":"6197b570f64b32a151fc49e7","condition":"full-information","relevant_dimensions":["antennae","legs"],"bee_group":{"antennae":"B","wings":"X","pattern":"X","legs":"F"},"bonus":0.9400000000000007},{"rt":2270.0999999940395,"stimulus":"bees-with-color/bee-B1DM.svg","response":1,"trial_type":"image-button-response","trial_index":105,"time_elapsed":723598,"internal_node_id":"0.0-4.0-0.47","subject_id":"613ebfd5056e5b82128e2d3c","study_id":"6197b3f67c2b5cd3b6d9596a","session_id":"6197b570f64b32a151fc49e7","condition":"full-information","relevant_dimensions":["antennae","legs"],"bee_group":{"antennae":"B","wings":"X","pattern":"X","legs":"F"},"action":"avoid","summary":"bad-avoid","bonus":0.9400000000000007},{"rt":1350.5999999940395,"stimulus":"\n                    <p><b>Action: <em>avoid</em></b></p>\n                    <p>This is the bee that you just saw.</p>\n                    <img src=\"bees-with-color/bee-B1DM.svg\" width=\"200\">\n                    <p><span class=\"redText\">Bad choice,</span> the bee was friendly.<br>Your bonus pay is unchanged, and remains at $0.72.</p>\n            ","response":0,"trial_type":"html-button-response","trial_index":106,"time_elapsed":724954,"internal_node_id":"0.0-4.0-1.47","subject_id":"613ebfd5056e5b82128e2d3c","study_id":"6197b3f67c2b5cd3b6d9596a","session_id":"6197b570f64b32a151fc49e7","condition":"full-information","relevant_dimensions":["antennae","legs"],"bee_group":{"antennae":"B","wings":"X","pattern":"X","legs":"F"},"bonus":0.9400000000000007},{"rt":4963,"stimulus":"bees-with-color/bee-A2SM.svg","response":0,"trial_type":"image-button-response","trial_index":107,"time_elapsed":729922,"internal_node_id":"0.0-4.0-0.48","subject_id":"613ebfd5056e5b82128e2d3c","study_id":"6197b3f67c2b5cd3b6d9596a","session_id":"6197b570f64b32a151fc49e7","condition":"full-information","relevant_dimensions":["antennae","legs"],"bee_group":{"antennae":"B","wings":"X","pattern":"X","legs":"F"},"action":"harvest","summary":"good-harvest","bonus":0.9400000000000007},{"rt":2366.4000000059605,"stimulus":"\n                    <p><b>Action: <em>harvest</em></b></p>\n                    <p>This is the bee that you just saw.</p>\n                    <img src=\"bees-with-color/bee-A2SM.svg\" width=\"200\">\n                    <p><span class=\"greenText\"><b>Successful harvest!</b></span><br>Your pay has increased by $0.02. Your bonus pay is now $0.74.</p>\n            ","response":0,"trial_type":"html-button-response","trial_index":108,"time_elapsed":732293,"internal_node_id":"0.0-4.0-1.48","subject_id":"613ebfd5056e5b82128e2d3c","study_id":"6197b3f67c2b5cd3b6d9596a","session_id":"6197b570f64b32a151fc49e7","condition":"full-information","relevant_dimensions":["antennae","legs"],"bee_group":{"antennae":"B","wings":"X","pattern":"X","legs":"F"},"bonus":0.9400000000000007},{"rt":3111.800000011921,"stimulus":"bees-with-color/bee-B2SF.svg","response":1,"trial_type":"image-button-response","trial_index":109,"time_elapsed":735409,"internal_node_id":"0.0-4.0-0.49","subject_id":"613ebfd5056e5b82128e2d3c","study_id":"6197b3f67c2b5cd3b6d9596a","session_id":"6197b570f64b32a151fc49e7","condition":"full-information","relevant_dimensions":["antennae","legs"],"bee_group":{"antennae":"B","wings":"X","pattern":"X","legs":"F"},"action":"avoid","summary":"good-avoid","bonus":0.9400000000000007},{"rt":1827.2000000029802,"stimulus":"\n                    <p><b>Action: <em>avoid</em></b></p>\n                    <p>This is the bee that you just saw.</p>\n                    <img src=\"bees-with-color/bee-B2SF.svg\" width=\"200\">\n                    <p><span class=\"greenText\">Good choice!</span>  This bee would have stung you.<br>Your bonus pay is unchanged, and remains at $0.74.</p>\n            ","response":0,"trial_type":"html-button-response","trial_index":110,"time_elapsed":737243,"internal_node_id":"0.0-4.0-1.49","subject_id":"613ebfd5056e5b82128e2d3c","study_id":"6197b3f67c2b5cd3b6d9596a","session_id":"6197b570f64b32a151fc49e7","condition":"full-information","relevant_dimensions":["antennae","legs"],"bee_group":{"antennae":"B","wings":"X","pattern":"X","legs":"F"},"bonus":0.9400000000000007},{"rt":5022.199999988079,"stimulus":"bees-with-color/bee-B2SM.svg","response":1,"trial_type":"image-button-response","trial_index":111,"time_elapsed":742270,"internal_node_id":"0.0-4.0-0.50","subject_id":"613ebfd5056e5b82128e2d3c","study_id":"6197b3f67c2b5cd3b6d9596a","session_id":"6197b570f64b32a151fc49e7","condition":"full-information","relevant_dimensions":["antennae","legs"],"bee_group":{"antennae":"B","wings":"X","pattern":"X","legs":"F"},"action":"avoid","summary":"bad-avoid","bonus":0.9400000000000007},{"rt":1210.4000000059605,"stimulus":"\n                    <p><b>Action: <em>avoid</em></b></p>\n                    <p>This is the bee that you just saw.</p>\n                    <img src=\"bees-with-color/bee-B2SM.svg\" width=\"200\">\n                    <p><span class=\"redText\">Bad choice,</span> the bee was friendly.<br>Your bonus pay is unchanged, and remains at $0.74.</p>\n            ","response":0,"trial_type":"html-button-response","trial_index":112,"time_elapsed":743485,"internal_node_id":"0.0-4.0-1.50","subject_id":"613ebfd5056e5b82128e2d3c","study_id":"6197b3f67c2b5cd3b6d9596a","session_id":"6197b570f64b32a151fc49e7","condition":"full-information","relevant_dimensions":["antennae","legs"],"bee_group":{"antennae":"B","wings":"X","pattern":"X","legs":"F"},"bonus":0.9400000000000007},{"rt":4772.79999999702,"stimulus":"bees-with-color/bee-A1DF.svg","response":0,"trial_type":"image-button-response","trial_index":113,"time_elapsed":748263,"internal_node_id":"0.0-4.0-0.51","subject_id":"613ebfd5056e5b82128e2d3c","study_id":"6197b3f67c2b5cd3b6d9596a","session_id":"6197b570f64b32a151fc49e7","condition":"full-information","relevant_dimensions":["antennae","legs"],"bee_group":{"antennae":"B","wings":"X","pattern":"X","legs":"F"},"action":"harvest","summary":"good-harvest","bonus":0.9400000000000007},{"rt":1131.4000000059605,"stimulus":"\n                    <p><b>Action: <em>harvest</em></b></p>\n                    <p>This is the bee that you just saw.</p>\n                    <img src=\"bees-with-color/bee-A1DF.svg\" width=\"200\">\n                    <p><span class=\"greenText\"><b>Successful harvest!</b></span><br>Your pay has increased by $0.02. Your bonus pay is now $0.76.</p>\n            ","response":0,"trial_type":"html-button-response","trial_index":114,"time_elapsed":749398,"internal_node_id":"0.0-4.0-1.51","subject_id":"613ebfd5056e5b82128e2d3c","study_id":"6197b3f67c2b5cd3b6d9596a","session_id":"6197b570f64b32a151fc49e7","condition":"full-information","relevant_dimensions":["antennae","legs"],"bee_group":{"antennae":"B","wings":"X","pattern":"X","legs":"F"},"bonus":0.9400000000000007},{"rt":1601.0999999940395,"stimulus":"bees-with-color/bee-B1DM.svg","response":1,"trial_type":"image-button-response","trial_index":115,"time_elapsed":751004,"internal_node_id":"0.0-4.0-0.52","subject_id":"613ebfd5056e5b82128e2d3c","study_id":"6197b3f67c2b5cd3b6d9596a","session_id":"6197b570f64b32a151fc49e7","condition":"full-information","relevant_dimensions":["antennae","legs"],"bee_group":{"antennae":"B","wings":"X","pattern":"X","legs":"F"},"action":"avoid","summary":"bad-avoid","bonus":0.9400000000000007},{"rt":1332.7000000029802,"stimulus":"\n                    <p><b>Action: <em>avoid</em></b></p>\n                    <p>This is the bee that you just saw.</p>\n                    <img src=\"bees-with-color/bee-B1DM.svg\" width=\"200\">\n                    <p><span class=\"redText\">Bad choice,</span> the bee was friendly.<br>Your bonus pay is unchanged, and remains at $0.76.</p>\n            ","response":0,"trial_type":"html-button-response","trial_index":116,"time_elapsed":752342,"internal_node_id":"0.0-4.0-1.52","subject_id":"613ebfd5056e5b82128e2d3c","study_id":"6197b3f67c2b5cd3b6d9596a","session_id":"6197b570f64b32a151fc49e7","condition":"full-information","relevant_dimensions":["antennae","legs"],"bee_group":{"antennae":"B","wings":"X","pattern":"X","legs":"F"},"bonus":0.9400000000000007},{"rt":4791.5,"stimulus":"bees-with-color/bee-A1SM.svg","response":0,"trial_type":"image-button-response","trial_index":117,"time_elapsed":757138,"internal_node_id":"0.0-4.0-0.53","subject_id":"613ebfd5056e5b82128e2d3c","study_id":"6197b3f67c2b5cd3b6d9596a","session_id":"6197b570f64b32a151fc49e7","condition":"full-information","relevant_dimensions":["antennae","legs"],"bee_group":{"antennae":"B","wings":"X","pattern":"X","legs":"F"},"action":"harvest","summary":"good-harvest","bonus":0.9400000000000007},{"rt":1273.2999999970198,"stimulus":"\n                    <p><b>Action: <em>harvest</em></b></p>\n                    <p>This is the bee that you just saw.</p>\n                    <img src=\"bees-with-color/bee-A1SM.svg\" width=\"200\">\n                    <p><span class=\"greenText\"><b>Successful harvest!</b></span><br>Your pay has increased by $0.02. Your bonus pay is now $0.78.</p>\n            ","response":0,"trial_type":"html-button-response","trial_index":118,"time_elapsed":758417,"internal_node_id":"0.0-4.0-1.53","subject_id":"613ebfd5056e5b82128e2d3c","study_id":"6197b3f67c2b5cd3b6d9596a","session_id":"6197b570f64b32a151fc49e7","condition":"full-information","relevant_dimensions":["antennae","legs"],"bee_group":{"antennae":"B","wings":"X","pattern":"X","legs":"F"},"bonus":0.9400000000000007},{"rt":7352.0999999940395,"stimulus":"bees-with-color/bee-B1SF.svg","response":1,"trial_type":"image-button-response","trial_index":119,"time_elapsed":765774,"internal_node_id":"0.0-4.0-0.54","subject_id":"613ebfd5056e5b82128e2d3c","study_id":"6197b3f67c2b5cd3b6d9596a","session_id":"6197b570f64b32a151fc49e7","condition":"full-information","relevant_dimensions":["antennae","legs"],"bee_group":{"antennae":"B","wings":"X","pattern":"X","legs":"F"},"action":"avoid","summary":"good-avoid","bonus":0.9400000000000007},{"rt":1939.7999999970198,"stimulus":"\n                    <p><b>Action: <em>avoid</em></b></p>\n                    <p>This is the bee that you just saw.</p>\n                    <img src=\"bees-with-color/bee-B1SF.svg\" width=\"200\">\n                    <p><span class=\"greenText\">Good choice!</span>  This bee would have stung you.<br>Your bonus pay is unchanged, and remains at $0.78.</p>\n            ","response":0,"trial_type":"html-button-response","trial_index":120,"time_elapsed":767719,"internal_node_id":"0.0-4.0-1.54","subject_id":"613ebfd5056e5b82128e2d3c","study_id":"6197b3f67c2b5cd3b6d9596a","session_id":"6197b570f64b32a151fc49e7","condition":"full-information","relevant_dimensions":["antennae","legs"],"bee_group":{"antennae":"B","wings":"X","pattern":"X","legs":"F"},"bonus":0.9400000000000007},{"rt":3011.4000000059605,"stimulus":"bees-with-color/bee-B1SM.svg","response":1,"trial_type":"image-button-response","trial_index":121,"time_elapsed":770736,"internal_node_id":"0.0-4.0-0.55","subject_id":"613ebfd5056e5b82128e2d3c","study_id":"6197b3f67c2b5cd3b6d9596a","session_id":"6197b570f64b32a151fc49e7","condition":"full-information","relevant_dimensions":["antennae","legs"],"bee_group":{"antennae":"B","wings":"X","pattern":"X","legs":"F"},"action":"avoid","summary":"bad-avoid","bonus":0.9400000000000007},{"rt":1753.7000000029802,"stimulus":"\n                    <p><b>Action: <em>avoid</em></b></p>\n                    <p>This is the bee that you just saw.</p>\n                    <img src=\"bees-with-color/bee-B1SM.svg\" width=\"200\">\n                    <p><span class=\"redText\">Bad choice,</span> the bee was friendly.<br>Your bonus pay is unchanged, and remains at $0.78.</p>\n            ","response":0,"trial_type":"html-button-response","trial_index":122,"time_elapsed":772494,"internal_node_id":"0.0-4.0-1.55","subject_id":"613ebfd5056e5b82128e2d3c","study_id":"6197b3f67c2b5cd3b6d9596a","session_id":"6197b570f64b32a151fc49e7","condition":"full-information","relevant_dimensions":["antennae","legs"],"bee_group":{"antennae":"B","wings":"X","pattern":"X","legs":"F"},"bonus":0.9400000000000007},{"rt":6462.4000000059605,"stimulus":"bees-with-color/bee-A1DM.svg","response":0,"trial_type":"image-button-response","trial_index":123,"time_elapsed":778961,"internal_node_id":"0.0-4.0-0.56","subject_id":"613ebfd5056e5b82128e2d3c","study_id":"6197b3f67c2b5cd3b6d9596a","session_id":"6197b570f64b32a151fc49e7","condition":"full-information","relevant_dimensions":["antennae","legs"],"bee_group":{"antennae":"B","wings":"X","pattern":"X","legs":"F"},"action":"harvest","summary":"good-harvest","bonus":0.9400000000000007},{"rt":1845.2000000029802,"stimulus":"\n                    <p><b>Action: <em>harvest</em></b></p>\n                    <p>This is the bee that you just saw.</p>\n                    <img src=\"bees-with-color/bee-A1DM.svg\" width=\"200\">\n                    <p><span class=\"greenText\"><b>Successful harvest!</b></span><br>Your pay has increased by $0.02. Your bonus pay is now $0.80.</p>\n            ","response":0,"trial_type":"html-button-response","trial_index":124,"time_elapsed":780811,"internal_node_id":"0.0-4.0-1.56","subject_id":"613ebfd5056e5b82128e2d3c","study_id":"6197b3f67c2b5cd3b6d9596a","session_id":"6197b570f64b32a151fc49e7","condition":"full-information","relevant_dimensions":["antennae","legs"],"bee_group":{"antennae":"B","wings":"X","pattern":"X","legs":"F"},"bonus":0.9400000000000007},{"rt":3476.3999999910593,"stimulus":"bees-with-color/bee-A1SF.svg","response":0,"trial_type":"image-button-response","trial_index":125,"time_elapsed":784293,"internal_node_id":"0.0-4.0-0.57","subject_id":"613ebfd5056e5b82128e2d3c","study_id":"6197b3f67c2b5cd3b6d9596a","session_id":"6197b570f64b32a151fc49e7","condition":"full-information","relevant_dimensions":["antennae","legs"],"bee_group":{"antennae":"B","wings":"X","pattern":"X","legs":"F"},"action":"harvest","summary":"good-harvest","bonus":0.9400000000000007},{"rt":1288.4000000059605,"stimulus":"\n                    <p><b>Action: <em>harvest</em></b></p>\n                    <p>This is the bee that you just saw.</p>\n                    <img src=\"bees-with-color/bee-A1SF.svg\" width=\"200\">\n                    <p><span class=\"greenText\"><b>Successful harvest!</b></span><br>Your pay has increased by $0.02. Your bonus pay is now $0.82.</p>\n            ","response":0,"trial_type":"html-button-response","trial_index":126,"time_elapsed":785584,"internal_node_id":"0.0-4.0-1.57","subject_id":"613ebfd5056e5b82128e2d3c","study_id":"6197b3f67c2b5cd3b6d9596a","session_id":"6197b570f64b32a151fc49e7","condition":"full-information","relevant_dimensions":["antennae","legs"],"bee_group":{"antennae":"B","wings":"X","pattern":"X","legs":"F"},"bonus":0.9400000000000007},{"rt":3832.2000000029802,"stimulus":"bees-with-color/bee-A2DF.svg","response":1,"trial_type":"image-button-response","trial_index":127,"time_elapsed":789421,"internal_node_id":"0.0-4.0-0.58","subject_id":"613ebfd5056e5b82128e2d3c","study_id":"6197b3f67c2b5cd3b6d9596a","session_id":"6197b570f64b32a151fc49e7","condition":"full-information","relevant_dimensions":["antennae","legs"],"bee_group":{"antennae":"B","wings":"X","pattern":"X","legs":"F"},"action":"avoid","summary":"bad-avoid","bonus":0.9400000000000007},{"rt":1192.4000000059605,"stimulus":"\n                    <p><b>Action: <em>avoid</em></b></p>\n                    <p>This is the bee that you just saw.</p>\n                    <img src=\"bees-with-color/bee-A2DF.svg\" width=\"200\">\n                    <p><span class=\"redText\">Bad choice,</span> the bee was friendly.<br>Your bonus pay is unchanged, and remains at $0.82.</p>\n            ","response":0,"trial_type":"html-button-response","trial_index":128,"time_elapsed":790617,"internal_node_id":"0.0-4.0-1.58","subject_id":"613ebfd5056e5b82128e2d3c","study_id":"6197b3f67c2b5cd3b6d9596a","session_id":"6197b570f64b32a151fc49e7","condition":"full-information","relevant_dimensions":["antennae","legs"],"bee_group":{"antennae":"B","wings":"X","pattern":"X","legs":"F"},"bonus":0.9400000000000007},{"rt":2190.7999999970198,"stimulus":"bees-with-color/bee-B2DM.svg","response":1,"trial_type":"image-button-response","trial_index":129,"time_elapsed":792813,"internal_node_id":"0.0-4.0-0.59","subject_id":"613ebfd5056e5b82128e2d3c","study_id":"6197b3f67c2b5cd3b6d9596a","session_id":"6197b570f64b32a151fc49e7","condition":"full-information","relevant_dimensions":["antennae","legs"],"bee_group":{"antennae":"B","wings":"X","pattern":"X","legs":"F"},"action":"avoid","summary":"bad-avoid","bonus":0.9400000000000007},{"rt":1106.4000000059605,"stimulus":"\n                    <p><b>Action: <em>avoid</em></b></p>\n                    <p>This is the bee that you just saw.</p>\n                    <img src=\"bees-with-color/bee-B2DM.svg\" width=\"200\">\n                    <p><span class=\"redText\">Bad choice,</span> the bee was friendly.<br>Your bonus pay is unchanged, and remains at $0.82.</p>\n            ","response":0,"trial_type":"html-button-response","trial_index":130,"time_elapsed":793923,"internal_node_id":"0.0-4.0-1.59","subject_id":"613ebfd5056e5b82128e2d3c","study_id":"6197b3f67c2b5cd3b6d9596a","session_id":"6197b570f64b32a151fc49e7","condition":"full-information","relevant_dimensions":["antennae","legs"],"bee_group":{"antennae":"B","wings":"X","pattern":"X","legs":"F"},"bonus":0.9400000000000007},{"rt":2709.7000000029802,"stimulus":"bees-with-color/bee-A2SF.svg","response":0,"trial_type":"image-button-response","trial_index":131,"time_elapsed":796636,"internal_node_id":"0.0-4.0-0.60","subject_id":"613ebfd5056e5b82128e2d3c","study_id":"6197b3f67c2b5cd3b6d9596a","session_id":"6197b570f64b32a151fc49e7","condition":"full-information","relevant_dimensions":["antennae","legs"],"bee_group":{"antennae":"B","wings":"X","pattern":"X","legs":"F"},"action":"harvest","summary":"good-harvest","bonus":0.9400000000000007},{"rt":1198.1000000089407,"stimulus":"\n                    <p><b>Action: <em>harvest</em></b></p>\n                    <p>This is the bee that you just saw.</p>\n                    <img src=\"bees-with-color/bee-A2SF.svg\" width=\"200\">\n                    <p><span class=\"greenText\"><b>Successful harvest!</b></span><br>Your pay has increased by $0.02. Your bonus pay is now $0.84.</p>\n            ","response":0,"trial_type":"html-button-response","trial_index":132,"time_elapsed":797837,"internal_node_id":"0.0-4.0-1.60","subject_id":"613ebfd5056e5b82128e2d3c","study_id":"6197b3f67c2b5cd3b6d9596a","session_id":"6197b570f64b32a151fc49e7","condition":"full-information","relevant_dimensions":["antennae","legs"],"bee_group":{"antennae":"B","wings":"X","pattern":"X","legs":"F"},"bonus":0.9400000000000007},{"rt":2631.5999999940395,"stimulus":"bees-with-color/bee-B2DF.svg","response":1,"trial_type":"image-button-response","trial_index":133,"time_elapsed":800473,"internal_node_id":"0.0-4.0-0.61","subject_id":"613ebfd5056e5b82128e2d3c","study_id":"6197b3f67c2b5cd3b6d9596a","session_id":"6197b570f64b32a151fc49e7","condition":"full-information","relevant_dimensions":["antennae","legs"],"bee_group":{"antennae":"B","wings":"X","pattern":"X","legs":"F"},"action":"avoid","summary":"good-avoid","bonus":0.9400000000000007},{"rt":1226.5999999940395,"stimulus":"\n                    <p><b>Action: <em>avoid</em></b></p>\n                    <p>This is the bee that you just saw.</p>\n                    <img src=\"bees-with-color/bee-B2DF.svg\" width=\"200\">\n                    <p><span class=\"greenText\">Good choice!</span>  This bee would have stung you.<br>Your bonus pay is unchanged, and remains at $0.84.</p>\n            ","response":0,"trial_type":"html-button-response","trial_index":134,"time_elapsed":801704,"internal_node_id":"0.0-4.0-1.61","subject_id":"613ebfd5056e5b82128e2d3c","study_id":"6197b3f67c2b5cd3b6d9596a","session_id":"6197b570f64b32a151fc49e7","condition":"full-information","relevant_dimensions":["antennae","legs"],"bee_group":{"antennae":"B","wings":"X","pattern":"X","legs":"F"},"bonus":0.9400000000000007},{"rt":4543.20000000298,"stimulus":"bees-with-color/bee-A2DM.svg","response":1,"trial_type":"image-button-response","trial_index":135,"time_elapsed":806253,"internal_node_id":"0.0-4.0-0.62","subject_id":"613ebfd5056e5b82128e2d3c","study_id":"6197b3f67c2b5cd3b6d9596a","session_id":"6197b570f64b32a151fc49e7","condition":"full-information","relevant_dimensions":["antennae","legs"],"bee_group":{"antennae":"B","wings":"X","pattern":"X","legs":"F"},"action":"avoid","summary":"bad-avoid","bonus":0.9400000000000007},{"rt":1370.800000011921,"stimulus":"\n                    <p><b>Action: <em>avoid</em></b></p>\n                    <p>This is the bee that you just saw.</p>\n                    <img src=\"bees-with-color/bee-A2DM.svg\" width=\"200\">\n                    <p><span class=\"redText\">Bad choice,</span> the bee was friendly.<br>Your bonus pay is unchanged, and remains at $0.84.</p>\n            ","response":0,"trial_type":"html-button-response","trial_index":136,"time_elapsed":807627,"internal_node_id":"0.0-4.0-1.62","subject_id":"613ebfd5056e5b82128e2d3c","study_id":"6197b3f67c2b5cd3b6d9596a","session_id":"6197b570f64b32a151fc49e7","condition":"full-information","relevant_dimensions":["antennae","legs"],"bee_group":{"antennae":"B","wings":"X","pattern":"X","legs":"F"},"bonus":0.9400000000000007},{"rt":1770.3999999910593,"stimulus":"bees-with-color/bee-B1DF.svg","response":1,"trial_type":"image-button-response","trial_index":137,"time_elapsed":809402,"internal_node_id":"0.0-4.0-0.63","subject_id":"613ebfd5056e5b82128e2d3c","study_id":"6197b3f67c2b5cd3b6d9596a","session_id":"6197b570f64b32a151fc49e7","condition":"full-information","relevant_dimensions":["antennae","legs"],"bee_group":{"antennae":"B","wings":"X","pattern":"X","legs":"F"},"action":"avoid","summary":"good-avoid","bonus":0.9400000000000007},{"rt":1410.5999999940395,"stimulus":"\n                    <p><b>Action: <em>avoid</em></b></p>\n                    <p>This is the bee that you just saw.</p>\n                    <img src=\"bees-with-color/bee-B1DF.svg\" width=\"200\">\n                    <p><span class=\"greenText\">Good choice!</span>  This bee would have stung you.<br>Your bonus pay is unchanged, and remains at $0.84.</p>\n            ","response":0,"trial_type":"html-button-response","trial_index":138,"time_elapsed":810817,"internal_node_id":"0.0-4.0-1.63","subject_id":"613ebfd5056e5b82128e2d3c","study_id":"6197b3f67c2b5cd3b6d9596a","session_id":"6197b570f64b32a151fc49e7","condition":"full-information","relevant_dimensions":["antennae","legs"],"bee_group":{"antennae":"B","wings":"X","pattern":"X","legs":"F"},"bonus":0.9400000000000007},{"rt":9678.10000000894,"stimulus":"You have completed the first part of this experiment.<br><br>You will now begin a shorter second part, in which you will receive no feedback.<br>The same rules regarding bonus pay apply.<br><br>Press any key to begin.","response":"enter","trial_type":"html-keyboard-response","trial_index":139,"time_elapsed":820498,"internal_node_id":"0.0-5.0","subject_id":"613ebfd5056e5b82128e2d3c","study_id":"6197b3f67c2b5cd3b6d9596a","session_id":"6197b570f64b32a151fc49e7","condition":"full-information","relevant_dimensions":["antennae","legs"],"bee_group":{"antennae":"B","wings":"X","pattern":"X","legs":"F"},"bonus":0.9400000000000007},{"rt":9414.699999988079,"stimulus":"bees-with-color/bee-A1DM.svg","response":0,"trial_type":"image-button-response","trial_index":140,"time_elapsed":829924,"internal_node_id":"0.0-6.0-0.0","subject_id":"613ebfd5056e5b82128e2d3c","study_id":"6197b3f67c2b5cd3b6d9596a","session_id":"6197b570f64b32a151fc49e7","condition":"full-information","relevant_dimensions":["antennae","legs"],"bee_group":{"antennae":"B","wings":"X","pattern":"X","legs":"F"},"bonus":0.9400000000000007},{"rt":2282.2000000029802,"stimulus":"bees-with-color/bee-B1DF.svg","response":1,"trial_type":"image-button-response","trial_index":141,"time_elapsed":832212,"internal_node_id":"0.0-6.0-0.1","subject_id":"613ebfd5056e5b82128e2d3c","study_id":"6197b3f67c2b5cd3b6d9596a","session_id":"6197b570f64b32a151fc49e7","condition":"full-information","relevant_dimensions":["antennae","legs"],"bee_group":{"antennae":"B","wings":"X","pattern":"X","legs":"F"},"bonus":0.9400000000000007},{"rt":3480.9000000059605,"stimulus":"bees-with-color/bee-B2SM.svg","response":0,"trial_type":"image-button-response","trial_index":142,"time_elapsed":835699,"internal_node_id":"0.0-6.0-0.2","subject_id":"613ebfd5056e5b82128e2d3c","study_id":"6197b3f67c2b5cd3b6d9596a","session_id":"6197b570f64b32a151fc49e7","condition":"full-information","relevant_dimensions":["antennae","legs"],"bee_group":{"antennae":"B","wings":"X","pattern":"X","legs":"F"},"bonus":0.9400000000000007},{"rt":1639,"stimulus":"bees-with-color/bee-A2DM.svg","response":1,"trial_type":"image-button-response","trial_index":143,"time_elapsed":837344,"internal_node_id":"0.0-6.0-0.3","subject_id":"613ebfd5056e5b82128e2d3c","study_id":"6197b3f67c2b5cd3b6d9596a","session_id":"6197b570f64b32a151fc49e7","condition":"full-information","relevant_dimensions":["antennae","legs"],"bee_group":{"antennae":"B","wings":"X","pattern":"X","legs":"F"},"bonus":0.9400000000000007},{"rt":1690.2000000029802,"stimulus":"bees-with-color/bee-A1SF.svg","response":0,"trial_type":"image-button-response","trial_index":144,"time_elapsed":839040,"internal_node_id":"0.0-6.0-0.4","subject_id":"613ebfd5056e5b82128e2d3c","study_id":"6197b3f67c2b5cd3b6d9596a","session_id":"6197b570f64b32a151fc49e7","condition":"full-information","relevant_dimensions":["antennae","legs"],"bee_group":{"antennae":"B","wings":"X","pattern":"X","legs":"F"},"bonus":0.9400000000000007},{"rt":7792.4000000059605,"stimulus":"bees-with-color/bee-A2SM.svg","response":0,"trial_type":"image-button-response","trial_index":145,"time_elapsed":846837,"internal_node_id":"0.0-6.0-0.5","subject_id":"613ebfd5056e5b82128e2d3c","study_id":"6197b3f67c2b5cd3b6d9596a","session_id":"6197b570f64b32a151fc49e7","condition":"full-information","relevant_dimensions":["antennae","legs"],"bee_group":{"antennae":"B","wings":"X","pattern":"X","legs":"F"},"bonus":0.9400000000000007},{"rt":1860.5,"stimulus":"bees-with-color/bee-B1SM.svg","response":1,"trial_type":"image-button-response","trial_index":146,"time_elapsed":848703,"internal_node_id":"0.0-6.0-0.6","subject_id":"613ebfd5056e5b82128e2d3c","study_id":"6197b3f67c2b5cd3b6d9596a","session_id":"6197b570f64b32a151fc49e7","condition":"full-information","relevant_dimensions":["antennae","legs"],"bee_group":{"antennae":"B","wings":"X","pattern":"X","legs":"F"},"bonus":0.9400000000000007},{"rt":3522.9000000059605,"stimulus":"bees-with-color/bee-B2DF.svg","response":1,"trial_type":"image-button-response","trial_index":147,"time_elapsed":852231,"internal_node_id":"0.0-6.0-0.7","subject_id":"613ebfd5056e5b82128e2d3c","study_id":"6197b3f67c2b5cd3b6d9596a","session_id":"6197b570f64b32a151fc49e7","condition":"full-information","relevant_dimensions":["antennae","legs"],"bee_group":{"antennae":"B","wings":"X","pattern":"X","legs":"F"},"bonus":0.9400000000000007},{"rt":4821.600000008941,"stimulus":"bees-with-color/bee-A1DF.svg","response":0,"trial_type":"image-button-response","trial_index":148,"time_elapsed":857058,"internal_node_id":"0.0-6.0-0.8","subject_id":"613ebfd5056e5b82128e2d3c","study_id":"6197b3f67c2b5cd3b6d9596a","session_id":"6197b570f64b32a151fc49e7","condition":"full-information","relevant_dimensions":["antennae","legs"],"bee_group":{"antennae":"B","wings":"X","pattern":"X","legs":"F"},"bonus":0.9400000000000007},{"rt":6678.5999999940395,"stimulus":"bees-with-color/bee-B1DM.svg","response":1,"trial_type":"image-button-response","trial_index":149,"time_elapsed":863742,"internal_node_id":"0.0-6.0-0.9","subject_id":"613ebfd5056e5b82128e2d3c","study_id":"6197b3f67c2b5cd3b6d9596a","session_id":"6197b570f64b32a151fc49e7","condition":"full-information","relevant_dimensions":["antennae","legs"],"bee_group":{"antennae":"B","wings":"X","pattern":"X","legs":"F"},"bonus":0.9400000000000007},{"rt":6737.4000000059605,"stimulus":"bees-with-color/bee-B2SF.svg","response":1,"trial_type":"image-button-response","trial_index":150,"time_elapsed":870487,"internal_node_id":"0.0-6.0-0.10","subject_id":"613ebfd5056e5b82128e2d3c","study_id":"6197b3f67c2b5cd3b6d9596a","session_id":"6197b570f64b32a151fc49e7","condition":"full-information","relevant_dimensions":["antennae","legs"],"bee_group":{"antennae":"B","wings":"X","pattern":"X","legs":"F"},"bonus":0.9400000000000007},{"rt":6012.5,"stimulus":"bees-with-color/bee-B1SF.svg","response":0,"trial_type":"image-button-response","trial_index":151,"time_elapsed":876505,"internal_node_id":"0.0-6.0-0.11","subject_id":"613ebfd5056e5b82128e2d3c","study_id":"6197b3f67c2b5cd3b6d9596a","session_id":"6197b570f64b32a151fc49e7","condition":"full-information","relevant_dimensions":["antennae","legs"],"bee_group":{"antennae":"B","wings":"X","pattern":"X","legs":"F"},"bonus":0.9400000000000007},{"rt":2265.5,"stimulus":"bees-with-color/bee-B2DM.svg","response":1,"trial_type":"image-button-response","trial_index":152,"time_elapsed":878776,"internal_node_id":"0.0-6.0-0.12","subject_id":"613ebfd5056e5b82128e2d3c","study_id":"6197b3f67c2b5cd3b6d9596a","session_id":"6197b570f64b32a151fc49e7","condition":"full-information","relevant_dimensions":["antennae","legs"],"bee_group":{"antennae":"B","wings":"X","pattern":"X","legs":"F"},"bonus":0.9400000000000007},{"rt":3032.2999999970198,"stimulus":"bees-with-color/bee-A2SF.svg","response":1,"trial_type":"image-button-response","trial_index":153,"time_elapsed":881815,"internal_node_id":"0.0-6.0-0.13","subject_id":"613ebfd5056e5b82128e2d3c","study_id":"6197b3f67c2b5cd3b6d9596a","session_id":"6197b570f64b32a151fc49e7","condition":"full-information","relevant_dimensions":["antennae","legs"],"bee_group":{"antennae":"B","wings":"X","pattern":"X","legs":"F"},"bonus":0.9400000000000007},{"rt":3138.4000000059605,"stimulus":"bees-with-color/bee-A2DF.svg","response":1,"trial_type":"image-button-response","trial_index":154,"time_elapsed":884959,"internal_node_id":"0.0-6.0-0.14","subject_id":"613ebfd5056e5b82128e2d3c","study_id":"6197b3f67c2b5cd3b6d9596a","session_id":"6197b570f64b32a151fc49e7","condition":"full-information","relevant_dimensions":["antennae","legs"],"bee_group":{"antennae":"B","wings":"X","pattern":"X","legs":