[{"success":true,"trial_type":"fullscreen","trial_index":0,"time_elapsed":28541,"internal_node_id":"0.0-0.0","subject_id":"6074166fc721ed388ce13f7c","study_id":"6197b3f67c2b5cd3b6d9596a","session_id":"6197b88f7366c5a6860156fe","condition":"contingent","relevant_dimensions":["antennae","legs"],"bee_group":{"antennae":"A","wings":"X","pattern":"X","legs":"F"},"bonus":0.520000000000001},{"success":true,"timeout":false,"failed_images":[],"failed_audio":[],"failed_video":[],"trial_type":"preload","trial_index":1,"time_elapsed":30521,"internal_node_id":"0.0-1.0","subject_id":"6074166fc721ed388ce13f7c","study_id":"6197b3f67c2b5cd3b6d9596a","session_id":"6197b88f7366c5a6860156fe","condition":"contingent","relevant_dimensions":["antennae","legs"],"bee_group":{"antennae":"A","wings":"X","pattern":"X","legs":"F"},"bonus":0.520000000000001},{"rt":2924,"stimulus":"Welcome! Press any key to begin.","response":" ","trial_type":"html-keyboard-response","trial_index":2,"time_elapsed":33447,"internal_node_id":"0.0-2.0","subject_id":"6074166fc721ed388ce13f7c","study_id":"6197b3f67c2b5cd3b6d9596a","session_id":"6197b88f7366c5a6860156fe","condition":"contingent","relevant_dimensions":["antennae","legs"],"bee_group":{"antennae":"A","wings":"X","pattern":"X","legs":"F"},"bonus":0.520000000000001},{"view_history":[{"page_index":0,"viewing_time":8938},{"page_index":1,"viewing_time":15348},{"page_index":2,"viewing_time":15492},{"page_index":3,"viewing_time":19024},{"page_index":4,"viewing_time":5734},{"page_index":5,"viewing_time":9419},{"page_index":6,"viewing_time":14755},{"page_index":7,"viewing_time":2977},{"page_index":6,"viewing_time":1996},{"page_index":7,"viewing_time":1872},{"page_index":6,"viewing_time":9350},{"page_index":7,"viewing_time":4505},{"page_index":8,"viewing_time":4868},{"page_index":9,"viewing_time":4437},{"page_index":10,"viewing_time":7332},{"page_index":9,"viewing_time":814},{"page_index":10,"viewing_time":1178},{"page_index":11,"viewing_time":12303},{"page_index":10,"viewing_time":6207},{"page_index":11,"viewing_time":1644},{"page_index":10,"viewing_time":471},{"page_index":9,"viewing_time":1430},{"page_index":8,"viewing_time":886},{"page_index":7,"viewing_time":532},{"page_index":6,"viewing_time":882},{"page_index":7,"viewing_time":2465},{"page_index":8,"viewing_time":5786},{"page_index":9,"viewing_time":4155},{"page_index":10,"viewing_time":1116},{"page_index":11,"viewing_time":2064},{"page_index":12,"viewing_time":7868},{"page_index":13,"viewing_time":1383},{"page_index":14,"viewing_time":3134}],"rt":180366,"trial_type":"instructions","trial_index":3,"time_elapsed":213814,"internal_node_id":"0.0-3.0-0.0","subject_id":"6074166fc721ed388ce13f7c","study_id":"6197b3f67c2b5cd3b6d9596a","session_id":"6197b88f7366c5a6860156fe","condition":"contingent","relevant_dimensions":["antennae","legs"],"bee_group":{"antennae":"A","wings":"X","pattern":"X","legs":"F"},"bonus":0.520000000000001},{"rt":17350,"response":{"Q0":["Two or six legs","Stripes or spots on body","Single or double wings","Antennae or no antennae"]},"question_order":[0],"trial_type":"survey-multi-select","trial_index":4,"time_elapsed":231171,"internal_node_id":"0.0-3.0-1.0","subject_id":"6074166fc721ed388ce13f7c","study_id":"6197b3f67c2b5cd3b6d9596a","session_id":"6197b88f7366c5a6860156fe","condition":"contingent","relevant_dimensions":["antennae","legs"],"bee_group":{"antennae":"A","wings":"X","pattern":"X","legs":"F"},"correct":true,"bonus":0.520000000000001},{"rt":21914,"response":{"Q1":"No.","Q2":"Based on the four features of the bee.","Q3":"You do not learn if it was friendly or dangerous, and do not alter your bonus."},"question_order":[0,1,2],"trial_type":"survey-multi-choice","trial_index":5,"time_elapsed":253088,"internal_node_id":"0.0-3.0-2.0","subject_id":"6074166fc721ed388ce13f7c","study_id":"6197b3f67c2b5cd3b6d9596a","session_id":"6197b88f7366c5a6860156fe","condition":"contingent","relevant_dimensions":["antennae","legs"],"bee_group":{"antennae":"A","wings":"X","pattern":"X","legs":"F"},"correct":true,"bonus":0.520000000000001},{"rt":2951,"stimulus":"<p>Congrats, you got everything right<br>When you're ready, click the button below to continue to the experiment.</p>","response":0,"trial_type":"html-button-response","trial_index":6,"time_elapsed":256045,"internal_node_id":"0.0-3.0-3.0","subject_id":"6074166fc721ed388ce13f7c","study_id":"6197b3f67c2b5cd3b6d9596a","session_id":"6197b88f7366c5a6860156fe","condition":"contingent","relevant_dimensions":["antennae","legs"],"bee_group":{"antennae":"A","wings":"X","pattern":"X","legs":"F"},"bonus":0.520000000000001},{"rt":5158,"stimulus":"bees-with-color/bee-B1DF.svg","response":0,"trial_type":"image-button-response","trial_index":7,"time_elapsed":261207,"internal_node_id":"0.0-4.0-0.0","subject_id":"6074166fc721ed388ce13f7c","study_id":"6197b3f67c2b5cd3b6d9596a","session_id":"6197b88f7366c5a6860156fe","condition":"contingent","relevant_dimensions":["antennae","legs"],"bee_group":{"antennae":"A","wings":"X","pattern":"X","legs":"F"},"action":"harvest","summary":"good-harvest","bonus":0.520000000000001},{"rt":7972,"stimulus":"\n                    <p><b>Action: <em>harvest</em></b></p>\n                    <p>This is the bee that you just saw.</p>\n                    <img src=\"bees-with-color/bee-B1DF.svg\" width=\"200\">\n                    <p><span class=\"greenText\"><b>Successful harvest!</b></span><br>Your pay has increased by $0.02. Your bonus pay is now $0.56.</p>\n            ","response":0,"trial_type":"html-button-response","trial_index":8,"time_elapsed":269199,"internal_node_id":"0.0-4.0-1.0","subject_id":"6074166fc721ed388ce13f7c","study_id":"6197b3f67c2b5cd3b6d9596a","session_id":"6197b88f7366c5a6860156fe","condition":"contingent","relevant_dimensions":["antennae","legs"],"bee_group":{"antennae":"A","wings":"X","pattern":"X","legs":"F"},"bonus":0.520000000000001},{"rt":2282,"stimulus":"bees-with-color/bee-B2SF.svg","response":0,"trial_type":"image-button-response","trial_index":9,"time_elapsed":271484,"internal_node_id":"0.0-4.0-0.1","subject_id":"6074166fc721ed388ce13f7c","study_id":"6197b3f67c2b5cd3b6d9596a","session_id":"6197b88f7366c5a6860156fe","condition":"contingent","relevant_dimensions":["antennae","legs"],"bee_group":{"antennae":"A","wings":"X","pattern":"X","legs":"F"},"action":"harvest","summary":"good-harvest","bonus":0.520000000000001},{"rt":5790,"stimulus":"\n                    <p><b>Action: <em>harvest</em></b></p>\n                    <p>This is the bee that you just saw.</p>\n                    <img src=\"bees-with-color/bee-B2SF.svg\" width=\"200\">\n                    <p><span class=\"greenText\"><b>Successful harvest!</b></span><br>Your pay has increased by $0.02. Your bonus pay is now $0.58.</p>\n            ","response":0,"trial_type":"html-button-response","trial_index":10,"time_elapsed":277274,"internal_node_id":"0.0-4.0-1.1","subject_id":"6074166fc721ed388ce13f7c","study_id":"6197b3f67c2b5cd3b6d9596a","session_id":"6197b88f7366c5a6860156fe","condition":"contingent","relevant_dimensions":["antennae","legs"],"bee_group":{"antennae":"A","wings":"X","pattern":"X","legs":"F"},"bonus":0.520000000000001},{"rt":2573,"stimulus":"bees-with-color/bee-B2DM.svg","response":0,"trial_type":"image-button-response","trial_index":11,"time_elapsed":279850,"internal_node_id":"0.0-4.0-0.2","subject_id":"6074166fc721ed388ce13f7c","study_id":"6197b3f67c2b5cd3b6d9596a","session_id":"6197b88f7366c5a6860156fe","condition":"contingent","relevant_dimensions":["antennae","legs"],"bee_group":{"antennae":"A","wings":"X","pattern":"X","legs":"F"},"action":"harvest","summary":"good-harvest","bonus":0.520000000000001},{"rt":7282,"stimulus":"\n                    <p><b>Action: <em>harvest</em></b></p>\n                    <p>This is the bee that you just saw.</p>\n                    <img src=\"bees-with-color/bee-B2DM.svg\" width=\"200\">\n                    <p><span class=\"greenText\"><b>Successful harvest!</b></span><br>Your pay has increased by $0.02. Your bonus pay is now $0.60.</p>\n            ","response":0,"trial_type":"html-button-response","trial_index":12,"time_elapsed":287135,"internal_node_id":"0.0-4.0-1.2","subject_id":"6074166fc721ed388ce13f7c","study_id":"6197b3f67c2b5cd3b6d9596a","session_id":"6197b88f7366c5a6860156fe","condition":"contingent","relevant_dimensions":["antennae","legs"],"bee_group":{"antennae":"A","wings":"X","pattern":"X","legs":"F"},"bonus":0.520000000000001},{"rt":1847,"stimulus":"bees-with-color/bee-A2SF.svg","response":0,"trial_type":"image-button-response","trial_index":13,"time_elapsed":289001,"internal_node_id":"0.0-4.0-0.3","subject_id":"6074166fc721ed388ce13f7c","study_id":"6197b3f67c2b5cd3b6d9596a","session_id":"6197b88f7366c5a6860156fe","condition":"contingent","relevant_dimensions":["antennae","legs"],"bee_group":{"antennae":"A","wings":"X","pattern":"X","legs":"F"},"action":"harvest","summary":"bad-harvest","bonus":0.520000000000001},{"rt":11056,"stimulus":"\n                    <p><b>Action: <em>harvest</em></b></p>\n                    <p>This is the bee that you just saw.</p>\n                    <img src=\"bees-with-color/bee-A2SF.svg\" width=\"200\">\n                    <p><span class=\"redText\">Bad choice, the bee was angry.</span><br><b>You have been stung!</b><br>Your pay has been decreased by $0.10. Your bonus pay is now $0.50.</p>\n            ","response":0,"trial_type":"html-button-response","trial_index":14,"time_elapsed":300057,"internal_node_id":"0.0-4.0-1.3","subject_id":"6074166fc721ed388ce13f7c","study_id":"6197b3f67c2b5cd3b6d9596a","session_id":"6197b88f7366c5a6860156fe","condition":"contingent","relevant_dimensions":["antennae","legs"],"bee_group":{"antennae":"A","wings":"X","pattern":"X","legs":"F"},"bonus":0.520000000000001},{"rt":2011,"stimulus":"bees-with-color/bee-A1SM.svg","response":0,"trial_type":"image-button-response","trial_index":15,"time_elapsed":302069,"internal_node_id":"0.0-4.0-0.4","subject_id":"6074166fc721ed388ce13f7c","study_id":"6197b3f67c2b5cd3b6d9596a","session_id":"6197b88f7366c5a6860156fe","condition":"contingent","relevant_dimensions":["antennae","legs"],"bee_group":{"antennae":"A","wings":"X","pattern":"X","legs":"F"},"action":"harvest","summary":"good-harvest","bonus":0.520000000000001},{"rt":3638,"stimulus":"\n                    <p><b>Action: <em>harvest</em></b></p>\n                    <p>This is the bee that you just saw.</p>\n                    <img src=\"bees-with-color/bee-A1SM.svg\" width=\"200\">\n                    <p><span class=\"greenText\"><b>Successful harvest!</b></span><br>Your pay has increased by $0.02. Your bonus pay is now $0.52.</p>\n            ","response":0,"trial_type":"html-button-response","trial_index":16,"time_elapsed":305708,"internal_node_id":"0.0-4.0-1.4","subject_id":"6074166fc721ed388ce13f7c","study_id":"6197b3f67c2b5cd3b6d9596a","session_id":"6197b88f7366c5a6860156fe","condition":"contingent","relevant_dimensions":["antennae","legs"],"bee_group":{"antennae":"A","wings":"X","pattern":"X","legs":"F"},"bonus":0.520000000000001},{"rt":1452,"stimulus":"bees-with-color/bee-A1DF.svg","response":0,"trial_type":"image-button-response","trial_index":17,"time_elapsed":307162,"internal_node_id":"0.0-4.0-0.5","subject_id":"6074166fc721ed388ce13f7c","study_id":"6197b3f67c2b5cd3b6d9596a","session_id":"6197b88f7366c5a6860156fe","condition":"contingent","relevant_dimensions":["antennae","legs"],"bee_group":{"antennae":"A","wings":"X","pattern":"X","legs":"F"},"action":"harvest","summary":"bad-harvest","bonus":0.520000000000001},{"rt":16421,"stimulus":"\n                    <p><b>Action: <em>harvest</em></b></p>\n                    <p>This is the bee that you just saw.</p>\n                    <img src=\"bees-with-color/bee-A1DF.svg\" width=\"200\">\n                    <p><span class=\"redText\">Bad choice, the bee was angry.</span><br><b>You have been stung!</b><br>Your pay has been decreased by $0.10. Your bonus pay is now $0.42.</p>\n            ","response":0,"trial_type":"html-button-response","trial_index":18,"time_elapsed":323586,"internal_node_id":"0.0-4.0-1.5","subject_id":"6074166fc721ed388ce13f7c","study_id":"6197b3f67c2b5cd3b6d9596a","session_id":"6197b88f7366c5a6860156fe","condition":"contingent","relevant_dimensions":["antennae","legs"],"bee_group":{"antennae":"A","wings":"X","pattern":"X","legs":"F"},"bonus":0.520000000000001},{"rt":1148,"stimulus":"bees-with-color/bee-B1SF.svg","response":0,"trial_type":"image-button-response","trial_index":19,"time_elapsed":324737,"internal_node_id":"0.0-4.0-0.6","subject_id":"6074166fc721ed388ce13f7c","study_id":"6197b3f67c2b5cd3b6d9596a","session_id":"6197b88f7366c5a6860156fe","condition":"contingent","relevant_dimensions":["antennae","legs"],"bee_group":{"antennae":"A","wings":"X","pattern":"X","legs":"F"},"action":"harvest","summary":"good-harvest","bonus":0.520000000000001},{"rt":1303,"stimulus":"\n                    <p><b>Action: <em>harvest</em></b></p>\n                    <p>This is the bee that you just saw.</p>\n                    <img src=\"bees-with-color/bee-B1SF.svg\" width=\"200\">\n                    <p><span class=\"greenText\"><b>Successful harvest!</b></span><br>Your pay has increased by $0.02. Your bonus pay is now $0.44.</p>\n            ","response":0,"trial_type":"html-button-response","trial_index":20,"time_elapsed":326043,"internal_node_id":"0.0-4.0-1.6","subject_id":"6074166fc721ed388ce13f7c","study_id":"6197b3f67c2b5cd3b6d9596a","session_id":"6197b88f7366c5a6860156fe","condition":"contingent","relevant_dimensions":["antennae","legs"],"bee_group":{"antennae":"A","wings":"X","pattern":"X","legs":"F"},"bonus":0.520000000000001},{"rt":1391,"stimulus":"bees-with-color/bee-B1DM.svg","response":0,"trial_type":"image-button-response","trial_index":21,"time_elapsed":327435,"internal_node_id":"0.0-4.0-0.7","subject_id":"6074166fc721ed388ce13f7c","study_id":"6197b3f67c2b5cd3b6d9596a","session_id":"6197b88f7366c5a6860156fe","condition":"contingent","relevant_dimensions":["antennae","legs"],"bee_group":{"antennae":"A","wings":"X","pattern":"X","legs":"F"},"action":"harvest","summary":"good-harvest","bonus":0.520000000000001},{"rt":1045,"stimulus":"\n                    <p><b>Action: <em>harvest</em></b></p>\n                    <p>This is the bee that you just saw.</p>\n                    <img src=\"bees-with-color/bee-B1DM.svg\" width=\"200\">\n                    <p><span class=\"greenText\"><b>Successful harvest!</b></span><br>Your pay has increased by $0.02. Your bonus pay is now $0.46.</p>\n            ","response":0,"trial_type":"html-button-response","trial_index":22,"time_elapsed":328487,"internal_node_id":"0.0-4.0-1.7","subject_id":"6074166fc721ed388ce13f7c","study_id":"6197b3f67c2b5cd3b6d9596a","session_id":"6197b88f7366c5a6860156fe","condition":"contingent","relevant_dimensions":["antennae","legs"],"bee_group":{"antennae":"A","wings":"X","pattern":"X","legs":"F"},"bonus":0.520000000000001},{"rt":1865,"stimulus":"bees-with-color/bee-B1SM.svg","response":0,"trial_type":"image-button-response","trial_index":23,"time_elapsed":330354,"internal_node_id":"0.0-4.0-0.8","subject_id":"6074166fc721ed388ce13f7c","study_id":"6197b3f67c2b5cd3b6d9596a","session_id":"6197b88f7366c5a6860156fe","condition":"contingent","relevant_dimensions":["antennae","legs"],"bee_group":{"antennae":"A","wings":"X","pattern":"X","legs":"F"},"action":"harvest","summary":"good-harvest","bonus":0.520000000000001},{"rt":613,"stimulus":"\n                    <p><b>Action: <em>harvest</em></b></p>\n                    <p>This is the bee that you just saw.</p>\n                    <img src=\"bees-with-color/bee-B1SM.svg\" width=\"200\">\n                    <p><span class=\"greenText\"><b>Successful harvest!</b></span><br>Your pay has increased by $0.02. Your bonus pay is now $0.48.</p>\n            ","response":0,"trial_type":"html-button-response","trial_index":24,"time_elapsed":330969,"internal_node_id":"0.0-4.0-1.8","subject_id":"6074166fc721ed388ce13f7c","study_id":"6197b3f67c2b5cd3b6d9596a","session_id":"6197b88f7366c5a6860156fe","condition":"contingent","relevant_dimensions":["antennae","legs"],"bee_group":{"antennae":"A","wings":"X","pattern":"X","legs":"F"},"bonus":0.520000000000001},{"rt":3339,"stimulus":"bees-with-color/bee-A2SM.svg","response":1,"trial_type":"image-button-response","trial_index":25,"time_elapsed":334308,"internal_node_id":"0.0-4.0-0.9","subject_id":"6074166fc721ed388ce13f7c","study_id":"6197b3f67c2b5cd3b6d9596a","session_id":"6197b88f7366c5a6860156fe","condition":"contingent","relevant_dimensions":["antennae","legs"],"bee_group":{"antennae":"A","wings":"X","pattern":"X","legs":"F"},"action":"avoid","summary":"bad-avoid","bonus":0.520000000000001},{"rt":3079,"stimulus":"\n                    <p><b>Action: <em>avoid</em></b></p>\n                    <p>This is the bee that you just saw.</p>\n                    <img src=\"bees-with-color/bee-A2SM.svg\" width=\"200\">\n                    <p><br>Your bonus pay is unchanged, and remains at $0.48.</p>\n            ","response":0,"trial_type":"html-button-response","trial_index":26,"time_elapsed":337387,"internal_node_id":"0.0-4.0-1.9","subject_id":"6074166fc721ed388ce13f7c","study_id":"6197b3f67c2b5cd3b6d9596a","session_id":"6197b88f7366c5a6860156fe","condition":"contingent","relevant_dimensions":["antennae","legs"],"bee_group":{"antennae":"A","wings":"X","pattern":"X","legs":"F"},"bonus":0.520000000000001},{"rt":1820,"stimulus":"bees-with-color/bee-A1DM.svg","response":0,"trial_type":"image-button-response","trial_index":27,"time_elapsed":339220,"internal_node_id":"0.0-4.0-0.10","subject_id":"6074166fc721ed388ce13f7c","study_id":"6197b3f67c2b5cd3b6d9596a","session_id":"6197b88f7366c5a6860156fe","condition":"contingent","relevant_dimensions":["antennae","legs"],"bee_group":{"antennae":"A","wings":"X","pattern":"X","legs":"F"},"action":"harvest","summary":"good-harvest","bonus":0.520000000000001},{"rt":662,"stimulus":"\n                    <p><b>Action: <em>harvest</em></b></p>\n                    <p>This is the bee that you just saw.</p>\n                    <img src=\"bees-with-color/bee-A1DM.svg\" width=\"200\">\n                    <p><span class=\"greenText\"><b>Successful harvest!</b></span><br>Your pay has increased by $0.02. Your bonus pay is now $0.50.</p>\n            ","response":0,"trial_type":"html-button-response","trial_index":28,"time_elapsed":339884,"internal_node_id":"0.0-4.0-1.10","subject_id":"6074166fc721ed388ce13f7c","study_id":"6197b3f67c2b5cd3b6d9596a","session_id":"6197b88f7366c5a6860156fe","condition":"contingent","relevant_dimensions":["antennae","legs"],"bee_group":{"antennae":"A","wings":"X","pattern":"X","legs":"F"},"bonus":0.520000000000001},{"rt":1067,"stimulus":"bees-with-color/bee-A1SF.svg","response":0,"trial_type":"image-button-response","trial_index":29,"time_elapsed":340955,"internal_node_id":"0.0-4.0-0.11","subject_id":"6074166fc721ed388ce13f7c","study_id":"6197b3f67c2b5cd3b6d9596a","session_id":"6197b88f7366c5a6860156fe","condition":"contingent","relevant_dimensions":["antennae","legs"],"bee_group":{"antennae":"A","wings":"X","pattern":"X","legs":"F"},"action":"harvest","summary":"bad-harvest","bonus":0.520000000000001},{"rt":1940,"stimulus":"\n                    <p><b>Action: <em>harvest</em></b></p>\n                    <p>This is the bee that you just saw.</p>\n                    <img src=\"bees-with-color/bee-A1SF.svg\" width=\"200\">\n                    <p><span class=\"redText\">Bad choice, the bee was angry.</span><br><b>You have been stung!</b><br>Your pay has been decreased by $0.10. Your bonus pay is now $0.40.</p>\n            ","response":0,"trial_type":"html-button-response","trial_index":30,"time_elapsed":342897,"internal_node_id":"0.0-4.0-1.11","subject_id":"6074166fc721ed388ce13f7c","study_id":"6197b3f67c2b5cd3b6d9596a","session_id":"6197b88f7366c5a6860156fe","condition":"contingent","relevant_dimensions":["antennae","legs"],"bee_group":{"antennae":"A","wings":"X","pattern":"X","legs":"F"},"bonus":0.520000000000001},{"rt":1586,"stimulus":"bees-with-color/bee-B2DF.svg","response":1,"trial_type":"image-button-response","trial_index":31,"time_elapsed":344485,"internal_node_id":"0.0-4.0-0.12","subject_id":"6074166fc721ed388ce13f7c","study_id":"6197b3f67c2b5cd3b6d9596a","session_id":"6197b88f7366c5a6860156fe","condition":"contingent","relevant_dimensions":["antennae","legs"],"bee_group":{"antennae":"A","wings":"X","pattern":"X","legs":"F"},"action":"avoid","summary":"bad-avoid","bonus":0.520000000000001},{"rt":1084,"stimulus":"\n                    <p><b>Action: <em>avoid</em></b></p>\n                    <p>This is the bee that you just saw.</p>\n                    <img src=\"bees-with-color/bee-B2DF.svg\" width=\"200\">\n                    <p><br>Your bonus pay is unchanged, and remains at $0.40.</p>\n            ","response":0,"trial_type":"html-button-response","trial_index":32,"time_elapsed":345572,"internal_node_id":"0.0-4.0-1.12","subject_id":"6074166fc721ed388ce13f7c","study_id":"6197b3f67c2b5cd3b6d9596a","session_id":"6197b88f7366c5a6860156fe","condition":"contingent","relevant_dimensions":["antennae","legs"],"bee_group":{"antennae":"A","wings":"X","pattern":"X","legs":"F"},"bonus":0.520000000000001},{"rt":1358,"stimulus":"bees-with-color/bee-B2SM.svg","response":0,"trial_type":"image-button-response","trial_index":33,"time_elapsed":346932,"internal_node_id":"0.0-4.0-0.13","subject_id":"6074166fc721ed388ce13f7c","study_id":"6197b3f67c2b5cd3b6d9596a","session_id":"6197b88f7366c5a6860156fe","condition":"contingent","relevant_dimensions":["antennae","legs"],"bee_group":{"antennae":"A","wings":"X","pattern":"X","legs":"F"},"action":"harvest","summary":"good-harvest","bonus":0.520000000000001},{"rt":1239,"stimulus":"\n                    <p><b>Action: <em>harvest</em></b></p>\n                    <p>This is the bee that you just saw.</p>\n                    <img src=\"bees-with-color/bee-B2SM.svg\" width=\"200\">\n                    <p><span class=\"greenText\"><b>Successful harvest!</b></span><br>Your pay has increased by $0.02. Your bonus pay is now $0.42.</p>\n            ","response":0,"trial_type":"html-button-response","trial_index":34,"time_elapsed":348171,"internal_node_id":"0.0-4.0-1.13","subject_id":"6074166fc721ed388ce13f7c","study_id":"6197b3f67c2b5cd3b6d9596a","session_id":"6197b88f7366c5a6860156fe","condition":"contingent","relevant_dimensions":["antennae","legs"],"bee_group":{"antennae":"A","wings":"X","pattern":"X","legs":"F"},"bonus":0.520000000000001},{"rt":1789,"stimulus":"bees-with-color/bee-A2DM.svg","response":1,"trial_type":"image-button-response","trial_index":35,"time_elapsed":349971,"internal_node_id":"0.0-4.0-0.14","subject_id":"6074166fc721ed388ce13f7c","study_id":"6197b3f67c2b5cd3b6d9596a","session_id":"6197b88f7366c5a6860156fe","condition":"contingent","relevant_dimensions":["antennae","legs"],"bee_group":{"antennae":"A","wings":"X","pattern":"X","legs":"F"},"action":"avoid","summary":"bad-avoid","bonus":0.520000000000001},{"rt":626,"stimulus":"\n                    <p><b>Action: <em>avoid</em></b></p>\n                    <p>This is the bee that you just saw.</p>\n                    <img src=\"bees-with-color/bee-A2DM.svg\" width=\"200\">\n                    <p><br>Your bonus pay is unchanged, and remains at $0.42.</p>\n            ","response":0,"trial_type":"html-button-response","trial_index":36,"time_elapsed":350598,"internal_node_id":"0.0-4.0-1.14","subject_id":"6074166fc721ed388ce13f7c","study_id":"6197b3f67c2b5cd3b6d9596a","session_id":"6197b88f7366c5a6860156fe","condition":"contingent","relevant_dimensions":["antennae","legs"],"bee_group":{"antennae":"A","wings":"X","pattern":"X","legs":"F"},"bonus":0.520000000000001},{"rt":1830,"stimulus":"bees-with-color/bee-A2DF.svg","response":1,"trial_type":"image-button-response","trial_index":37,"time_elapsed":352429,"internal_node_id":"0.0-4.0-0.15","subject_id":"6074166fc721ed388ce13f7c","study_id":"6197b3f67c2b5cd3b6d9596a","session_id":"6197b88f7366c5a6860156fe","condition":"contingent","relevant_dimensions":["antennae","legs"],"bee_group":{"antennae":"A","wings":"X","pattern":"X","legs":"F"},"action":"avoid","summary":"good-avoid","bonus":0.520000000000001},{"rt":786,"stimulus":"\n                    <p><b>Action: <em>avoid</em></b></p>\n                    <p>This is the bee that you just saw.</p>\n                    <img src=\"bees-with-color/bee-A2DF.svg\" width=\"200\">\n                    <p><br>Your bonus pay is unchanged, and remains at $0.42.</p>\n            ","response":0,"trial_type":"html-button-response","trial_index":38,"time_elapsed":353217,"internal_node_id":"0.0-4.0-1.15","subject_id":"6074166fc721ed388ce13f7c","study_id":"6197b3f67c2b5cd3b6d9596a","session_id":"6197b88f7366c5a6860156fe","condition":"contingent","relevant_dimensions":["antennae","legs"],"bee_group":{"antennae":"A","wings":"X","pattern":"X","legs":"F"},"bonus":0.520000000000001},{"rt":1336,"stimulus":"bees-with-color/bee-A1SM.svg","response":0,"trial_type":"image-button-response","trial_index":39,"time_elapsed":354553,"internal_node_id":"0.0-4.0-0.16","subject_id":"6074166fc721ed388ce13f7c","study_id":"6197b3f67c2b5cd3b6d9596a","session_id":"6197b88f7366c5a6860156fe","condition":"contingent","relevant_dimensions":["antennae","legs"],"bee_group":{"antennae":"A","wings":"X","pattern":"X","legs":"F"},"action":"harvest","summary":"good-harvest","bonus":0.520000000000001},{"rt":604,"stimulus":"\n                    <p><b>Action: <em>harvest</em></b></p>\n                    <p>This is the bee that you just saw.</p>\n                    <img src=\"bees-with-color/bee-A1SM.svg\" width=\"200\">\n                    <p><span class=\"greenText\"><b>Successful harvest!</b></span><br>Your pay has increased by $0.02. Your bonus pay is now $0.44.</p>\n            ","response":0,"trial_type":"html-button-response","trial_index":40,"time_elapsed":355157,"internal_node_id":"0.0-4.0-1.16","subject_id":"6074166fc721ed388ce13f7c","study_id":"6197b3f67c2b5cd3b6d9596a","session_id":"6197b88f7366c5a6860156fe","condition":"contingent","relevant_dimensions":["antennae","legs"],"bee_group":{"antennae":"A","wings":"X","pattern":"X","legs":"F"},"bonus":0.520000000000001},{"rt":2016,"stimulus":"bees-with-color/bee-A2SM.svg","response":0,"trial_type":"image-button-response","trial_index":41,"time_elapsed":357174,"internal_node_id":"0.0-4.0-0.17","subject_id":"6074166fc721ed388ce13f7c","study_id":"6197b3f67c2b5cd3b6d9596a","session_id":"6197b88f7366c5a6860156fe","condition":"contingent","relevant_dimensions":["antennae","legs"],"bee_group":{"antennae":"A","wings":"X","pattern":"X","legs":"F"},"action":"harvest","summary":"good-harvest","bonus":0.520000000000001},{"rt":536,"stimulus":"\n                    <p><b>Action: <em>harvest</em></b></p>\n                    <p>This is the bee that you just saw.</p>\n                    <img src=\"bees-with-color/bee-A2SM.svg\" width=\"200\">\n                    <p><span class=\"greenText\"><b>Successful harvest!</b></span><br>Your pay has increased by $0.02. Your bonus pay is now $0.46.</p>\n            ","response":0,"trial_type":"html-button-response","trial_index":42,"time_elapsed":357711,"internal_node_id":"0.0-4.0-1.17","subject_id":"6074166fc721ed388ce13f7c","study_id":"6197b3f67c2b5cd3b6d9596a","session_id":"6197b88f7366c5a6860156fe","condition":"contingent","relevant_dimensions":["antennae","legs"],"bee_group":{"antennae":"A","wings":"X","pattern":"X","legs":"F"},"bonus":0.520000000000001},{"rt":3431,"stimulus":"bees-with-color/bee-B1DM.svg","response":0,"trial_type":"image-button-response","trial_index":43,"time_elapsed":361144,"internal_node_id":"0.0-4.0-0.18","subject_id":"6074166fc721ed388ce13f7c","study_id":"6197b3f67c2b5cd3b6d9596a","session_id":"6197b88f7366c5a6860156fe","condition":"contingent","relevant_dimensions":["antennae","legs"],"bee_group":{"antennae":"A","wings":"X","pattern":"X","legs":"F"},"action":"harvest","summary":"good-harvest","bonus":0.520000000000001},{"rt":527,"stimulus":"\n                    <p><b>Action: <em>harvest</em></b></p>\n                    <p>This is the bee that you just saw.</p>\n                    <img src=\"bees-with-color/bee-B1DM.svg\" width=\"200\">\n                    <p><span class=\"greenText\"><b>Successful harvest!</b></span><br>Your pay has increased by $0.02. Your bonus pay is now $0.48.</p>\n            ","response":0,"trial_type":"html-button-response","trial_index":44,"time_elapsed":361673,"internal_node_id":"0.0-4.0-1.18","subject_id":"6074166fc721ed388ce13f7c","study_id":"6197b3f67c2b5cd3b6d9596a","session_id":"6197b88f7366c5a6860156fe","condition":"contingent","relevant_dimensions":["antennae","legs"],"bee_group":{"antennae":"A","wings":"X","pattern":"X","legs":"F"},"bonus":0.520000000000001},{"rt":2308,"stimulus":"bees-with-color/bee-A1DM.svg","response":1,"trial_type":"image-button-response","trial_index":45,"time_elapsed":363983,"internal_node_id":"0.0-4.0-0.19","subject_id":"6074166fc721ed388ce13f7c","study_id":"6197b3f67c2b5cd3b6d9596a","session_id":"6197b88f7366c5a6860156fe","condition":"contingent","relevant_dimensions":["antennae","legs"],"bee_group":{"antennae":"A","wings":"X","pattern":"X","legs":"F"},"action":"avoid","summary":"bad-avoid","bonus":0.520000000000001},{"rt":479,"stimulus":"\n                    <p><b>Action: <em>avoid</em></b></p>\n                    <p>This is the bee that you just saw.</p>\n                    <img src=\"bees-with-color/bee-A1DM.svg\" width=\"200\">\n                    <p><br>Your bonus pay is unchanged, and remains at $0.48.</p>\n            ","response":0,"trial_type":"html-button-response","trial_index":46,"time_elapsed":364462,"internal_node_id":"0.0-4.0-1.19","subject_id":"6074166fc721ed388ce13f7c","study_id":"6197b3f67c2b5cd3b6d9596a","session_id":"6197b88f7366c5a6860156fe","condition":"contingent","relevant_dimensions":["antennae","legs"],"bee_group":{"antennae":"A","wings":"X","pattern":"X","legs":"F"},"bonus":0.520000000000001},{"rt":1125,"stimulus":"bees-with-color/bee-B1SF.svg","response":0,"trial_type":"image-button-response","trial_index":47,"time_elapsed":365588,"internal_node_id":"0.0-4.0-0.20","subject_id":"6074166fc721ed388ce13f7c","study_id":"6197b3f67c2b5cd3b6d9596a","session_id":"6197b88f7366c5a6860156fe","condition":"contingent","relevant_dimensions":["antennae","legs"],"bee_group":{"antennae":"A","wings":"X","pattern":"X","legs":"F"},"action":"harvest","summary":"good-harvest","bonus":0.520000000000001},{"rt":493,"stimulus":"\n                    <p><b>Action: <em>harvest</em></b></p>\n                    <p>This is the bee that you just saw.</p>\n                    <img src=\"bees-with-color/bee-B1SF.svg\" width=\"200\">\n                    <p><span class=\"greenText\"><b>Successful harvest!</b></span><br>Your pay has increased by $0.02. Your bonus pay is now $0.50.</p>\n            ","response":0,"trial_type":"html-button-response","trial_index":48,"time_elapsed":366083,"internal_node_id":"0.0-4.0-1.20","subject_id":"6074166fc721ed388ce13f7c","study_id":"6197b3f67c2b5cd3b6d9596a","session_id":"6197b88f7366c5a6860156fe","condition":"contingent","relevant_dimensions":["antennae","legs"],"bee_group":{"antennae":"A","wings":"X","pattern":"X","legs":"F"},"bonus":0.520000000000001},{"rt":1936,"stimulus":"bees-with-color/bee-A2SF.svg","response":1,"trial_type":"image-button-response","trial_index":49,"time_elapsed":368019,"internal_node_id":"0.0-4.0-0.21","subject_id":"6074166fc721ed388ce13f7c","study_id":"6197b3f67c2b5cd3b6d9596a","session_id":"6197b88f7366c5a6860156fe","condition":"contingent","relevant_dimensions":["antennae","legs"],"bee_group":{"antennae":"A","wings":"X","pattern":"X","legs":"F"},"action":"avoid","summary":"good-avoid","bonus":0.520000000000001},{"rt":566,"stimulus":"\n                    <p><b>Action: <em>avoid</em></b></p>\n                    <p>This is the bee that you just saw.</p>\n                    <img src=\"bees-with-color/bee-A2SF.svg\" width=\"200\">\n                    <p><br>Your bonus pay is unchanged, and remains at $0.50.</p>\n            ","response":0,"trial_type":"html-button-response","trial_index":50,"time_elapsed":368585,"internal_node_id":"0.0-4.0-1.21","subject_id":"6074166fc721ed388ce13f7c","study_id":"6197b3f67c2b5cd3b6d9596a","session_id":"6197b88f7366c5a6860156fe","condition":"contingent","relevant_dimensions":["antennae","legs"],"bee_group":{"antennae":"A","wings":"X","pattern":"X","legs":"F"},"bonus":0.520000000000001},{"rt":1432,"stimulus":"bees-with-color/bee-A1DF.svg","response":0,"trial_type":"image-button-response","trial_index":51,"time_elapsed":370020,"internal_node_id":"0.0-4.0-0.22","subject_id":"6074166fc721ed388ce13f7c","study_id":"6197b3f67c2b5cd3b6d9596a","session_id":"6197b88f7366c5a6860156fe","condition":"contingent","relevant_dimensions":["antennae","legs"],"bee_group":{"antennae":"A","wings":"X","pattern":"X","legs":"F"},"action":"harvest","summary":"bad-harvest","bonus":0.520000000000001},{"rt":922,"stimulus":"\n                    <p><b>Action: <em>harvest</em></b></p>\n                    <p>This is the bee that you just saw.</p>\n                    <img src=\"bees-with-color/bee-A1DF.svg\" width=\"200\">\n                    <p><span class=\"redText\">Bad choice, the bee was angry.</span><br><b>You have been stung!</b><br>Your pay has been decreased by $0.10. Your bonus pay is now $0.40.</p>\n            ","response":0,"trial_type":"html-button-response","trial_index":52,"time_elapsed":370942,"internal_node_id":"0.0-4.0-1.22","subject_id":"6074166fc721ed388ce13f7c","study_id":"6197b3f67c2b5cd3b6d9596a","session_id":"6197b88f7366c5a6860156fe","condition":"contingent","relevant_dimensions":["antennae","legs"],"bee_group":{"antennae":"A","wings":"X","pattern":"X","legs":"F"},"bonus":0.520000000000001},{"rt":1337,"stimulus":"bees-with-color/bee-B2DM.svg","response":1,"trial_type":"image-button-response","trial_index":53,"time_elapsed":372279,"internal_node_id":"0.0-4.0-0.23","subject_id":"6074166fc721ed388ce13f7c","study_id":"6197b3f67c2b5cd3b6d9596a","session_id":"6197b88f7366c5a6860156fe","condition":"contingent","relevant_dimensions":["antennae","legs"],"bee_group":{"antennae":"A","wings":"X","pattern":"X","legs":"F"},"action":"avoid","summary":"bad-avoid","bonus":0.520000000000001},{"rt":671,"stimulus":"\n                    <p><b>Action: <em>avoid</em></b></p>\n                    <p>This is the bee that you just saw.</p>\n                    <img src=\"bees-with-color/bee-B2DM.svg\" width=\"200\">\n                    <p><br>Your bonus pay is unchanged, and remains at $0.40.</p>\n            ","response":0,"trial_type":"html-button-response","trial_index":54,"time_elapsed":372952,"internal_node_id":"0.0-4.0-1.23","subject_id":"6074166fc721ed388ce13f7c","study_id":"6197b3f67c2b5cd3b6d9596a","session_id":"6197b88f7366c5a6860156fe","condition":"contingent","relevant_dimensions":["antennae","legs"],"bee_group":{"antennae":"A","wings":"X","pattern":"X","legs":"F"},"bonus":0.520000000000001},{"rt":779,"stimulus":"bees-with-color/bee-A1SF.svg","response":0,"trial_type":"image-button-response","trial_index":55,"time_elapsed":373733,"internal_node_id":"0.0-4.0-0.24","subject_id":"6074166fc721ed388ce13f7c","study_id":"6197b3f67c2b5cd3b6d9596a","session_id":"6197b88f7366c5a6860156fe","condition":"contingent","relevant_dimensions":["antennae","legs"],"bee_group":{"antennae":"A","wings":"X","pattern":"X","legs":"F"},"action":"harvest","summary":"bad-harvest","bonus":0.520000000000001},{"rt":724,"stimulus":"\n                    <p><b>Action: <em>harvest</em></b></p>\n                    <p>This is the bee that you just saw.</p>\n                    <img src=\"bees-with-color/bee-A1SF.svg\" width=\"200\">\n                    <p><span class=\"redText\">Bad choice, the bee was angry.</span><br><b>You have been stung!</b><br>Your pay has been decreased by $0.10. Your bonus pay is now $0.30.</p>\n            ","response":0,"trial_type":"html-button-response","trial_index":56,"time_elapsed":374457,"internal_node_id":"0.0-4.0-1.24","subject_id":"6074166fc721ed388ce13f7c","study_id":"6197b3f67c2b5cd3b6d9596a","session_id":"6197b88f7366c5a6860156fe","condition":"contingent","relevant_dimensions":["antennae","legs"],"bee_group":{"antennae":"A","wings":"X","pattern":"X","legs":"F"},"bonus":0.520000000000001},{"rt":1887,"stimulus":"bees-with-color/bee-B2DF.svg","response":1,"trial_type":"image-button-response","trial_index":57,"time_elapsed":376344,"internal_node_id":"0.0-4.0-0.25","subject_id":"6074166fc721ed388ce13f7c","study_id":"6197b3f67c2b5cd3b6d9596a","session_id":"6197b88f7366c5a6860156fe","condition":"contingent","relevant_dimensions":["antennae","legs"],"bee_group":{"antennae":"A","wings":"X","pattern":"X","legs":"F"},"action":"avoid","summary":"bad-avoid","bonus":0.520000000000001},{"rt":1129,"stimulus":"\n                    <p><b>Action: <em>avoid</em></b></p>\n                    <p>This is the bee that you just saw.</p>\n                    <img src=\"bees-with-color/bee-B2DF.svg\" width=\"200\">\n                    <p><br>Your bonus pay is unchanged, and remains at $0.30.</p>\n            ","response":0,"trial_type":"html-button-response","trial_index":58,"time_elapsed":377488,"internal_node_id":"0.0-4.0-1.25","subject_id":"6074166fc721ed388ce13f7c","study_id":"6197b3f67c2b5cd3b6d9596a","session_id":"6197b88f7366c5a6860156fe","condition":"contingent","relevant_dimensions":["antennae","legs"],"bee_group":{"antennae":"A","wings":"X","pattern":"X","legs":"F"},"bonus":0.520000000000001},{"rt":1363,"stimulus":"bees-with-color/bee-B1DF.svg","response":1,"trial_type":"image-button-response","trial_index":59,"time_elapsed":378853,"internal_node_id":"0.0-4.0-0.26","subject_id":"6074166fc721ed388ce13f7c","study_id":"6197b3f67c2b5cd3b6d9596a","session_id":"6197b88f7366c5a6860156fe","condition":"contingent","relevant_dimensions":["antennae","legs"],"bee_group":{"antennae":"A","wings":"X","pattern":"X","legs":"F"},"action":"avoid","summary":"bad-avoid","bonus":0.520000000000001},{"rt":670,"stimulus":"\n                    <p><b>Action: <em>avoid</em></b></p>\n                    <p>This is the bee that you just saw.</p>\n                    <img src=\"bees-with-color/bee-B1DF.svg\" width=\"200\">\n                    <p><br>Your bonus pay is unchanged, and remains at $0.30.</p>\n            ","response":0,"trial_type":"html-button-response","trial_index":60,"time_elapsed":379524,"internal_node_id":"0.0-4.0-1.26","subject_id":"6074166fc721ed388ce13f7c","study_id":"6197b3f67c2b5cd3b6d9596a","session_id":"6197b88f7366c5a6860156fe","condition":"contingent","relevant_dimensions":["antennae","legs"],"bee_group":{"antennae":"A","wings":"X","pattern":"X","legs":"F"},"bonus":0.520000000000001},{"rt":1066,"stimulus":"bees-with-color/bee-B2SF.svg","response":1,"trial_type":"image-button-response","trial_index":61,"time_elapsed":380592,"internal_node_id":"0.0-4.0-0.27","subject_id":"6074166fc721ed388ce13f7c","study_id":"6197b3f67c2b5cd3b6d9596a","session_id":"6197b88f7366c5a6860156fe","condition":"contingent","relevant_dimensions":["antennae","legs"],"bee_group":{"antennae":"A","wings":"X","pattern":"X","legs":"F"},"action":"avoid","summary":"bad-avoid","bonus":0.520000000000001},{"rt":505,"stimulus":"\n                    <p><b>Action: <em>avoid</em></b></p>\n                    <p>This is the bee that you just saw.</p>\n                    <img src=\"bees-with-color/bee-B2SF.svg\" width=\"200\">\n                    <p><br>Your bonus pay is unchanged, and remains at $0.30.</p>\n            ","response":0,"trial_type":"html-button-response","trial_index":62,"time_elapsed":381099,"internal_node_id":"0.0-4.0-1.27","subject_id":"6074166fc721ed388ce13f7c","study_id":"6197b3f67c2b5cd3b6d9596a","session_id":"6197b88f7366c5a6860156fe","condition":"contingent","relevant_dimensions":["antennae","legs"],"bee_group":{"antennae":"A","wings":"X","pattern":"X","legs":"F"},"bonus":0.520000000000001},{"rt":1935,"stimulus":"bees-with-color/bee-A2DM.svg","response":0,"trial_type":"image-button-response","trial_index":63,"time_elapsed":383034,"internal_node_id":"0.0-4.0-0.28","subject_id":"6074166fc721ed388ce13f7c","study_id":"6197b3f67c2b5cd3b6d9596a","session_id":"6197b88f7366c5a6860156fe","condition":"contingent","relevant_dimensions":["antennae","legs"],"bee_group":{"antennae":"A","wings":"X","pattern":"X","legs":"F"},"action":"harvest","summary":"good-harvest","bonus":0.520000000000001},{"rt":570,"stimulus":"\n                    <p><b>Action: <em>harvest</em></b></p>\n                    <p>This is the bee that you just saw.</p>\n                    <img src=\"bees-with-color/bee-A2DM.svg\" width=\"200\">\n                    <p><span class=\"greenText\"><b>Successful harvest!</b></span><br>Your pay has increased by $0.02. Your bonus pay is now $0.32.</p>\n            ","response":0,"trial_type":"html-button-response","trial_index":64,"time_elapsed":383606,"internal_node_id":"0.0-4.0-1.28","subject_id":"6074166fc721ed388ce13f7c","study_id":"6197b3f67c2b5cd3b6d9596a","session_id":"6197b88f7366c5a6860156fe","condition":"contingent","relevant_dimensions":["antennae","legs"],"bee_group":{"antennae":"A","wings":"X","pattern":"X","legs":"F"},"bonus":0.520000000000001},{"rt":1579,"stimulus":"bees-with-color/bee-A2DF.svg","response":1,"trial_type":"image-button-response","trial_index":65,"time_elapsed":385188,"internal_node_id":"0.0-4.0-0.29","subject_id":"6074166fc721ed388ce13f7c","study_id":"6197b3f67c2b5cd3b6d9596a","session_id":"6197b88f7366c5a6860156fe","condition":"contingent","relevant_dimensions":["antennae","legs"],"bee_group":{"antennae":"A","wings":"X","pattern":"X","legs":"F"},"action":"avoid","summary":"good-avoid","bonus":0.520000000000001},{"rt":458,"stimulus":"\n                    <p><b>Action: <em>avoid</em></b></p>\n                    <p>This is the bee that you just saw.</p>\n                    <img src=\"bees-with-color/bee-A2DF.svg\" width=\"200\">\n                    <p><br>Your bonus pay is unchanged, and remains at $0.32.</p>\n            ","response":0,"trial_type":"html-button-response","trial_index":66,"time_elapsed":385647,"internal_node_id":"0.0-4.0-1.29","subject_id":"6074166fc721ed388ce13f7c","study_id":"6197b3f67c2b5cd3b6d9596a","session_id":"6197b88f7366c5a6860156fe","condition":"contingent","relevant_dimensions":["antennae","legs"],"bee_group":{"antennae":"A","wings":"X","pattern":"X","legs":"F"},"bonus":0.520000000000001},{"rt":1070,"stimulus":"bees-with-color/bee-B2SM.svg","response":1,"trial_type":"image-button-response","trial_index":67,"time_elapsed":386718,"internal_node_id":"0.0-4.0-0.30","subject_id":"6074166fc721ed388ce13f7c","study_id":"6197b3f67c2b5cd3b6d9596a","session_id":"6197b88f7366c5a6860156fe","condition":"contingent","relevant_dimensions":["antennae","legs"],"bee_group":{"antennae":"A","wings":"X","pattern":"X","legs":"F"},"action":"avoid","summary":"bad-avoid","bonus":0.520000000000001},{"rt":880,"stimulus":"\n                    <p><b>Action: <em>avoid</em></b></p>\n                    <p>This is the bee that you just saw.</p>\n                    <img src=\"bees-with-color/bee-B2SM.svg\" width=\"200\">\n                    <p><br>Your bonus pay is unchanged, and remains at $0.32.</p>\n            ","response":0,"trial_type":"html-button-response","trial_index":68,"time_elapsed":387600,"internal_node_id":"0.0-4.0-1.30","subject_id":"6074166fc721ed388ce13f7c","study_id":"6197b3f67c2b5cd3b6d9596a","session_id":"6197b88f7366c5a6860156fe","condition":"contingent","relevant_dimensions":["antennae","legs"],"bee_group":{"antennae":"A","wings":"X","pattern":"X","legs":"F"},"bonus":0.520000000000001},{"rt":1184,"stimulus":"bees-with-color/bee-B1SM.svg","response":0,"trial_type":"image-button-response","trial_index":69,"time_elapsed":388785,"internal_node_id":"0.0-4.0-0.31","subject_id":"6074166fc721ed388ce13f7c","study_id":"6197b3f67c2b5cd3b6d9596a","session_id":"6197b88f7366c5a6860156fe","condition":"contingent","relevant_dimensions":["antennae","legs"],"bee_group":{"antennae":"A","wings":"X","pattern":"X","legs":"F"},"action":"harvest","summary":"good-harvest","bonus":0.520000000000001},{"rt":504,"stimulus":"\n                    <p><b>Action: <em>harvest</em></b></p>\n                    <p>This is the bee that you just saw.</p>\n                    <img src=\"bees-with-color/bee-B1SM.svg\" width=\"200\">\n                    <p><span class=\"greenText\"><b>Successful harvest!</b></span><br>Your pay has increased by $0.02. Your bonus pay is now $0.34.</p>\n            ","response":0,"trial_type":"html-button-response","trial_index":70,"time_elapsed":389289,"internal_node_id":"0.0-4.0-1.31","subject_id":"6074166fc721ed388ce13f7c","study_id":"6197b3f67c2b5cd3b6d9596a","session_id":"6197b88f7366c5a6860156fe","condition":"contingent","relevant_dimensions":["antennae","legs"],"bee_group":{"antennae":"A","wings":"X","pattern":"X","legs":"F"},"bonus":0.520000000000001},{"rt":2239,"stimulus":"bees-with-color/bee-A2DM.svg","response":1,"trial_type":"image-button-response","trial_index":71,"time_elapsed":391530,"internal_node_id":"0.0-4.0-0.32","subject_id":"6074166fc721ed388ce13f7c","study_id":"6197b3f67c2b5cd3b6d9596a","session_id":"6197b88f7366c5a6860156fe","condition":"contingent","relevant_dimensions":["antennae","legs"],"bee_group":{"antennae":"A","wings":"X","pattern":"X","legs":"F"},"action":"avoid","summary":"bad-avoid","bonus":0.520000000000001},{"rt":1005,"stimulus":"\n                    <p><b>Action: <em>avoid</em></b></p>\n                    <p>This is the bee that you just saw.</p>\n                    <img src=\"bees-with-color/bee-A2DM.svg\" width=\"200\">\n                    <p><br>Your bonus pay is unchanged, and remains at $0.34.</p>\n            ","response":0,"trial_type":"html-button-response","trial_index":72,"time_elapsed":392537,"internal_node_id":"0.0-4.0-1.32","subject_id":"6074166fc721ed388ce13f7c","study_id":"6197b3f67c2b5cd3b6d9596a","session_id":"6197b88f7366c5a6860156fe","condition":"contingent","relevant_dimensions":["antennae","legs"],"bee_group":{"antennae":"A","wings":"X","pattern":"X","legs":"F"},"bonus":0.520000000000001},{"rt":2605,"stimulus":"bees-with-color/bee-B1SM.svg","response":0,"trial_type":"image-button-response","trial_index":73,"time_elapsed":395145,"internal_node_id":"0.0-4.0-0.33","subject_id":"6074166fc721ed388ce13f7c","study_id":"6197b3f67c2b5cd3b6d9596a","session_id":"6197b88f7366c5a6860156fe","condition":"contingent","relevant_dimensions":["antennae","legs"],"bee_group":{"antennae":"A","wings":"X","pattern":"X","legs":"F"},"action":"harvest","summary":"good-harvest","bonus":0.520000000000001},{"rt":484,"stimulus":"\n                    <p><b>Action: <em>harvest</em></b></p>\n                    <p>This is the bee that you just saw.</p>\n                    <img src=\"bees-with-color/bee-B1SM.svg\" width=\"200\">\n                    <p><span class=\"greenText\"><b>Successful harvest!</b></span><br>Your pay has increased by $0.02. Your bonus pay is now $0.36.</p>\n            ","response":0,"trial_type":"html-button-response","trial_index":74,"time_elapsed":395631,"internal_node_id":"0.0-4.0-1.33","subject_id":"6074166fc721ed388ce13f7c","study_id":"6197b3f67c2b5cd3b6d9596a","session_id":"6197b88f7366c5a6860156fe","condition":"contingent","relevant_dimensions":["antennae","legs"],"bee_group":{"antennae":"A","wings":"X","pattern":"X","legs":"F"},"bonus":0.520000000000001},{"rt":1197,"stimulus":"bees-with-color/bee-B2DF.svg","response":1,"trial_type":"image-button-response","trial_index":75,"time_elapsed":396829,"internal_node_id":"0.0-4.0-0.34","subject_id":"6074166fc721ed388ce13f7c","study_id":"6197b3f67c2b5cd3b6d9596a","session_id":"6197b88f7366c5a6860156fe","condition":"contingent","relevant_dimensions":["antennae","legs"],"bee_group":{"antennae":"A","wings":"X","pattern":"X","legs":"F"},"action":"avoid","summary":"bad-avoid","bonus":0.520000000000001},{"rt":734,"stimulus":"\n                    <p><b>Action: <em>avoid</em></b></p>\n                    <p>This is the bee that you just saw.</p>\n                    <img src=\"bees-with-color/bee-B2DF.svg\" width=\"200\">\n                    <p><br>Your bonus pay is unchanged, and remains at $0.36.</p>\n            ","response":0,"trial_type":"html-button-response","trial_index":76,"time_elapsed":397565,"internal_node_id":"0.0-4.0-1.34","subject_id":"6074166fc721ed388ce13f7c","study_id":"6197b3f67c2b5cd3b6d9596a","session_id":"6197b88f7366c5a6860156fe","condition":"contingent","relevant_dimensions":["antennae","legs"],"bee_group":{"antennae":"A","wings":"X","pattern":"X","legs":"F"},"bonus":0.520000000000001},{"rt":1065,"stimulus":"bees-with-color/bee-B2SF.svg","response":1,"trial_type":"image-button-response","trial_index":77,"time_elapsed":398632,"internal_node_id":"0.0-4.0-0.35","subject_id":"6074166fc721ed388ce13f7c","study_id":"6197b3f67c2b5cd3b6d9596a","session_id":"6197b88f7366c5a6860156fe","condition":"contingent","relevant_dimensions":["antennae","legs"],"bee_group":{"antennae":"A","wings":"X","pattern":"X","legs":"F"},"action":"avoid","summary":"bad-avoid","bonus":0.520000000000001},{"rt":451,"stimulus":"\n                    <p><b>Action: <em>avoid</em></b></p>\n                    <p>This is the bee that you just saw.</p>\n                    <img src=\"bees-with-color/bee-B2SF.svg\" width=\"200\">\n                    <p><br>Your bonus pay is unchanged, and remains at $0.36.</p>\n            ","response":0,"trial_type":"html-button-response","trial_index":78,"time_elapsed":399099,"internal_node_id":"0.0-4.0-1.35","subject_id":"6074166fc721ed388ce13f7c","study_id":"6197b3f67c2b5cd3b6d9596a","session_id":"6197b88f7366c5a6860156fe","condition":"contingent","relevant_dimensions":["antennae","legs"],"bee_group":{"antennae":"A","wings":"X","pattern":"X","legs":"F"},"bonus":0.520000000000001},{"rt":995,"stimulus":"bees-with-color/bee-A2SF.svg","response":1,"trial_type":"image-button-response","trial_index":79,"time_elapsed":400095,"internal_node_id":"0.0-4.0-0.36","subject_id":"6074166fc721ed388ce13f7c","study_id":"6197b3f67c2b5cd3b6d9596a","session_id":"6197b88f7366c5a6860156fe","condition":"contingent","relevant_dimensions":["antennae","legs"],"bee_group":{"antennae":"A","wings":"X","pattern":"X","legs":"F"},"action":"avoid","summary":"good-avoid","bonus":0.520000000000001},{"rt":516,"stimulus":"\n                    <p><b>Action: <em>avoid</em></b></p>\n                    <p>This is the bee that you just saw.</p>\n                    <img src=\"bees-with-color/bee-A2SF.svg\" width=\"200\">\n                    <p><br>Your bonus pay is unchanged, and remains at $0.36.</p>\n            ","response":0,"trial_type":"html-button-response","trial_index":80,"time_elapsed":400612,"internal_node_id":"0.0-4.0-1.36","subject_id":"6074166fc721ed388ce13f7c","study_id":"6197b3f67c2b5cd3b6d9596a","session_id":"6197b88f7366c5a6860156fe","condition":"contingent","relevant_dimensions":["antennae","legs"],"bee_group":{"antennae":"A","wings":"X","pattern":"X","legs":"F"},"bonus":0.520000000000001},{"rt":2136,"stimulus":"bees-with-color/bee-A1DM.svg","response":0,"trial_type":"image-button-response","trial_index":81,"time_elapsed":402749,"internal_node_id":"0.0-4.0-0.37","subject_id":"6074166fc721ed388ce13f7c","study_id":"6197b3f67c2b5cd3b6d9596a","session_id":"6197b88f7366c5a6860156fe","condition":"contingent","relevant_dimensions":["antennae","legs"],"bee_group":{"antennae":"A","wings":"X","pattern":"X","legs":"F"},"action":"harvest","summary":"good-harvest","bonus":0.520000000000001},{"rt":499,"stimulus":"\n                    <p><b>Action: <em>harvest</em></b></p>\n                    <p>This is the bee that you just saw.</p>\n                    <img src=\"bees-with-color/bee-A1DM.svg\" width=\"200\">\n                    <p><span class=\"greenText\"><b>Successful harvest!</b></span><br>Your pay has increased by $0.02. Your bonus pay is now $0.38.</p>\n            ","response":0,"trial_type":"html-button-response","trial_index":82,"time_elapsed":403248,"internal_node_id":"0.0-4.0-1.37","subject_id":"6074166fc721ed388ce13f7c","study_id":"6197b3f67c2b5cd3b6d9596a","session_id":"6197b88f7366c5a6860156fe","condition":"contingent","relevant_dimensions":["antennae","legs"],"bee_group":{"antennae":"A","wings":"X","pattern":"X","legs":"F"},"bonus":0.520000000000001},{"rt":2199,"stimulus":"bees-with-color/bee-A2DF.svg","response":1,"trial_type":"image-button-response","trial_index":83,"time_elapsed":405449,"internal_node_id":"0.0-4.0-0.38","subject_id":"6074166fc721ed388ce13f7c","study_id":"6197b3f67c2b5cd3b6d9596a","session_id":"6197b88f7366c5a6860156fe","condition":"contingent","relevant_dimensions":["antennae","legs"],"bee_group":{"antennae":"A","wings":"X","pattern":"X","legs":"F"},"action":"avoid","summary":"good-avoid","bonus":0.520000000000001},{"rt":430,"stimulus":"\n                    <p><b>Action: <em>avoid</em></b></p>\n                    <p>This is the bee that you just saw.</p>\n                    <img src=\"bees-with-color/bee-A2DF.svg\" width=\"200\">\n                    <p><br>Your bonus pay is unchanged, and remains at $0.38.</p>\n            ","response":0,"trial_type":"html-button-response","trial_index":84,"time_elapsed":405881,"internal_node_id":"0.0-4.0-1.38","subject_id":"6074166fc721ed388ce13f7c","study_id":"6197b3f67c2b5cd3b6d9596a","session_id":"6197b88f7366c5a6860156fe","condition":"contingent","relevant_dimensions":["antennae","legs"],"bee_group":{"antennae":"A","wings":"X","pattern":"X","legs":"F"},"bonus":0.520000000000001},{"rt":1467,"stimulus":"bees-with-color/bee-A2SM.svg","response":0,"trial_type":"image-button-response","trial_index":85,"time_elapsed":407350,"internal_node_id":"0.0-4.0-0.39","subject_id":"6074166fc721ed388ce13f7c","study_id":"6197b3f67c2b5cd3b6d9596a","session_id":"6197b88f7366c5a6860156fe","condition":"contingent","relevant_dimensions":["antennae","legs"],"bee_group":{"antennae":"A","wings":"X","pattern":"X","legs":"F"},"action":"harvest","summary":"good-harvest","bonus":0.520000000000001},{"rt":458,"stimulus":"\n                    <p><b>Action: <em>harvest</em></b></p>\n                    <p>This is the bee that you just saw.</p>\n                    <img src=\"bees-with-color/bee-A2SM.svg\" width=\"200\">\n                    <p><span class=\"greenText\"><b>Successful harvest!</b></span><br>Your pay has increased by $0.02. Your bonus pay is now $0.40.</p>\n            ","response":0,"trial_type":"html-button-response","trial_index":86,"time_elapsed":407808,"internal_node_id":"0.0-4.0-1.39","subject_id":"6074166fc721ed388ce13f7c","study_id":"6197b3f67c2b5cd3b6d9596a","session_id":"6197b88f7366c5a6860156fe","condition":"contingent","relevant_dimensions":["antennae","legs"],"bee_group":{"antennae":"A","wings":"X","pattern":"X","legs":"F"},"bonus":0.520000000000001},{"rt":5839,"stimulus":"bees-with-color/bee-B2DM.svg","response":0,"trial_type":"image-button-response","trial_index":87,"time_elapsed":413649,"internal_node_id":"0.0-4.0-0.40","subject_id":"6074166fc721ed388ce13f7c","study_id":"6197b3f67c2b5cd3b6d9596a","session_id":"6197b88f7366c5a6860156fe","condition":"contingent","relevant_dimensions":["antennae","legs"],"bee_group":{"antennae":"A","wings":"X","pattern":"X","legs":"F"},"action":"harvest","summary":"good-harvest","bonus":0.520000000000001},{"rt":483,"stimulus":"\n                    <p><b>Action: <em>harvest</em></b></p>\n                    <p>This is the bee that you just saw.</p>\n                    <img src=\"bees-with-color/bee-B2DM.svg\" width=\"200\">\n                    <p><span class=\"greenText\"><b>Successful harvest!</b></span><br>Your pay has increased by $0.02. Your bonus pay is now $0.42.</p>\n            ","response":0,"trial_type":"html-button-response","trial_index":88,"time_elapsed":414135,"internal_node_id":"0.0-4.0-1.40","subject_id":"6074166fc721ed388ce13f7c","study_id":"6197b3f67c2b5cd3b6d9596a","session_id":"6197b88f7366c5a6860156fe","condition":"contingent","relevant_dimensions":["antennae","legs"],"bee_group":{"antennae":"A","wings":"X","pattern":"X","legs":"F"},"bonus":0.520000000000001},{"rt":5387,"stimulus":"bees-with-color/bee-B1DM.svg","response":0,"trial_type":"image-button-response","trial_index":89,"time_elapsed":419524,"internal_node_id":"0.0-4.0-0.41","subject_id":"6074166fc721ed388ce13f7c","study_id":"6197b3f67c2b5cd3b6d9596a","session_id":"6197b88f7366c5a6860156fe","condition":"contingent","relevant_dimensions":["antennae","legs"],"bee_group":{"antennae":"A","wings":"X","pattern":"X","legs":"F"},"action":"harvest","summary":"good-harvest","bonus":0.520000000000001},{"rt":455,"stimulus":"\n                    <p><b>Action: <em>harvest</em></b></p>\n                    <p>This is the bee that you just saw.</p>\n                    <img src=\"bees-with-color/bee-B1DM.svg\" width=\"200\">\n                    <p><span class=\"greenText\"><b>Successful harvest!</b></span><br>Your pay has increased by $0.02. Your bonus pay is now $0.44.</p>\n            ","response":0,"trial_type":"html-button-response","trial_index":90,"time_elapsed":419982,"internal_node_id":"0.0-4.0-1.41","subject_id":"6074166fc721ed388ce13f7c","study_id":"6197b3f67c2b5cd3b6d9596a","session_id":"6197b88f7366c5a6860156fe","condition":"contingent","relevant_dimensions":["antennae","legs"],"bee_group":{"antennae":"A","wings":"X","pattern":"X","legs":"F"},"bonus":0.520000000000001},{"rt":1107,"stimulus":"bees-with-color/bee-A1DF.svg","response":1,"trial_type":"image-button-response","trial_index":91,"time_elapsed":421091,"internal_node_id":"0.0-4.0-0.42","subject_id":"6074166fc721ed388ce13f7c","study_id":"6197b3f67c2b5cd3b6d9596a","session_id":"6197b88f7366c5a6860156fe","condition":"contingent","relevant_dimensions":["antennae","legs"],"bee_group":{"antennae":"A","wings":"X","pattern":"X","legs":"F"},"action":"avoid","summary":"good-avoid","bonus":0.520000000000001},{"rt":482,"stimulus":"\n                    <p><b>Action: <em>avoid</em></b></p>\n                    <p>This is the bee that you just saw.</p>\n                    <img src=\"bees-with-color/bee-A1DF.svg\" width=\"200\">\n                    <p><br>Your bonus pay is unchanged, and remains at $0.44.</p>\n            ","response":0,"trial_type":"html-button-response","trial_index":92,"time_elapsed":421575,"internal_node_id":"0.0-4.0-1.42","subject_id":"6074166fc721ed388ce13f7c","study_id":"6197b3f67c2b5cd3b6d9596a","session_id":"6197b88f7366c5a6860156fe","condition":"contingent","relevant_dimensions":["antennae","legs"],"bee_group":{"antennae":"A","wings":"X","pattern":"X","legs":"F"},"bonus":0.520000000000001},{"rt":1775,"stimulus":"bees-with-color/bee-A1SM.svg","response":0,"trial_type":"image-button-response","trial_index":93,"time_elapsed":423352,"internal_node_id":"0.0-4.0-0.43","subject_id":"6074166fc721ed388ce13f7c","study_id":"6197b3f67c2b5cd3b6d9596a","session_id":"6197b88f7366c5a6860156fe","condition":"contingent","relevant_dimensions":["antennae","legs"],"bee_group":{"antennae":"A","wings":"X","pattern":"X","legs":"F"},"action":"harvest","summary":"good-harvest","bonus":0.520000000000001},{"rt":448,"stimulus":"\n                    <p><b>Action: <em>harvest</em></b></p>\n                    <p>This is the bee that you just saw.</p>\n                    <img src=\"bees-with-color/bee-A1SM.svg\" width=\"200\">\n                    <p><span class=\"greenText\"><b>Successful harvest!</b></span><br>Your pay has increased by $0.02. Your bonus pay is now $0.46.</p>\n            ","response":0,"trial_type":"html-button-response","trial_index":94,"time_elapsed":423803,"internal_node_id":"0.0-4.0-1.43","subject_id":"6074166fc721ed388ce13f7c","study_id":"6197b3f67c2b5cd3b6d9596a","session_id":"6197b88f7366c5a6860156fe","condition":"contingent","relevant_dimensions":["antennae","legs"],"bee_group":{"antennae":"A","wings":"X","pattern":"X","legs":"F"},"bonus":0.520000000000001},{"rt":1112,"stimulus":"bees-with-color/bee-B1SF.svg","response":1,"trial_type":"image-button-response","trial_index":95,"time_elapsed":424930,"internal_node_id":"0.0-4.0-0.44","subject_id":"6074166fc721ed388ce13f7c","study_id":"6197b3f67c2b5cd3b6d9596a","session_id":"6197b88f7366c5a6860156fe","condition":"contingent","relevant_dimensions":["antennae","legs"],"bee_group":{"antennae":"A","wings":"X","pattern":"X","legs":"F"},"action":"avoid","summary":"bad-avoid","bonus":0.520000000000001},{"rt":503,"stimulus":"\n                    <p><b>Action: <em>avoid</em></b></p>\n                    <p>This is the bee that you just saw.</p>\n                    <img src=\"bees-with-color/bee-B1SF.svg\" width=\"200\">\n                    <p><br>Your bonus pay is unchanged, and remains at $0.46.</p>\n            ","response":0,"trial_type":"html-button-response","trial_index":96,"time_elapsed":425435,"internal_node_id":"0.0-4.0-1.44","subject_id":"6074166fc721ed388ce13f7c","study_id":"6197b3f67c2b5cd3b6d9596a","session_id":"6197b88f7366c5a6860156fe","condition":"contingent","relevant_dimensions":["antennae","legs"],"bee_group":{"antennae":"A","wings":"X","pattern":"X","legs":"F"},"bonus":0.520000000000001},{"rt":1846,"stimulus":"bees-with-color/bee-B1DF.svg","response":1,"trial_type":"image-button-response","trial_index":97,"time_elapsed":427282,"internal_node_id":"0.0-4.0-0.45","subject_id":"6074166fc721ed388ce13f7c","study_id":"6197b3f67c2b5cd3b6d9596a","session_id":"6197b88f7366c5a6860156fe","condition":"contingent","relevant_dimensions":["antennae","legs"],"bee_group":{"antennae":"A","wings":"X","pattern":"X","legs":"F"},"action":"avoid","summary":"bad-avoid","bonus":0.520000000000001},{"rt":536,"stimulus":"\n                    <p><b>Action: <em>avoid</em></b></p>\n                    <p>This is the bee that you just saw.</p>\n                    <img src=\"bees-with-color/bee-B1DF.svg\" width=\"200\">\n                    <p><br>Your bonus pay is unchanged, and remains at $0.46.</p>\n            ","response":0,"trial_type":"html-button-response","trial_index":98,"time_elapsed":427820,"internal_node_id":"0.0-4.0-1.45","subject_id":"6074166fc721ed388ce13f7c","study_id":"6197b3f67c2b5cd3b6d9596a","session_id":"6197b88f7366c5a6860156fe","condition":"contingent","relevant_dimensions":["antennae","legs"],"bee_group":{"antennae":"A","wings":"X","pattern":"X","legs":"F"},"bonus":0.520000000000001},{"rt":5915,"stimulus":"bees-with-color/bee-A1SF.svg","response":0,"trial_type":"image-button-response","trial_index":99,"time_elapsed":433739,"internal_node_id":"0.0-4.0-0.46","subject_id":"6074166fc721ed388ce13f7c","study_id":"6197b3f67c2b5cd3b6d9596a","session_id":"6197b88f7366c5a6860156fe","condition":"contingent","relevant_dimensions":["antennae","legs"],"bee_group":{"antennae":"A","wings":"X","pattern":"X","legs":"F"},"action":"harvest","summary":"bad-harvest","bonus":0.520000000000001},{"rt":1542,"stimulus":"\n                    <p><b>Action: <em>harvest</em></b></p>\n                    <p>This is the bee that you just saw.</p>\n                    <img src=\"bees-with-color/bee-A1SF.svg\" width=\"200\">\n                    <p><span class=\"redText\">Bad choice, the bee was angry.</span><br><b>You have been stung!</b><br>Your pay has been decreased by $0.10. Your bonus pay is now $0.36.</p>\n            ","response":0,"trial_type":"html-button-response","trial_index":100,"time_elapsed":435282,"internal_node_id":"0.0-4.0-1.46","subject_id":"6074166fc721ed388ce13f7c","study_id":"6197b3f67c2b5cd3b6d9596a","session_id":"6197b88f7366c5a6860156fe","condition":"contingent","relevant_dimensions":["antennae","legs"],"bee_group":{"antennae":"A","wings":"X","pattern":"X","legs":"F"},"bonus":0.520000000000001},{"rt":1414,"stimulus":"bees-with-color/bee-B2SM.svg","response":0,"trial_type":"image-button-response","trial_index":101,"time_elapsed":436712,"internal_node_id":"0.0-4.0-0.47","subject_id":"6074166fc721ed388ce13f7c","study_id":"6197b3f67c2b5cd3b6d9596a","session_id":"6197b88f7366c5a6860156fe","condition":"contingent","relevant_dimensions":["antennae","legs"],"bee_group":{"antennae":"A","wings":"X","pattern":"X","legs":"F"},"action":"harvest","summary":"good-harvest","bonus":0.520000000000001},{"rt":571,"stimulus":"\n                    <p><b>Action: <em>harvest</em></b></p>\n                    <p>This is the bee that you just saw.</p>\n                    <img src=\"bees-with-color/bee-B2SM.svg\" width=\"200\">\n                    <p><span class=\"greenText\"><b>Successful harvest!</b></span><br>Your pay has increased by $0.02. Your bonus pay is now $0.38.</p>\n            ","response":0,"trial_type":"html-button-response","trial_index":102,"time_elapsed":437283,"internal_node_id":"0.0-4.0-1.47","subject_id":"6074166fc721ed388ce13f7c","study_id":"6197b3f67c2b5cd3b6d9596a","session_id":"6197b88f7366c5a6860156fe","condition":"contingent","relevant_dimensions":["antennae","legs"],"bee_group":{"antennae":"A","wings":"X","pattern":"X","legs":"F"},"bonus":0.520000000000001},{"rt":1403,"stimulus":"bees-with-color/bee-A2DM.svg","response":1,"trial_type":"image-button-response","trial_index":103,"time_elapsed":438686,"internal_node_id":"0.0-4.0-0.48","subject_id":"6074166fc721ed388ce13f7c","study_id":"6197b3f67c2b5cd3b6d9596a","session_id":"6197b88f7366c5a6860156fe","condition":"contingent","relevant_dimensions":["antennae","legs"],"bee_group":{"antennae":"A","wings":"X","pattern":"X","legs":"F"},"action":"avoid","summary":"bad-avoid","bonus":0.520000000000001},{"rt":665,"stimulus":"\n                    <p><b>Action: <em>avoid</em></b></p>\n                    <p>This is the bee that you just saw.</p>\n                    <img src=\"bees-with-color/bee-A2DM.svg\" width=\"200\">\n                    <p><br>Your bonus pay is unchanged, and remains at $0.38.</p>\n            ","response":0,"trial_type":"html-button-response","trial_index":104,"time_elapsed":439354,"internal_node_id":"0.0-4.0-1.48","subject_id":"6074166fc721ed388ce13f7c","study_id":"6197b3f67c2b5cd3b6d9596a","session_id":"6197b88f7366c5a6860156fe","condition":"contingent","relevant_dimensions":["antennae","legs"],"bee_group":{"antennae":"A","wings":"X","pattern":"X","legs":"F"},"bonus":0.520000000000001},{"rt":1057,"stimulus":"bees-with-color/bee-A2SM.svg","response":0,"trial_type":"image-button-response","trial_index":105,"time_elapsed":440413,"internal_node_id":"0.0-4.0-0.49","subject_id":"6074166fc721ed388ce13f7c","study_id":"6197b3f67c2b5cd3b6d9596a","session_id":"6197b88f7366c5a6860156fe","condition":"contingent","relevant_dimensions":["antennae","legs"],"bee_group":{"antennae":"A","wings":"X","pattern":"X","legs":"F"},"action":"harvest","summary":"good-harvest","bonus":0.520000000000001},{"rt":502,"stimulus":"\n                    <p><b>Action: <em>harvest</em></b></p>\n                    <p>This is the bee that you just saw.</p>\n                    <img src=\"bees-with-color/bee-A2SM.svg\" width=\"200\">\n                    <p><span class=\"greenText\"><b>Successful harvest!</b></span><br>Your pay has increased by $0.02. Your bonus pay is now $0.40.</p>\n            ","response":0,"trial_type":"html-button-response","trial_index":106,"time_elapsed":440915,"internal_node_id":"0.0-4.0-1.49","subject_id":"6074166fc721ed388ce13f7c","study_id":"6197b3f67c2b5cd3b6d9596a","session_id":"6197b88f7366c5a6860156fe","condition":"contingent","relevant_dimensions":["antennae","legs"],"bee_group":{"antennae":"A","wings":"X","pattern":"X","legs":"F"},"bonus":0.520000000000001},{"rt":1000,"stimulus":"bees-with-color/bee-B2SF.svg","response":1,"trial_type":"image-button-response","trial_index":107,"time_elapsed":441917,"internal_node_id":"0.0-4.0-0.50","subject_id":"6074166fc721ed388ce13f7c","study_id":"6197b3f67c2b5cd3b6d9596a","session_id":"6197b88f7366c5a6860156fe","condition":"contingent","relevant_dimensions":["antennae","legs"],"bee_group":{"antennae":"A","wings":"X","pattern":"X","legs":"F"},"action":"avoid","summary":"bad-avoid","bonus":0.520000000000001},{"rt":877,"stimulus":"\n                    <p><b>Action: <em>avoid</em></b></p>\n                    <p>This is the bee that you just saw.</p>\n                    <img src=\"bees-with-color/bee-B2SF.svg\" width=\"200\">\n                    <p><br>Your bonus pay is unchanged, and remains at $0.40.</p>\n            ","response":0,"trial_type":"html-button-response","trial_index":108,"time_elapsed":442796,"internal_node_id":"0.0-4.0-1.50","subject_id":"6074166fc721ed388ce13f7c","study_id":"6197b3f67c2b5cd3b6d9596a","session_id":"6197b88f7366c5a6860156fe","condition":"contingent","relevant_dimensions":["antennae","legs"],"bee_group":{"antennae":"A","wings":"X","pattern":"X","legs":"F"},"bonus":0.520000000000001},{"rt":1749,"stimulus":"bees-with-color/bee-A1DM.svg","response":0,"trial_type":"image-button-response","trial_index":109,"time_elapsed":444546,"internal_node_id":"0.0-4.0-0.51","subject_id":"6074166fc721ed388ce13f7c","study_id":"6197b3f67c2b5cd3b6d9596a","session_id":"6197b88f7366c5a6860156fe","condition":"contingent","relevant_dimensions":["antennae","legs"],"bee_group":{"antennae":"A","wings":"X","pattern":"X","legs":"F"},"action":"harvest","summary":"good-harvest","bonus":0.520000000000001},{"rt":493,"stimulus":"\n                    <p><b>Action: <em>harvest</em></b></p>\n                    <p>This is the bee that you just saw.</p>\n                    <img src=\"bees-with-color/bee-A1DM.svg\" width=\"200\">\n                    <p><span class=\"greenText\"><b>Successful harvest!</b></span><br>Your pay has increased by $0.02. Your bonus pay is now $0.42.</p>\n            ","response":0,"trial_type":"html-button-response","trial_index":110,"time_elapsed":445049,"internal_node_id":"0.0-4.0-1.51","subject_id":"6074166fc721ed388ce13f7c","study_id":"6197b3f67c2b5cd3b6d9596a","session_id":"6197b88f7366c5a6860156fe","condition":"contingent","relevant_dimensions":["antennae","legs"],"bee_group":{"antennae":"A","wings":"X","pattern":"X","legs":"F"},"bonus":0.520000000000001},{"rt":1035,"stimulus":"bees-with-color/bee-B1SF.svg","response":1,"trial_type":"image-button-response","trial_index":111,"time_elapsed":446086,"internal_node_id":"0.0-4.0-0.52","subject_id":"6074166fc721ed388ce13f7c","study_id":"6197b3f67c2b5cd3b6d9596a","session_id":"6197b88f7366c5a6860156fe","condition":"contingent","relevant_dimensions":["antennae","legs"],"bee_group":{"antennae":"A","wings":"X","pattern":"X","legs":"F"},"action":"avoid","summary":"bad-avoid","bonus":0.520000000000001},{"rt":912,"stimulus":"\n                    <p><b>Action: <em>avoid</em></b></p>\n                    <p>This is the bee that you just saw.</p>\n                    <img src=\"bees-with-color/bee-B1SF.svg\" width=\"200\">\n                    <p><br>Your bonus pay is unchanged, and remains at $0.42.</p>\n            ","response":0,"trial_type":"html-button-response","trial_index":112,"time_elapsed":447000,"internal_node_id":"0.0-4.0-1.52","subject_id":"6074166fc721ed388ce13f7c","study_id":"6197b3f67c2b5cd3b6d9596a","session_id":"6197b88f7366c5a6860156fe","condition":"contingent","relevant_dimensions":["antennae","legs"],"bee_group":{"antennae":"A","wings":"X","pattern":"X","legs":"F"},"bonus":0.520000000000001},{"rt":1180,"stimulus":"bees-with-color/bee-A1DF.svg","response":1,"trial_type":"image-button-response","trial_index":113,"time_elapsed":448196,"internal_node_id":"0.0-4.0-0.53","subject_id":"6074166fc721ed388ce13f7c","study_id":"6197b3f67c2b5cd3b6d9596a","session_id":"6197b88f7366c5a6860156fe","condition":"contingent","relevant_dimensions":["antennae","legs"],"bee_group":{"antennae":"A","wings":"X","pattern":"X","legs":"F"},"action":"avoid","summary":"good-avoid","bonus":0.520000000000001},{"rt":448,"stimulus":"\n                    <p><b>Action: <em>avoid</em></b></p>\n                    <p>This is the bee that you just saw.</p>\n                    <img src=\"bees-with-color/bee-A1DF.svg\" width=\"200\">\n                    <p><br>Your bonus pay is unchanged, and remains at $0.42.</p>\n            ","response":0,"trial_type":"html-button-response","trial_index":114,"time_elapsed":448646,"internal_node_id":"0.0-4.0-1.53","subject_id":"6074166fc721ed388ce13f7c","study_id":"6197b3f67c2b5cd3b6d9596a","session_id":"6197b88f7366c5a6860156fe","condition":"contingent","relevant_dimensions":["antennae","legs"],"bee_group":{"antennae":"A","wings":"X","pattern":"X","legs":"F"},"bonus":0.520000000000001},{"rt":1067,"stimulus":"bees-with-color/bee-A2SF.svg","response":1,"trial_type":"image-button-response","trial_index":115,"time_elapsed":449714,"internal_node_id":"0.0-4.0-0.54","subject_id":"6074166fc721ed388ce13f7c","study_id":"6197b3f67c2b5cd3b6d9596a","session_id":"6197b88f7366c5a6860156fe","condition":"contingent","relevant_dimensions":["antennae","legs"],"bee_group":{"antennae":"A","wings":"X","pattern":"X","legs":"F"},"action":"avoid","summary":"good-avoid","bonus":0.520000000000001},{"rt":408,"stimulus":"\n                    <p><b>Action: <em>avoid</em></b></p>\n                    <p>This is the bee that you just saw.</p>\n                    <img src=\"bees-with-color/bee-A2SF.svg\" width=\"200\">\n                    <p><br>Your bonus pay is unchanged, and remains at $0.42.</p>\n            ","response":0,"trial_type":"html-button-response","trial_index":116,"time_elapsed":450125,"internal_node_id":"0.0-4.0-1.54","subject_id":"6074166fc721ed388ce13f7c","study_id":"6197b3f67c2b5cd3b6d9596a","session_id":"6197b88f7366c5a6860156fe","condition":"contingent","relevant_dimensions":["antennae","legs"],"bee_group":{"antennae":"A","wings":"X","pattern":"X","legs":"F"},"bonus":0.520000000000001},{"rt":1562,"stimulus":"bees-with-color/bee-A1SM.svg","response":0,"trial_type":"image-button-response","trial_index":117,"time_elapsed":451688,"internal_node_id":"0.0-4.0-0.55","subject_id":"6074166fc721ed388ce13f7c","study_id":"6197b3f67c2b5cd3b6d9596a","session_id":"6197b88f7366c5a6860156fe","condition":"contingent","relevant_dimensions":["antennae","legs"],"bee_group":{"antennae":"A","wings":"X","pattern":"X","legs":"F"},"action":"harvest","summary":"good-harvest","bonus":0.520000000000001},{"rt":453,"stimulus":"\n                    <p><b>Action: <em>harvest</em></b></p>\n                    <p>This is the bee that you just saw.</p>\n                    <img src=\"bees-with-color/bee-A1SM.svg\" width=\"200\">\n                    <p><span class=\"greenText\"><b>Successful harvest!</b></span><br>Your pay has increased by $0.02. Your bonus pay is now $0.44.</p>\n            ","response":0,"trial_type":"html-button-response","trial_index":118,"time_elapsed":452142,"internal_node_id":"0.0-4.0-1.55","subject_id":"6074166fc721ed388ce13f7c","study_id":"6197b3f67c2b5cd3b6d9596a","session_id":"6197b88f7366c5a6860156fe","condition":"contingent","relevant_dimensions":["antennae","legs"],"bee_group":{"antennae":"A","wings":"X","pattern":"X","legs":"F"},"bonus":0.520000000000001},{"rt":1974,"stimulus":"bees-with-color/bee-B1DF.svg","response":0,"trial_type":"image-button-response","trial_index":119,"time_elapsed":454117,"internal_node_id":"0.0-4.0-0.56","subject_id":"6074166fc721ed388ce13f7c","study_id":"6197b3f67c2b5cd3b6d9596a","session_id":"6197b88f7366c5a6860156fe","condition":"contingent","relevant_dimensions":["antennae","legs"],"bee_group":{"antennae":"A","wings":"X","pattern":"X","legs":"F"},"action":"harvest","summary":"good-harvest","bonus":0.520000000000001},{"rt":503,"stimulus":"\n                    <p><b>Action: <em>harvest</em></b></p>\n                    <p>This is the bee that you just saw.</p>\n                    <img src=\"bees-with-color/bee-B1DF.svg\" width=\"200\">\n                    <p><span class=\"greenText\"><b>Successful harvest!</b></span><br>Your pay has increased by $0.02. Your bonus pay is now $0.46.</p>\n            ","response":0,"trial_type":"html-button-response","trial_index":120,"time_elapsed":454620,"internal_node_id":"0.0-4.0-1.56","subject_id":"6074166fc721ed388ce13f7c","study_id":"6197b3f67c2b5cd3b6d9596a","session_id":"6197b88f7366c5a6860156fe","condition":"contingent","relevant_dimensions":["antennae","legs"],"bee_group":{"antennae":"A","wings":"X","pattern":"X","legs":"F"},"bonus":0.520000000000001},{"rt":2065,"stimulus":"bees-with-color/bee-B1DM.svg","response":0,"trial_type":"image-button-response","trial_index":121,"time_elapsed":456686,"internal_node_id":"0.0-4.0-0.57","subject_id":"6074166fc721ed388ce13f7c","study_id":"6197b3f67c2b5cd3b6d9596a","session_id":"6197b88f7366c5a6860156fe","condition":"contingent","relevant_dimensions":["antennae","legs"],"bee_group":{"antennae":"A","wings":"X","pattern":"X","legs":"F"},"action":"harvest","summary":"good-harvest","bonus":0.520000000000001},{"rt":451,"stimulus":"\n                    <p><b>Action: <em>harvest</em></b></p>\n                    <p>This is the bee that you just saw.</p>\n                    <img src=\"bees-with-color/bee-B1DM.svg\" width=\"200\">\n                    <p><span class=\"greenText\"><b>Successful harvest!</b></span><br>Your pay has increased by $0.02. Your bonus pay is now $0.48.</p>\n            ","response":0,"trial_type":"html-button-response","trial_index":122,"time_elapsed":457138,"internal_node_id":"0.0-4.0-1.57","subject_id":"6074166fc721ed388ce13f7c","study_id":"6197b3f67c2b5cd3b6d9596a","session_id":"6197b88f7366c5a6860156fe","condition":"contingent","relevant_dimensions":["antennae","legs"],"bee_group":{"antennae":"A","wings":"X","pattern":"X","legs":"F"},"bonus":0.520000000000001},{"rt":1282,"stimulus":"bees-with-color/bee-B2SM.svg","response":0,"trial_type":"image-button-response","trial_index":123,"time_elapsed":458424,"internal_node_id":"0.0-4.0-0.58","subject_id":"6074166fc721ed388ce13f7c","study_id":"6197b3f67c2b5cd3b6d9596a","session_id":"6197b88f7366c5a6860156fe","condition":"contingent","relevant_dimensions":["antennae","legs"],"bee_group":{"antennae":"A","wings":"X","pattern":"X","legs":"F"},"action":"harvest","summary":"good-harvest","bonus":0.520000000000001},{"rt":406,"stimulus":"\n                    <p><b>Action: <em>harvest</em></b></p>\n                    <p>This is the bee that you just saw.</p>\n                    <img src=\"bees-with-color/bee-B2SM.svg\" width=\"200\">\n                    <p><span class=\"greenText\"><b>Successful harvest!</b></span><br>Your pay has increased by $0.02. Your bonus pay is now $0.50.</p>\n            ","response":0,"trial_type":"html-button-response","trial_index":124,"time_elapsed":458832,"internal_node_id":"0.0-4.0-1.58","subject_id":"6074166fc721ed388ce13f7c","study_id":"6197b3f67c2b5cd3b6d9596a","session_id":"6197b88f7366c5a6860156fe","condition":"contingent","relevant_dimensions":["antennae","legs"],"bee_group":{"antennae":"A","wings":"X","pattern":"X","legs":"F"},"bonus":0.520000000000001},{"rt":998,"stimulus":"bees-with-color/bee-B2DF.svg","response":1,"trial_type":"image-button-response","trial_index":125,"time_elapsed":459830,"internal_node_id":"0.0-4.0-0.59","subject_id":"6074166fc721ed388ce13f7c","study_id":"6197b3f67c2b5cd3b6d9596a","session_id":"6197b88f7366c5a6860156fe","condition":"contingent","relevant_dimensions":["antennae","legs"],"bee_group":{"antennae":"A","wings":"X","pattern":"X","legs":"F"},"action":"avoid","summary":"bad-avoid","bonus":0.520000000000001},{"rt":443,"stimulus":"\n                    <p><b>Action: <em>avoid</em></b></p>\n                    <p>This is the bee that you just saw.</p>\n                    <img src=\"bees-with-color/bee-B2DF.svg\" width=\"200\">\n                    <p><br>Your bonus pay is unchanged, and remains at $0.50.</p>\n            ","response":0,"trial_type":"html-button-response","trial_index":126,"time_elapsed":460273,"internal_node_id":"0.0-4.0-1.59","subject_id":"6074166fc721ed388ce13f7c","study_id":"6197b3f67c2b5cd3b6d9596a","session_id":"6197b88f7366c5a6860156fe","condition":"contingent","relevant_dimensions":["antennae","legs"],"bee_group":{"antennae":"A","wings":"X","pattern":"X","legs":"F"},"bonus":0.520000000000001},{"rt":2475,"stimulus":"bees-with-color/bee-A2DF.svg","response":1,"trial_type":"image-button-response","trial_index":127,"time_elapsed":462748,"internal_node_id":"0.0-4.0-0.60","subject_id":"6074166fc721ed388ce13f7c","study_id":"6197b3f67c2b5cd3b6d9596a","session_id":"6197b88f7366c5a6860156fe","condition":"contingent","relevant_dimensions":["antennae","legs"],"bee_group":{"antennae":"A","wings":"X","pattern":"X","legs":"F"},"action":"avoid","summary":"good-avoid","bonus":0.520000000000001},{"rt":564,"stimulus":"\n                    <p><b>Action: <em>avoid</em></b></p>\n                    <p>This is the bee that you just saw.</p>\n                    <img src=\"bees-with-color/bee-A2DF.svg\" width=\"200\">\n                    <p><br>Your bonus pay is unchanged, and remains at $0.50.</p>\n            ","response":0,"trial_type":"html-button-response","trial_index":128,"time_elapsed":463314,"internal_node_id":"0.0-4.0-1.60","subject_id":"6074166fc721ed388ce13f7c","study_id":"6197b3f67c2b5cd3b6d9596a","session_id":"6197b88f7366c5a6860156fe","condition":"contingent","relevant_dimensions":["antennae","legs"],"bee_group":{"antennae":"A","wings":"X","pattern":"X","legs":"F"},"bonus":0.520000000000001},{"rt":1965,"stimulus":"bees-with-color/bee-A1SF.svg","response":0,"trial_type":"image-button-response","trial_index":129,"time_elapsed":465279,"internal_node_id":"0.0-4.0-0.61","subject_id":"6074166fc721ed388ce13f7c","study_id":"6197b3f67c2b5cd3b6d9596a","session_id":"6197b88f7366c5a6860156fe","condition":"contingent","relevant_dimensions":["antennae","legs"],"bee_group":{"antennae":"A","wings":"X","pattern":"X","legs":"F"},"action":"harvest","summary":"bad-harvest","bonus":0.520000000000001},{"rt":806,"stimulus":"\n                    <p><b>Action: <em>harvest</em></b></p>\n                    <p>This is the bee that you just saw.</p>\n                    <img src=\"bees-with-color/bee-A1SF.svg\" width=\"200\">\n                    <p><span class=\"redText\">Bad choice, the bee was angry.</span><br><b>You have been stung!</b><br>Your pay has been decreased by $0.10. Your bonus pay is now $0.40.</p>\n            ","response":0,"trial_type":"html-button-response","trial_index":130,"time_elapsed":466086,"internal_node_id":"0.0-4.0-1.61","subject_id":"6074166fc721ed388ce13f7c","study_id":"6197b3f67c2b5cd3b6d9596a","session_id":"6197b88f7366c5a6860156fe","condition":"contingent","relevant_dimensions":["antennae","legs"],"bee_group":{"antennae":"A","wings":"X","pattern":"X","legs":"F"},"bonus":0.520000000000001},{"rt":2887,"stimulus":"bees-with-color/bee-B1SM.svg","response":0,"trial_type":"image-button-response","trial_index":131,"time_elapsed":468974,"internal_node_id":"0.0-4.0-0.62","subject_id":"6074166fc721ed388ce13f7c","study_id":"6197b3f67c2b5cd3b6d9596a","session_id":"6197b88f7366c5a6860156fe","condition":"contingent","relevant_dimensions":["antennae","legs"],"bee_group":{"antennae":"A","wings":"X","pattern":"X","legs":"F"},"action":"harvest","summary":"good-harvest","bonus":0.520000000000001},{"rt":577,"stimulus":"\n                    <p><b>Action: <em>harvest</em></b></p>\n                    <p>This is the bee that you just saw.</p>\n                    <img src=\"bees-with-color/bee-B1SM.svg\" width=\"200\">\n                    <p><span class=\"greenText\"><b>Successful harvest!</b></span><br>Your pay has increased by $0.02. Your bonus pay is now $0.42.</p>\n            ","response":0,"trial_type":"html-button-response","trial_index":132,"time_elapsed":469552,"internal_node_id":"0.0-4.0-1.62","subject_id":"6074166fc721ed388ce13f7c","study_id":"6197b3f67c2b5cd3b6d9596a","session_id":"6197b88f7366c5a6860156fe","condition":"contingent","relevant_dimensions":["antennae","legs"],"bee_group":{"antennae":"A","wings":"X","pattern":"X","legs":"F"},"bonus":0.520000000000001},{"rt":1469,"stimulus":"bees-with-color/bee-B2DM.svg","response":0,"trial_type":"image-button-response","trial_index":133,"time_elapsed":471024,"internal_node_id":"0.0-4.0-0.63","subject_id":"6074166fc721ed388ce13f7c","study_id":"6197b3f67c2b5cd3b6d9596a","session_id":"6197b88f7366c5a6860156fe","condition":"contingent","relevant_dimensions":["antennae","legs"],"bee_group":{"antennae":"A","wings":"X","pattern":"X","legs":"F"},"action":"harvest","summary":"good-harvest","bonus":0.520000000000001},{"rt":466,"stimulus":"\n                    <p><b>Action: <em>harvest</em></b></p>\n                    <p>This is the bee that you just saw.</p>\n                    <img src=\"bees-with-color/bee-B2DM.svg\" width=\"200\">\n                    <p><span class=\"greenText\"><b>Successful harvest!</b></span><br>Your pay has increased by $0.02. Your bonus pay is now $0.44.</p>\n            ","response":0,"trial_type":"html-button-response","trial_index":134,"time_elapsed":471491,"internal_node_id":"0.0-4.0-1.63","subject_id":"6074166fc721ed388ce13f7c","study_id":"6197b3f67c2b5cd3b6d9596a","session_id":"6197b88f7366c5a6860156fe","condition":"contingent","relevant_dimensions":["antennae","legs"],"bee_group":{"antennae":"A","wings":"X","pattern":"X","legs":"F"},"bonus":0.520000000000001},{"rt":6947,"stimulus":"You have completed the first part of this experiment.<br><br>You will now begin a shorter second part, in which you will receive no feedback.<br>The same rules regarding bonus pay apply.<br><br>Press any key to begin.","response":" ","trial_type":"html-keyboard-response","trial_index":135,"time_elapsed":478441,"internal_node_id":"0.0-5.0","subject_id":"6074166fc721ed388ce13f7c","study_id":"6197b3f67c2b5cd3b6d9596a","session_id":"6197b88f7366c5a6860156fe","condition":"contingent","relevant_dimensions":["antennae","legs"],"bee_group":{"antennae":"A","wings":"X","pattern":"X","legs":"F"},"bonus":0.520000000000001},{"rt":6011,"stimulus":"bees-with-color/bee-A2SF.svg","response":1,"trial_type":"image-button-response","trial_index":136,"time_elapsed":484488,"internal_node_id":"0.0-6.0-0.0","subject_id":"6074166fc721ed388ce13f7c","study_id":"6197b3f67c2b5cd3b6d9596a","session_id":"6197b88f7366c5a6860156fe","condition":"contingent","relevant_dimensions":["antennae","legs"],"bee_group":{"antennae":"A","wings":"X","pattern":"X","legs":"F"},"bonus":0.520000000000001},{"rt":2542,"stimulus":"bees-with-color/bee-B2SF.svg","response":0,"trial_type":"image-button-response","trial_index":137,"time_elapsed":487035,"internal_node_id":"0.0-6.0-0.1","subject_id":"6074166fc721ed388ce13f7c","study_id":"6197b3f67c2b5cd3b6d9596a","session_id":"6197b88f7366c5a6860156fe","condition":"contingent","relevant_dimensions":["antennae","legs"],"bee_group":{"antennae":"A","wings":"X","pattern":"X","legs":"F"},"bonus":0.520000000000001},{"rt":11572,"stimulus":"bees-with-color/bee-A1DM.svg","response":0,"trial_type":"image-button-response","trial_index":138,"time_elapsed":498610,"internal_node_id":"0.0-6.0-0.2","subject_id":"6074166fc721ed388ce13f7c","study_id":"6197b3f67c2b5cd3b6d9596a","session_id":"6197b88f7366c5a6860156fe","condition":"contingent","relevant_dimensions":["antennae","legs"],"bee_group":{"antennae":"A","wings":"X","pattern":"X","legs":"F"},"bonus":0.520000000000001},{"rt":4251,"stimulus":"bees-with-color/bee-A1SM.svg","response":0,"trial_type":"image-button-response","trial_index":139,"time_elapsed":502865,"internal_node_id":"0.0-6.0-0.3","subject_id":"6074166fc721ed388ce13f7c","study_id":"6197b3f67c2b5cd3b6d9596a","session_id":"6197b88f7366c5a6860156fe","condition":"contingent","relevant_dimensions":["antennae","legs"],"bee_group":{"antennae":"A","wings":"X","pattern":"X","legs":"F"},"bonus":0.520000000000001},{"rt":1190,"stimulus":"bees-with-color/bee-B1DF.svg","response":1,"trial_type":"image-button-response","trial_index":140,"time_elapsed":504058,"internal_node_id":"0.0-6.0-0.4","subject_id":"6074166fc721ed388ce13f7c","study_id":"6197b3f67c2b5cd3b6d9596a","session_id":"6197b88f7366c5a6860156fe","condition":"contingent","relevant_dimensions":["antennae","legs"],"bee_group":{"antennae":"A","wings":"X","pattern":"X","legs":"F"},"bonus":0.520000000000001},{"rt":2179,"stimulus":"bees-with-color/bee-A2DM.svg","response":1,"trial_type":"image-button-response","trial_index":141,"time_elapsed":506249,"internal_node_id":"0.0-6.0-0.5","subject_id":"6074166fc721ed388ce13f7c","study_id":"6197b3f67c2b5cd3b6d9596a","session_id":"6197b88f7366c5a6860156fe","condition":"contingent","relevant_dimensions":["antennae","legs"],"bee_group":{"antennae":"A","wings":"X","pattern":"X","legs":"F"},"bonus":0.520000000000001},{"rt":920,"stimulus":"bees-with-color/bee-A2DF.svg","response":1,"trial_type":"image-button-response","trial_index":142,"time_elapsed":507172,"internal_node_id":"0.0-6.0-0.6","subject_id":"6074166fc721ed388ce13f7c","study_id":"6197b3f67c2b5cd3b6d9596a","session_id":"6197b88f7366c5a6860156fe","condition":"contingent","relevant_dimensions":["antennae","legs"],"bee_group":{"antennae":"A","wings":"X","pattern":"X","legs":"F"},"bonus":0.520000000000001},{"rt":9669,"stimulus":"bees-with-color/bee-B1SM.svg","response":0,"trial_type":"image-button-response","trial_index":143,"time_elapsed":516858,"internal_node_id":"0.0-6.0-0.7","subject_id":"6074166fc721ed388ce13f7c","study_id":"6197b3f67c2b5cd3b6d9596a","session_id":"6197b88f7366c5a6860156fe","condition":"contingent","relevant_dimensions":["antennae","legs"],"bee_group":{"antennae":"A","wings":"X","pattern":"X","legs":"F"},"bonus":0.520000000000001},{"rt":1849,"stimulus":"bees-with-color/bee-B2DM.svg","response":0,"trial_type":"image-button-response","trial_index":144,"time_elapsed":518710,"internal_node_id":"0.0-6.0-0.8","subject_id":"6074166fc721ed388ce13f7c","study_id":"6197b3f67c2b5cd3b6d9596a","session_id":"6197b88f7366c5a6860156fe","condition":"contingent","relevant_dimensions":["antennae","legs"],"bee_group":{"antennae":"A","wings":"X","pattern":"X","legs":"F"},"bonus":0.520000000000001},{"rt":1376,"stimulus":"bees-with-color/bee-B1SF.svg","response":1,"trial_type":"image-button-response","trial_index":145,"time_elapsed":520089,"internal_node_id":"0.0-6.0-0.9","subject_id":"6074166fc721ed388ce13f7c","study_id":"6197b3f67c2b5cd3b6d9596a","session_id":"6197b88f7366c5a6860156fe","condition":"contingent","relevant_dimensions":["antennae","legs"],"bee_group":{"antennae":"A","wings":"X","pattern":"X","legs":"F"},"bonus":0.520000000000001},{"rt":1232,"stimulus":"bees-with-color/bee-B2SM.svg","response":0,"trial_type":"image-button-response","trial_index":146,"time_elapsed":521321,"internal_node_id":"0.0-6.0-0.10","subject_id":"6074166fc721ed388ce13f7c","study_id":"6197b3f67c2b5cd3b6d9596a","session_id":"6197b88f7366c5a6860156fe","condition":"contingent","relevant_dimensions":["antennae","legs"],"bee_group":{"antennae":"A","wings":"X","pattern":"X","legs":"F"},"bonus":0.520000000000001},{"rt":916,"stimulus":"bees-with-color/bee-A2SM.svg","response":1,"trial_type":"image-button-response","trial_index":147,"time_elapsed":522241,"internal_node_id":"0.0-6.0-0.11","subject_id":"6074166fc721ed388ce13f7c","study_id":"6197b3f67c2b5cd3b6d9596a","session_id":"6197b88f7366c5a6860156fe","condition":"contingent","relevant_dimensions":["antennae","legs"],"bee_group":{"antennae":"A","wings":"X","pattern":"X","legs":"F"},"bonus":0.520000000000001},{"rt":945,"stimulus":"bees-with-color/bee-A1DF.svg","response":1,"trial_type":"image-button-response","trial_index":148,"time_elapsed":523189,"internal_node_id":"0.0-6.0-0.12","subject_id":"6074166fc721ed388ce13f7c","study_id":"6197b3f67c2b5cd3b6d9596a","session_id":"6197b88f7366c5a6860156fe","condition":"contingent","relevant_dimensions":["antennae","legs"],"bee_group":{"antennae":"A","wings":"X","pattern":"X","legs":"F"},"bonus":0.520000000000001},{"rt":2516,"stimulus":"bees-with-color/bee-B1DM.svg","response":0,"trial_type":"image-button-response","trial_index":149,"time_elapsed":525708,"internal_node_id":"0.0-6.0-0.13","subject_id":"6074166fc721ed388ce13f7c","study_id":"6197b3f67c2b5cd3b6d9596a","session_id":"6197b88f7366c5a6860156fe","condition":"contingent","relevant_dimensions":["antennae","legs"],"bee_group":{"antennae":"A","wings":"X","pattern":"X","legs":"F"},"bonus":0.520000000000001},{"rt":823,"stimulus":"bees-with-color/bee-A1SF.svg","response":1,"trial_type":"image-button-response","trial_index":150,"time_elapsed":526534,"internal_node_id":"0.0-6.0-0.14","subject_id":"6074166fc721ed388ce13f7c","study_id":"6197b3f67c2b5cd3b6d9596a","session_id":"6197b88f7366c5a6860156fe","condition":"contingent","relevant_dimensions":["antennae","legs"],"bee_group":{"antennae":"A","wings":"X","pattern":"X","legs":"F"},"bonus":0.520000000000001},{"rt":1552,"stimulus":"bees-with-color/bee-B2DF.svg","response":1,"trial_type":"image-button-response","trial_index":151,"time_elapsed":528086,"internal_node_id":"0.0-6.0-0.15","subject_id":"6074166fc721ed388ce13f7c","study_id":"6197b3f67c2b5cd3b6d9596a","session_id":"6197b88f7366c5a6860156fe","condition":"contingent","relevant_dimensions":["antennae","legs"],"bee_group":{"antennae":"A","wings":"X","pattern":"X","legs":"F"},"bonus":0.520000000000001},{"rt":946,"stimulus":"bees-with-color/bee-A2SM.svg","response":0,"trial_type":"image-button-response","trial_index":152,"time_elapsed":529034,"internal_node_id":"0.0-6.0-0.16","subject_id":"6074166fc721ed388ce13f7c","study_id":"6197b3f67c2b5cd3b6d9596a","session_id":"6197b88f7366c5a6860156fe","condition":"contingent","relevant_dimensions":["antennae","legs"],"bee_group":{"antennae":"A","wings":"X","pattern":"X","legs":"F"},"bonus":0.520000000000001},{"rt":754,"stimulus":"bees-with-color/bee-A2SF.svg","response":1,"trial_type":"image-button-response","trial_index":153,"time_elapsed":529790,"internal_node_id":"0.0-6.0-0.17","subject_id":"6074166fc721ed388ce13f7c","study_id":"6197b3f67c2b5cd3b6d9596a","session_id":"6197b88f7366c5a6860156fe","condition":"contingent","relevant_dimensions":["antennae","legs"],"bee_group":{"antennae":"A","wings":"X","pattern":"X","legs":"F"},"bonus":0.520000000000001},{"rt":1712,"stimulus":"bees-with-color/bee-B2DF.svg","response":1,"trial_type":"image-button-response","trial_index":154,"time_elapsed":531502,"internal_node_id":"0.0-6.0-0.18","subject_id":"6074166fc721ed388ce13f7c","study_id":"6197b3f67c2b5cd3b6d9596a","session_id":"6197b88f7366c5a6860156fe","condition":"contingent","relevant_dimensions":["antennae","legs"],"bee_group":{"antennae":"A","wings":"X","pattern":"X","legs":"F"},"bonus":0.520000000000001},{"rt":1079,"stimulus":"bees-with-color/bee-B1DM.svg","response":0,"trial_type":"image-button-response","trial_index":155,"time_elapsed":532581,"internal_node_id":"0.0-6.0-0.19","subject_id":"6074166fc721ed388ce13f7c","study_id":"6197b3f67c2b5cd3b6d9596a","session_id":"6197b88f7366c5a6860156fe","condition":"contingent","relevant_dimensions":["antennae","legs"],"bee_group":{"antennae":"A","wings":"X","pattern":"X","legs":"F"},"bonus":0.520000000000001},{"rt":709,"stimulus":"bees-with-color/bee-A1DM.svg","response":1,"trial_type":"image-button-response","trial_index":156,"time_elapsed":533290,"internal_node_id":"0.0-6.0-0.20","subject_id":"6074166fc721ed388ce13f7c","study_id":"6197b3f67c2b5cd3b6d9596a","session_id":"6197b88f7366c5a6860156fe","condition":"contingent","relevant_dimensions":["antennae","legs"],"bee_group":{"antennae":"A","wings":"X","pattern":"X","legs":"F"},"bonus":0.520000000000001},{"rt":2636,"stimulus":"bees-with-color/bee-B2DM.svg","response":0,"trial_type":"image-button-response","trial_index":157,"time_elapsed":535926,"internal_node_id":"0.0-6.0-0.21","subject_id":"6074166fc721ed388ce13f7c","study_id":"6197b3f67c2b5cd3b6d9596a","session_id":"6197b88f7366c5a6860156fe","condition":"contingent","relevant_dimensions":["antennae","legs"],"bee_group":{"antennae":"A","wings":"X","pattern":"X","legs":"F"},"bonus":0.520000000000001},{"rt":1364,"stimulus":"bees-with-color/bee-A1SF.svg","response":1,"trial_type":"image-button-response","trial_index":158,"time_elapsed":537292,"internal_node_id":"0.0-6.0-0.22","subject_id":"6074166fc721ed388ce13f7c","study_id":"6197b3f67c2b5cd3b6d9596a","session_id":"6197b88f7366c5a6860156fe","condition":"contingent","relevant_dimensions":["antennae","legs"],"bee_group":{"antennae":"A","wings":"X","pattern":"X","legs":"F"},"bonus":0.520000000000001},{"rt":2303,"stimulus":"bees-with-color/bee-A2DM.svg","response":1,"trial_type":"image-button-response","trial_index":159,"time_elapsed":539598,"internal_node_id":"0.0-6.0-0.23","subject_id":"6074166fc721ed388ce13f7c","study_id":"6197b3f67c2b5cd3b6d9596a","session_id":"6197b88f7366c5a6860156fe","condition":"contingent","relevant_dimensions":["antennae","legs"],"bee_group":{"antennae":"A","wings":"X","pattern":"X","legs":"F"},"bonus":0.520000000000001},{"rt":1958,"stimulus":"bees-with-color/bee-A2DF.svg","response":0,"trial_type":"image-button-response","trial_index":160,"time_elapsed":541557,"internal_node_id":"0.0-6.0-0.24","subject_id":"6074166fc721ed388ce13f7c","study_id":"6197b3f67c2b5cd3b6d9596a","session_id":"6197b88f7366c5a6860156fe","condition":"contingent","relevant_dimensions":["antennae","legs"],"bee_group":{"antennae":"A","wings":"X","pattern":"X","legs":"F"},"bonus":0.520000000000001},{"rt":2246,"stimulus":"bees-with-color/bee-B1SM.svg","response":0,"trial_type":"image-button-response","trial_index":161,"time_elapsed":543803,"internal_node_id":"0.0-6.0-0.25","subject_id":"6074166fc721ed388ce13f7c","study_id":"6197b3f67c2b5cd3b6d9596a","session_id":"6197b88f7366c5a6860156fe","condition":"contingent","relevant_dimensions":["antennae","legs"],"bee_group":{"antennae":"A","wings":"X","pattern":"X","legs":"F"},"bonus":0.520000000000001},{"rt":948,"stimulus":"bees-with-color/bee-B2SF.svg","response":1,"trial_type":"image-button-response","trial_index":162,"time_elapsed":544753,"internal_node_id":"0.0-6.0-0.26","subject_id":"6074166fc721ed388ce13f7c","study_id":"6197b3f67c2b5cd3b6d9596a","session_id":"6197b88f7366c5a6860156fe","condition":"contingent","relevant_dimensions":["antennae","legs"],"bee_group":{"antennae":"A","wings":"X","pattern":"X","legs":"F"},"bonus":0.520000000000001},{"rt":1171,"stimulus":"bees-with-color/bee-B1SF.svg","response":0,"trial_type":"image-button-response","trial_index":163,"time_elapsed":545924,"internal_node_id":"0.0-6.0-0.27","subject_id":"6074166fc721ed388ce13f7c","study_id":"6197b3f67c2b5cd3b6d9596a","session_id":"6197b88f7366c5a6860156fe","condition":"contingent","relevant_dimensions":["antennae","legs"],"bee_group":{"antennae":"A","wings":"X","pattern":"X","legs":"F"},"bonus":0.520000000000001},{"rt":2885,"stimulus":"bees-with-color/bee-A1SM.svg","response":0,"trial_type":"image-button-response","trial_index":164,"time_elapsed":548811,"internal_node_id":"0.0-6.0-0.28","subject_id":"6074166fc721ed388ce13f7c","study_id":"6197b3f67c2b5cd3b6d9596a","session_id":"6197b88f7366c5a6860156fe","condition":"contingent","relevant_dimensions":["antennae","legs"],"bee_group":{"antennae":"A","wings":"X","pattern":"X","legs":"F"},"bonus":0.520000000000001},{"rt":1486,"stimulus":"bees-with-color/bee-A1DF.svg","response":0,"trial_type":"image-button-response","trial_index":165,"time_elapsed":550299,"internal_node_id":"0.0-6.0-0.29","subject_id":"6074166fc721ed388ce13f7c","study_id":"6197b3f67c2b5cd3b6d9596a","session_id":"6197b88f7366c5a6860156fe","condition":"contingent","relevant_dimensions":["antennae","legs"],"bee_group":{"antennae":"A","wings":"X","pattern":"X","legs":"F"},"bonus":0.520000000000001},{"rt":1444,"stimulus":"bees-with-color/bee-B1DF.svg","response":1,"trial_type":"image-button-response","trial_index":166,"time_elapsed":551743,"internal_node_id":"0.0-6.0-0.30","subject_id":"6074166fc721ed388ce13f7c","study_id":"6197b3f67c2b5cd3b6d9596a","session_id":"6197b88f7366c5a6860156fe","condition":"contingent","relevant_dimens