[{"success":true,"trial_type":"fullscreen","trial_index":0,"time_elapsed":41487,"internal_node_id":"0.0-0.0","subject_id":"5e9fdd5effe6a51855448d1b","study_id":"60edd13110225f80f9f3709b","session_id":"6196d2a836eb98814a540898","condition":"contingent","relevant_dimensions":["pattern","legs"],"bee_group":{"antennae":"X","wings":"X","pattern":"S","legs":"M"},"bonus":0.8800000000000007},{"success":true,"timeout":false,"failed_images":[],"failed_audio":[],"failed_video":[],"trial_type":"preload","trial_index":1,"time_elapsed":42905,"internal_node_id":"0.0-1.0","subject_id":"5e9fdd5effe6a51855448d1b","study_id":"60edd13110225f80f9f3709b","session_id":"6196d2a836eb98814a540898","condition":"contingent","relevant_dimensions":["pattern","legs"],"bee_group":{"antennae":"X","wings":"X","pattern":"S","legs":"M"},"bonus":0.8800000000000007},{"rt":3462.300000000745,"stimulus":"Welcome! Press any key to begin.","response":"a","trial_type":"html-keyboard-response","trial_index":2,"time_elapsed":46369,"internal_node_id":"0.0-2.0","subject_id":"5e9fdd5effe6a51855448d1b","study_id":"60edd13110225f80f9f3709b","session_id":"6196d2a836eb98814a540898","condition":"contingent","relevant_dimensions":["pattern","legs"],"bee_group":{"antennae":"X","wings":"X","pattern":"S","legs":"M"},"bonus":0.8800000000000007},{"view_history":[{"page_index":0,"viewing_time":5505.800000000745},{"page_index":1,"viewing_time":48592},{"page_index":2,"viewing_time":17192},{"page_index":3,"viewing_time":1400.2999999988824},{"page_index":2,"viewing_time":17447.700000001118},{"page_index":3,"viewing_time":30376.099999999627},{"page_index":4,"viewing_time":8360},{"page_index":5,"viewing_time":13216},{"page_index":6,"viewing_time":8888.099999999627},{"page_index":5,"viewing_time":752.0999999996275},{"page_index":6,"viewing_time":792},{"page_index":5,"viewing_time":5240},{"page_index":6,"viewing_time":888},{"page_index":7,"viewing_time":3663.9000000003725},{"page_index":6,"viewing_time":1192.0999999996275},{"page_index":5,"viewing_time":3071.9000000003725},{"page_index":6,"viewing_time":800.0999999996275},{"page_index":7,"viewing_time":14255.900000000373},{"page_index":6,"viewing_time":1528},{"page_index":5,"viewing_time":4224.199999999255},{"page_index":6,"viewing_time":6063.9000000003725},{"page_index":7,"viewing_time":2759.9000000003725},{"page_index":6,"viewing_time":15120.199999999255},{"page_index":7,"viewing_time":8247.900000000373},{"page_index":6,"viewing_time":2856.2000000011176},{"page_index":7,"viewing_time":8095.89999999851},{"page_index":8,"viewing_time":3160},{"page_index":7,"viewing_time":1120.1000000014901},{"page_index":8,"viewing_time":8975.89999999851},{"page_index":9,"viewing_time":8264.10000000149},{"page_index":10,"viewing_time":5520},{"page_index":11,"viewing_time":8663.89999999851},{"page_index":10,"viewing_time":2272},{"page_index":9,"viewing_time":776.2000000011176},{"page_index":8,"viewing_time":975.7999999988824},{"page_index":7,"viewing_time":968.2000000011176},{"page_index":6,"viewing_time":1111.9000000003725},{"page_index":7,"viewing_time":12160.099999999627},{"page_index":8,"viewing_time":6007.9000000003725},{"page_index":9,"viewing_time":2824},{"page_index":10,"viewing_time":12760.099999999627},{"page_index":11,"viewing_time":5352},{"page_index":12,"viewing_time":21248.099999999627},{"page_index":13,"viewing_time":1743.9000000003725},{"page_index":12,"viewing_time":6552},{"page_index":13,"viewing_time":1232},{"page_index":14,"viewing_time":2264.199999999255}],"rt":344483.19999999925,"trial_type":"instructions","trial_index":3,"time_elapsed":390853,"internal_node_id":"0.0-3.0-0.0","subject_id":"5e9fdd5effe6a51855448d1b","study_id":"60edd13110225f80f9f3709b","session_id":"6196d2a836eb98814a540898","condition":"contingent","relevant_dimensions":["pattern","legs"],"bee_group":{"antennae":"X","wings":"X","pattern":"S","legs":"M"},"bonus":0.8800000000000007},{"rt":16679.400000000373,"response":{"Q0":["Two or six legs","Stripes or spots on body","Single or double wings","Antennae or no antennae"]},"question_order":[0],"trial_type":"survey-multi-select","trial_index":4,"time_elapsed":407543,"internal_node_id":"0.0-3.0-1.0","subject_id":"5e9fdd5effe6a51855448d1b","study_id":"60edd13110225f80f9f3709b","session_id":"6196d2a836eb98814a540898","condition":"contingent","relevant_dimensions":["pattern","legs"],"bee_group":{"antennae":"X","wings":"X","pattern":"S","legs":"M"},"correct":true,"bonus":0.8800000000000007},{"rt":23475.199999999255,"response":{"Q1":"No.","Q2":"Based on the four features of the bee.","Q3":"You do not learn if it was friendly or dangerous, and do not alter your bonus."},"question_order":[0,1,2],"trial_type":"survey-multi-choice","trial_index":5,"time_elapsed":431022,"internal_node_id":"0.0-3.0-2.0","subject_id":"5e9fdd5effe6a51855448d1b","study_id":"60edd13110225f80f9f3709b","session_id":"6196d2a836eb98814a540898","condition":"contingent","relevant_dimensions":["pattern","legs"],"bee_group":{"antennae":"X","wings":"X","pattern":"S","legs":"M"},"correct":true,"bonus":0.8800000000000007},{"rt":5084.5,"stimulus":"<p>Congrats, you got everything right<br>When you're ready, click the button below to continue to the experiment.</p>","response":0,"trial_type":"html-button-response","trial_index":6,"time_elapsed":436109,"internal_node_id":"0.0-3.0-3.0","subject_id":"5e9fdd5effe6a51855448d1b","study_id":"60edd13110225f80f9f3709b","session_id":"6196d2a836eb98814a540898","condition":"contingent","relevant_dimensions":["pattern","legs"],"bee_group":{"antennae":"X","wings":"X","pattern":"S","legs":"M"},"bonus":0.8800000000000007},{"rt":5795.700000001118,"stimulus":"bees-with-color/bee-A1SF.svg","response":0,"trial_type":"image-button-response","trial_index":7,"time_elapsed":441909,"internal_node_id":"0.0-4.0-0.0","subject_id":"5e9fdd5effe6a51855448d1b","study_id":"60edd13110225f80f9f3709b","session_id":"6196d2a836eb98814a540898","condition":"contingent","relevant_dimensions":["pattern","legs"],"bee_group":{"antennae":"X","wings":"X","pattern":"S","legs":"M"},"action":"harvest","summary":"good-harvest","bonus":0.8800000000000007},{"rt":20915.60000000149,"stimulus":"\n                    <p><b>Action: <em>harvest</em></b></p>\n                    <p>This is the bee that you just saw.</p>\n                    <img src=\"bees-with-color/bee-A1SF.svg\" width=\"200\">\n                    <p><span class=\"greenText\"><b>Successful harvest!</b></span><br>Your pay has increased by $0.02. Your bonus pay is now $0.56.</p>\n            ","response":0,"trial_type":"html-button-response","trial_index":8,"time_elapsed":462830,"internal_node_id":"0.0-4.0-1.0","subject_id":"5e9fdd5effe6a51855448d1b","study_id":"60edd13110225f80f9f3709b","session_id":"6196d2a836eb98814a540898","condition":"contingent","relevant_dimensions":["pattern","legs"],"bee_group":{"antennae":"X","wings":"X","pattern":"S","legs":"M"},"bonus":0.8800000000000007},{"rt":8651.900000000373,"stimulus":"bees-with-color/bee-B2DM.svg","response":0,"trial_type":"image-button-response","trial_index":9,"time_elapsed":471485,"internal_node_id":"0.0-4.0-0.1","subject_id":"5e9fdd5effe6a51855448d1b","study_id":"60edd13110225f80f9f3709b","session_id":"6196d2a836eb98814a540898","condition":"contingent","relevant_dimensions":["pattern","legs"],"bee_group":{"antennae":"X","wings":"X","pattern":"S","legs":"M"},"action":"harvest","summary":"good-harvest","bonus":0.8800000000000007},{"rt":43052.89999999851,"stimulus":"\n                    <p><b>Action: <em>harvest</em></b></p>\n                    <p>This is the bee that you just saw.</p>\n                    <img src=\"bees-with-color/bee-B2DM.svg\" width=\"200\">\n                    <p><span class=\"greenText\"><b>Successful harvest!</b></span><br>Your pay has increased by $0.02. Your bonus pay is now $0.58.</p>\n            ","response":0,"trial_type":"html-button-response","trial_index":10,"time_elapsed":514541,"internal_node_id":"0.0-4.0-1.1","subject_id":"5e9fdd5effe6a51855448d1b","study_id":"60edd13110225f80f9f3709b","session_id":"6196d2a836eb98814a540898","condition":"contingent","relevant_dimensions":["pattern","legs"],"bee_group":{"antennae":"X","wings":"X","pattern":"S","legs":"M"},"bonus":0.8800000000000007},{"rt":7524.300000000745,"stimulus":"bees-with-color/bee-B1SM.svg","response":0,"trial_type":"image-button-response","trial_index":11,"time_elapsed":522069,"internal_node_id":"0.0-4.0-0.2","subject_id":"5e9fdd5effe6a51855448d1b","study_id":"60edd13110225f80f9f3709b","session_id":"6196d2a836eb98814a540898","condition":"contingent","relevant_dimensions":["pattern","legs"],"bee_group":{"antennae":"X","wings":"X","pattern":"S","legs":"M"},"action":"harvest","summary":"bad-harvest","bonus":0.8800000000000007},{"rt":4676.9000000003725,"stimulus":"\n                    <p><b>Action: <em>harvest</em></b></p>\n                    <p>This is the bee that you just saw.</p>\n                    <img src=\"bees-with-color/bee-B1SM.svg\" width=\"200\">\n                    <p><span class=\"redText\">Bad choice, the bee was angry.</span><br><b>You have been stung!</b><br>Your pay has been decreased by $0.10. Your bonus pay is now $0.48.</p>\n            ","response":0,"trial_type":"html-button-response","trial_index":12,"time_elapsed":526749,"internal_node_id":"0.0-4.0-1.2","subject_id":"5e9fdd5effe6a51855448d1b","study_id":"60edd13110225f80f9f3709b","session_id":"6196d2a836eb98814a540898","condition":"contingent","relevant_dimensions":["pattern","legs"],"bee_group":{"antennae":"X","wings":"X","pattern":"S","legs":"M"},"bonus":0.8800000000000007},{"rt":2748.9000000003725,"stimulus":"bees-with-color/bee-B2SM.svg","response":1,"trial_type":"image-button-response","trial_index":13,"time_elapsed":529502,"internal_node_id":"0.0-4.0-0.3","subject_id":"5e9fdd5effe6a51855448d1b","study_id":"60edd13110225f80f9f3709b","session_id":"6196d2a836eb98814a540898","condition":"contingent","relevant_dimensions":["pattern","legs"],"bee_group":{"antennae":"X","wings":"X","pattern":"S","legs":"M"},"action":"avoid","summary":"good-avoid","bonus":0.8800000000000007},{"rt":2660.7999999988824,"stimulus":"\n                    <p><b>Action: <em>avoid</em></b></p>\n                    <p>This is the bee that you just saw.</p>\n                    <img src=\"bees-with-color/bee-B2SM.svg\" width=\"200\">\n                    <p><br>Your bonus pay is unchanged, and remains at $0.48.</p>\n            ","response":0,"trial_type":"html-button-response","trial_index":14,"time_elapsed":532165,"internal_node_id":"0.0-4.0-1.3","subject_id":"5e9fdd5effe6a51855448d1b","study_id":"60edd13110225f80f9f3709b","session_id":"6196d2a836eb98814a540898","condition":"contingent","relevant_dimensions":["pattern","legs"],"bee_group":{"antennae":"X","wings":"X","pattern":"S","legs":"M"},"bonus":0.8800000000000007},{"rt":2668.5999999996275,"stimulus":"bees-with-color/bee-B1DF.svg","response":0,"trial_type":"image-button-response","trial_index":15,"time_elapsed":534837,"internal_node_id":"0.0-4.0-0.4","subject_id":"5e9fdd5effe6a51855448d1b","study_id":"60edd13110225f80f9f3709b","session_id":"6196d2a836eb98814a540898","condition":"contingent","relevant_dimensions":["pattern","legs"],"bee_group":{"antennae":"X","wings":"X","pattern":"S","legs":"M"},"action":"harvest","summary":"good-harvest","bonus":0.8800000000000007},{"rt":1284.7999999988824,"stimulus":"\n                    <p><b>Action: <em>harvest</em></b></p>\n                    <p>This is the bee that you just saw.</p>\n                    <img src=\"bees-with-color/bee-B1DF.svg\" width=\"200\">\n                    <p><span class=\"greenText\"><b>Successful harvest!</b></span><br>Your pay has increased by $0.02. Your bonus pay is now $0.50.</p>\n            ","response":0,"trial_type":"html-button-response","trial_index":16,"time_elapsed":536125,"internal_node_id":"0.0-4.0-1.4","subject_id":"5e9fdd5effe6a51855448d1b","study_id":"60edd13110225f80f9f3709b","session_id":"6196d2a836eb98814a540898","condition":"contingent","relevant_dimensions":["pattern","legs"],"bee_group":{"antennae":"X","wings":"X","pattern":"S","legs":"M"},"bonus":0.8800000000000007},{"rt":3468.800000000745,"stimulus":"bees-with-color/bee-B2DF.svg","response":0,"trial_type":"image-button-response","trial_index":17,"time_elapsed":539597,"internal_node_id":"0.0-4.0-0.5","subject_id":"5e9fdd5effe6a51855448d1b","study_id":"60edd13110225f80f9f3709b","session_id":"6196d2a836eb98814a540898","condition":"contingent","relevant_dimensions":["pattern","legs"],"bee_group":{"antennae":"X","wings":"X","pattern":"S","legs":"M"},"action":"harvest","summary":"good-harvest","bonus":0.8800000000000007},{"rt":1045,"stimulus":"\n                    <p><b>Action: <em>harvest</em></b></p>\n                    <p>This is the bee that you just saw.</p>\n                    <img src=\"bees-with-color/bee-B2DF.svg\" width=\"200\">\n                    <p><span class=\"greenText\"><b>Successful harvest!</b></span><br>Your pay has increased by $0.02. Your bonus pay is now $0.52.</p>\n            ","response":0,"trial_type":"html-button-response","trial_index":18,"time_elapsed":540645,"internal_node_id":"0.0-4.0-1.5","subject_id":"5e9fdd5effe6a51855448d1b","study_id":"60edd13110225f80f9f3709b","session_id":"6196d2a836eb98814a540898","condition":"contingent","relevant_dimensions":["pattern","legs"],"bee_group":{"antennae":"X","wings":"X","pattern":"S","legs":"M"},"bonus":0.8800000000000007},{"rt":8492.800000000745,"stimulus":"bees-with-color/bee-A2DM.svg","response":1,"trial_type":"image-button-response","trial_index":19,"time_elapsed":549142,"internal_node_id":"0.0-4.0-0.6","subject_id":"5e9fdd5effe6a51855448d1b","study_id":"60edd13110225f80f9f3709b","session_id":"6196d2a836eb98814a540898","condition":"contingent","relevant_dimensions":["pattern","legs"],"bee_group":{"antennae":"X","wings":"X","pattern":"S","legs":"M"},"action":"avoid","summary":"bad-avoid","bonus":0.8800000000000007},{"rt":1292.9000000003725,"stimulus":"\n                    <p><b>Action: <em>avoid</em></b></p>\n                    <p>This is the bee that you just saw.</p>\n                    <img src=\"bees-with-color/bee-A2DM.svg\" width=\"200\">\n                    <p><br>Your bonus pay is unchanged, and remains at $0.52.</p>\n            ","response":0,"trial_type":"html-button-response","trial_index":20,"time_elapsed":550437,"internal_node_id":"0.0-4.0-1.6","subject_id":"5e9fdd5effe6a51855448d1b","study_id":"60edd13110225f80f9f3709b","session_id":"6196d2a836eb98814a540898","condition":"contingent","relevant_dimensions":["pattern","legs"],"bee_group":{"antennae":"X","wings":"X","pattern":"S","legs":"M"},"bonus":0.8800000000000007},{"rt":4181.300000000745,"stimulus":"bees-with-color/bee-A2DF.svg","response":1,"trial_type":"image-button-response","trial_index":21,"time_elapsed":554621,"internal_node_id":"0.0-4.0-0.7","subject_id":"5e9fdd5effe6a51855448d1b","study_id":"60edd13110225f80f9f3709b","session_id":"6196d2a836eb98814a540898","condition":"contingent","relevant_dimensions":["pattern","legs"],"bee_group":{"antennae":"X","wings":"X","pattern":"S","legs":"M"},"action":"avoid","summary":"bad-avoid","bonus":0.8800000000000007},{"rt":837.7000000011176,"stimulus":"\n                    <p><b>Action: <em>avoid</em></b></p>\n                    <p>This is the bee that you just saw.</p>\n                    <img src=\"bees-with-color/bee-A2DF.svg\" width=\"200\">\n                    <p><br>Your bonus pay is unchanged, and remains at $0.52.</p>\n            ","response":0,"trial_type":"html-button-response","trial_index":22,"time_elapsed":555461,"internal_node_id":"0.0-4.0-1.7","subject_id":"5e9fdd5effe6a51855448d1b","study_id":"60edd13110225f80f9f3709b","session_id":"6196d2a836eb98814a540898","condition":"contingent","relevant_dimensions":["pattern","legs"],"bee_group":{"antennae":"X","wings":"X","pattern":"S","legs":"M"},"bonus":0.8800000000000007},{"rt":3197.4000000003725,"stimulus":"bees-with-color/bee-A1DF.svg","response":1,"trial_type":"image-button-response","trial_index":23,"time_elapsed":558661,"internal_node_id":"0.0-4.0-0.8","subject_id":"5e9fdd5effe6a51855448d1b","study_id":"60edd13110225f80f9f3709b","session_id":"6196d2a836eb98814a540898","condition":"contingent","relevant_dimensions":["pattern","legs"],"bee_group":{"antennae":"X","wings":"X","pattern":"S","legs":"M"},"action":"avoid","summary":"bad-avoid","bonus":0.8800000000000007},{"rt":941.5,"stimulus":"\n                    <p><b>Action: <em>avoid</em></b></p>\n                    <p>This is the bee that you just saw.</p>\n                    <img src=\"bees-with-color/bee-A1DF.svg\" width=\"200\">\n                    <p><br>Your bonus pay is unchanged, and remains at $0.52.</p>\n            ","response":0,"trial_type":"html-button-response","trial_index":24,"time_elapsed":559605,"internal_node_id":"0.0-4.0-1.8","subject_id":"5e9fdd5effe6a51855448d1b","study_id":"60edd13110225f80f9f3709b","session_id":"6196d2a836eb98814a540898","condition":"contingent","relevant_dimensions":["pattern","legs"],"bee_group":{"antennae":"X","wings":"X","pattern":"S","legs":"M"},"bonus":0.8800000000000007},{"rt":2645.5,"stimulus":"bees-with-color/bee-A2SF.svg","response":1,"trial_type":"image-button-response","trial_index":25,"time_elapsed":562253,"internal_node_id":"0.0-4.0-0.9","subject_id":"5e9fdd5effe6a51855448d1b","study_id":"60edd13110225f80f9f3709b","session_id":"6196d2a836eb98814a540898","condition":"contingent","relevant_dimensions":["pattern","legs"],"bee_group":{"antennae":"X","wings":"X","pattern":"S","legs":"M"},"action":"avoid","summary":"bad-avoid","bonus":0.8800000000000007},{"rt":1173.5,"stimulus":"\n                    <p><b>Action: <em>avoid</em></b></p>\n                    <p>This is the bee that you just saw.</p>\n                    <img src=\"bees-with-color/bee-A2SF.svg\" width=\"200\">\n                    <p><br>Your bonus pay is unchanged, and remains at $0.52.</p>\n            ","response":0,"trial_type":"html-button-response","trial_index":26,"time_elapsed":563429,"internal_node_id":"0.0-4.0-1.9","subject_id":"5e9fdd5effe6a51855448d1b","study_id":"60edd13110225f80f9f3709b","session_id":"6196d2a836eb98814a540898","condition":"contingent","relevant_dimensions":["pattern","legs"],"bee_group":{"antennae":"X","wings":"X","pattern":"S","legs":"M"},"bonus":0.8800000000000007},{"rt":2469.2000000011176,"stimulus":"bees-with-color/bee-B2SF.svg","response":0,"trial_type":"image-button-response","trial_index":27,"time_elapsed":565901,"internal_node_id":"0.0-4.0-0.10","subject_id":"5e9fdd5effe6a51855448d1b","study_id":"60edd13110225f80f9f3709b","session_id":"6196d2a836eb98814a540898","condition":"contingent","relevant_dimensions":["pattern","legs"],"bee_group":{"antennae":"X","wings":"X","pattern":"S","legs":"M"},"action":"harvest","summary":"good-harvest","bonus":0.8800000000000007},{"rt":1613.5999999996275,"stimulus":"\n                    <p><b>Action: <em>harvest</em></b></p>\n                    <p>This is the bee that you just saw.</p>\n                    <img src=\"bees-with-color/bee-B2SF.svg\" width=\"200\">\n                    <p><span class=\"greenText\"><b>Successful harvest!</b></span><br>Your pay has increased by $0.02. Your bonus pay is now $0.54.</p>\n            ","response":0,"trial_type":"html-button-response","trial_index":28,"time_elapsed":567517,"internal_node_id":"0.0-4.0-1.10","subject_id":"5e9fdd5effe6a51855448d1b","study_id":"60edd13110225f80f9f3709b","session_id":"6196d2a836eb98814a540898","condition":"contingent","relevant_dimensions":["pattern","legs"],"bee_group":{"antennae":"X","wings":"X","pattern":"S","legs":"M"},"bonus":0.8800000000000007},{"rt":1821.4000000003725,"stimulus":"bees-with-color/bee-B1SF.svg","response":0,"trial_type":"image-button-response","trial_index":29,"time_elapsed":569341,"internal_node_id":"0.0-4.0-0.11","subject_id":"5e9fdd5effe6a51855448d1b","study_id":"60edd13110225f80f9f3709b","session_id":"6196d2a836eb98814a540898","condition":"contingent","relevant_dimensions":["pattern","legs"],"bee_group":{"antennae":"X","wings":"X","pattern":"S","legs":"M"},"action":"harvest","summary":"good-harvest","bonus":0.8800000000000007},{"rt":821.5,"stimulus":"\n                    <p><b>Action: <em>harvest</em></b></p>\n                    <p>This is the bee that you just saw.</p>\n                    <img src=\"bees-with-color/bee-B1SF.svg\" width=\"200\">\n                    <p><span class=\"greenText\"><b>Successful harvest!</b></span><br>Your pay has increased by $0.02. Your bonus pay is now $0.56.</p>\n            ","response":0,"trial_type":"html-button-response","trial_index":30,"time_elapsed":570165,"internal_node_id":"0.0-4.0-1.11","subject_id":"5e9fdd5effe6a51855448d1b","study_id":"60edd13110225f80f9f3709b","session_id":"6196d2a836eb98814a540898","condition":"contingent","relevant_dimensions":["pattern","legs"],"bee_group":{"antennae":"X","wings":"X","pattern":"S","legs":"M"},"bonus":0.8800000000000007},{"rt":1845.7000000011176,"stimulus":"bees-with-color/bee-B1DM.svg","response":0,"trial_type":"image-button-response","trial_index":31,"time_elapsed":572013,"internal_node_id":"0.0-4.0-0.12","subject_id":"5e9fdd5effe6a51855448d1b","study_id":"60edd13110225f80f9f3709b","session_id":"6196d2a836eb98814a540898","condition":"contingent","relevant_dimensions":["pattern","legs"],"bee_group":{"antennae":"X","wings":"X","pattern":"S","legs":"M"},"action":"harvest","summary":"good-harvest","bonus":0.8800000000000007},{"rt":1085.5,"stimulus":"\n                    <p><b>Action: <em>harvest</em></b></p>\n                    <p>This is the bee that you just saw.</p>\n                    <img src=\"bees-with-color/bee-B1DM.svg\" width=\"200\">\n                    <p><span class=\"greenText\"><b>Successful harvest!</b></span><br>Your pay has increased by $0.02. Your bonus pay is now $0.58.</p>\n            ","response":0,"trial_type":"html-button-response","trial_index":32,"time_elapsed":573101,"internal_node_id":"0.0-4.0-1.12","subject_id":"5e9fdd5effe6a51855448d1b","study_id":"60edd13110225f80f9f3709b","session_id":"6196d2a836eb98814a540898","condition":"contingent","relevant_dimensions":["pattern","legs"],"bee_group":{"antennae":"X","wings":"X","pattern":"S","legs":"M"},"bonus":0.8800000000000007},{"rt":1437.4000000003725,"stimulus":"bees-with-color/bee-A2SM.svg","response":1,"trial_type":"image-button-response","trial_index":33,"time_elapsed":574541,"internal_node_id":"0.0-4.0-0.13","subject_id":"5e9fdd5effe6a51855448d1b","study_id":"60edd13110225f80f9f3709b","session_id":"6196d2a836eb98814a540898","condition":"contingent","relevant_dimensions":["pattern","legs"],"bee_group":{"antennae":"X","wings":"X","pattern":"S","legs":"M"},"action":"avoid","summary":"good-avoid","bonus":0.8800000000000007},{"rt":1317.5999999996275,"stimulus":"\n                    <p><b>Action: <em>avoid</em></b></p>\n                    <p>This is the bee that you just saw.</p>\n                    <img src=\"bees-with-color/bee-A2SM.svg\" width=\"200\">\n                    <p><br>Your bonus pay is unchanged, and remains at $0.58.</p>\n            ","response":0,"trial_type":"html-button-response","trial_index":34,"time_elapsed":575861,"internal_node_id":"0.0-4.0-1.13","subject_id":"5e9fdd5effe6a51855448d1b","study_id":"60edd13110225f80f9f3709b","session_id":"6196d2a836eb98814a540898","condition":"contingent","relevant_dimensions":["pattern","legs"],"bee_group":{"antennae":"X","wings":"X","pattern":"S","legs":"M"},"bonus":0.8800000000000007},{"rt":1325.6000000014901,"stimulus":"bees-with-color/bee-A1DM.svg","response":1,"trial_type":"image-button-response","trial_index":35,"time_elapsed":577190,"internal_node_id":"0.0-4.0-0.14","subject_id":"5e9fdd5effe6a51855448d1b","study_id":"60edd13110225f80f9f3709b","session_id":"6196d2a836eb98814a540898","condition":"contingent","relevant_dimensions":["pattern","legs"],"bee_group":{"antennae":"X","wings":"X","pattern":"S","legs":"M"},"action":"avoid","summary":"bad-avoid","bonus":0.8800000000000007},{"rt":829.4000000003725,"stimulus":"\n                    <p><b>Action: <em>avoid</em></b></p>\n                    <p>This is the bee that you just saw.</p>\n                    <img src=\"bees-with-color/bee-A1DM.svg\" width=\"200\">\n                    <p><br>Your bonus pay is unchanged, and remains at $0.58.</p>\n            ","response":0,"trial_type":"html-button-response","trial_index":36,"time_elapsed":578021,"internal_node_id":"0.0-4.0-1.14","subject_id":"5e9fdd5effe6a51855448d1b","study_id":"60edd13110225f80f9f3709b","session_id":"6196d2a836eb98814a540898","condition":"contingent","relevant_dimensions":["pattern","legs"],"bee_group":{"antennae":"X","wings":"X","pattern":"S","legs":"M"},"bonus":0.8800000000000007},{"rt":1013.7000000011176,"stimulus":"bees-with-color/bee-A1SM.svg","response":1,"trial_type":"image-button-response","trial_index":37,"time_elapsed":579037,"internal_node_id":"0.0-4.0-0.15","subject_id":"5e9fdd5effe6a51855448d1b","study_id":"60edd13110225f80f9f3709b","session_id":"6196d2a836eb98814a540898","condition":"contingent","relevant_dimensions":["pattern","legs"],"bee_group":{"antennae":"X","wings":"X","pattern":"S","legs":"M"},"action":"avoid","summary":"good-avoid","bonus":0.8800000000000007},{"rt":813.5,"stimulus":"\n                    <p><b>Action: <em>avoid</em></b></p>\n                    <p>This is the bee that you just saw.</p>\n                    <img src=\"bees-with-color/bee-A1SM.svg\" width=\"200\">\n                    <p><br>Your bonus pay is unchanged, and remains at $0.58.</p>\n            ","response":0,"trial_type":"html-button-response","trial_index":38,"time_elapsed":579853,"internal_node_id":"0.0-4.0-1.15","subject_id":"5e9fdd5effe6a51855448d1b","study_id":"60edd13110225f80f9f3709b","session_id":"6196d2a836eb98814a540898","condition":"contingent","relevant_dimensions":["pattern","legs"],"bee_group":{"antennae":"X","wings":"X","pattern":"S","legs":"M"},"bonus":0.8800000000000007},{"rt":1805.7000000011176,"stimulus":"bees-with-color/bee-A2SM.svg","response":1,"trial_type":"image-button-response","trial_index":39,"time_elapsed":581662,"internal_node_id":"0.0-4.0-0.16","subject_id":"5e9fdd5effe6a51855448d1b","study_id":"60edd13110225f80f9f3709b","session_id":"6196d2a836eb98814a540898","condition":"contingent","relevant_dimensions":["pattern","legs"],"bee_group":{"antennae":"X","wings":"X","pattern":"S","legs":"M"},"action":"avoid","summary":"good-avoid","bonus":0.8800000000000007},{"rt":837,"stimulus":"\n                    <p><b>Action: <em>avoid</em></b></p>\n                    <p>This is the bee that you just saw.</p>\n                    <img src=\"bees-with-color/bee-A2SM.svg\" width=\"200\">\n                    <p><br>Your bonus pay is unchanged, and remains at $0.58.</p>\n            ","response":0,"trial_type":"html-button-response","trial_index":40,"time_elapsed":582502,"internal_node_id":"0.0-4.0-1.16","subject_id":"5e9fdd5effe6a51855448d1b","study_id":"60edd13110225f80f9f3709b","session_id":"6196d2a836eb98814a540898","condition":"contingent","relevant_dimensions":["pattern","legs"],"bee_group":{"antennae":"X","wings":"X","pattern":"S","legs":"M"},"bonus":0.8800000000000007},{"rt":1933.5,"stimulus":"bees-with-color/bee-B2DF.svg","response":0,"trial_type":"image-button-response","trial_index":41,"time_elapsed":584438,"internal_node_id":"0.0-4.0-0.17","subject_id":"5e9fdd5effe6a51855448d1b","study_id":"60edd13110225f80f9f3709b","session_id":"6196d2a836eb98814a540898","condition":"contingent","relevant_dimensions":["pattern","legs"],"bee_group":{"antennae":"X","wings":"X","pattern":"S","legs":"M"},"action":"harvest","summary":"good-harvest","bonus":0.8800000000000007},{"rt":797.4000000003725,"stimulus":"\n                    <p><b>Action: <em>harvest</em></b></p>\n                    <p>This is the bee that you just saw.</p>\n                    <img src=\"bees-with-color/bee-B2DF.svg\" width=\"200\">\n                    <p><span class=\"greenText\"><b>Successful harvest!</b></span><br>Your pay has increased by $0.02. Your bonus pay is now $0.60.</p>\n            ","response":0,"trial_type":"html-button-response","trial_index":42,"time_elapsed":585238,"internal_node_id":"0.0-4.0-1.17","subject_id":"5e9fdd5effe6a51855448d1b","study_id":"60edd13110225f80f9f3709b","session_id":"6196d2a836eb98814a540898","condition":"contingent","relevant_dimensions":["pattern","legs"],"bee_group":{"antennae":"X","wings":"X","pattern":"S","legs":"M"},"bonus":0.8800000000000007},{"rt":1148.7000000011176,"stimulus":"bees-with-color/bee-A2DM.svg","response":1,"trial_type":"image-button-response","trial_index":43,"time_elapsed":586390,"internal_node_id":"0.0-4.0-0.18","subject_id":"5e9fdd5effe6a51855448d1b","study_id":"60edd13110225f80f9f3709b","session_id":"6196d2a836eb98814a540898","condition":"contingent","relevant_dimensions":["pattern","legs"],"bee_group":{"antennae":"X","wings":"X","pattern":"S","legs":"M"},"action":"avoid","summary":"bad-avoid","bonus":0.8800000000000007},{"rt":789.4000000003725,"stimulus":"\n                    <p><b>Action: <em>avoid</em></b></p>\n                    <p>This is the bee that you just saw.</p>\n                    <img src=\"bees-with-color/bee-A2DM.svg\" width=\"200\">\n                    <p><br>Your bonus pay is unchanged, and remains at $0.60.</p>\n            ","response":0,"trial_type":"html-button-response","trial_index":44,"time_elapsed":587182,"internal_node_id":"0.0-4.0-1.18","subject_id":"5e9fdd5effe6a51855448d1b","study_id":"60edd13110225f80f9f3709b","session_id":"6196d2a836eb98814a540898","condition":"contingent","relevant_dimensions":["pattern","legs"],"bee_group":{"antennae":"X","wings":"X","pattern":"S","legs":"M"},"bonus":0.8800000000000007},{"rt":2205.7999999988824,"stimulus":"bees-with-color/bee-B1SF.svg","response":0,"trial_type":"image-button-response","trial_index":45,"time_elapsed":589390,"internal_node_id":"0.0-4.0-0.19","subject_id":"5e9fdd5effe6a51855448d1b","study_id":"60edd13110225f80f9f3709b","session_id":"6196d2a836eb98814a540898","condition":"contingent","relevant_dimensions":["pattern","legs"],"bee_group":{"antennae":"X","wings":"X","pattern":"S","legs":"M"},"action":"harvest","summary":"good-harvest","bonus":0.8800000000000007},{"rt":693,"stimulus":"\n                    <p><b>Action: <em>harvest</em></b></p>\n                    <p>This is the bee that you just saw.</p>\n                    <img src=\"bees-with-color/bee-B1SF.svg\" width=\"200\">\n                    <p><span class=\"greenText\"><b>Successful harvest!</b></span><br>Your pay has increased by $0.02. Your bonus pay is now $0.62.</p>\n            ","response":0,"trial_type":"html-button-response","trial_index":46,"time_elapsed":590086,"internal_node_id":"0.0-4.0-1.19","subject_id":"5e9fdd5effe6a51855448d1b","study_id":"60edd13110225f80f9f3709b","session_id":"6196d2a836eb98814a540898","condition":"contingent","relevant_dimensions":["pattern","legs"],"bee_group":{"antennae":"X","wings":"X","pattern":"S","legs":"M"},"bonus":0.8800000000000007},{"rt":2149.5,"stimulus":"bees-with-color/bee-B1SM.svg","response":0,"trial_type":"image-button-response","trial_index":47,"time_elapsed":592238,"internal_node_id":"0.0-4.0-0.20","subject_id":"5e9fdd5effe6a51855448d1b","study_id":"60edd13110225f80f9f3709b","session_id":"6196d2a836eb98814a540898","condition":"contingent","relevant_dimensions":["pattern","legs"],"bee_group":{"antennae":"X","wings":"X","pattern":"S","legs":"M"},"action":"harvest","summary":"bad-harvest","bonus":0.8800000000000007},{"rt":25781.300000000745,"stimulus":"\n                    <p><b>Action: <em>harvest</em></b></p>\n                    <p>This is the bee that you just saw.</p>\n                    <img src=\"bees-with-color/bee-B1SM.svg\" width=\"200\">\n                    <p><span class=\"redText\">Bad choice, the bee was angry.</span><br><b>You have been stung!</b><br>Your pay has been decreased by $0.10. Your bonus pay is now $0.52.</p>\n            ","response":0,"trial_type":"html-button-response","trial_index":48,"time_elapsed":618022,"internal_node_id":"0.0-4.0-1.20","subject_id":"5e9fdd5effe6a51855448d1b","study_id":"60edd13110225f80f9f3709b","session_id":"6196d2a836eb98814a540898","condition":"contingent","relevant_dimensions":["pattern","legs"],"bee_group":{"antennae":"X","wings":"X","pattern":"S","legs":"M"},"bonus":0.8800000000000007},{"rt":1508.9000000003725,"stimulus":"bees-with-color/bee-A1DF.svg","response":0,"trial_type":"image-button-response","trial_index":49,"time_elapsed":619534,"internal_node_id":"0.0-4.0-0.21","subject_id":"5e9fdd5effe6a51855448d1b","study_id":"60edd13110225f80f9f3709b","session_id":"6196d2a836eb98814a540898","condition":"contingent","relevant_dimensions":["pattern","legs"],"bee_group":{"antennae":"X","wings":"X","pattern":"S","legs":"M"},"action":"harvest","summary":"good-harvest","bonus":0.8800000000000007},{"rt":765.0999999996275,"stimulus":"\n                    <p><b>Action: <em>harvest</em></b></p>\n                    <p>This is the bee that you just saw.</p>\n                    <img src=\"bees-with-color/bee-A1DF.svg\" width=\"200\">\n                    <p><span class=\"greenText\"><b>Successful harvest!</b></span><br>Your pay has increased by $0.02. Your bonus pay is now $0.54.</p>\n            ","response":0,"trial_type":"html-button-response","trial_index":50,"time_elapsed":620302,"internal_node_id":"0.0-4.0-1.21","subject_id":"5e9fdd5effe6a51855448d1b","study_id":"60edd13110225f80f9f3709b","session_id":"6196d2a836eb98814a540898","condition":"contingent","relevant_dimensions":["pattern","legs"],"bee_group":{"antennae":"X","wings":"X","pattern":"S","legs":"M"},"bonus":0.8800000000000007},{"rt":2397.199999999255,"stimulus":"bees-with-color/bee-B1DM.svg","response":0,"trial_type":"image-button-response","trial_index":51,"time_elapsed":622702,"internal_node_id":"0.0-4.0-0.22","subject_id":"5e9fdd5effe6a51855448d1b","study_id":"60edd13110225f80f9f3709b","session_id":"6196d2a836eb98814a540898","condition":"contingent","relevant_dimensions":["pattern","legs"],"bee_group":{"antennae":"X","wings":"X","pattern":"S","legs":"M"},"action":"harvest","summary":"good-harvest","bonus":0.8800000000000007},{"rt":1013.0999999996275,"stimulus":"\n                    <p><b>Action: <em>harvest</em></b></p>\n                    <p>This is the bee that you just saw.</p>\n                    <img src=\"bees-with-color/bee-B1DM.svg\" width=\"200\">\n                    <p><span class=\"greenText\"><b>Successful harvest!</b></span><br>Your pay has increased by $0.02. Your bonus pay is now $0.56.</p>\n            ","response":0,"trial_type":"html-button-response","trial_index":52,"time_elapsed":623717,"internal_node_id":"0.0-4.0-1.22","subject_id":"5e9fdd5effe6a51855448d1b","study_id":"60edd13110225f80f9f3709b","session_id":"6196d2a836eb98814a540898","condition":"contingent","relevant_dimensions":["pattern","legs"],"bee_group":{"antennae":"X","wings":"X","pattern":"S","legs":"M"},"bonus":0.8800000000000007},{"rt":1893.800000000745,"stimulus":"bees-with-color/bee-B2SF.svg","response":0,"trial_type":"image-button-response","trial_index":53,"time_elapsed":625613,"internal_node_id":"0.0-4.0-0.23","subject_id":"5e9fdd5effe6a51855448d1b","study_id":"60edd13110225f80f9f3709b","session_id":"6196d2a836eb98814a540898","condition":"contingent","relevant_dimensions":["pattern","legs"],"bee_group":{"antennae":"X","wings":"X","pattern":"S","legs":"M"},"action":"harvest","summary":"good-harvest","bonus":0.8800000000000007},{"rt":726.0999999996275,"stimulus":"\n                    <p><b>Action: <em>harvest</em></b></p>\n                    <p>This is the bee that you just saw.</p>\n                    <img src=\"bees-with-color/bee-B2SF.svg\" width=\"200\">\n                    <p><span class=\"greenText\"><b>Successful harvest!</b></span><br>Your pay has increased by $0.02. Your bonus pay is now $0.58.</p>\n            ","response":0,"trial_type":"html-button-response","trial_index":54,"time_elapsed":626342,"internal_node_id":"0.0-4.0-1.23","subject_id":"5e9fdd5effe6a51855448d1b","study_id":"60edd13110225f80f9f3709b","session_id":"6196d2a836eb98814a540898","condition":"contingent","relevant_dimensions":["pattern","legs"],"bee_group":{"antennae":"X","wings":"X","pattern":"S","legs":"M"},"bonus":0.8800000000000007},{"rt":1957.5,"stimulus":"bees-with-color/bee-A1SM.svg","response":1,"trial_type":"image-button-response","trial_index":55,"time_elapsed":628302,"internal_node_id":"0.0-4.0-0.24","subject_id":"5e9fdd5effe6a51855448d1b","study_id":"60edd13110225f80f9f3709b","session_id":"6196d2a836eb98814a540898","condition":"contingent","relevant_dimensions":["pattern","legs"],"bee_group":{"antennae":"X","wings":"X","pattern":"S","legs":"M"},"action":"avoid","summary":"good-avoid","bonus":0.8800000000000007},{"rt":725.9000000003725,"stimulus":"\n                    <p><b>Action: <em>avoid</em></b></p>\n                    <p>This is the bee that you just saw.</p>\n                    <img src=\"bees-with-color/bee-A1SM.svg\" width=\"200\">\n                    <p><br>Your bonus pay is unchanged, and remains at $0.58.</p>\n            ","response":0,"trial_type":"html-button-response","trial_index":56,"time_elapsed":629029,"internal_node_id":"0.0-4.0-1.24","subject_id":"5e9fdd5effe6a51855448d1b","study_id":"60edd13110225f80f9f3709b","session_id":"6196d2a836eb98814a540898","condition":"contingent","relevant_dimensions":["pattern","legs"],"bee_group":{"antennae":"X","wings":"X","pattern":"S","legs":"M"},"bonus":0.8800000000000007},{"rt":2758,"stimulus":"bees-with-color/bee-A2SF.svg","response":1,"trial_type":"image-button-response","trial_index":57,"time_elapsed":631789,"internal_node_id":"0.0-4.0-0.25","subject_id":"5e9fdd5effe6a51855448d1b","study_id":"60edd13110225f80f9f3709b","session_id":"6196d2a836eb98814a540898","condition":"contingent","relevant_dimensions":["pattern","legs"],"bee_group":{"antennae":"X","wings":"X","pattern":"S","legs":"M"},"action":"avoid","summary":"bad-avoid","bonus":0.8800000000000007},{"rt":757.8000000007451,"stimulus":"\n                    <p><b>Action: <em>avoid</em></b></p>\n                    <p>This is the bee that you just saw.</p>\n                    <img src=\"bees-with-color/bee-A2SF.svg\" width=\"200\">\n                    <p><br>Your bonus pay is unchanged, and remains at $0.58.</p>\n            ","response":0,"trial_type":"html-button-response","trial_index":58,"time_elapsed":632549,"internal_node_id":"0.0-4.0-1.25","subject_id":"5e9fdd5effe6a51855448d1b","study_id":"60edd13110225f80f9f3709b","session_id":"6196d2a836eb98814a540898","condition":"contingent","relevant_dimensions":["pattern","legs"],"bee_group":{"antennae":"X","wings":"X","pattern":"S","legs":"M"},"bonus":0.8800000000000007},{"rt":4781.5,"stimulus":"bees-with-color/bee-B2SM.svg","response":0,"trial_type":"image-button-response","trial_index":59,"time_elapsed":637334,"internal_node_id":"0.0-4.0-0.26","subject_id":"5e9fdd5effe6a51855448d1b","study_id":"60edd13110225f80f9f3709b","session_id":"6196d2a836eb98814a540898","condition":"contingent","relevant_dimensions":["pattern","legs"],"bee_group":{"antennae":"X","wings":"X","pattern":"S","legs":"M"},"action":"harvest","summary":"bad-harvest","bonus":0.8800000000000007},{"rt":3773.800000000745,"stimulus":"\n                    <p><b>Action: <em>harvest</em></b></p>\n                    <p>This is the bee that you just saw.</p>\n                    <img src=\"bees-with-color/bee-B2SM.svg\" width=\"200\">\n                    <p><span class=\"redText\">Bad choice, the bee was angry.</span><br><b>You have been stung!</b><br>Your pay has been decreased by $0.10. Your bonus pay is now $0.48.</p>\n            ","response":0,"trial_type":"html-button-response","trial_index":60,"time_elapsed":641110,"internal_node_id":"0.0-4.0-1.26","subject_id":"5e9fdd5effe6a51855448d1b","study_id":"60edd13110225f80f9f3709b","session_id":"6196d2a836eb98814a540898","condition":"contingent","relevant_dimensions":["pattern","legs"],"bee_group":{"antennae":"X","wings":"X","pattern":"S","legs":"M"},"bonus":0.8800000000000007},{"rt":1877.0999999996275,"stimulus":"bees-with-color/bee-A1SF.svg","response":1,"trial_type":"image-button-response","trial_index":61,"time_elapsed":642990,"internal_node_id":"0.0-4.0-0.27","subject_id":"5e9fdd5effe6a51855448d1b","study_id":"60edd13110225f80f9f3709b","session_id":"6196d2a836eb98814a540898","condition":"contingent","relevant_dimensions":["pattern","legs"],"bee_group":{"antennae":"X","wings":"X","pattern":"S","legs":"M"},"action":"avoid","summary":"bad-avoid","bonus":0.8800000000000007},{"rt":821.9000000003725,"stimulus":"\n                    <p><b>Action: <em>avoid</em></b></p>\n                    <p>This is the bee that you just saw.</p>\n                    <img src=\"bees-with-color/bee-A1SF.svg\" width=\"200\">\n                    <p><br>Your bonus pay is unchanged, and remains at $0.48.</p>\n            ","response":0,"trial_type":"html-button-response","trial_index":62,"time_elapsed":643814,"internal_node_id":"0.0-4.0-1.27","subject_id":"5e9fdd5effe6a51855448d1b","study_id":"60edd13110225f80f9f3709b","session_id":"6196d2a836eb98814a540898","condition":"contingent","relevant_dimensions":["pattern","legs"],"bee_group":{"antennae":"X","wings":"X","pattern":"S","legs":"M"},"bonus":0.8800000000000007},{"rt":1686,"stimulus":"bees-with-color/bee-A2DF.svg","response":1,"trial_type":"image-button-response","trial_index":63,"time_elapsed":645502,"internal_node_id":"0.0-4.0-0.28","subject_id":"5e9fdd5effe6a51855448d1b","study_id":"60edd13110225f80f9f3709b","session_id":"6196d2a836eb98814a540898","condition":"contingent","relevant_dimensions":["pattern","legs"],"bee_group":{"antennae":"X","wings":"X","pattern":"S","legs":"M"},"action":"avoid","summary":"bad-avoid","bonus":0.8800000000000007},{"rt":669.7999999988824,"stimulus":"\n                    <p><b>Action: <em>avoid</em></b></p>\n                    <p>This is the bee that you just saw.</p>\n                    <img src=\"bees-with-color/bee-A2DF.svg\" width=\"200\">\n                    <p><br>Your bonus pay is unchanged, and remains at $0.48.</p>\n            ","response":0,"trial_type":"html-button-response","trial_index":64,"time_elapsed":646174,"internal_node_id":"0.0-4.0-1.28","subject_id":"5e9fdd5effe6a51855448d1b","study_id":"60edd13110225f80f9f3709b","session_id":"6196d2a836eb98814a540898","condition":"contingent","relevant_dimensions":["pattern","legs"],"bee_group":{"antennae":"X","wings":"X","pattern":"S","legs":"M"},"bonus":0.8800000000000007},{"rt":1133.800000000745,"stimulus":"bees-with-color/bee-A1DM.svg","response":1,"trial_type":"image-button-response","trial_index":65,"time_elapsed":647310,"internal_node_id":"0.0-4.0-0.29","subject_id":"5e9fdd5effe6a51855448d1b","study_id":"60edd13110225f80f9f3709b","session_id":"6196d2a836eb98814a540898","condition":"contingent","relevant_dimensions":["pattern","legs"],"bee_group":{"antennae":"X","wings":"X","pattern":"S","legs":"M"},"action":"avoid","summary":"bad-avoid","bonus":0.8800000000000007},{"rt":669.5999999996275,"stimulus":"\n                    <p><b>Action: <em>avoid</em></b></p>\n                    <p>This is the bee that you just saw.</p>\n                    <img src=\"bees-with-color/bee-A1DM.svg\" width=\"200\">\n                    <p><br>Your bonus pay is unchanged, and remains at $0.48.</p>\n            ","response":0,"trial_type":"html-button-response","trial_index":66,"time_elapsed":647981,"internal_node_id":"0.0-4.0-1.29","subject_id":"5e9fdd5effe6a51855448d1b","study_id":"60edd13110225f80f9f3709b","session_id":"6196d2a836eb98814a540898","condition":"contingent","relevant_dimensions":["pattern","legs"],"bee_group":{"antennae":"X","wings":"X","pattern":"S","legs":"M"},"bonus":0.8800000000000007},{"rt":1070,"stimulus":"bees-with-color/bee-B2DM.svg","response":0,"trial_type":"image-button-response","trial_index":67,"time_elapsed":649054,"internal_node_id":"0.0-4.0-0.30","subject_id":"5e9fdd5effe6a51855448d1b","study_id":"60edd13110225f80f9f3709b","session_id":"6196d2a836eb98814a540898","condition":"contingent","relevant_dimensions":["pattern","legs"],"bee_group":{"antennae":"X","wings":"X","pattern":"S","legs":"M"},"action":"harvest","summary":"good-harvest","bonus":0.8800000000000007},{"rt":733.6999999992549,"stimulus":"\n                    <p><b>Action: <em>harvest</em></b></p>\n                    <p>This is the bee that you just saw.</p>\n                    <img src=\"bees-with-color/bee-B2DM.svg\" width=\"200\">\n                    <p><span class=\"greenText\"><b>Successful harvest!</b></span><br>Your pay has increased by $0.02. Your bonus pay is now $0.50.</p>\n            ","response":0,"trial_type":"html-button-response","trial_index":68,"time_elapsed":649790,"internal_node_id":"0.0-4.0-1.30","subject_id":"5e9fdd5effe6a51855448d1b","study_id":"60edd13110225f80f9f3709b","session_id":"6196d2a836eb98814a540898","condition":"contingent","relevant_dimensions":["pattern","legs"],"bee_group":{"antennae":"X","wings":"X","pattern":"S","legs":"M"},"bonus":0.8800000000000007},{"rt":1901.699999999255,"stimulus":"bees-with-color/bee-B1DF.svg","response":0,"trial_type":"image-button-response","trial_index":69,"time_elapsed":651694,"internal_node_id":"0.0-4.0-0.31","subject_id":"5e9fdd5effe6a51855448d1b","study_id":"60edd13110225f80f9f3709b","session_id":"6196d2a836eb98814a540898","condition":"contingent","relevant_dimensions":["pattern","legs"],"bee_group":{"antennae":"X","wings":"X","pattern":"S","legs":"M"},"action":"harvest","summary":"good-harvest","bonus":0.8800000000000007},{"rt":765.5999999996275,"stimulus":"\n                    <p><b>Action: <em>harvest</em></b></p>\n                    <p>This is the bee that you just saw.</p>\n                    <img src=\"bees-with-color/bee-B1DF.svg\" width=\"200\">\n                    <p><span class=\"greenText\"><b>Successful harvest!</b></span><br>Your pay has increased by $0.02. Your bonus pay is now $0.52.</p>\n            ","response":0,"trial_type":"html-button-response","trial_index":70,"time_elapsed":652462,"internal_node_id":"0.0-4.0-1.31","subject_id":"5e9fdd5effe6a51855448d1b","study_id":"60edd13110225f80f9f3709b","session_id":"6196d2a836eb98814a540898","condition":"contingent","relevant_dimensions":["pattern","legs"],"bee_group":{"antennae":"X","wings":"X","pattern":"S","legs":"M"},"bonus":0.8800000000000007},{"rt":1845.699999999255,"stimulus":"bees-with-color/bee-B2DF.svg","response":0,"trial_type":"image-button-response","trial_index":71,"time_elapsed":654310,"internal_node_id":"0.0-4.0-0.32","subject_id":"5e9fdd5effe6a51855448d1b","study_id":"60edd13110225f80f9f3709b","session_id":"6196d2a836eb98814a540898","condition":"contingent","relevant_dimensions":["pattern","legs"],"bee_group":{"antennae":"X","wings":"X","pattern":"S","legs":"M"},"action":"harvest","summary":"good-harvest","bonus":0.8800000000000007},{"rt":765.5999999996275,"stimulus":"\n                    <p><b>Action: <em>harvest</em></b></p>\n                    <p>This is the bee that you just saw.</p>\n                    <img src=\"bees-with-color/bee-B2DF.svg\" width=\"200\">\n                    <p><span class=\"greenText\"><b>Successful harvest!</b></span><br>Your pay has increased by $0.02. Your bonus pay is now $0.54.</p>\n            ","response":0,"trial_type":"html-button-response","trial_index":72,"time_elapsed":655078,"internal_node_id":"0.0-4.0-1.32","subject_id":"5e9fdd5effe6a51855448d1b","study_id":"60edd13110225f80f9f3709b","session_id":"6196d2a836eb98814a540898","condition":"contingent","relevant_dimensions":["pattern","legs"],"bee_group":{"antennae":"X","wings":"X","pattern":"S","legs":"M"},"bonus":0.8800000000000007},{"rt":1693.199999999255,"stimulus":"bees-with-color/bee-B1SF.svg","response":0,"trial_type":"image-button-response","trial_index":73,"time_elapsed":656774,"internal_node_id":"0.0-4.0-0.33","subject_id":"5e9fdd5effe6a51855448d1b","study_id":"60edd13110225f80f9f3709b","session_id":"6196d2a836eb98814a540898","condition":"contingent","relevant_dimensions":["pattern","legs"],"bee_group":{"antennae":"X","wings":"X","pattern":"S","legs":"M"},"action":"harvest","summary":"good-harvest","bonus":0.8800000000000007},{"rt":693.5999999996275,"stimulus":"\n                    <p><b>Action: <em>harvest</em></b></p>\n                    <p>This is the bee that you just saw.</p>\n                    <img src=\"bees-with-color/bee-B1SF.svg\" width=\"200\">\n                    <p><span class=\"greenText\"><b>Successful harvest!</b></span><br>Your pay has increased by $0.02. Your bonus pay is now $0.56.</p>\n            ","response":0,"trial_type":"html-button-response","trial_index":74,"time_elapsed":657470,"internal_node_id":"0.0-4.0-1.33","subject_id":"5e9fdd5effe6a51855448d1b","study_id":"60edd13110225f80f9f3709b","session_id":"6196d2a836eb98814a540898","condition":"contingent","relevant_dimensions":["pattern","legs"],"bee_group":{"antennae":"X","wings":"X","pattern":"S","legs":"M"},"bonus":0.8800000000000007},{"rt":2077.199999999255,"stimulus":"bees-with-color/bee-A1SM.svg","response":1,"trial_type":"image-button-response","trial_index":75,"time_elapsed":659550,"internal_node_id":"0.0-4.0-0.34","subject_id":"5e9fdd5effe6a51855448d1b","study_id":"60edd13110225f80f9f3709b","session_id":"6196d2a836eb98814a540898","condition":"contingent","relevant_dimensions":["pattern","legs"],"bee_group":{"antennae":"X","wings":"X","pattern":"S","legs":"M"},"action":"avoid","summary":"good-avoid","bonus":0.8800000000000007},{"rt":861.5,"stimulus":"\n                    <p><b>Action: <em>avoid</em></b></p>\n                    <p>This is the bee that you just saw.</p>\n                    <img src=\"bees-with-color/bee-A1SM.svg\" width=\"200\">\n                    <p><br>Your bonus pay is unchanged, and remains at $0.56.</p>\n            ","response":0,"trial_type":"html-button-response","trial_index":76,"time_elapsed":660414,"internal_node_id":"0.0-4.0-1.34","subject_id":"5e9fdd5effe6a51855448d1b","study_id":"60edd13110225f80f9f3709b","session_id":"6196d2a836eb98814a540898","condition":"contingent","relevant_dimensions":["pattern","legs"],"bee_group":{"antennae":"X","wings":"X","pattern":"S","legs":"M"},"bonus":0.8800000000000007},{"rt":1645.5,"stimulus":"bees-with-color/bee-B2SF.svg","response":0,"trial_type":"image-button-response","trial_index":77,"time_elapsed":662062,"internal_node_id":"0.0-4.0-0.35","subject_id":"5e9fdd5effe6a51855448d1b","study_id":"60edd13110225f80f9f3709b","session_id":"6196d2a836eb98814a540898","condition":"contingent","relevant_dimensions":["pattern","legs"],"bee_group":{"antennae":"X","wings":"X","pattern":"S","legs":"M"},"action":"harvest","summary":"good-harvest","bonus":0.8800000000000007},{"rt":717.4000000003725,"stimulus":"\n                    <p><b>Action: <em>harvest</em></b></p>\n                    <p>This is the bee that you just saw.</p>\n                    <img src=\"bees-with-color/bee-B2SF.svg\" width=\"200\">\n                    <p><span class=\"greenText\"><b>Successful harvest!</b></span><br>Your pay has increased by $0.02. Your bonus pay is now $0.58.</p>\n            ","response":0,"trial_type":"html-button-response","trial_index":78,"time_elapsed":662782,"internal_node_id":"0.0-4.0-1.35","subject_id":"5e9fdd5effe6a51855448d1b","study_id":"60edd13110225f80f9f3709b","session_id":"6196d2a836eb98814a540898","condition":"contingent","relevant_dimensions":["pattern","legs"],"bee_group":{"antennae":"X","wings":"X","pattern":"S","legs":"M"},"bonus":0.8800000000000007},{"rt":893.5,"stimulus":"bees-with-color/bee-A2SM.svg","response":1,"trial_type":"image-button-response","trial_index":79,"time_elapsed":663678,"internal_node_id":"0.0-4.0-0.36","subject_id":"5e9fdd5effe6a51855448d1b","study_id":"60edd13110225f80f9f3709b","session_id":"6196d2a836eb98814a540898","condition":"contingent","relevant_dimensions":["pattern","legs"],"bee_group":{"antennae":"X","wings":"X","pattern":"S","legs":"M"},"action":"avoid","summary":"good-avoid","bonus":0.8800000000000007},{"rt":789.3000000007451,"stimulus":"\n                    <p><b>Action: <em>avoid</em></b></p>\n                    <p>This is the bee that you just saw.</p>\n                    <img src=\"bees-with-color/bee-A2SM.svg\" width=\"200\">\n                    <p><br>Your bonus pay is unchanged, and remains at $0.58.</p>\n            ","response":0,"trial_type":"html-button-response","trial_index":80,"time_elapsed":664470,"internal_node_id":"0.0-4.0-1.36","subject_id":"5e9fdd5effe6a51855448d1b","study_id":"60edd13110225f80f9f3709b","session_id":"6196d2a836eb98814a540898","condition":"contingent","relevant_dimensions":["pattern","legs"],"bee_group":{"antennae":"X","wings":"X","pattern":"S","legs":"M"},"bonus":0.8800000000000007},{"rt":1228.9000000003725,"stimulus":"bees-with-color/bee-B2DM.svg","response":0,"trial_type":"image-button-response","trial_index":81,"time_elapsed":665702,"internal_node_id":"0.0-4.0-0.37","subject_id":"5e9fdd5effe6a51855448d1b","study_id":"60edd13110225f80f9f3709b","session_id":"6196d2a836eb98814a540898","condition":"contingent","relevant_dimensions":["pattern","legs"],"bee_group":{"antennae":"X","wings":"X","pattern":"S","legs":"M"},"action":"harvest","summary":"good-harvest","bonus":0.8800000000000007},{"rt":789.0999999996275,"stimulus":"\n                    <p><b>Action: <em>harvest</em></b></p>\n                    <p>This is the bee that you just saw.</p>\n                    <img src=\"bees-with-color/bee-B2DM.svg\" width=\"200\">\n                    <p><span class=\"greenText\"><b>Successful harvest!</b></span><br>Your pay has increased by $0.02. Your bonus pay is now $0.60.</p>\n            ","response":0,"trial_type":"html-button-response","trial_index":82,"time_elapsed":666494,"internal_node_id":"0.0-4.0-1.37","subject_id":"5e9fdd5effe6a51855448d1b","study_id":"60edd13110225f80f9f3709b","session_id":"6196d2a836eb98814a540898","condition":"contingent","relevant_dimensions":["pattern","legs"],"bee_group":{"antennae":"X","wings":"X","pattern":"S","legs":"M"},"bonus":0.8800000000000007},{"rt":1053.5,"stimulus":"bees-with-color/bee-A1SF.svg","response":1,"trial_type":"image-button-response","trial_index":83,"time_elapsed":667550,"internal_node_id":"0.0-4.0-0.38","subject_id":"5e9fdd5effe6a51855448d1b","study_id":"60edd13110225f80f9f3709b","session_id":"6196d2a836eb98814a540898","condition":"contingent","relevant_dimensions":["pattern","legs"],"bee_group":{"antennae":"X","wings":"X","pattern":"S","legs":"M"},"action":"avoid","summary":"bad-avoid","bonus":0.8800000000000007},{"rt":845.3999999985099,"stimulus":"\n                    <p><b>Action: <em>avoid</em></b></p>\n                    <p>This is the bee that you just saw.</p>\n                    <img src=\"bees-with-color/bee-A1SF.svg\" width=\"200\">\n                    <p><br>Your bonus pay is unchanged, and remains at $0.60.</p>\n            ","response":0,"trial_type":"html-button-response","trial_index":84,"time_elapsed":668398,"internal_node_id":"0.0-4.0-1.38","subject_id":"5e9fdd5effe6a51855448d1b","study_id":"60edd13110225f80f9f3709b","session_id":"6196d2a836eb98814a540898","condition":"contingent","relevant_dimensions":["pattern","legs"],"bee_group":{"antennae":"X","wings":"X","pattern":"S","legs":"M"},"bonus":0.8800000000000007},{"rt":3637,"stimulus":"bees-with-color/bee-A2DF.svg","response":1,"trial_type":"image-button-response","trial_index":85,"time_elapsed":672038,"internal_node_id":"0.0-4.0-0.39","subject_id":"5e9fdd5effe6a51855448d1b","study_id":"60edd13110225f80f9f3709b","session_id":"6196d2a836eb98814a540898","condition":"contingent","relevant_dimensions":["pattern","legs"],"bee_group":{"antennae":"X","wings":"X","pattern":"S","legs":"M"},"action":"avoid","summary":"bad-avoid","bonus":0.8800000000000007},{"rt":677.0999999996275,"stimulus":"\n                    <p><b>Action: <em>avoid</em></b></p>\n                    <p>This is the bee that you just saw.</p>\n                    <img src=\"bees-with-color/bee-A2DF.svg\" width=\"200\">\n                    <p><br>Your bonus pay is unchanged, and remains at $0.60.</p>\n            ","response":0,"trial_type":"html-button-response","trial_index":86,"time_elapsed":672718,"internal_node_id":"0.0-4.0-1.39","subject_id":"5e9fdd5effe6a51855448d1b","study_id":"60edd13110225f80f9f3709b","session_id":"6196d2a836eb98814a540898","condition":"contingent","relevant_dimensions":["pattern","legs"],"bee_group":{"antennae":"X","wings":"X","pattern":"S","legs":"M"},"bonus":0.8800000000000007},{"rt":1533,"stimulus":"bees-with-color/bee-B2SM.svg","response":1,"trial_type":"image-button-response","trial_index":87,"time_elapsed":674254,"internal_node_id":"0.0-4.0-0.40","subject_id":"5e9fdd5effe6a51855448d1b","study_id":"60edd13110225f80f9f3709b","session_id":"6196d2a836eb98814a540898","condition":"contingent","relevant_dimensions":["pattern","legs"],"bee_group":{"antennae":"X","wings":"X","pattern":"S","legs":"M"},"action":"avoid","summary":"good-avoid","bonus":0.8800000000000007},{"rt":845.1999999992549,"stimulus":"\n                    <p><b>Action: <em>avoid</em></b></p>\n                    <p>This is the bee that you just saw.</p>\n                    <img src=\"bees-with-color/bee-B2SM.svg\" width=\"200\">\n                    <p><br>Your bonus pay is unchanged, and remains at $0.60.</p>\n            ","response":0,"trial_type":"html-button-response","trial_index":88,"time_elapsed":675102,"internal_node_id":"0.0-4.0-1.40","subject_id":"5e9fdd5effe6a51855448d1b","study_id":"60edd13110225f80f9f3709b","session_id":"6196d2a836eb98814a540898","condition":"contingent","relevant_dimensions":["pattern","legs"],"bee_group":{"antennae":"X","wings":"X","pattern":"S","legs":"M"},"bonus":0.8800000000000007},{"rt":2509.60000000149,"stimulus":"bees-with-color/bee-B1DM.svg","response":1,"trial_type":"image-button-response","trial_index":89,"time_elapsed":677614,"internal_node_id":"0.0-4.0-0.41","subject_id":"5e9fdd5effe6a51855448d1b","study_id":"60edd13110225f80f9f3709b","session_id":"6196d2a836eb98814a540898","condition":"contingent","relevant_dimensions":["pattern","legs"],"bee_group":{"antennae":"X","wings":"X","pattern":"S","legs":"M"},"action":"avoid","summary":"bad-avoid","bonus":0.8800000000000007},{"rt":669,"stimulus":"\n                    <p><b>Action: <em>avoid</em></b></p>\n                    <p>This is the bee that you just saw.</p>\n                    <img src=\"bees-with-color/bee-B1DM.svg\" width=\"200\">\n                    <p><br>Your bonus pay is unchanged, and remains at $0.60.</p>\n            ","response":0,"trial_type":"html-button-response","trial_index":90,"time_elapsed":678286,"internal_node_id":"0.0-4.0-1.41","subject_id":"5e9fdd5effe6a51855448d1b","study_id":"60edd13110225f80f9f3709b","session_id":"6196d2a836eb98814a540898","condition":"contingent","relevant_dimensions":["pattern","legs"],"bee_group":{"antennae":"X","wings":"X","pattern":"S","legs":"M"},"bonus":0.8800000000000007},{"rt":869.5,"stimulus":"bees-with-color/bee-A1DM.svg","response":1,"trial_type":"image-button-response","trial_index":91,"time_elapsed":679158,"internal_node_id":"0.0-4.0-0.42","subject_id":"5e9fdd5effe6a51855448d1b","study_id":"60edd13110225f80f9f3709b","session_id":"6196d2a836eb98814a540898","condition":"contingent","relevant_dimensions":["pattern","legs"],"bee_group":{"antennae":"X","wings":"X","pattern":"S","legs":"M"},"action":"avoid","summary":"bad-avoid","bonus":0.8800000000000007},{"rt":557.6999999992549,"stimulus":"\n                    <p><b>Action: <em>avoid</em></b></p>\n                    <p>This is the bee that you just saw.</p>\n                    <img src=\"bees-with-color/bee-A1DM.svg\" width=\"200\">\n                    <p><br>Your bonus pay is unchanged, and remains at $0.60.</p>\n            ","response":0,"trial_type":"html-button-response","trial_index":92,"time_elapsed":679718,"internal_node_id":"0.0-4.0-1.42","subject_id":"5e9fdd5effe6a51855448d1b","study_id":"60edd13110225f80f9f3709b","session_id":"6196d2a836eb98814a540898","condition":"contingent","relevant_dimensions":["pattern","legs"],"bee_group":{"antennae":"X","wings":"X","pattern":"S","legs":"M"},"bonus":0.8800000000000007},{"rt":1462.0999999996275,"stimulus":"bees-with-color/bee-A2SF.svg","response":1,"trial_type":"image-button-response","trial_index":93,"time_elapsed":681182,"internal_node_id":"0.0-4.0-0.43","subject_id":"5e9fdd5effe6a51855448d1b","study_id":"60edd13110225f80f9f3709b","session_id":"6196d2a836eb98814a540898","condition":"contingent","relevant_dimensions":["pattern","legs"],"bee_group":{"antennae":"X","wings":"X","pattern":"S","legs":"M"},"action":"avoid","summary":"bad-avoid","bonus":0.8800000000000007},{"rt":670,"stimulus":"\n                    <p><b>Action: <em>avoid</em></b></p>\n                    <p>This is the bee that you just saw.</p>\n                    <img src=\"bees-with-color/bee-A2SF.svg\" width=\"200\">\n                    <p><br>Your bonus pay is unchanged, and remains at $0.60.</p>\n            ","response":0,"trial_type":"html-button-response","trial_index":94,"time_elapsed":681854,"internal_node_id":"0.0-4.0-1.43","subject_id":"5e9fdd5effe6a51855448d1b","study_id":"60edd13110225f80f9f3709b","session_id":"6196d2a836eb98814a540898","condition":"contingent","relevant_dimensions":["pattern","legs"],"bee_group":{"antennae":"X","wings":"X","pattern":"S","legs":"M"},"bonus":0.8800000000000007},{"rt":686.2999999988824,"stimulus":"bees-with-color/bee-A2DM.svg","response":1,"trial_type":"image-button-response","trial_index":95,"time_elapsed":682542,"internal_node_id":"0.0-4.0-0.44","subject_id":"5e9fdd5effe6a51855448d1b","study_id":"60edd13110225f80f9f3709b","session_id":"6196d2a836eb98814a540898","condition":"contingent","relevant_dimensions":["pattern","legs"],"bee_group":{"antennae":"X","wings":"X","pattern":"S","legs":"M"},"action":"avoid","summary":"bad-avoid","bonus":0.8800000000000007},{"rt":509.8999999985099,"stimulus":"\n                    <p><b>Action: <em>avoid</em></b></p>\n                    <p>This is the bee that you just saw.</p>\n                    <img src=\"bees-with-color/bee-A2DM.svg\" width=\"200\">\n                    <p><br>Your bonus pay is unchanged, and remains at $0.60.</p>\n            ","response":0,"trial_type":"html-button-response","trial_index":96,"time_elapsed":683054,"internal_node_id":"0.0-4.0-1.44","subject_id":"5e9fdd5effe6a51855448d1b","study_id":"60edd13110225f80f9f3709b","session_id":"6196d2a836eb98814a540898","condition":"contingent","relevant_dimensions":["pattern","legs"],"bee_group":{"antennae":"X","wings":"X","pattern":"S","legs":"M"},"bonus":0.8800000000000007},{"rt":877.7999999988824,"stimulus":"bees-with-color/bee-B1SM.svg","response":1,"trial_type":"image-button-response","trial_index":97,"time_elapsed":683934,"internal_node_id":"0.0-4.0-0.45","subject_id":"5e9fdd5effe6a51855448d1b","study_id":"60edd13110225f80f9f3709b","session_id":"6196d2a836eb98814a540898","condition":"contingent","relevant_dimensions":["pattern","legs"],"bee_group":{"antennae":"X","wings":"X","pattern":"S","legs":"M"},"action":"avoid","summary":"good-avoid","bonus":0.8800000000000007},{"rt":1278,"stimulus":"\n                    <p><b>Action: <em>avoid</em></b></p>\n                    <p>This is the bee that you just saw.</p>\n                    <img src=\"bees-with-color/bee-B1SM.svg\" width=\"200\">\n                    <p><br>Your bonus pay is unchanged, and remains at $0.60.</p>\n            ","response":0,"trial_type":"html-button-response","trial_index":98,"time_elapsed":685214,"internal_node_id":"0.0-4.0-1.45","subject_id":"5e9fdd5effe6a51855448d1b","study_id":"60edd13110225f80f9f3709b","session_id":"6196d2a836eb98814a540898","condition":"contingent","relevant_dimensions":["pattern","legs"],"bee_group":{"antennae":"X","wings":"X","pattern":"S","legs":"M"},"bonus":0.8800000000000007},{"rt":2373.4000000003725,"stimulus":"bees-with-color/bee-A1DF.svg","response":0,"trial_type":"image-button-response","trial_index":99,"time_elapsed":687590,"internal_node_id":"0.0-4.0-0.46","subject_id":"5e9fdd5effe6a51855448d1b","study_id":"60edd13110225f80f9f3709b","session_id":"6196d2a836eb98814a540898","condition":"contingent","relevant_dimensions":["pattern","legs"],"bee_group":{"antennae":"X","wings":"X","pattern":"S","legs":"M"},"action":"harvest","summary":"good-harvest","bonus":0.8800000000000007},{"rt":637.7999999988824,"stimulus":"\n                    <p><b>Action: <em>harvest</em></b></p>\n                    <p>This is the bee that you just saw.</p>\n                    <img src=\"bees-with-color/bee-A1DF.svg\" width=\"200\">\n                    <p><span class=\"greenText\"><b>Successful harvest!</b></span><br>Your pay has increased by $0.02. Your bonus pay is now $0.62.</p>\n            ","response":0,"trial_type":"html-button-response","trial_index":100,"time_elapsed":688230,"internal_node_id":"0.0-4.0-1.46","subject_id":"5e9fdd5effe6a51855448d1b","study_id":"60edd13110225f80f9f3709b","session_id":"6196d2a836eb98814a540898","condition":"contingent","relevant_dimensions":["pattern","legs"],"bee_group":{"antennae":"X","wings":"X","pattern":"S","legs":"M"},"bonus":0.8800000000000007},{"rt":2318,"stimulus":"bees-with-color/bee-B1DF.svg","response":0,"trial_type":"image-button-response","trial_index":101,"time_elapsed":690550,"internal_node_id":"0.0-4.0-0.47","subject_id":"5e9fdd5effe6a51855448d1b","study_id":"60edd13110225f80f9f3709b","session_id":"6196d2a836eb98814a540898","condition":"contingent","relevant_dimensions":["pattern","legs"],"bee_group":{"antennae":"X","wings":"X","pattern":"S","legs":"M"},"action":"harvest","summary":"good-harvest","bonus":0.8800000000000007},{"rt":829.7999999988824,"stimulus":"\n                    <p><b>Action: <em>harvest</em></b></p>\n                    <p>This is the bee that you just saw.</p>\n                    <img src=\"bees-with-color/bee-B1DF.svg\" width=\"200\">\n                    <p><span class=\"greenText\"><b>Successful harvest!</b></span><br>Your pay has increased by $0.02. Your bonus pay is now $0.64.</p>\n            ","response":0,"trial_type":"html-button-response","trial_index":102,"time_elapsed":691382,"internal_node_id":"0.0-4.0-1.47","subject_id":"5e9fdd5effe6a51855448d1b","study_id":"60edd13110225f80f9f3709b","session_id":"6196d2a836eb98814a540898","condition":"contingent","relevant_dimensions":["pattern","legs"],"bee_group":{"antennae":"X","wings":"X","pattern":"S","legs":"M"},"bonus":0.8800000000000007},{"rt":4533.5999999996275,"stimulus":"bees-with-color/bee-B2DF.svg","response":0,"trial_type":"image-button-response","trial_index":103,"time_elapsed":695918,"internal_node_id":"0.0-4.0-0.48","subject_id":"5e9fdd5effe6a51855448d1b","study_id":"60edd13110225f80f9f3709b","session_id":"6196d2a836eb98814a540898","condition":"contingent","relevant_dimensions":["pattern","legs"],"bee_group":{"antennae":"X","wings":"X","pattern":"S","legs":"M"},"action":"harvest","summary":"good-harvest","bonus":0.8800000000000007},{"rt":861.5,"stimulus":"\n                    <p><b>Action: <em>harvest</em></b></p>\n                    <p>This is the bee that you just saw.</p>\n                    <img src=\"bees-with-color/bee-B2DF.svg\" width=\"200\">\n                    <p><span class=\"greenText\"><b>Successful harvest!</b></span><br>Your pay has increased by $0.02. Your bonus pay is now $0.66.</p>\n            ","response":0,"trial_type":"html-button-response","trial_index":104,"time_elapsed":696782,"internal_node_id":"0.0-4.0-1.48","subject_id":"5e9fdd5effe6a51855448d1b","study_id":"60edd13110225f80f9f3709b","session_id":"6196d2a836eb98814a540898","condition":"contingent","relevant_dimensions":["pattern","legs"],"bee_group":{"antennae":"X","wings":"X","pattern":"S","legs":"M"},"bonus":0.8800000000000007},{"rt":3245.5999999996275,"stimulus":"bees-with-color/bee-B1SM.svg","response":1,"trial_type":"image-button-response","trial_index":105,"time_elapsed":700030,"internal_node_id":"0.0-4.0-0.49","subject_id":"5e9fdd5effe6a51855448d1b","study_id":"60edd13110225f80f9f3709b","session_id":"6196d2a836eb98814a540898","condition":"contingent","relevant_dimensions":["pattern","legs"],"bee_group":{"antennae":"X","wings":"X","pattern":"S","legs":"M"},"action":"avoid","summary":"good-avoid","bonus":0.8800000000000007},{"rt":861.5,"stimulus":"\n                    <p><b>Action: <em>avoid</em></b></p>\n                    <p>This is the bee that you just saw.</p>\n                    <img src=\"bees-with-color/bee-B1SM.svg\" width=\"200\">\n                    <p><br>Your bonus pay is unchanged, and remains at $0.66.</p>\n            ","response":0,"trial_type":"html-button-response","trial_index":106,"time_elapsed":700894,"internal_node_id":"0.0-4.0-1.49","subject_id":"5e9fdd5effe6a51855448d1b","study_id":"60edd13110225f80f9f3709b","session_id":"6196d2a836eb98814a540898","condition":"contingent","relevant_dimensions":["pattern","legs"],"bee_group":{"antennae":"X","wings":"X","pattern":"S","legs":"M"},"bonus":0.8800000000000007},{"rt":4861.4000000003725,"stimulus":"bees-with-color/bee-A2DF.svg","response":1,"trial_type":"image-button-response","trial_index":107,"time_elapsed":705758,"internal_node_id":"0.0-4.0-0.50","subject_id":"5e9fdd5effe6a51855448d1b","study_id":"60edd13110225f80f9f3709b","session_id":"6196d2a836eb98814a540898","condition":"contingent","relevant_dimensions":["pattern","legs"],"bee_group":{"antennae":"X","wings":"X","pattern":"S","legs":"M"},"action":"avoid","summary":"bad-avoid","bonus":0.8800000000000007},{"rt":837.5,"stimulus":"\n                    <p><b>Action: <em>avoid</em></b></p>\n                    <p>This is the bee that you just saw.</p>\n                    <img src=\"bees-with-color/bee-A2DF.svg\" width=\"200\">\n                    <p><br>Your bonus pay is unchanged, and remains at $0.66.</p>\n            ","response":0,"trial_type":"html-button-response","trial_index":108,"time_elapsed":706598,"internal_node_id":"0.0-4.0-1.50","subject_id":"5e9fdd5effe6a51855448d1b","study_id":"60edd13110225f80f9f3709b","session_id":"6196d2a836eb98814a540898","condition":"contingent","relevant_dimensions":["pattern","legs"],"bee_group":{"antennae":"X","wings":"X","pattern":"S","legs":"M"},"bonus":0.8800000000000007},{"rt":725.1999999992549,"stimulus":"bees-with-color/bee-A1DM.svg","response":1,"trial_type":"image-button-response","trial_index":109,"time_elapsed":707326,"internal_node_id":"0.0-4.0-0.51","subject_id":"5e9fdd5effe6a51855448d1b","study_id":"60edd13110225f80f9f3709b","session_id":"6196d2a836eb98814a540898","condition":"contingent","relevant_dimensions":["pattern","legs"],"bee_group":{"antennae":"X","wings":"X","pattern":"S","legs":"M"},"action":"avoid","summary":"bad-avoid","bonus":0.8800000000000007},{"rt":565.5999999996275,"stimulus":"\n                    <p><b>Action: <em>avoid</em></b></p>\n                    <p>This is the bee that you just saw.</p>\n                    <img src=\"bees-with-color/bee-A1DM.svg\" width=\"200\">\n                    <p><br>Your bonus pay is unchanged, and remains at $0.66.</p>\n            ","response":0,"trial_type":"html-button-response","trial_index":110,"time_elapsed":707894,"internal_node_id":"0.0-4.0-1.51","subject_id":"5e9fdd5effe6a51855448d1b","study_id":"60edd13110225f80f9f3709b","session_id":"6196d2a836eb98814a540898","condition":"contingent","relevant_dimensions":["pattern","legs"],"bee_group":{"antennae":"X","wings":"X","pattern":"S","legs":"M"},"bonus":0.8800000000000007},{"rt":565.1999999992549,"stimulus":"bees-with-color/bee-A2DM.svg","response":1,"trial_type":"image-button-response","trial_index":111,"time_elapsed":708462,"internal_node_id":"0.0-4.0-0.52","subject_id":"5e9fdd5effe6a51855448d1b","study_id":"60edd13110225f80f9f3709b","session_id":"6196d2a836eb98814a540898","condition":"contingent","relevant_dimensions":["pattern","legs"],"bee_group":{"antennae":"X","wings":"X","pattern":"S","legs":"M"},"action":"avoid","summary":"bad-avoid","bonus":0.8800000000000007},{"rt":516.9000000003725,"stimulus":"\n                    <p><b>Action: <em>avoid</em></b></p>\n                    <p>This is the bee that you just saw.</p>\n                    <img src=\"bees-with-color/bee-A2DM.svg\" width=\"200\">\n                    <p><br>Your bonus pay is unchanged, and remains at $0.66.</p>\n            ","response":0,"trial_type":"html-button-response","trial_index":112,"time_elapsed":708982,"internal_node_id":"0.0-4.0-1.52","subject_id":"5e9fdd5effe6a51855448d1b","study_id":"60edd13110225f80f9f3709b","session_id":"6196d2a836eb98814a540898","condition":"contingent","relevant_dimensions":["pattern","legs"],"bee_group":{"antennae":"X","wings":"X","pattern":"S","legs":"M"},"bonus":0.8800000000000007},{"rt":885.5,"stimulus":"bees-with-color/bee-A1SM.svg","response":1,"trial_type":"image-button-response","trial_index":113,"time_elapsed":709870,"internal_node_id":"0.0-4.0-0.53","subject_id":"5e9fdd5effe6a51855448d1b","study_id":"60edd13110225f80f9f3709b","session_id":"6196d2a836eb98814a540898","condition":"contingent","relevant_dimensions":["pattern","legs"],"bee_group":{"antennae":"X","wings":"X","pattern":"S","legs":"M"},"action":"avoid","summary":"good-avoid","bonus":0.8800000000000007},{"rt":581.5,"stimulus":"\n                    <p><b>Action: <em>avoid</em></b></p>\n                    <p>This is the bee that you just saw.</p>\n                    <img src=\"bees-with-color/bee-A1SM.svg\" width=\"200\">\n                    <p><br>Your bonus pay is unchanged, and remains at $0.66.</p>\n            ","response":0,"trial_type":"html-button-response","trial_index":114,"time_elapsed":710454,"internal_node_id":"0.0-4.0-1.53","subject_id":"5e9fdd5effe6a51855448d1b","study_id":"60edd13110225f80f9f3709b","session_id":"6196d2a836eb98814a540898","condition":"contingent","relevant_dimensions":["pattern","legs"],"bee_group":{"antennae":"X","wings":"X","pattern":"S","legs":"M"},"bonus":0.8800000000000007},{"rt":693.6999999992549,"stimulus":"bees-with-color/bee-A1SF.svg","response":1,"trial_type":"image-button-response","trial_index":115,"time_elapsed":711150,"internal_node_id":"0.0-4.0-0.54","subject_id":"5e9fdd5effe6a51855448d1b","study_id":"60edd13110225f80f9f3709b","session_id":"6196d2a836eb98814a540898","condition":"contingent","relevant_dimensions":["pattern","legs"],"bee_group":{"antennae":"X","wings":"X","pattern":"S","legs":"M"},"action":"avoid","summary":"bad-avoid","bonus":0.8800000000000007},{"rt":629.2999999988824,"stimulus":"\n                    <p><b>Action: <em>avoid</em></b></p>\n                    <p>This is the bee that you just saw.</p>\n                    <img src=\"bees-with-color/bee-A1SF.svg\" width=\"200\">\n                    <p><br>Your bonus pay is unchanged, and remains at $0.66.</p>\n            ","response":0,"trial_type":"html-button-response","trial_index":116,"time_elapsed":711782,"internal_node_id":"0.0-4.0-1.54","subject_id":"5e9fdd5effe6a51855448d1b","study_id":"60edd13110225f80f9f3709b","session_id":"6196d2a836eb98814a540898","condition":"contingent","relevant_dimensions":["pattern","legs"],"bee_group":{"antennae":"X","wings":"X","pattern":"S","legs":"M"},"bonus":0.8800000000000007},{"rt":1989.699999999255,"stimulus":"bees-with-color/bee-B2SF.svg","response":0,"trial_type":"image-button-response","trial_index":117,"time_elapsed":713774,"internal_node_id":"0.0-4.0-0.55","subject_id":"5e9fdd5effe6a51855448d1b","study_id":"60edd13110225f80f9f3709b","session_id":"6196d2a836eb98814a540898","condition":"contingent","relevant_dimensions":["pattern","legs"],"bee_group":{"antennae":"X","wings":"X","pattern":"S","legs":"M"},"action":"harvest","summary":"good-harvest","bonus":0.8800000000000007},{"rt":685.3999999985099,"stimulus":"\n                    <p><b>Action: <em>harvest</em></b></p>\n                    <p>This is the bee that you just saw.</p>\n                    <img src=\"bees-with-color/bee-B2SF.svg\" width=\"200\">\n                    <p><span class=\"greenText\"><b>Successful harvest!</b></span><br>Your pay has increased by $0.02. Your bonus pay is now $0.68.</p>\n            ","response":0,"trial_type":"html-button-response","trial_index":118,"time_elapsed":714462,"internal_node_id":"0.0-4.0-1.55","subject_id":"5e9fdd5effe6a51855448d1b","study_id":"60edd13110225f80f9f3709b","session_id":"6196d2a836eb98814a540898","condition":"contingent","relevant_dimensions":["pattern","legs"],"bee_group":{"antennae":"X","wings":"X","pattern":"S","legs":"M"},"bonus":0.8800000000000007},{"rt":3213.5999999996275,"stimulus":"bees-with-color/bee-A1DF.svg","response":1,"trial_type":"image-button-response","trial_index":119,"time_elapsed":717678,"internal_node_id":"0.0-4.0-0.56","subject_id":"5e9fdd5effe6a51855448d1b","study_id":"60edd13110225f80f9f3709b","session_id":"6196d2a836eb98814a540898","condition":"contingent","relevant_dimensions":["pattern","legs"],"bee_group":{"antennae":"X","wings":"X","pattern":"S","legs":"M"},"action":"avoid","summary":"bad-avoid","bonus":0.8800000000000007},{"rt":733.5,"stimulus":"\n                    <p><b>Action: <em>avoid</em></b></p>\n                    <p>This is the bee that you just saw.</p>\n                    <img src=\"bees-with-color/bee-A1DF.svg\" width=\"200\">\n                    <p><br>Your bonus pay is unchanged, and remains at $0.68.</p>\n            ","response":0,"trial_type":"html-button-response","trial_index":120,"time_elapsed":718414,"internal_node_id":"0.0-4.0-1.56","subject_id":"5e9fdd5effe6a51855448d1b","study_id":"60edd13110225f80f9f3709b","session_id":"6196d2a836eb98814a540898","condition":"contingent","relevant_dimensions":["pattern","legs"],"bee_group":{"antennae":"X","wings":"X","pattern":"S","legs":"M"},"bonus":0.8800000000000007},{"rt":773,"stimulus":"bees-with-color/bee-A2SM.svg","response":1,"trial_type":"image-button-response","trial_index":121,"time_elapsed":719190,"internal_node_id":"0.0-4.0-0.57","subject_id":"5e9fdd5effe6a51855448d1b","study_id":"60edd13110225f80f9f3709b","session_id":"6196d2a836eb98814a540898","condition":"contingent","relevant_dimensions":["pattern","legs"],"bee_group":{"antennae":"X","wings":"X","pattern":"S","legs":"M"},"action":"avoid","summary":"good-avoid","bonus":0.8800000000000007},{"rt":621.2999999988824,"stimulus":"\n                    <p><b>Action: <em>avoid</em></b></p>\n                    <p>This is the bee that you just saw.</p>\n                    <img src=\"bees-with-color/bee-A2SM.svg\" width=\"200\">\n                    <p><br>Your bonus pay is unchanged, and remains at $0.68.</p>\n            ","response":0,"trial_type":"html-button-response","trial_index":122,"time_elapsed":719814,"internal_node_id":"0.0-4.0-1.57","subject_id":"5e9fdd5effe6a51855448d1b","study_id":"60edd13110225f80f9f3709b","session_id":"6196d2a836eb98814a540898","condition":"contingent","relevant_dimensions":["pattern","legs"],"bee_group":{"antennae":"X","wings":"X","pattern":"S","legs":"M"},"bonus":0.8800000000000007},{"rt":1477.5,"stimulus":"bees-with-color/bee-B2SM.svg","response":1,"trial_type":"image-button-response","trial_index":123,"time_elapsed":721294,"internal_node_id":"0.0-4.0-0.58","subject_id":"5e9fdd5effe6a51855448d1b","study_id":"60edd13110225f80f9f3709b","session_id":"6196d2a836eb98814a540898","condition":"contingent","relevant_dimensions":["pattern","legs"],"bee_group":{"antennae":"X","wings":"X","pattern":"S","legs":"M"},"action":"avoid","summary":"good-avoid","bonus":0.8800000000000007},{"rt":709.0999999996275,"stimulus":"\n                    <p><b>Action: <em>avoid</em></b></p>\n                    <p>This is the bee that you just saw.</p>\n                    <img src=\"bees-with-color/bee-B2SM.svg\" width=\"200\">\n                    <p><br>Your bonus pay is unchanged, and remains at $0.68.</p>\n            ","response":0,"trial_type":"html-button-response","trial_index":124,"time_elapsed":722006,"internal_node_id":"0.0-4.0-1.58","subject_id":"5e9fdd5effe6a51855448d1b","study_id":"60edd13110225f80f9f3709b","session_id":"6196d2a836eb98814a540898","condition":"contingent","relevant_dimensions":["pattern","legs"],"bee_group":{"antennae":"X","wings":"X","pattern":"S","legs":"M"},"bonus":0.8800000000000007},{"rt":1989.5,"stimulus":"bees-with-color/bee-B1DF.svg","response":0,"trial_type":"image-button-response","trial_index":125,"time_elapsed":723998,"internal_node_id":"0.0-4.0-0.59","subject_id":"5e9fdd5effe6a51855448d1b","study_id":"60edd13110225f80f9f3709b","session_id":"6196d2a836eb98814a540898","condition":"contingent","relevant_dimensions":["pattern","legs"],"bee_group":{"antennae":"X","wings":"X","pattern":"S","legs":"M"},"action":"harvest","summary":"good-harvest","bonus":0.8800000000000007},{"rt":589.0999999996275,"stimulus":"\n                    <p><b>Action: <em>harvest</em></b></p>\n                    <p>This is the bee that you just saw.</p>\n                    <img src=\"bees-with-color/bee-B1DF.svg\" width=\"200\">\n                    <p><span class=\"greenText\"><b>Successful harvest!</b></span><br>Your pay has increased by $0.02. Your bonus pay is now $0.70.</p>\n            ","response":0,"trial_type":"html-button-response","trial_index":126,"time_elapsed":724590,"internal_node_id":"0.0-4.0-1.59","subject_id":"5e9fdd5effe6a51855448d1b","study_id":"60edd13110225f80f9f3709b","session_id":"6196d2a836eb98814a540898","condition":"contingent","relevant_dimensions":["pattern","legs"],"bee_group":{"antennae":"X","wings":"X","pattern":"S","legs":"M"},"bonus":0.8800000000000007},{"rt":1357.5,"stimulus":"bees-with-color/bee-B1DM.svg","response":1,"trial_type":"image-button-response","trial_index":127,"time_elapsed":725950,"internal_node_id":"0.0-4.0-0.60","subject_id":"5e9fdd5effe6a51855448d1b","study_id":"60edd13110225f80f9f3709b","session_id":"6196d2a836eb98814a540898","condition":"contingent","relevant_dimensions":["pattern","legs"],"bee_group":{"antennae":"X","wings":"X","pattern":"S","legs":"M"},"action":"avoid","summary":"bad-avoid","bonus":0.8800000000000007},{"rt":581.5,"stimulus":"\n                    <p><b>Action: <em>avoid</em></b></p>\n                    <p>This is the bee that you just saw.</p>\n                    <img src=\"bees-with-color/bee-B1DM.svg\" width=\"200\">\n                    <p><br>Your bonus pay is unchanged, and remains at $0.70.</p>\n            ","response":0,"trial_type":"html-button-response","trial_index":128,"time_elapsed":726534,"internal_node_id":"0.0-4.0-1.60","subject_id":"5e9fdd5effe6a51855448d1b","study_id":"60edd13110225f80f9f3709b","session_id":"6196d2a836eb98814a540898","condition":"contingent","relevant_dimensions":["pattern","legs"],"bee_group":{"antennae":"X","wings":"X","pattern":"S","legs":"M"},"bonus":0.8800000000000007},{"rt":2589.39999999851,"stimulus":"bees-with-color/bee-B1SF.svg","response":0,"trial_type":"image-button-response","trial_index":129,"time_elapsed":729126,"internal_node_id":"0.0-4.0-0.61","subject_id":"5e9fdd5effe6a51855448d1b","study_id":"60edd13110225f80f9f3709b","session_id":"6196d2a836eb98814a540898","condition":"contingent","relevant_dimensions":["pattern","legs"],"bee_group":{"antennae":"X","wings":"X","pattern":"S","legs":"M"},"action":"harvest","summary":"good-harvest","bonus":0.8800000000000007},{"rt":581,"stimulus":"\n                    <p><b>Action: <em>harvest</em></b></p>\n                    <p>This is the bee that you just saw.</p>\n                    <img src=\"bees-with-color/bee-B1SF.svg\" width=\"200\">\n                    <p><span class=\"greenText\"><b>Successful harvest!</b></span><br>Your pay has increased by $0.02. Your bonus pay is now $0.72.</p>\n            ","response":0,"trial_type":"html-button-response","trial_index":130,"time_elapsed":729710,"internal_node_id":"0.0-4.0-1.61","subject_id":"5e9fdd5effe6a51855448d1b","study_id":"60edd13110225f80f9f3709b","session_id":"6196d2a836eb98814a540898","condition":"contingent","relevant_dimensions":["pattern","legs"],"bee_group":{"antennae":"X","wings":"X","pattern":"S","legs":"M"},"bonus":0.8800000000000007},{"rt":2980.699999999255,"stimulus":"bees-with-color/bee-A2SF.svg","response":1,"trial_type":"image-button-response","trial_index":131,"time_elapsed":732694,"internal_node_id":"0.0-4.0-0.62","subject_id":"5e9fdd5effe6a51855448d1b","study_id":"60edd13110225f80f9f3709b","session_id":"6196d2a836eb98814a540898","condition":"contingent","relevant_dimensions":["pattern","legs"],"bee_group":{"antennae":"X","wings":"X","pattern":"S","legs":"M"},"action":"avoid","summary":"bad-avoid","bonus":0.8800000000000007},{"rt":773.8999999985099,"stimulus":"\n                    <p><b>Action: <em>avoid</em></b></p>\n                    <p>This is the bee that you just saw.</p>\n                    <img src=\"bees-with-color/bee-A2SF.svg\" width=\"200\">\n                    <p><br>Your bonus pay is unchanged, and remains at $0.72.</p>\n            ","response":0,"trial_type":"html-button-response","trial_index":132,"time_elapsed":733470,"internal_node_id":"0.0-4.0-1.62","subject_id":"5e9fdd5effe6a51855448d1b","study_id":"60edd13110225f80f9f3709b","session_id":"6196d2a836eb98814a540898","condition":"contingent","relevant_dimensions":["pattern","legs"],"bee_group":{"antennae":"X","wings":"X","pattern":"S","legs":"M"},"bonus":0.8800000000000007},{"rt":1277.699999999255,"stimulus":"bees-with-color/bee-B2DM.svg","response":1,"trial_type":"image-button-response","trial_index":133,"time_elapsed":734750,"internal_node_id":"0.0-4.0-0.63","subject_id":"5e9fdd5effe6a51855448d1b","study_id":"60edd13110225f80f9f3709b","session_id":"6196d2a836eb98814a540898","condition":"contingent","relevant_dimensions":["pattern","legs"],"bee_group":{"antennae":"X","wings":"X","pattern":"S","legs":"M"},"action":"avoid","summary":"bad-avoid","bonus":0.8800000000000007},{"rt":582,"stimulus":"\n                    <p><b>Action: <em>avoid</em></b></p>\n                    <p>This is the bee that you just saw.</p>\n                    <img src=\"bees-with-color/bee-B2DM.svg\" width=\"200\">\n                    <p><br>Your bonus pay is unchanged, and remains at $0.72.</p>\n            ","response":0,"trial_type":"html-button-response","trial_index":134,"time_elapsed":735334,"internal_node_id":"0.0-4.0-1.63","subject_id":"5e9fdd5effe6a51855448d1b","study_id":"60edd13110225f80f9f3709b","session_id":"6196d2a836eb98814a540898","condition":"contingent","relevant_dimensions":["pattern","legs"],"bee_group":{"antennae":"X","wings":"X","pattern":"S","legs":"M"},"bonus":0.8800000000000007},{"rt":8689.199999999255,"stimulus":"You have completed the first part of this experiment.<br><br>You will now begin a shorter second part, in which you will receive no feedback.<br>The same rules regarding bonus pay apply.<br><br>Press any key to begin.","response":"d","trial_type":"html-keyboard-response","trial_index":135,"time_elapsed":744026,"internal_node_id":"0.0-5.0","subject_id":"5e9fdd5effe6a51855448d1b","study_id":"60edd13110225f80f9f3709b","session_id":"6196d2a836eb98814a540898","condition":"contingent","relevant_dimensions":["pattern","legs"],"bee_group":{"antennae":"X","wings":"X","pattern":"S","legs":"M"},"bonus":0.8800000000000007},{"rt":3228.4000000003725,"stimulus":"bees-with-color/bee-A2SM.svg","response":1,"trial_type":"image-button-response","trial_index":136,"time_elapsed":747262,"internal_node_id":"0.0-6.0-0.0","subject_id":"5e9fdd5effe6a51855448d1b","study_id":"60edd13110225f80f9f3709b","session_id":"6196d2a836eb98814a540898","condition":"contingent","relevant_dimensions":["pattern","legs"],"bee_group":{"antennae":"X","wings":"X","pattern":"S","legs":"M"},"bonus":0.8800000000000007},{"rt":3516.10000000149,"stimulus":"bees-with-color/bee-B1DM.svg","response":1,"trial_type":"image-button-response","trial_index":137,"time_elapsed":750782,"internal_node_id":"0.0-6.0-0.1","subject_id":"5e9fdd5effe6a51855448d1b","study_id":"60edd13110225f80f9f3709b","session_id":"6196d2a836eb98814a540898","condition":"contingent","relevant_dimensions":["pattern","legs"],"bee_group":{"antennae":"X","wings":"X","pattern":"S","legs":"M"},"bonus":0.8800000000000007},{"rt":1004,"stimulus":"bees-with-color/bee-A2DM.svg","response":1,"trial_type":"image-button-response","trial_index":138,"time_elapsed":751790,"internal_node_id":"0.0-6.0-0.2","subject_id":"5e9fdd5effe6a51855448d1b","study_id":"60edd13110225f80f9f3709b","session_id":"6196d2a836eb98814a540898","condition":"contingent","relevant_dimensions":["pattern","legs"],"bee_group":{"antennae":"X","wings":"X","pattern":"S","legs":"M"},"bonus":0.8800000000000007},{"rt":1204.300000000745,"stimulus":"bees-with-color/bee-B1SM.svg","response":1,"trial_type":"image-button-response","trial_index":139,"time_elapsed":752998,"internal_node_id":"0.0-6.0-0.3","subject_id":"5e9fdd5effe6a51855448d1b","study_id":"60edd13110225f80f9f3709b","session_id":"6196d2a836eb98814a540898","condition":"contingent","relevant_dimensions":["pattern","legs"],"bee_group":{"antennae":"X","wings":"X","pattern":"S","legs":"M"},"bonus":0.8800000000000007},{"rt":2500.300000000745,"stimulus":"bees-with-color/bee-A1SF.svg","response":1,"trial_type":"image-button-response","trial_index":140,"time_elapsed":755502,"internal_node_id":"0.0-6.0-0.4","subject_id":"5e9fdd5effe6a51855448d1b","study_id":"60edd13110225f80f9f3709b","session_id":"6196d2a836eb98814a540898","condition":"contingent","relevant_dimensions":["pattern","legs"],"bee_group":{"antennae":"X","wings":"X","pattern":"S","legs":"M"},"bonus":0.8800000000000007},{"rt":556.5,"stimulus":"bees-with-color/bee-A2DF.svg","response":1,"trial_type":"image-button-response","trial_index":141,"time_elapsed":756062,"internal_node_id":"0.0-6.0-0.5","subject_id":"5e9fdd5effe6a51855448d1b","study_id":"60edd13110225f80f9f3709b","session_id":"6196d2a836eb98814a540898","condition":"contingent","relevant_dimensions":["pattern","legs"],"bee_group":{"antennae":"X","wings":"X","pattern":"S","legs":"M"},"bonus":0.8800000000000007},{"rt":2076.60000000149,"stimulus":"bees-with-color/bee-B2SF.svg","response":0,"trial_type":"image-button-response","trial_index":142,"time_elapsed":758142,"internal_node_id":"0.0-6.0-0.6","subject_id":"5e9fdd5effe6a51855448d1b","study_id":"60edd13110225f80f9f3709b","session_id":"6196d2a836eb98814a540898","condition":"contingent","relevant_dimensions":["pattern","legs"],"bee_group":{"antennae":"X","wings":"X","pattern":"S","legs":"M"},"bonus":0.8800000000000007},{"rt":5276.5,"stimulus":"bees-with-color/bee-B2DF.svg","response":0,"trial_type":"image-button-response","trial_index":143,"time_elapsed":763422,"internal_node_id":"0.0-6.0-0.7","subject_id":"5e9fdd5effe6a51855448d1b","study_id":"60edd13110225f80f9f3709b","session_id":"6196d2a836eb98814a540898","condition":"contingent","relevant_dimensions":["pattern","legs"],"bee_group":{"antennae":"X","wings":"X","pattern":"S","legs":"M"},"bonus":0.8800000000000007},{"rt":1003.9000000003725,"stimulus":"bees-with-color/bee-A2SF.svg","response":1,"trial_type":"image-button-response","trial_index":144,"time_elapsed":764430,"internal_node_id":"0.0-6.0-0.8","subject_id":"5e9fdd5effe6a51855448d1b","study_id":"60edd13110225f80f9f3709b","session_id":"6196d2a836eb98814a540898","condition":"contingent","relevant_dimensions":["pattern","legs"],"bee_group":{"antennae":"X","wings":"X","pattern":"S","legs":"M"},"bonus":0.8800000000000007},{"rt":1284.4000000003725,"stimulus":"bees-with-color/bee-B1DF.svg","response":0,"trial_type":"image-button-response","trial_index":145,"time_elapsed":765718,"internal_node_id":"0.0-6.0-0.9","subject_id":"5e9fdd5effe6a51855448d1b","study_id":"60edd13110225f80f9f3709b","session_id":"6196d2a836eb98814a540898","condition":"contingent","relevant_dimensions":["pattern","legs"],"bee_group":{"antennae":"X","wings":"X","pattern":"S","legs":"M"},"bonus":0.8800000000000007},{"rt":1380.5,"stimulus":"bees-with-color/bee-B2SM.svg","response":1,"trial_type":"image-button-response","trial_index":146,"time_elapsed":767102,"internal_node_id":"0.0-6.0-0.10","subject_id":"5e9fdd5effe6a51855448d1b","study_id":"60edd13110225f80f9f3709b","session_id":"6196d2a836eb98814a540898","condition":"contingent","relevant_dimensions":["pattern","legs"],"bee_group":{"antennae":"X","wings":"X","pattern":"S","legs":"M"},"bonus":0.8800000000000007},{"rt":1364.300000000745,"stimulus":"bees-with-color/bee-A1SM.svg","response":1,"trial_type":"image-button-response","trial_index":147,"time_elapsed":768470,"internal_node_id":"0.0-6.0-0.11","subject_id":"5e9fdd5effe6a51855448d1b","study_id":"60edd13110225f80f9f3709b","session_id":"6196d2a836eb98814a540898","condition":"contingent","relevant_dimensions":["pattern","legs"],"bee_group":{"antennae":"X","wings":"X","pattern":"S","legs":"M"},"bonus":0.8800000000000007},{"rt":1148.4000000003725,"stimulus":"bees-with-color/bee-B2DM.svg","response":1,"trial_type":"image-button-response","trial_index":148,"time_elapsed":769622,"internal_node_id":"0.0-6.0-0.12","subject_id":"5e9fdd5effe6a51855448d1b","study_id":"60edd13110225f80f9f3709b","session_id":"6196d2a836eb98814a540898","condition":"contingent","relevant_dimensions":["pattern","legs"],"bee_group":{"antennae":"X","wings":"X","pattern":"S","legs":"M"},"bonus":0.8800000000000007},{"rt":2972.0999999996275,"stimulus":"bees-with-color/bee-B1SF.svg","response":0,"trial_type":"image-button-response","trial_index":149,"time_elapsed":772598,"internal_node_id":"0.0-6.0-0.13","subject_id":"5e9fdd5effe6a51855448d1b","study_id":"60edd13110225f80f9f3709b","session_id":"6196d2a836eb98814a540898","condition":"contingent","relevant_dimensions":["pattern","legs"],"bee_group":{"antennae":"X","wings":"X","pattern":"S","legs":"M"},"bonus":0.8800000000000007},{"rt":2707.800000000745,"stimulus":"bees-with-color/bee-A1DM.svg","response":1,"trial_type":"image-button-response","trial_index":150,"time_elapsed":775310,"internal_node_id":"0.0-6.0-0.14","subject_id":"5e9fdd5effe6a51855448d1b","study_id":"60edd13110225f80f9f3709b","session_id":"6196d2a836eb98814a540898","condition":"contingent","relevant_dimensions":["pattern","legs"],"bee_group":{"antennae":"X","wings":"X","pattern":"S","legs":"M"},"bonus":0.8800000000000007},{"rt":3204.300000000745,"stimulus":"bees-with-color/bee-A1DF.svg","response":1,"trial_type":"image-button-response","trial_index":151,"time_elapsed":778518,"internal_node_id":"0.0-6.0-0.15","subject_id":"5e9fdd5effe6a51855448d1b","study_id":"60edd13110225f80f9f3709b","session_id":"6196d2a836eb98814a540898","condition":"contingent","relevant_dimensions":["pattern","legs"],"bee_group":{"antennae":"X","wings":"X","pattern":"S","legs":"M"},"bonus":0.8800000000000007},{"rt":932.5999999996275,"stimulus":"bees-with-color/bee-A2SM.svg","response":1,"trial_type":"image-button-response","trial_index":152,"time_elapsed":779454,"internal_node_id":"0.0-6.0-0.16","subject_id":"5e9fdd5effe6a51855448d1b","study_id":"60edd13110225f80f9f3709b","session_id":"6196d2a836eb98814a540898","condition":"contingent","relevant_dimensions":["pattern","legs"],"bee_group":{"antennae":"X","wings":"X","pattern":"S","legs":"M"},"bonus":0.8800000000000007},{"rt":1156.7000000011176,"stimulus":"bees-with-color/bee-B2SM.svg","response":1,"trial_type":"image-button-response","trial_index":153,"time_elapsed":780614,"internal_node_id":"0.0-6.0-0.17","subject_id":"5e9fdd5effe6a51855448d1b","study_id":"60edd13110225f80f9f3709b","session_id":"6196d2a836eb98814a540898","condition":"contingent","relevant_dimensions":["pattern","legs"],"bee_group":{"antennae":"X","wings":"X","pattern":"S","legs":"M"},"bonus":0.8800000000000007},{"rt":3916.9000000003725,"stimulus":"bees-with-color/bee-A2SF.svg","response":1,"trial_type":"image-button-response","trial_index":154,"time_elapsed":784534,"internal_node_id":"0.0-6.0-0.18","subject_id":"5e9fdd5effe6a51855448d1b","study_id":"60edd13110225f80f9f3709b","session_id":"6196d2a836eb98814a540898","condition":"contingent","relevant_dimensions":["pattern","legs"],"bee_group":{"antennae":"X","wings":"X","pattern":"S","legs":"M"},"bonus":0.8800000000000007},{"rt":1260.300000000745,"stimulus":"bees-with-color/bee-B1SF.svg","response":0,"trial_type":"image-button-response","trial_index":155,"time_elapsed":785798,"internal_node_id":"0.0-6.0-0.19","subject_id":"5e9fdd5effe6a51855448d1b","study_id":"60edd13110225f80f9f3709b","session_id":"6196d2a836eb98814a540898","condition":"contingent","relevant_dimensions":["pattern","legs"],"bee_group":{"antennae":"X","wings":"X","pattern":"S","legs":"M"},"bonus":0.8800000000000007},{"rt":2100.800000000745,"stimulus":"bees-with-color/bee-B2DF.svg","response":0,"trial_type":"image-button-response","trial_index":156,"time_elapsed":787902,"internal_node_id":"0.0-6.0-0.20","subject_id":"5e9fdd5effe6a51855448d1b","study_id":"60edd13110225f80f9f3709b","session_id":"6196d2a836eb98814a540898","condition":"contingent","relevant_dimensions":["pattern","legs"],"bee_group":{"antennae":"X","wings":"X","pattern":"S","legs":"M"},"bonus":0.8800000000000007},{"rt":3012.800000000745,"stimulus":"bees-with-color/bee-A1SF.svg","response":1,"trial_type":"image-button-response","trial_index":157,"time_elapsed":790918,"internal_node_id":"0.0-6.0-0.21","subject_id":"5e9fdd5effe6a51855448d1b","study_id":"60edd13110225f80f9f3709b","session_id":"6196d2a836eb98814a540898","condition":"contingent","relevant_dimensions":["pattern","legs"],"bee_group":{"antennae":"X","wings":"X","pattern":"S","legs":"M"},"bonus":0.8800000000000007},{"rt":7972.200000001118,"stimulus":"bees-with-color/bee-B2SF.svg","response":0,"trial_type":"image-button-response","trial_index":158,"time_elapsed":798894,"internal_node_id":"0.0-6.0-0.22","subject_id":"5e9fdd5effe6a51855448d1b","study_id":"60edd13110225f80f9f3709b","session_id":"6196d2a836eb98814a540898","condition":"contingent","relevant_dimensions":["pattern","legs"],"bee_group":{"antennae":"X","wings":"X","pattern":"S","legs":"M"},"bonus":0.8800000000000007},{"rt":1516.300000000745,"stimulus":"bees-with-color/bee-B1DM.svg","response":1,"trial_type":"image-button-response","trial_index":159,"time_elapsed":800414,"internal_node_id":"0.0-6.0-0.23","subject_id":"5e9fdd5effe6a51855448d1b","study_id":"60edd13110225f80f9f3709b","session_id":"6196d2a836eb98814a540898","condition":"contingent","relevant_dimensions":["pattern","legs"],"bee_group":{"antennae":"X","wings":"X","pattern":"S","legs":"M"},"bonus":0.8800000000000007},{"rt":1660.5999999996275,"stimulus":"bees-with-color/bee-A1DF.svg","response":1,"trial_type":"image-button-response","trial_index":160,"time_elapsed":802078,"internal_node_id":"0.0-6.0-0.24","subject_id":"5e9fdd5effe6a51855448d1b","study_id":"60edd13110225f80f9f3709b","session_id":"6196d2a836eb98814a540898","condition":"contingent","relevant_dimensions":["pattern","legs"],"bee_group":{"antennae":"X","wings":"X","pattern":"S","legs":"M"},"bonus":0.8800000000000007},{"rt":1212.9000000003725,"stimulus":"bees-with-color/bee-B2DM.svg","response":1,"trial_type":"image-button-response","trial_index":161,"time_elapsed":803294,"internal_node_id":"0.0-6.0-0.25","subject_id":"5e9fdd5effe6a51855448d1b","study_id":"60edd13110225f80f9f3709b","session_id":"6196d2a836eb98814a540898","condition":"contingent","relevant_dimensions":["pattern","legs"],"bee_group":{"antennae":"X","wings":"X","pattern":"S","legs":"M"},"bonus":0.8800000000000007},{"rt":733.0999999996275,"stimulus":"bees-with-color/bee-A2DF.svg","response":1,"trial_type":"image-button-response","trial_index":162,"time_elapsed":804030,"internal_node_id":"0.0-6.0-0.26","subject_id":"5e9fdd5effe6a51855448d1b","study_id":"60edd13110225f80f9f3709b","session_id":"6196d2a836eb98814a540898","condition":"contingent","relevant_dimensions":["pattern","legs"],"bee_group":{"antennae":"X","wings":"X","pattern":"S","legs":"M"},"bonus":0.8800000000000007},{"rt":2533.300000000745,"stimulu