[{"success":true,"trial_type":"fullscreen","trial_index":0,"time_elapsed":21283,"internal_node_id":"0.0-0.0","subject_id":"5eeb8ccf11363a0c145d40c8","study_id":"6197b3f67c2b5cd3b6d9596a","session_id":"6197b576d87f8b5b8df617fb","condition":"full-information","relevant_dimensions":["antennae","pattern"],"bee_group":{"antennae":"B","wings":"X","pattern":"D","legs":"X"},"bonus":1.7800000000000011},{"success":true,"timeout":false,"failed_images":[],"failed_audio":[],"failed_video":[],"trial_type":"preload","trial_index":1,"time_elapsed":23307,"internal_node_id":"0.0-1.0","subject_id":"5eeb8ccf11363a0c145d40c8","study_id":"6197b3f67c2b5cd3b6d9596a","session_id":"6197b576d87f8b5b8df617fb","condition":"full-information","relevant_dimensions":["antennae","pattern"],"bee_group":{"antennae":"B","wings":"X","pattern":"D","legs":"X"},"bonus":1.7800000000000011},{"rt":2794.9000000059605,"stimulus":"Welcome! Press any key to begin.","response":"enter","trial_type":"html-keyboard-response","trial_index":2,"time_elapsed":26102,"internal_node_id":"0.0-2.0","subject_id":"5eeb8ccf11363a0c145d40c8","study_id":"6197b3f67c2b5cd3b6d9596a","session_id":"6197b576d87f8b5b8df617fb","condition":"full-information","relevant_dimensions":["antennae","pattern"],"bee_group":{"antennae":"B","wings":"X","pattern":"D","legs":"X"},"bonus":1.7800000000000011},{"view_history":[{"page_index":0,"viewing_time":5645.600000008941},{"page_index":1,"viewing_time":14004},{"page_index":2,"viewing_time":10711.89999999106},{"page_index":3,"viewing_time":13569.800000011921},{"page_index":4,"viewing_time":7685.899999991059},{"page_index":5,"viewing_time":6504.20000000298},{"page_index":6,"viewing_time":8449.79999999702},{"page_index":7,"viewing_time":10356.10000000894},{"page_index":8,"viewing_time":4234},{"page_index":9,"viewing_time":3322},{"page_index":10,"viewing_time":3868.0999999940395},{"page_index":11,"viewing_time":8411.79999999702},{"page_index":12,"viewing_time":16640.20000000298},{"page_index":13,"viewing_time":1744},{"page_index":14,"viewing_time":2092}],"rt":117239.60000000894,"trial_type":"instructions","trial_index":3,"time_elapsed":143342,"internal_node_id":"0.0-3.0-0.0","subject_id":"5eeb8ccf11363a0c145d40c8","study_id":"6197b3f67c2b5cd3b6d9596a","session_id":"6197b576d87f8b5b8df617fb","condition":"full-information","relevant_dimensions":["antennae","pattern"],"bee_group":{"antennae":"B","wings":"X","pattern":"D","legs":"X"},"bonus":1.7800000000000011},{"rt":15283.90000000596,"response":{"Q0":["Two or six legs","Stripes or spots on body","Single or double wings","Antennae or no antennae"]},"question_order":[0],"trial_type":"survey-multi-select","trial_index":4,"time_elapsed":158631,"internal_node_id":"0.0-3.0-1.0","subject_id":"5eeb8ccf11363a0c145d40c8","study_id":"6197b3f67c2b5cd3b6d9596a","session_id":"6197b576d87f8b5b8df617fb","condition":"full-information","relevant_dimensions":["antennae","pattern"],"bee_group":{"antennae":"B","wings":"X","pattern":"D","legs":"X"},"correct":true,"bonus":1.7800000000000011},{"rt":26146.20000000298,"response":{"Q1":"No.","Q2":"Based on the four features of the bee.","Q3":"You learn if it was friendly or dangerous, but do not alter your bonus."},"question_order":[0,1,2],"trial_type":"survey-multi-choice","trial_index":5,"time_elapsed":184781,"internal_node_id":"0.0-3.0-2.0","subject_id":"5eeb8ccf11363a0c145d40c8","study_id":"6197b3f67c2b5cd3b6d9596a","session_id":"6197b576d87f8b5b8df617fb","condition":"full-information","relevant_dimensions":["antennae","pattern"],"bee_group":{"antennae":"B","wings":"X","pattern":"D","legs":"X"},"correct":true,"bonus":1.7800000000000011},{"rt":4174.0999999940395,"stimulus":"<p>Congrats, you got everything right<br>When you're ready, click the button below to continue to the experiment.</p>","response":0,"trial_type":"html-button-response","trial_index":6,"time_elapsed":188959,"internal_node_id":"0.0-3.0-3.0","subject_id":"5eeb8ccf11363a0c145d40c8","study_id":"6197b3f67c2b5cd3b6d9596a","session_id":"6197b576d87f8b5b8df617fb","condition":"full-information","relevant_dimensions":["antennae","pattern"],"bee_group":{"antennae":"B","wings":"X","pattern":"D","legs":"X"},"bonus":1.7800000000000011},{"rt":2789.7000000029802,"stimulus":"bees-with-color/bee-B1DF.svg","response":1,"trial_type":"image-button-response","trial_index":7,"time_elapsed":191751,"internal_node_id":"0.0-4.0-0.0","subject_id":"5eeb8ccf11363a0c145d40c8","study_id":"6197b3f67c2b5cd3b6d9596a","session_id":"6197b576d87f8b5b8df617fb","condition":"full-information","relevant_dimensions":["antennae","pattern"],"bee_group":{"antennae":"B","wings":"X","pattern":"D","legs":"X"},"action":"avoid","summary":"good-avoid","bonus":1.7800000000000011},{"rt":16501.89999999106,"stimulus":"\n                    <p><b>Action: <em>avoid</em></b></p>\n                    <p>This is the bee that you just saw.</p>\n                    <img src=\"bees-with-color/bee-B1DF.svg\" width=\"200\">\n                    <p><span class=\"greenText\">Good choice!</span>  This bee would have stung you.<br>Your bonus pay is unchanged, and remains at $0.54.</p>\n            ","response":0,"trial_type":"html-button-response","trial_index":8,"time_elapsed":208254,"internal_node_id":"0.0-4.0-1.0","subject_id":"5eeb8ccf11363a0c145d40c8","study_id":"6197b3f67c2b5cd3b6d9596a","session_id":"6197b576d87f8b5b8df617fb","condition":"full-information","relevant_dimensions":["antennae","pattern"],"bee_group":{"antennae":"B","wings":"X","pattern":"D","legs":"X"},"bonus":1.7800000000000011},{"rt":2122.5,"stimulus":"bees-with-color/bee-A2DF.svg","response":1,"trial_type":"image-button-response","trial_index":9,"time_elapsed":210379,"internal_node_id":"0.0-4.0-0.1","subject_id":"5eeb8ccf11363a0c145d40c8","study_id":"6197b3f67c2b5cd3b6d9596a","session_id":"6197b576d87f8b5b8df617fb","condition":"full-information","relevant_dimensions":["antennae","pattern"],"bee_group":{"antennae":"B","wings":"X","pattern":"D","legs":"X"},"action":"avoid","summary":"bad-avoid","bonus":1.7800000000000011},{"rt":10272.59999999404,"stimulus":"\n                    <p><b>Action: <em>avoid</em></b></p>\n                    <p>This is the bee that you just saw.</p>\n                    <img src=\"bees-with-color/bee-A2DF.svg\" width=\"200\">\n                    <p><span class=\"redText\">Bad choice,</span> the bee was friendly.<br>Your bonus pay is unchanged, and remains at $0.54.</p>\n            ","response":0,"trial_type":"html-button-response","trial_index":10,"time_elapsed":220652,"internal_node_id":"0.0-4.0-1.1","subject_id":"5eeb8ccf11363a0c145d40c8","study_id":"6197b3f67c2b5cd3b6d9596a","session_id":"6197b576d87f8b5b8df617fb","condition":"full-information","relevant_dimensions":["antennae","pattern"],"bee_group":{"antennae":"B","wings":"X","pattern":"D","legs":"X"},"bonus":1.7800000000000011},{"rt":2450.1000000089407,"stimulus":"bees-with-color/bee-B2SM.svg","response":1,"trial_type":"image-button-response","trial_index":11,"time_elapsed":223104,"internal_node_id":"0.0-4.0-0.2","subject_id":"5eeb8ccf11363a0c145d40c8","study_id":"6197b3f67c2b5cd3b6d9596a","session_id":"6197b576d87f8b5b8df617fb","condition":"full-information","relevant_dimensions":["antennae","pattern"],"bee_group":{"antennae":"B","wings":"X","pattern":"D","legs":"X"},"action":"avoid","summary":"bad-avoid","bonus":1.7800000000000011},{"rt":6951.20000000298,"stimulus":"\n                    <p><b>Action: <em>avoid</em></b></p>\n                    <p>This is the bee that you just saw.</p>\n                    <img src=\"bees-with-color/bee-B2SM.svg\" width=\"200\">\n                    <p><span class=\"redText\">Bad choice,</span> the bee was friendly.<br>Your bonus pay is unchanged, and remains at $0.54.</p>\n            ","response":0,"trial_type":"html-button-response","trial_index":12,"time_elapsed":230057,"internal_node_id":"0.0-4.0-1.2","subject_id":"5eeb8ccf11363a0c145d40c8","study_id":"6197b3f67c2b5cd3b6d9596a","session_id":"6197b576d87f8b5b8df617fb","condition":"full-information","relevant_dimensions":["antennae","pattern"],"bee_group":{"antennae":"B","wings":"X","pattern":"D","legs":"X"},"bonus":1.7800000000000011},{"rt":3272.5,"stimulus":"bees-with-color/bee-A1SM.svg","response":1,"trial_type":"image-button-response","trial_index":13,"time_elapsed":233331,"internal_node_id":"0.0-4.0-0.3","subject_id":"5eeb8ccf11363a0c145d40c8","study_id":"6197b3f67c2b5cd3b6d9596a","session_id":"6197b576d87f8b5b8df617fb","condition":"full-information","relevant_dimensions":["antennae","pattern"],"bee_group":{"antennae":"B","wings":"X","pattern":"D","legs":"X"},"action":"avoid","summary":"bad-avoid","bonus":1.7800000000000011},{"rt":2278.7999999970198,"stimulus":"\n                    <p><b>Action: <em>avoid</em></b></p>\n                    <p>This is the bee that you just saw.</p>\n                    <img src=\"bees-with-color/bee-A1SM.svg\" width=\"200\">\n                    <p><span class=\"redText\">Bad choice,</span> the bee was friendly.<br>Your bonus pay is unchanged, and remains at $0.54.</p>\n            ","response":0,"trial_type":"html-button-response","trial_index":14,"time_elapsed":235611,"internal_node_id":"0.0-4.0-1.3","subject_id":"5eeb8ccf11363a0c145d40c8","study_id":"6197b3f67c2b5cd3b6d9596a","session_id":"6197b576d87f8b5b8df617fb","condition":"full-information","relevant_dimensions":["antennae","pattern"],"bee_group":{"antennae":"B","wings":"X","pattern":"D","legs":"X"},"bonus":1.7800000000000011},{"rt":2658.7000000029802,"stimulus":"bees-with-color/bee-B1SF.svg","response":0,"trial_type":"image-button-response","trial_index":15,"time_elapsed":238270,"internal_node_id":"0.0-4.0-0.4","subject_id":"5eeb8ccf11363a0c145d40c8","study_id":"6197b3f67c2b5cd3b6d9596a","session_id":"6197b576d87f8b5b8df617fb","condition":"full-information","relevant_dimensions":["antennae","pattern"],"bee_group":{"antennae":"B","wings":"X","pattern":"D","legs":"X"},"action":"harvest","summary":"good-harvest","bonus":1.7800000000000011},{"rt":4314.9000000059605,"stimulus":"\n                    <p><b>Action: <em>harvest</em></b></p>\n                    <p>This is the bee that you just saw.</p>\n                    <img src=\"bees-with-color/bee-B1SF.svg\" width=\"200\">\n                    <p><span class=\"greenText\"><b>Successful harvest!</b></span><br>Your pay has increased by $0.02. Your bonus pay is now $0.56.</p>\n            ","response":0,"trial_type":"html-button-response","trial_index":16,"time_elapsed":242587,"internal_node_id":"0.0-4.0-1.4","subject_id":"5eeb8ccf11363a0c145d40c8","study_id":"6197b3f67c2b5cd3b6d9596a","session_id":"6197b576d87f8b5b8df617fb","condition":"full-information","relevant_dimensions":["antennae","pattern"],"bee_group":{"antennae":"B","wings":"X","pattern":"D","legs":"X"},"bonus":1.7800000000000011},{"rt":1770.7000000029802,"stimulus":"bees-with-color/bee-B1SM.svg","response":0,"trial_type":"image-button-response","trial_index":17,"time_elapsed":244359,"internal_node_id":"0.0-4.0-0.5","subject_id":"5eeb8ccf11363a0c145d40c8","study_id":"6197b3f67c2b5cd3b6d9596a","session_id":"6197b576d87f8b5b8df617fb","condition":"full-information","relevant_dimensions":["antennae","pattern"],"bee_group":{"antennae":"B","wings":"X","pattern":"D","legs":"X"},"action":"harvest","summary":"good-harvest","bonus":1.7800000000000011},{"rt":3000.9000000059605,"stimulus":"\n                    <p><b>Action: <em>harvest</em></b></p>\n                    <p>This is the bee that you just saw.</p>\n                    <img src=\"bees-with-color/bee-B1SM.svg\" width=\"200\">\n                    <p><span class=\"greenText\"><b>Successful harvest!</b></span><br>Your pay has increased by $0.02. Your bonus pay is now $0.58.</p>\n            ","response":0,"trial_type":"html-button-response","trial_index":18,"time_elapsed":247361,"internal_node_id":"0.0-4.0-1.5","subject_id":"5eeb8ccf11363a0c145d40c8","study_id":"6197b3f67c2b5cd3b6d9596a","session_id":"6197b576d87f8b5b8df617fb","condition":"full-information","relevant_dimensions":["antennae","pattern"],"bee_group":{"antennae":"B","wings":"X","pattern":"D","legs":"X"},"bonus":1.7800000000000011},{"rt":4642.5999999940395,"stimulus":"bees-with-color/bee-A2SF.svg","response":1,"trial_type":"image-button-response","trial_index":19,"time_elapsed":252005,"internal_node_id":"0.0-4.0-0.6","subject_id":"5eeb8ccf11363a0c145d40c8","study_id":"6197b3f67c2b5cd3b6d9596a","session_id":"6197b576d87f8b5b8df617fb","condition":"full-information","relevant_dimensions":["antennae","pattern"],"bee_group":{"antennae":"B","wings":"X","pattern":"D","legs":"X"},"action":"avoid","summary":"bad-avoid","bonus":1.7800000000000011},{"rt":7230.70000000298,"stimulus":"\n                    <p><b>Action: <em>avoid</em></b></p>\n                    <p>This is the bee that you just saw.</p>\n                    <img src=\"bees-with-color/bee-A2SF.svg\" width=\"200\">\n                    <p><span class=\"redText\">Bad choice,</span> the bee was friendly.<br>Your bonus pay is unchanged, and remains at $0.58.</p>\n            ","response":0,"trial_type":"html-button-response","trial_index":20,"time_elapsed":259237,"internal_node_id":"0.0-4.0-1.6","subject_id":"5eeb8ccf11363a0c145d40c8","study_id":"6197b3f67c2b5cd3b6d9596a","session_id":"6197b576d87f8b5b8df617fb","condition":"full-information","relevant_dimensions":["antennae","pattern"],"bee_group":{"antennae":"B","wings":"X","pattern":"D","legs":"X"},"bonus":1.7800000000000011},{"rt":3576.300000011921,"stimulus":"bees-with-color/bee-B2DM.svg","response":1,"trial_type":"image-button-response","trial_index":21,"time_elapsed":262815,"internal_node_id":"0.0-4.0-0.7","subject_id":"5eeb8ccf11363a0c145d40c8","study_id":"6197b3f67c2b5cd3b6d9596a","session_id":"6197b576d87f8b5b8df617fb","condition":"full-information","relevant_dimensions":["antennae","pattern"],"bee_group":{"antennae":"B","wings":"X","pattern":"D","legs":"X"},"action":"avoid","summary":"good-avoid","bonus":1.7800000000000011},{"rt":1848.4000000059605,"stimulus":"\n                    <p><b>Action: <em>avoid</em></b></p>\n                    <p>This is the bee that you just saw.</p>\n                    <img src=\"bees-with-color/bee-B2DM.svg\" width=\"200\">\n                    <p><span class=\"greenText\">Good choice!</span>  This bee would have stung you.<br>Your bonus pay is unchanged, and remains at $0.58.</p>\n            ","response":0,"trial_type":"html-button-response","trial_index":22,"time_elapsed":264665,"internal_node_id":"0.0-4.0-1.7","subject_id":"5eeb8ccf11363a0c145d40c8","study_id":"6197b3f67c2b5cd3b6d9596a","session_id":"6197b576d87f8b5b8df617fb","condition":"full-information","relevant_dimensions":["antennae","pattern"],"bee_group":{"antennae":"B","wings":"X","pattern":"D","legs":"X"},"bonus":1.7800000000000011},{"rt":3234,"stimulus":"bees-with-color/bee-A2DM.svg","response":0,"trial_type":"image-button-response","trial_index":23,"time_elapsed":267901,"internal_node_id":"0.0-4.0-0.8","subject_id":"5eeb8ccf11363a0c145d40c8","study_id":"6197b3f67c2b5cd3b6d9596a","session_id":"6197b576d87f8b5b8df617fb","condition":"full-information","relevant_dimensions":["antennae","pattern"],"bee_group":{"antennae":"B","wings":"X","pattern":"D","legs":"X"},"action":"harvest","summary":"good-harvest","bonus":1.7800000000000011},{"rt":1794.5,"stimulus":"\n                    <p><b>Action: <em>harvest</em></b></p>\n                    <p>This is the bee that you just saw.</p>\n                    <img src=\"bees-with-color/bee-A2DM.svg\" width=\"200\">\n                    <p><span class=\"greenText\"><b>Successful harvest!</b></span><br>Your pay has increased by $0.02. Your bonus pay is now $0.60.</p>\n            ","response":0,"trial_type":"html-button-response","trial_index":24,"time_elapsed":269697,"internal_node_id":"0.0-4.0-1.8","subject_id":"5eeb8ccf11363a0c145d40c8","study_id":"6197b3f67c2b5cd3b6d9596a","session_id":"6197b576d87f8b5b8df617fb","condition":"full-information","relevant_dimensions":["antennae","pattern"],"bee_group":{"antennae":"B","wings":"X","pattern":"D","legs":"X"},"bonus":1.7800000000000011},{"rt":3124.5,"stimulus":"bees-with-color/bee-A1DM.svg","response":0,"trial_type":"image-button-response","trial_index":25,"time_elapsed":272823,"internal_node_id":"0.0-4.0-0.9","subject_id":"5eeb8ccf11363a0c145d40c8","study_id":"6197b3f67c2b5cd3b6d9596a","session_id":"6197b576d87f8b5b8df617fb","condition":"full-information","relevant_dimensions":["antennae","pattern"],"bee_group":{"antennae":"B","wings":"X","pattern":"D","legs":"X"},"action":"harvest","summary":"good-harvest","bonus":1.7800000000000011},{"rt":1834.7999999970198,"stimulus":"\n                    <p><b>Action: <em>harvest</em></b></p>\n                    <p>This is the bee that you just saw.</p>\n                    <img src=\"bees-with-color/bee-A1DM.svg\" width=\"200\">\n                    <p><span class=\"greenText\"><b>Successful harvest!</b></span><br>Your pay has increased by $0.02. Your bonus pay is now $0.62.</p>\n            ","response":0,"trial_type":"html-button-response","trial_index":26,"time_elapsed":274659,"internal_node_id":"0.0-4.0-1.9","subject_id":"5eeb8ccf11363a0c145d40c8","study_id":"6197b3f67c2b5cd3b6d9596a","session_id":"6197b576d87f8b5b8df617fb","condition":"full-information","relevant_dimensions":["antennae","pattern"],"bee_group":{"antennae":"B","wings":"X","pattern":"D","legs":"X"},"bonus":1.7800000000000011},{"rt":2050.300000011921,"stimulus":"bees-with-color/bee-A1SF.svg","response":0,"trial_type":"image-button-response","trial_index":27,"time_elapsed":276710,"internal_node_id":"0.0-4.0-0.10","subject_id":"5eeb8ccf11363a0c145d40c8","study_id":"6197b3f67c2b5cd3b6d9596a","session_id":"6197b576d87f8b5b8df617fb","condition":"full-information","relevant_dimensions":["antennae","pattern"],"bee_group":{"antennae":"B","wings":"X","pattern":"D","legs":"X"},"action":"harvest","summary":"good-harvest","bonus":1.7800000000000011},{"rt":1282.9000000059605,"stimulus":"\n                    <p><b>Action: <em>harvest</em></b></p>\n                    <p>This is the bee that you just saw.</p>\n                    <img src=\"bees-with-color/bee-A1SF.svg\" width=\"200\">\n                    <p><span class=\"greenText\"><b>Successful harvest!</b></span><br>Your pay has increased by $0.02. Your bonus pay is now $0.64.</p>\n            ","response":0,"trial_type":"html-button-response","trial_index":28,"time_elapsed":277995,"internal_node_id":"0.0-4.0-1.10","subject_id":"5eeb8ccf11363a0c145d40c8","study_id":"6197b3f67c2b5cd3b6d9596a","session_id":"6197b576d87f8b5b8df617fb","condition":"full-information","relevant_dimensions":["antennae","pattern"],"bee_group":{"antennae":"B","wings":"X","pattern":"D","legs":"X"},"bonus":1.7800000000000011},{"rt":3590.7000000029802,"stimulus":"bees-with-color/bee-A2SM.svg","response":0,"trial_type":"image-button-response","trial_index":29,"time_elapsed":281586,"internal_node_id":"0.0-4.0-0.11","subject_id":"5eeb8ccf11363a0c145d40c8","study_id":"6197b3f67c2b5cd3b6d9596a","session_id":"6197b576d87f8b5b8df617fb","condition":"full-information","relevant_dimensions":["antennae","pattern"],"bee_group":{"antennae":"B","wings":"X","pattern":"D","legs":"X"},"action":"harvest","summary":"good-harvest","bonus":1.7800000000000011},{"rt":1189.3999999910593,"stimulus":"\n                    <p><b>Action: <em>harvest</em></b></p>\n                    <p>This is the bee that you just saw.</p>\n                    <img src=\"bees-with-color/bee-A2SM.svg\" width=\"200\">\n                    <p><span class=\"greenText\"><b>Successful harvest!</b></span><br>Your pay has increased by $0.02. Your bonus pay is now $0.66.</p>\n            ","response":0,"trial_type":"html-button-response","trial_index":30,"time_elapsed":282777,"internal_node_id":"0.0-4.0-1.11","subject_id":"5eeb8ccf11363a0c145d40c8","study_id":"6197b3f67c2b5cd3b6d9596a","session_id":"6197b576d87f8b5b8df617fb","condition":"full-information","relevant_dimensions":["antennae","pattern"],"bee_group":{"antennae":"B","wings":"X","pattern":"D","legs":"X"},"bonus":1.7800000000000011},{"rt":4158.70000000298,"stimulus":"bees-with-color/bee-A1DF.svg","response":1,"trial_type":"image-button-response","trial_index":31,"time_elapsed":286937,"internal_node_id":"0.0-4.0-0.12","subject_id":"5eeb8ccf11363a0c145d40c8","study_id":"6197b3f67c2b5cd3b6d9596a","session_id":"6197b576d87f8b5b8df617fb","condition":"full-information","relevant_dimensions":["antennae","pattern"],"bee_group":{"antennae":"B","wings":"X","pattern":"D","legs":"X"},"action":"avoid","summary":"bad-avoid","bonus":1.7800000000000011},{"rt":1920.7000000029802,"stimulus":"\n                    <p><b>Action: <em>avoid</em></b></p>\n                    <p>This is the bee that you just saw.</p>\n                    <img src=\"bees-with-color/bee-A1DF.svg\" width=\"200\">\n                    <p><span class=\"redText\">Bad choice,</span> the bee was friendly.<br>Your bonus pay is unchanged, and remains at $0.66.</p>\n            ","response":0,"trial_type":"html-button-response","trial_index":32,"time_elapsed":288858,"internal_node_id":"0.0-4.0-1.12","subject_id":"5eeb8ccf11363a0c145d40c8","study_id":"6197b3f67c2b5cd3b6d9596a","session_id":"6197b576d87f8b5b8df617fb","condition":"full-information","relevant_dimensions":["antennae","pattern"],"bee_group":{"antennae":"B","wings":"X","pattern":"D","legs":"X"},"bonus":1.7800000000000011},{"rt":3746.9000000059605,"stimulus":"bees-with-color/bee-B1DM.svg","response":1,"trial_type":"image-button-response","trial_index":33,"time_elapsed":292607,"internal_node_id":"0.0-4.0-0.13","subject_id":"5eeb8ccf11363a0c145d40c8","study_id":"6197b3f67c2b5cd3b6d9596a","session_id":"6197b576d87f8b5b8df617fb","condition":"full-information","relevant_dimensions":["antennae","pattern"],"bee_group":{"antennae":"B","wings":"X","pattern":"D","legs":"X"},"action":"avoid","summary":"good-avoid","bonus":1.7800000000000011},{"rt":1530.7999999970198,"stimulus":"\n                    <p><b>Action: <em>avoid</em></b></p>\n                    <p>This is the bee that you just saw.</p>\n                    <img src=\"bees-with-color/bee-B1DM.svg\" width=\"200\">\n                    <p><span class=\"greenText\">Good choice!</span>  This bee would have stung you.<br>Your bonus pay is unchanged, and remains at $0.66.</p>\n            ","response":0,"trial_type":"html-button-response","trial_index":34,"time_elapsed":294138,"internal_node_id":"0.0-4.0-1.13","subject_id":"5eeb8ccf11363a0c145d40c8","study_id":"6197b3f67c2b5cd3b6d9596a","session_id":"6197b576d87f8b5b8df617fb","condition":"full-information","relevant_dimensions":["antennae","pattern"],"bee_group":{"antennae":"B","wings":"X","pattern":"D","legs":"X"},"bonus":1.7800000000000011},{"rt":1980.7999999970198,"stimulus":"bees-with-color/bee-B2SF.svg","response":0,"trial_type":"image-button-response","trial_index":35,"time_elapsed":296121,"internal_node_id":"0.0-4.0-0.14","subject_id":"5eeb8ccf11363a0c145d40c8","study_id":"6197b3f67c2b5cd3b6d9596a","session_id":"6197b576d87f8b5b8df617fb","condition":"full-information","relevant_dimensions":["antennae","pattern"],"bee_group":{"antennae":"B","wings":"X","pattern":"D","legs":"X"},"action":"harvest","summary":"good-harvest","bonus":1.7800000000000011},{"rt":1422.9000000059605,"stimulus":"\n                    <p><b>Action: <em>harvest</em></b></p>\n                    <p>This is the bee that you just saw.</p>\n                    <img src=\"bees-with-color/bee-B2SF.svg\" width=\"200\">\n                    <p><span class=\"greenText\"><b>Successful harvest!</b></span><br>Your pay has increased by $0.02. Your bonus pay is now $0.68.</p>\n            ","response":0,"trial_type":"html-button-response","trial_index":36,"time_elapsed":297545,"internal_node_id":"0.0-4.0-1.14","subject_id":"5eeb8ccf11363a0c145d40c8","study_id":"6197b3f67c2b5cd3b6d9596a","session_id":"6197b576d87f8b5b8df617fb","condition":"full-information","relevant_dimensions":["antennae","pattern"],"bee_group":{"antennae":"B","wings":"X","pattern":"D","legs":"X"},"bonus":1.7800000000000011},{"rt":4656.600000008941,"stimulus":"bees-with-color/bee-B2DF.svg","response":0,"trial_type":"image-button-response","trial_index":37,"time_elapsed":302202,"internal_node_id":"0.0-4.0-0.15","subject_id":"5eeb8ccf11363a0c145d40c8","study_id":"6197b3f67c2b5cd3b6d9596a","session_id":"6197b576d87f8b5b8df617fb","condition":"full-information","relevant_dimensions":["antennae","pattern"],"bee_group":{"antennae":"B","wings":"X","pattern":"D","legs":"X"},"action":"harvest","summary":"bad-harvest","bonus":1.7800000000000011},{"rt":3919,"stimulus":"\n                    <p><b>Action: <em>harvest</em></b></p>\n                    <p>This is the bee that you just saw.</p>\n                    <img src=\"bees-with-color/bee-B2DF.svg\" width=\"200\">\n                    <p><span class=\"redText\">Bad choice, the bee was angry.</span><br><b>You have been stung!</b><br>Your pay has been decreased by $0.10. Your bonus pay is now $0.58.</p>\n            ","response":0,"trial_type":"html-button-response","trial_index":38,"time_elapsed":306123,"internal_node_id":"0.0-4.0-1.15","subject_id":"5eeb8ccf11363a0c145d40c8","study_id":"6197b3f67c2b5cd3b6d9596a","session_id":"6197b576d87f8b5b8df617fb","condition":"full-information","relevant_dimensions":["antennae","pattern"],"bee_group":{"antennae":"B","wings":"X","pattern":"D","legs":"X"},"bonus":1.7800000000000011},{"rt":1578.7999999970198,"stimulus":"bees-with-color/bee-B1SM.svg","response":0,"trial_type":"image-button-response","trial_index":39,"time_elapsed":307703,"internal_node_id":"0.0-4.0-0.16","subject_id":"5eeb8ccf11363a0c145d40c8","study_id":"6197b3f67c2b5cd3b6d9596a","session_id":"6197b576d87f8b5b8df617fb","condition":"full-information","relevant_dimensions":["antennae","pattern"],"bee_group":{"antennae":"B","wings":"X","pattern":"D","legs":"X"},"action":"harvest","summary":"good-harvest","bonus":1.7800000000000011},{"rt":1164.7000000029802,"stimulus":"\n                    <p><b>Action: <em>harvest</em></b></p>\n                    <p>This is the bee that you just saw.</p>\n                    <img src=\"bees-with-color/bee-B1SM.svg\" width=\"200\">\n                    <p><span class=\"greenText\"><b>Successful harvest!</b></span><br>Your pay has increased by $0.02. Your bonus pay is now $0.60.</p>\n            ","response":0,"trial_type":"html-button-response","trial_index":40,"time_elapsed":308869,"internal_node_id":"0.0-4.0-1.16","subject_id":"5eeb8ccf11363a0c145d40c8","study_id":"6197b3f67c2b5cd3b6d9596a","session_id":"6197b576d87f8b5b8df617fb","condition":"full-information","relevant_dimensions":["antennae","pattern"],"bee_group":{"antennae":"B","wings":"X","pattern":"D","legs":"X"},"bonus":1.7800000000000011},{"rt":4010.7999999970198,"stimulus":"bees-with-color/bee-A1DF.svg","response":0,"trial_type":"image-button-response","trial_index":41,"time_elapsed":312881,"internal_node_id":"0.0-4.0-0.17","subject_id":"5eeb8ccf11363a0c145d40c8","study_id":"6197b3f67c2b5cd3b6d9596a","session_id":"6197b576d87f8b5b8df617fb","condition":"full-information","relevant_dimensions":["antennae","pattern"],"bee_group":{"antennae":"B","wings":"X","pattern":"D","legs":"X"},"action":"harvest","summary":"good-harvest","bonus":1.7800000000000011},{"rt":1040.8999999910593,"stimulus":"\n                    <p><b>Action: <em>harvest</em></b></p>\n                    <p>This is the bee that you just saw.</p>\n                    <img src=\"bees-with-color/bee-A1DF.svg\" width=\"200\">\n                    <p><span class=\"greenText\"><b>Successful harvest!</b></span><br>Your pay has increased by $0.02. Your bonus pay is now $0.62.</p>\n            ","response":0,"trial_type":"html-button-response","trial_index":42,"time_elapsed":313923,"internal_node_id":"0.0-4.0-1.17","subject_id":"5eeb8ccf11363a0c145d40c8","study_id":"6197b3f67c2b5cd3b6d9596a","session_id":"6197b576d87f8b5b8df617fb","condition":"full-information","relevant_dimensions":["antennae","pattern"],"bee_group":{"antennae":"B","wings":"X","pattern":"D","legs":"X"},"bonus":1.7800000000000011},{"rt":2504.4000000059605,"stimulus":"bees-with-color/bee-B2SM.svg","response":0,"trial_type":"image-button-response","trial_index":43,"time_elapsed":316429,"internal_node_id":"0.0-4.0-0.18","subject_id":"5eeb8ccf11363a0c145d40c8","study_id":"6197b3f67c2b5cd3b6d9596a","session_id":"6197b576d87f8b5b8df617fb","condition":"full-information","relevant_dimensions":["antennae","pattern"],"bee_group":{"antennae":"B","wings":"X","pattern":"D","legs":"X"},"action":"harvest","summary":"good-harvest","bonus":1.7800000000000011},{"rt":1350.7000000029802,"stimulus":"\n                    <p><b>Action: <em>harvest</em></b></p>\n                    <p>This is the bee that you just saw.</p>\n                    <img src=\"bees-with-color/bee-B2SM.svg\" width=\"200\">\n                    <p><span class=\"greenText\"><b>Successful harvest!</b></span><br>Your pay has increased by $0.02. Your bonus pay is now $0.64.</p>\n            ","response":0,"trial_type":"html-button-response","trial_index":44,"time_elapsed":317780,"internal_node_id":"0.0-4.0-1.18","subject_id":"5eeb8ccf11363a0c145d40c8","study_id":"6197b3f67c2b5cd3b6d9596a","session_id":"6197b576d87f8b5b8df617fb","condition":"full-information","relevant_dimensions":["antennae","pattern"],"bee_group":{"antennae":"B","wings":"X","pattern":"D","legs":"X"},"bonus":1.7800000000000011},{"rt":1492.9000000059605,"stimulus":"bees-with-color/bee-A2SM.svg","response":0,"trial_type":"image-button-response","trial_index":45,"time_elapsed":319274,"internal_node_id":"0.0-4.0-0.19","subject_id":"5eeb8ccf11363a0c145d40c8","study_id":"6197b3f67c2b5cd3b6d9596a","session_id":"6197b576d87f8b5b8df617fb","condition":"full-information","relevant_dimensions":["antennae","pattern"],"bee_group":{"antennae":"B","wings":"X","pattern":"D","legs":"X"},"action":"harvest","summary":"good-harvest","bonus":1.7800000000000011},{"rt":1498.9000000059605,"stimulus":"\n                    <p><b>Action: <em>harvest</em></b></p>\n                    <p>This is the bee that you just saw.</p>\n                    <img src=\"bees-with-color/bee-A2SM.svg\" width=\"200\">\n                    <p><span class=\"greenText\"><b>Successful harvest!</b></span><br>Your pay has increased by $0.02. Your bonus pay is now $0.66.</p>\n            ","response":0,"trial_type":"html-button-response","trial_index":46,"time_elapsed":320774,"internal_node_id":"0.0-4.0-1.19","subject_id":"5eeb8ccf11363a0c145d40c8","study_id":"6197b3f67c2b5cd3b6d9596a","session_id":"6197b576d87f8b5b8df617fb","condition":"full-information","relevant_dimensions":["antennae","pattern"],"bee_group":{"antennae":"B","wings":"X","pattern":"D","legs":"X"},"bonus":1.7800000000000011},{"rt":2761.2000000029802,"stimulus":"bees-with-color/bee-B1DM.svg","response":1,"trial_type":"image-button-response","trial_index":47,"time_elapsed":323536,"internal_node_id":"0.0-4.0-0.20","subject_id":"5eeb8ccf11363a0c145d40c8","study_id":"6197b3f67c2b5cd3b6d9596a","session_id":"6197b576d87f8b5b8df617fb","condition":"full-information","relevant_dimensions":["antennae","pattern"],"bee_group":{"antennae":"B","wings":"X","pattern":"D","legs":"X"},"action":"avoid","summary":"good-avoid","bonus":1.7800000000000011},{"rt":1103.199999988079,"stimulus":"\n                    <p><b>Action: <em>avoid</em></b></p>\n                    <p>This is the bee that you just saw.</p>\n                    <img src=\"bees-with-color/bee-B1DM.svg\" width=\"200\">\n                    <p><span class=\"greenText\">Good choice!</span>  This bee would have stung you.<br>Your bonus pay is unchanged, and remains at $0.66.</p>\n            ","response":0,"trial_type":"html-button-response","trial_index":48,"time_elapsed":324641,"internal_node_id":"0.0-4.0-1.20","subject_id":"5eeb8ccf11363a0c145d40c8","study_id":"6197b3f67c2b5cd3b6d9596a","session_id":"6197b576d87f8b5b8df617fb","condition":"full-information","relevant_dimensions":["antennae","pattern"],"bee_group":{"antennae":"B","wings":"X","pattern":"D","legs":"X"},"bonus":1.7800000000000011},{"rt":2992.7999999970198,"stimulus":"bees-with-color/bee-A2SF.svg","response":0,"trial_type":"image-button-response","trial_index":49,"time_elapsed":327635,"internal_node_id":"0.0-4.0-0.21","subject_id":"5eeb8ccf11363a0c145d40c8","study_id":"6197b3f67c2b5cd3b6d9596a","session_id":"6197b576d87f8b5b8df617fb","condition":"full-information","relevant_dimensions":["antennae","pattern"],"bee_group":{"antennae":"B","wings":"X","pattern":"D","legs":"X"},"action":"harvest","summary":"good-harvest","bonus":1.7800000000000011},{"rt":1538.3999999910593,"stimulus":"\n                    <p><b>Action: <em>harvest</em></b></p>\n                    <p>This is the bee that you just saw.</p>\n                    <img src=\"bees-with-color/bee-A2SF.svg\" width=\"200\">\n                    <p><span class=\"greenText\"><b>Successful harvest!</b></span><br>Your pay has increased by $0.02. Your bonus pay is now $0.68.</p>\n            ","response":0,"trial_type":"html-button-response","trial_index":50,"time_elapsed":329174,"internal_node_id":"0.0-4.0-1.21","subject_id":"5eeb8ccf11363a0c145d40c8","study_id":"6197b3f67c2b5cd3b6d9596a","session_id":"6197b576d87f8b5b8df617fb","condition":"full-information","relevant_dimensions":["antennae","pattern"],"bee_group":{"antennae":"B","wings":"X","pattern":"D","legs":"X"},"bonus":1.7800000000000011},{"rt":3172.9000000059605,"stimulus":"bees-with-color/bee-B2SF.svg","response":0,"trial_type":"image-button-response","trial_index":51,"time_elapsed":332349,"internal_node_id":"0.0-4.0-0.22","subject_id":"5eeb8ccf11363a0c145d40c8","study_id":"6197b3f67c2b5cd3b6d9596a","session_id":"6197b576d87f8b5b8df617fb","condition":"full-information","relevant_dimensions":["antennae","pattern"],"bee_group":{"antennae":"B","wings":"X","pattern":"D","legs":"X"},"action":"harvest","summary":"good-harvest","bonus":1.7800000000000011},{"rt":1156.6000000089407,"stimulus":"\n                    <p><b>Action: <em>harvest</em></b></p>\n                    <p>This is the bee that you just saw.</p>\n                    <img src=\"bees-with-color/bee-B2SF.svg\" width=\"200\">\n                    <p><span class=\"greenText\"><b>Successful harvest!</b></span><br>Your pay has increased by $0.02. Your bonus pay is now $0.70.</p>\n            ","response":0,"trial_type":"html-button-response","trial_index":52,"time_elapsed":333506,"internal_node_id":"0.0-4.0-1.22","subject_id":"5eeb8ccf11363a0c145d40c8","study_id":"6197b3f67c2b5cd3b6d9596a","session_id":"6197b576d87f8b5b8df617fb","condition":"full-information","relevant_dimensions":["antennae","pattern"],"bee_group":{"antennae":"B","wings":"X","pattern":"D","legs":"X"},"bonus":1.7800000000000011},{"rt":5038.9000000059605,"stimulus":"bees-with-color/bee-B2DM.svg","response":1,"trial_type":"image-button-response","trial_index":53,"time_elapsed":338547,"internal_node_id":"0.0-4.0-0.23","subject_id":"5eeb8ccf11363a0c145d40c8","study_id":"6197b3f67c2b5cd3b6d9596a","session_id":"6197b576d87f8b5b8df617fb","condition":"full-information","relevant_dimensions":["antennae","pattern"],"bee_group":{"antennae":"B","wings":"X","pattern":"D","legs":"X"},"action":"avoid","summary":"good-avoid","bonus":1.7800000000000011},{"rt":10708.60000000894,"stimulus":"\n                    <p><b>Action: <em>avoid</em></b></p>\n                    <p>This is the bee that you just saw.</p>\n                    <img src=\"bees-with-color/bee-B2DM.svg\" width=\"200\">\n                    <p><span class=\"greenText\">Good choice!</span>  This bee would have stung you.<br>Your bonus pay is unchanged, and remains at $0.70.</p>\n            ","response":0,"trial_type":"html-button-response","trial_index":54,"time_elapsed":349256,"internal_node_id":"0.0-4.0-1.23","subject_id":"5eeb8ccf11363a0c145d40c8","study_id":"6197b3f67c2b5cd3b6d9596a","session_id":"6197b576d87f8b5b8df617fb","condition":"full-information","relevant_dimensions":["antennae","pattern"],"bee_group":{"antennae":"B","wings":"X","pattern":"D","legs":"X"},"bonus":1.7800000000000011},{"rt":4004.7999999970198,"stimulus":"bees-with-color/bee-A1SM.svg","response":0,"trial_type":"image-button-response","trial_index":55,"time_elapsed":353263,"internal_node_id":"0.0-4.0-0.24","subject_id":"5eeb8ccf11363a0c145d40c8","study_id":"6197b3f67c2b5cd3b6d9596a","session_id":"6197b576d87f8b5b8df617fb","condition":"full-information","relevant_dimensions":["antennae","pattern"],"bee_group":{"antennae":"B","wings":"X","pattern":"D","legs":"X"},"action":"harvest","summary":"good-harvest","bonus":1.7800000000000011},{"rt":2588.5999999940395,"stimulus":"\n                    <p><b>Action: <em>harvest</em></b></p>\n                    <p>This is the bee that you just saw.</p>\n                    <img src=\"bees-with-color/bee-A1SM.svg\" width=\"200\">\n                    <p><span class=\"greenText\"><b>Successful harvest!</b></span><br>Your pay has increased by $0.02. Your bonus pay is now $0.72.</p>\n            ","response":0,"trial_type":"html-button-response","trial_index":56,"time_elapsed":355853,"internal_node_id":"0.0-4.0-1.24","subject_id":"5eeb8ccf11363a0c145d40c8","study_id":"6197b3f67c2b5cd3b6d9596a","session_id":"6197b576d87f8b5b8df617fb","condition":"full-information","relevant_dimensions":["antennae","pattern"],"bee_group":{"antennae":"B","wings":"X","pattern":"D","legs":"X"},"bonus":1.7800000000000011},{"rt":2020.7000000029802,"stimulus":"bees-with-color/bee-A1SF.svg","response":0,"trial_type":"image-button-response","trial_index":57,"time_elapsed":357875,"internal_node_id":"0.0-4.0-0.25","subject_id":"5eeb8ccf11363a0c145d40c8","study_id":"6197b3f67c2b5cd3b6d9596a","session_id":"6197b576d87f8b5b8df617fb","condition":"full-information","relevant_dimensions":["antennae","pattern"],"bee_group":{"antennae":"B","wings":"X","pattern":"D","legs":"X"},"action":"harvest","summary":"good-harvest","bonus":1.7800000000000011},{"rt":2222.6000000089407,"stimulus":"\n                    <p><b>Action: <em>harvest</em></b></p>\n                    <p>This is the bee that you just saw.</p>\n                    <img src=\"bees-with-color/bee-A1SF.svg\" width=\"200\">\n                    <p><span class=\"greenText\"><b>Successful harvest!</b></span><br>Your pay has increased by $0.02. Your bonus pay is now $0.74.</p>\n            ","response":0,"trial_type":"html-button-response","trial_index":58,"time_elapsed":360098,"internal_node_id":"0.0-4.0-1.25","subject_id":"5eeb8ccf11363a0c145d40c8","study_id":"6197b3f67c2b5cd3b6d9596a","session_id":"6197b576d87f8b5b8df617fb","condition":"full-information","relevant_dimensions":["antennae","pattern"],"bee_group":{"antennae":"B","wings":"X","pattern":"D","legs":"X"},"bonus":1.7800000000000011},{"rt":3824.7000000029802,"stimulus":"bees-with-color/bee-B1DF.svg","response":1,"trial_type":"image-button-response","trial_index":59,"time_elapsed":363925,"internal_node_id":"0.0-4.0-0.26","subject_id":"5eeb8ccf11363a0c145d40c8","study_id":"6197b3f67c2b5cd3b6d9596a","session_id":"6197b576d87f8b5b8df617fb","condition":"full-information","relevant_dimensions":["antennae","pattern"],"bee_group":{"antennae":"B","wings":"X","pattern":"D","legs":"X"},"action":"avoid","summary":"good-avoid","bonus":1.7800000000000011},{"rt":5046.5999999940395,"stimulus":"\n                    <p><b>Action: <em>avoid</em></b></p>\n                    <p>This is the bee that you just saw.</p>\n                    <img src=\"bees-with-color/bee-B1DF.svg\" width=\"200\">\n                    <p><span class=\"greenText\">Good choice!</span>  This bee would have stung you.<br>Your bonus pay is unchanged, and remains at $0.74.</p>\n            ","response":0,"trial_type":"html-button-response","trial_index":60,"time_elapsed":368972,"internal_node_id":"0.0-4.0-1.26","subject_id":"5eeb8ccf11363a0c145d40c8","study_id":"6197b3f67c2b5cd3b6d9596a","session_id":"6197b576d87f8b5b8df617fb","condition":"full-information","relevant_dimensions":["antennae","pattern"],"bee_group":{"antennae":"B","wings":"X","pattern":"D","legs":"X"},"bonus":1.7800000000000011},{"rt":2120.5,"stimulus":"bees-with-color/bee-B1SF.svg","response":0,"trial_type":"image-button-response","trial_index":61,"time_elapsed":371095,"internal_node_id":"0.0-4.0-0.27","subject_id":"5eeb8ccf11363a0c145d40c8","study_id":"6197b3f67c2b5cd3b6d9596a","session_id":"6197b576d87f8b5b8df617fb","condition":"full-information","relevant_dimensions":["antennae","pattern"],"bee_group":{"antennae":"B","wings":"X","pattern":"D","legs":"X"},"action":"harvest","summary":"good-harvest","bonus":1.7800000000000011},{"rt":1274.5,"stimulus":"\n                    <p><b>Action: <em>harvest</em></b></p>\n                    <p>This is the bee that you just saw.</p>\n                    <img src=\"bees-with-color/bee-B1SF.svg\" width=\"200\">\n                    <p><span class=\"greenText\"><b>Successful harvest!</b></span><br>Your pay has increased by $0.02. Your bonus pay is now $0.76.</p>\n            ","response":0,"trial_type":"html-button-response","trial_index":62,"time_elapsed":372371,"internal_node_id":"0.0-4.0-1.27","subject_id":"5eeb8ccf11363a0c145d40c8","study_id":"6197b3f67c2b5cd3b6d9596a","session_id":"6197b576d87f8b5b8df617fb","condition":"full-information","relevant_dimensions":["antennae","pattern"],"bee_group":{"antennae":"B","wings":"X","pattern":"D","legs":"X"},"bonus":1.7800000000000011},{"rt":1834,"stimulus":"bees-with-color/bee-A2DF.svg","response":0,"trial_type":"image-button-response","trial_index":63,"time_elapsed":374206,"internal_node_id":"0.0-4.0-0.28","subject_id":"5eeb8ccf11363a0c145d40c8","study_id":"6197b3f67c2b5cd3b6d9596a","session_id":"6197b576d87f8b5b8df617fb","condition":"full-information","relevant_dimensions":["antennae","pattern"],"bee_group":{"antennae":"B","wings":"X","pattern":"D","legs":"X"},"action":"harvest","summary":"good-harvest","bonus":1.7800000000000011},{"rt":987.1000000089407,"stimulus":"\n                    <p><b>Action: <em>harvest</em></b></p>\n                    <p>This is the bee that you just saw.</p>\n                    <img src=\"bees-with-color/bee-A2DF.svg\" width=\"200\">\n                    <p><span class=\"greenText\"><b>Successful harvest!</b></span><br>Your pay has increased by $0.02. Your bonus pay is now $0.78.</p>\n            ","response":0,"trial_type":"html-button-response","trial_index":64,"time_elapsed":375194,"internal_node_id":"0.0-4.0-1.28","subject_id":"5eeb8ccf11363a0c145d40c8","study_id":"6197b3f67c2b5cd3b6d9596a","session_id":"6197b576d87f8b5b8df617fb","condition":"full-information","relevant_dimensions":["antennae","pattern"],"bee_group":{"antennae":"B","wings":"X","pattern":"D","legs":"X"},"bonus":1.7800000000000011},{"rt":2293.2000000029802,"stimulus":"bees-with-color/bee-A1DM.svg","response":0,"trial_type":"image-button-response","trial_index":65,"time_elapsed":377488,"internal_node_id":"0.0-4.0-0.29","subject_id":"5eeb8ccf11363a0c145d40c8","study_id":"6197b3f67c2b5cd3b6d9596a","session_id":"6197b576d87f8b5b8df617fb","condition":"full-information","relevant_dimensions":["antennae","pattern"],"bee_group":{"antennae":"B","wings":"X","pattern":"D","legs":"X"},"action":"harvest","summary":"good-harvest","bonus":1.7800000000000011},{"rt":822.7999999970198,"stimulus":"\n                    <p><b>Action: <em>harvest</em></b></p>\n                    <p>This is the bee that you just saw.</p>\n                    <img src=\"bees-with-color/bee-A1DM.svg\" width=\"200\">\n                    <p><span class=\"greenText\"><b>Successful harvest!</b></span><br>Your pay has increased by $0.02. Your bonus pay is now $0.80.</p>\n            ","response":0,"trial_type":"html-button-response","trial_index":66,"time_elapsed":378313,"internal_node_id":"0.0-4.0-1.29","subject_id":"5eeb8ccf11363a0c145d40c8","study_id":"6197b3f67c2b5cd3b6d9596a","session_id":"6197b576d87f8b5b8df617fb","condition":"full-information","relevant_dimensions":["antennae","pattern"],"bee_group":{"antennae":"B","wings":"X","pattern":"D","legs":"X"},"bonus":1.7800000000000011},{"rt":2106.7999999970198,"stimulus":"bees-with-color/bee-B2DF.svg","response":1,"trial_type":"image-button-response","trial_index":67,"time_elapsed":380420,"internal_node_id":"0.0-4.0-0.30","subject_id":"5eeb8ccf11363a0c145d40c8","study_id":"6197b3f67c2b5cd3b6d9596a","session_id":"6197b576d87f8b5b8df617fb","condition":"full-information","relevant_dimensions":["antennae","pattern"],"bee_group":{"antennae":"B","wings":"X","pattern":"D","legs":"X"},"action":"avoid","summary":"good-avoid","bonus":1.7800000000000011},{"rt":1398.7999999970198,"stimulus":"\n                    <p><b>Action: <em>avoid</em></b></p>\n                    <p>This is the bee that you just saw.</p>\n                    <img src=\"bees-with-color/bee-B2DF.svg\" width=\"200\">\n                    <p><span class=\"greenText\">Good choice!</span>  This bee would have stung you.<br>Your bonus pay is unchanged, and remains at $0.80.</p>\n            ","response":0,"trial_type":"html-button-response","trial_index":68,"time_elapsed":381820,"internal_node_id":"0.0-4.0-1.30","subject_id":"5eeb8ccf11363a0c145d40c8","study_id":"6197b3f67c2b5cd3b6d9596a","session_id":"6197b576d87f8b5b8df617fb","condition":"full-information","relevant_dimensions":["antennae","pattern"],"bee_group":{"antennae":"B","wings":"X","pattern":"D","legs":"X"},"bonus":1.7800000000000011},{"rt":1312.8999999910593,"stimulus":"bees-with-color/bee-A2DM.svg","response":0,"trial_type":"image-button-response","trial_index":69,"time_elapsed":383134,"internal_node_id":"0.0-4.0-0.31","subject_id":"5eeb8ccf11363a0c145d40c8","study_id":"6197b3f67c2b5cd3b6d9596a","session_id":"6197b576d87f8b5b8df617fb","condition":"full-information","relevant_dimensions":["antennae","pattern"],"bee_group":{"antennae":"B","wings":"X","pattern":"D","legs":"X"},"action":"harvest","summary":"good-harvest","bonus":1.7800000000000011},{"rt":1523.1000000089407,"stimulus":"\n                    <p><b>Action: <em>harvest</em></b></p>\n                    <p>This is the bee that you just saw.</p>\n                    <img src=\"bees-with-color/bee-A2DM.svg\" width=\"200\">\n                    <p><span class=\"greenText\"><b>Successful harvest!</b></span><br>Your pay has increased by $0.02. Your bonus pay is now $0.82.</p>\n            ","response":0,"trial_type":"html-button-response","trial_index":70,"time_elapsed":384658,"internal_node_id":"0.0-4.0-1.31","subject_id":"5eeb8ccf11363a0c145d40c8","study_id":"6197b3f67c2b5cd3b6d9596a","session_id":"6197b576d87f8b5b8df617fb","condition":"full-information","relevant_dimensions":["antennae","pattern"],"bee_group":{"antennae":"B","wings":"X","pattern":"D","legs":"X"},"bonus":1.7800000000000011},{"rt":1383,"stimulus":"bees-with-color/bee-B1SF.svg","response":0,"trial_type":"image-button-response","trial_index":71,"time_elapsed":386042,"internal_node_id":"0.0-4.0-0.32","subject_id":"5eeb8ccf11363a0c145d40c8","study_id":"6197b3f67c2b5cd3b6d9596a","session_id":"6197b576d87f8b5b8df617fb","condition":"full-information","relevant_dimensions":["antennae","pattern"],"bee_group":{"antennae":"B","wings":"X","pattern":"D","legs":"X"},"action":"harvest","summary":"good-harvest","bonus":1.7800000000000011},{"rt":1134.7999999970198,"stimulus":"\n                    <p><b>Action: <em>harvest</em></b></p>\n                    <p>This is the bee that you just saw.</p>\n                    <img src=\"bees-with-color/bee-B1SF.svg\" width=\"200\">\n                    <p><span class=\"greenText\"><b>Successful harvest!</b></span><br>Your pay has increased by $0.02. Your bonus pay is now $0.84.</p>\n            ","response":0,"trial_type":"html-button-response","trial_index":72,"time_elapsed":387178,"internal_node_id":"0.0-4.0-1.32","subject_id":"5eeb8ccf11363a0c145d40c8","study_id":"6197b3f67c2b5cd3b6d9596a","session_id":"6197b576d87f8b5b8df617fb","condition":"full-information","relevant_dimensions":["antennae","pattern"],"bee_group":{"antennae":"B","wings":"X","pattern":"D","legs":"X"},"bonus":1.7800000000000011},{"rt":1647.0999999940395,"stimulus":"bees-with-color/bee-A2SF.svg","response":0,"trial_type":"image-button-response","trial_index":73,"time_elapsed":388826,"internal_node_id":"0.0-4.0-0.33","subject_id":"5eeb8ccf11363a0c145d40c8","study_id":"6197b3f67c2b5cd3b6d9596a","session_id":"6197b576d87f8b5b8df617fb","condition":"full-information","relevant_dimensions":["antennae","pattern"],"bee_group":{"antennae":"B","wings":"X","pattern":"D","legs":"X"},"action":"harvest","summary":"good-harvest","bonus":1.7800000000000011},{"rt":1048.9000000059605,"stimulus":"\n                    <p><b>Action: <em>harvest</em></b></p>\n                    <p>This is the bee that you just saw.</p>\n                    <img src=\"bees-with-color/bee-A2SF.svg\" width=\"200\">\n                    <p><span class=\"greenText\"><b>Successful harvest!</b></span><br>Your pay has increased by $0.02. Your bonus pay is now $0.86.</p>\n            ","response":0,"trial_type":"html-button-response","trial_index":74,"time_elapsed":389876,"internal_node_id":"0.0-4.0-1.33","subject_id":"5eeb8ccf11363a0c145d40c8","study_id":"6197b3f67c2b5cd3b6d9596a","session_id":"6197b576d87f8b5b8df617fb","condition":"full-information","relevant_dimensions":["antennae","pattern"],"bee_group":{"antennae":"B","wings":"X","pattern":"D","legs":"X"},"bonus":1.7800000000000011},{"rt":1444.5999999940395,"stimulus":"bees-with-color/bee-A2DF.svg","response":0,"trial_type":"image-button-response","trial_index":75,"time_elapsed":391322,"internal_node_id":"0.0-4.0-0.34","subject_id":"5eeb8ccf11363a0c145d40c8","study_id":"6197b3f67c2b5cd3b6d9596a","session_id":"6197b576d87f8b5b8df617fb","condition":"full-information","relevant_dimensions":["antennae","pattern"],"bee_group":{"antennae":"B","wings":"X","pattern":"D","legs":"X"},"action":"harvest","summary":"good-harvest","bonus":1.7800000000000011},{"rt":925.0999999940395,"stimulus":"\n                    <p><b>Action: <em>harvest</em></b></p>\n                    <p>This is the bee that you just saw.</p>\n                    <img src=\"bees-with-color/bee-A2DF.svg\" width=\"200\">\n                    <p><span class=\"greenText\"><b>Successful harvest!</b></span><br>Your pay has increased by $0.02. Your bonus pay is now $0.88.</p>\n            ","response":0,"trial_type":"html-button-response","trial_index":76,"time_elapsed":392248,"internal_node_id":"0.0-4.0-1.34","subject_id":"5eeb8ccf11363a0c145d40c8","study_id":"6197b3f67c2b5cd3b6d9596a","session_id":"6197b576d87f8b5b8df617fb","condition":"full-information","relevant_dimensions":["antennae","pattern"],"bee_group":{"antennae":"B","wings":"X","pattern":"D","legs":"X"},"bonus":1.7800000000000011},{"rt":1297,"stimulus":"bees-with-color/bee-A1SF.svg","response":0,"trial_type":"image-button-response","trial_index":77,"time_elapsed":393547,"internal_node_id":"0.0-4.0-0.35","subject_id":"5eeb8ccf11363a0c145d40c8","study_id":"6197b3f67c2b5cd3b6d9596a","session_id":"6197b576d87f8b5b8df617fb","condition":"full-information","relevant_dimensions":["antennae","pattern"],"bee_group":{"antennae":"B","wings":"X","pattern":"D","legs":"X"},"action":"harvest","summary":"good-harvest","bonus":1.7800000000000011},{"rt":1034.5,"stimulus":"\n                    <p><b>Action: <em>harvest</em></b></p>\n                    <p>This is the bee that you just saw.</p>\n                    <img src=\"bees-with-color/bee-A1SF.svg\" width=\"200\">\n                    <p><span class=\"greenText\"><b>Successful harvest!</b></span><br>Your pay has increased by $0.02. Your bonus pay is now $0.90.</p>\n            ","response":0,"trial_type":"html-button-response","trial_index":78,"time_elapsed":394582,"internal_node_id":"0.0-4.0-1.35","subject_id":"5eeb8ccf11363a0c145d40c8","study_id":"6197b3f67c2b5cd3b6d9596a","session_id":"6197b576d87f8b5b8df617fb","condition":"full-information","relevant_dimensions":["antennae","pattern"],"bee_group":{"antennae":"B","wings":"X","pattern":"D","legs":"X"},"bonus":1.7800000000000011},{"rt":1109.2999999970198,"stimulus":"bees-with-color/bee-B1DM.svg","response":1,"trial_type":"image-button-response","trial_index":79,"time_elapsed":395693,"internal_node_id":"0.0-4.0-0.36","subject_id":"5eeb8ccf11363a0c145d40c8","study_id":"6197b3f67c2b5cd3b6d9596a","session_id":"6197b576d87f8b5b8df617fb","condition":"full-information","relevant_dimensions":["antennae","pattern"],"bee_group":{"antennae":"B","wings":"X","pattern":"D","legs":"X"},"action":"avoid","summary":"good-avoid","bonus":1.7800000000000011},{"rt":2464.7999999970198,"stimulus":"\n                    <p><b>Action: <em>avoid</em></b></p>\n                    <p>This is the bee that you just saw.</p>\n                    <img src=\"bees-with-color/bee-B1DM.svg\" width=\"200\">\n                    <p><span class=\"greenText\">Good choice!</span>  This bee would have stung you.<br>Your bonus pay is unchanged, and remains at $0.90.</p>\n            ","response":0,"trial_type":"html-button-response","trial_index":80,"time_elapsed":398158,"internal_node_id":"0.0-4.0-1.36","subject_id":"5eeb8ccf11363a0c145d40c8","study_id":"6197b3f67c2b5cd3b6d9596a","session_id":"6197b576d87f8b5b8df617fb","condition":"full-information","relevant_dimensions":["antennae","pattern"],"bee_group":{"antennae":"B","wings":"X","pattern":"D","legs":"X"},"bonus":1.7800000000000011},{"rt":1164.5999999940395,"stimulus":"bees-with-color/bee-B2DF.svg","response":1,"trial_type":"image-button-response","trial_index":81,"time_elapsed":399324,"internal_node_id":"0.0-4.0-0.37","subject_id":"5eeb8ccf11363a0c145d40c8","study_id":"6197b3f67c2b5cd3b6d9596a","session_id":"6197b576d87f8b5b8df617fb","condition":"full-information","relevant_dimensions":["antennae","pattern"],"bee_group":{"antennae":"B","wings":"X","pattern":"D","legs":"X"},"action":"avoid","summary":"good-avoid","bonus":1.7800000000000011},{"rt":1073.0999999940395,"stimulus":"\n                    <p><b>Action: <em>avoid</em></b></p>\n                    <p>This is the bee that you just saw.</p>\n                    <img src=\"bees-with-color/bee-B2DF.svg\" width=\"200\">\n                    <p><span class=\"greenText\">Good choice!</span>  This bee would have stung you.<br>Your bonus pay is unchanged, and remains at $0.90.</p>\n            ","response":0,"trial_type":"html-button-response","trial_index":82,"time_elapsed":400399,"internal_node_id":"0.0-4.0-1.37","subject_id":"5eeb8ccf11363a0c145d40c8","study_id":"6197b3f67c2b5cd3b6d9596a","session_id":"6197b576d87f8b5b8df617fb","condition":"full-information","relevant_dimensions":["antennae","pattern"],"bee_group":{"antennae":"B","wings":"X","pattern":"D","legs":"X"},"bonus":1.7800000000000011},{"rt":1172.7000000029802,"stimulus":"bees-with-color/bee-A2SM.svg","response":0,"trial_type":"image-button-response","trial_index":83,"time_elapsed":401572,"internal_node_id":"0.0-4.0-0.38","subject_id":"5eeb8ccf11363a0c145d40c8","study_id":"6197b3f67c2b5cd3b6d9596a","session_id":"6197b576d87f8b5b8df617fb","condition":"full-information","relevant_dimensions":["antennae","pattern"],"bee_group":{"antennae":"B","wings":"X","pattern":"D","legs":"X"},"action":"harvest","summary":"good-harvest","bonus":1.7800000000000011},{"rt":1065,"stimulus":"\n                    <p><b>Action: <em>harvest</em></b></p>\n                    <p>This is the bee that you just saw.</p>\n                    <img src=\"bees-with-color/bee-A2SM.svg\" width=\"200\">\n                    <p><span class=\"greenText\"><b>Successful harvest!</b></span><br>Your pay has increased by $0.02. Your bonus pay is now $0.92.</p>\n            ","response":0,"trial_type":"html-button-response","trial_index":84,"time_elapsed":402638,"internal_node_id":"0.0-4.0-1.38","subject_id":"5eeb8ccf11363a0c145d40c8","study_id":"6197b3f67c2b5cd3b6d9596a","session_id":"6197b576d87f8b5b8df617fb","condition":"full-information","relevant_dimensions":["antennae","pattern"],"bee_group":{"antennae":"B","wings":"X","pattern":"D","legs":"X"},"bonus":1.7800000000000011},{"rt":1506.7000000029802,"stimulus":"bees-with-color/bee-A2DM.svg","response":0,"trial_type":"image-button-response","trial_index":85,"time_elapsed":404146,"internal_node_id":"0.0-4.0-0.39","subject_id":"5eeb8ccf11363a0c145d40c8","study_id":"6197b3f67c2b5cd3b6d9596a","session_id":"6197b576d87f8b5b8df617fb","condition":"full-information","relevant_dimensions":["antennae","pattern"],"bee_group":{"antennae":"B","wings":"X","pattern":"D","legs":"X"},"action":"harvest","summary":"good-harvest","bonus":1.7800000000000011},{"rt":964.9000000059605,"stimulus":"\n                    <p><b>Action: <em>harvest</em></b></p>\n                    <p>This is the bee that you just saw.</p>\n                    <img src=\"bees-with-color/bee-A2DM.svg\" width=\"200\">\n                    <p><span class=\"greenText\"><b>Successful harvest!</b></span><br>Your pay has increased by $0.02. Your bonus pay is now $0.94.</p>\n            ","response":0,"trial_type":"html-button-response","trial_index":86,"time_elapsed":405113,"internal_node_id":"0.0-4.0-1.39","subject_id":"5eeb8ccf11363a0c145d40c8","study_id":"6197b3f67c2b5cd3b6d9596a","session_id":"6197b576d87f8b5b8df617fb","condition":"full-information","relevant_dimensions":["antennae","pattern"],"bee_group":{"antennae":"B","wings":"X","pattern":"D","legs":"X"},"bonus":1.7800000000000011},{"rt":1326.7999999970198,"stimulus":"bees-with-color/bee-B2DM.svg","response":1,"trial_type":"image-button-response","trial_index":87,"time_elapsed":406441,"internal_node_id":"0.0-4.0-0.40","subject_id":"5eeb8ccf11363a0c145d40c8","study_id":"6197b3f67c2b5cd3b6d9596a","session_id":"6197b576d87f8b5b8df617fb","condition":"full-information","relevant_dimensions":["antennae","pattern"],"bee_group":{"antennae":"B","wings":"X","pattern":"D","legs":"X"},"action":"avoid","summary":"good-avoid","bonus":1.7800000000000011},{"rt":932.7999999970198,"stimulus":"\n                    <p><b>Action: <em>avoid</em></b></p>\n                    <p>This is the bee that you just saw.</p>\n                    <img src=\"bees-with-color/bee-B2DM.svg\" width=\"200\">\n                    <p><span class=\"greenText\">Good choice!</span>  This bee would have stung you.<br>Your bonus pay is unchanged, and remains at $0.94.</p>\n            ","response":0,"trial_type":"html-button-response","trial_index":88,"time_elapsed":407375,"internal_node_id":"0.0-4.0-1.40","subject_id":"5eeb8ccf11363a0c145d40c8","study_id":"6197b3f67c2b5cd3b6d9596a","session_id":"6197b576d87f8b5b8df617fb","condition":"full-information","relevant_dimensions":["antennae","pattern"],"bee_group":{"antennae":"B","wings":"X","pattern":"D","legs":"X"},"bonus":1.7800000000000011},{"rt":1282.800000011921,"stimulus":"bees-with-color/bee-B2SF.svg","response":0,"trial_type":"image-button-response","trial_index":89,"time_elapsed":408659,"internal_node_id":"0.0-4.0-0.41","subject_id":"5eeb8ccf11363a0c145d40c8","study_id":"6197b3f67c2b5cd3b6d9596a","session_id":"6197b576d87f8b5b8df617fb","condition":"full-information","relevant_dimensions":["antennae","pattern"],"bee_group":{"antennae":"B","wings":"X","pattern":"D","legs":"X"},"action":"harvest","summary":"good-harvest","bonus":1.7800000000000011},{"rt":852.7999999970198,"stimulus":"\n                    <p><b>Action: <em>harvest</em></b></p>\n                    <p>This is the bee that you just saw.</p>\n                    <img src=\"bees-with-color/bee-B2SF.svg\" width=\"200\">\n                    <p><span class=\"greenText\"><b>Successful harvest!</b></span><br>Your pay has increased by $0.02. Your bonus pay is now $0.96.</p>\n            ","response":0,"trial_type":"html-button-response","trial_index":90,"time_elapsed":409513,"internal_node_id":"0.0-4.0-1.41","subject_id":"5eeb8ccf11363a0c145d40c8","study_id":"6197b3f67c2b5cd3b6d9596a","session_id":"6197b576d87f8b5b8df617fb","condition":"full-information","relevant_dimensions":["antennae","pattern"],"bee_group":{"antennae":"B","wings":"X","pattern":"D","legs":"X"},"bonus":1.7800000000000011},{"rt":1834.5,"stimulus":"bees-with-color/bee-A1DF.svg","response":0,"trial_type":"image-button-response","trial_index":91,"time_elapsed":411349,"internal_node_id":"0.0-4.0-0.42","subject_id":"5eeb8ccf11363a0c145d40c8","study_id":"6197b3f67c2b5cd3b6d9596a","session_id":"6197b576d87f8b5b8df617fb","condition":"full-information","relevant_dimensions":["antennae","pattern"],"bee_group":{"antennae":"B","wings":"X","pattern":"D","legs":"X"},"action":"harvest","summary":"good-harvest","bonus":1.7800000000000011},{"rt":876.7999999970198,"stimulus":"\n                    <p><b>Action: <em>harvest</em></b></p>\n                    <p>This is the bee that you just saw.</p>\n                    <img src=\"bees-with-color/bee-A1DF.svg\" width=\"200\">\n                    <p><span class=\"greenText\"><b>Successful harvest!</b></span><br>Your pay has increased by $0.02. Your bonus pay is now $0.98.</p>\n            ","response":0,"trial_type":"html-button-response","trial_index":92,"time_elapsed":412227,"internal_node_id":"0.0-4.0-1.42","subject_id":"5eeb8ccf11363a0c145d40c8","study_id":"6197b3f67c2b5cd3b6d9596a","session_id":"6197b576d87f8b5b8df617fb","condition":"full-information","relevant_dimensions":["antennae","pattern"],"bee_group":{"antennae":"B","wings":"X","pattern":"D","legs":"X"},"bonus":1.7800000000000011},{"rt":1920.8999999910593,"stimulus":"bees-with-color/bee-A1DM.svg","response":0,"trial_type":"image-button-response","trial_index":93,"time_elapsed":414149,"internal_node_id":"0.0-4.0-0.43","subject_id":"5eeb8ccf11363a0c145d40c8","study_id":"6197b3f67c2b5cd3b6d9596a","session_id":"6197b576d87f8b5b8df617fb","condition":"full-information","relevant_dimensions":["antennae","pattern"],"bee_group":{"antennae":"B","wings":"X","pattern":"D","legs":"X"},"action":"harvest","summary":"good-harvest","bonus":1.7800000000000011},{"rt":855,"stimulus":"\n                    <p><b>Action: <em>harvest</em></b></p>\n                    <p>This is the bee that you just saw.</p>\n                    <img src=\"bees-with-color/bee-A1DM.svg\" width=\"200\">\n                    <p><span class=\"greenText\"><b>Successful harvest!</b></span><br>Your pay has increased by $0.02. Your bonus pay is now $1.00.</p>\n            ","response":0,"trial_type":"html-button-response","trial_index":94,"time_elapsed":415005,"internal_node_id":"0.0-4.0-1.43","subject_id":"5eeb8ccf11363a0c145d40c8","study_id":"6197b3f67c2b5cd3b6d9596a","session_id":"6197b576d87f8b5b8df617fb","condition":"full-information","relevant_dimensions":["antennae","pattern"],"bee_group":{"antennae":"B","wings":"X","pattern":"D","legs":"X"},"bonus":1.7800000000000011},{"rt":1210.5999999940395,"stimulus":"bees-with-color/bee-B1DF.svg","response":1,"trial_type":"image-button-response","trial_index":95,"time_elapsed":416216,"internal_node_id":"0.0-4.0-0.44","subject_id":"5eeb8ccf11363a0c145d40c8","study_id":"6197b3f67c2b5cd3b6d9596a","session_id":"6197b576d87f8b5b8df617fb","condition":"full-information","relevant_dimensions":["antennae","pattern"],"bee_group":{"antennae":"B","wings":"X","pattern":"D","legs":"X"},"action":"avoid","summary":"good-avoid","bonus":1.7800000000000011},{"rt":970.8999999910593,"stimulus":"\n                    <p><b>Action: <em>avoid</em></b></p>\n                    <p>This is the bee that you just saw.</p>\n                    <img src=\"bees-with-color/bee-B1DF.svg\" width=\"200\">\n                    <p><span class=\"greenText\">Good choice!</span>  This bee would have stung you.<br>Your bonus pay is unchanged, and remains at $1.00.</p>\n            ","response":0,"trial_type":"html-button-response","trial_index":96,"time_elapsed":417188,"internal_node_id":"0.0-4.0-1.44","subject_id":"5eeb8ccf11363a0c145d40c8","study_id":"6197b3f67c2b5cd3b6d9596a","session_id":"6197b576d87f8b5b8df617fb","condition":"full-information","relevant_dimensions":["antennae","pattern"],"bee_group":{"antennae":"B","wings":"X","pattern":"D","legs":"X"},"bonus":1.7800000000000011},{"rt":1159.2000000029802,"stimulus":"bees-with-color/bee-B2SM.svg","response":0,"trial_type":"image-button-response","trial_index":97,"time_elapsed":418349,"internal_node_id":"0.0-4.0-0.45","subject_id":"5eeb8ccf11363a0c145d40c8","study_id":"6197b3f67c2b5cd3b6d9596a","session_id":"6197b576d87f8b5b8df617fb","condition":"full-information","relevant_dimensions":["antennae","pattern"],"bee_group":{"antennae":"B","wings":"X","pattern":"D","legs":"X"},"action":"harvest","summary":"good-harvest","bonus":1.7800000000000011},{"rt":846.7000000029802,"stimulus":"\n                    <p><b>Action: <em>harvest</em></b></p>\n                    <p>This is the bee that you just saw.</p>\n                    <img src=\"bees-with-color/bee-B2SM.svg\" width=\"200\">\n                    <p><span class=\"greenText\"><b>Successful harvest!</b></span><br>Your pay has increased by $0.02. Your bonus pay is now $1.02.</p>\n            ","response":0,"trial_type":"html-button-response","trial_index":98,"time_elapsed":419196,"internal_node_id":"0.0-4.0-1.45","subject_id":"5eeb8ccf11363a0c145d40c8","study_id":"6197b3f67c2b5cd3b6d9596a","session_id":"6197b576d87f8b5b8df617fb","condition":"full-information","relevant_dimensions":["antennae","pattern"],"bee_group":{"antennae":"B","wings":"X","pattern":"D","legs":"X"},"bonus":1.7800000000000011},{"rt":1041.2999999970198,"stimulus":"bees-with-color/bee-A1SM.svg","response":0,"trial_type":"image-button-response","trial_index":99,"time_elapsed":420239,"internal_node_id":"0.0-4.0-0.46","subject_id":"5eeb8ccf11363a0c145d40c8","study_id":"6197b3f67c2b5cd3b6d9596a","session_id":"6197b576d87f8b5b8df617fb","condition":"full-information","relevant_dimensions":["antennae","pattern"],"bee_group":{"antennae":"B","wings":"X","pattern":"D","legs":"X"},"action":"harvest","summary":"good-harvest","bonus":1.7800000000000011},{"rt":971,"stimulus":"\n                    <p><b>Action: <em>harvest</em></b></p>\n                    <p>This is the bee that you just saw.</p>\n                    <img src=\"bees-with-color/bee-A1SM.svg\" width=\"200\">\n                    <p><span class=\"greenText\"><b>Successful harvest!</b></span><br>Your pay has increased by $0.02. Your bonus pay is now $1.04.</p>\n            ","response":0,"trial_type":"html-button-response","trial_index":100,"time_elapsed":421211,"internal_node_id":"0.0-4.0-1.46","subject_id":"5eeb8ccf11363a0c145d40c8","study_id":"6197b3f67c2b5cd3b6d9596a","session_id":"6197b576d87f8b5b8df617fb","condition":"full-information","relevant_dimensions":["antennae","pattern"],"bee_group":{"antennae":"B","wings":"X","pattern":"D","legs":"X"},"bonus":1.7800000000000011},{"rt":1011,"stimulus":"bees-with-color/bee-B1SM.svg","response":0,"trial_type":"image-button-response","trial_index":101,"time_elapsed":422223,"internal_node_id":"0.0-4.0-0.47","subject_id":"5eeb8ccf11363a0c145d40c8","study_id":"6197b3f67c2b5cd3b6d9596a","session_id":"6197b576d87f8b5b8df617fb","condition":"full-information","relevant_dimensions":["antennae","pattern"],"bee_group":{"antennae":"B","wings":"X","pattern":"D","legs":"X"},"action":"harvest","summary":"good-harvest","bonus":1.7800000000000011},{"rt":906.9000000059605,"stimulus":"\n                    <p><b>Action: <em>harvest</em></b></p>\n                    <p>This is the bee that you just saw.</p>\n                    <img src=\"bees-with-color/bee-B1SM.svg\" width=\"200\">\n                    <p><span class=\"greenText\"><b>Successful harvest!</b></span><br>Your pay has increased by $0.02. Your bonus pay is now $1.06.</p>\n            ","response":0,"trial_type":"html-button-response","trial_index":102,"time_elapsed":423131,"internal_node_id":"0.0-4.0-1.47","subject_id":"5eeb8ccf11363a0c145d40c8","study_id":"6197b3f67c2b5cd3b6d9596a","session_id":"6197b576d87f8b5b8df617fb","condition":"full-information","relevant_dimensions":["antennae","pattern"],"bee_group":{"antennae":"B","wings":"X","pattern":"D","legs":"X"},"bonus":1.7800000000000011},{"rt":957,"stimulus":"bees-with-color/bee-B1SF.svg","response":0,"trial_type":"image-button-response","trial_index":103,"time_elapsed":424089,"internal_node_id":"0.0-4.0-0.48","subject_id":"5eeb8ccf11363a0c145d40c8","study_id":"6197b3f67c2b5cd3b6d9596a","session_id":"6197b576d87f8b5b8df617fb","condition":"full-information","relevant_dimensions":["antennae","pattern"],"bee_group":{"antennae":"B","wings":"X","pattern":"D","legs":"X"},"action":"harvest","summary":"good-harvest","bonus":1.7800000000000011},{"rt":846.9000000059605,"stimulus":"\n                    <p><b>Action: <em>harvest</em></b></p>\n                    <p>This is the bee that you just saw.</p>\n                    <img src=\"bees-with-color/bee-B1SF.svg\" width=\"200\">\n                    <p><span class=\"greenText\"><b>Successful harvest!</b></span><br>Your pay has increased by $0.02. Your bonus pay is now $1.08.</p>\n            ","response":0,"trial_type":"html-button-response","trial_index":104,"time_elapsed":424937,"internal_node_id":"0.0-4.0-1.48","subject_id":"5eeb8ccf11363a0c145d40c8","study_id":"6197b3f67c2b5cd3b6d9596a","session_id":"6197b576d87f8b5b8df617fb","condition":"full-information","relevant_dimensions":["antennae","pattern"],"bee_group":{"antennae":"B","wings":"X","pattern":"D","legs":"X"},"bonus":1.7800000000000011},{"rt":978.8999999910593,"stimulus":"bees-with-color/bee-B1SM.svg","response":0,"trial_type":"image-button-response","trial_index":105,"time_elapsed":425916,"internal_node_id":"0.0-4.0-0.49","subject_id":"5eeb8ccf11363a0c145d40c8","study_id":"6197b3f67c2b5cd3b6d9596a","session_id":"6197b576d87f8b5b8df617fb","condition":"full-information","relevant_dimensions":["antennae","pattern"],"bee_group":{"antennae":"B","wings":"X","pattern":"D","legs":"X"},"action":"harvest","summary":"good-harvest","bonus":1.7800000000000011},{"rt":853.0999999940395,"stimulus":"\n                    <p><b>Action: <em>harvest</em></b></p>\n                    <p>This is the bee that you just saw.</p>\n                    <img src=\"bees-with-color/bee-B1SM.svg\" width=\"200\">\n                    <p><span class=\"greenText\"><b>Successful harvest!</b></span><br>Your pay has increased by $0.02. Your bonus pay is now $1.10.</p>\n            ","response":0,"trial_type":"html-button-response","trial_index":106,"time_elapsed":426771,"internal_node_id":"0.0-4.0-1.49","subject_id":"5eeb8ccf11363a0c145d40c8","study_id":"6197b3f67c2b5cd3b6d9596a","session_id":"6197b576d87f8b5b8df617fb","condition":"full-information","relevant_dimensions":["antennae","pattern"],"bee_group":{"antennae":"B","wings":"X","pattern":"D","legs":"X"},"bonus":1.7800000000000011},{"rt":1531,"stimulus":"bees-with-color/bee-A2DF.svg","response":0,"trial_type":"image-button-response","trial_index":107,"time_elapsed":428303,"internal_node_id":"0.0-4.0-0.50","subject_id":"5eeb8ccf11363a0c145d40c8","study_id":"6197b3f67c2b5cd3b6d9596a","session_id":"6197b576d87f8b5b8df617fb","condition":"full-information","relevant_dimensions":["antennae","pattern"],"bee_group":{"antennae":"B","wings":"X","pattern":"D","legs":"X"},"action":"harvest","summary":"good-harvest","bonus":1.7800000000000011},{"rt":862.8000000119209,"stimulus":"\n                    <p><b>Action: <em>harvest</em></b></p>\n                    <p>This is the bee that you just saw.</p>\n                    <img src=\"bees-with-color/bee-A2DF.svg\" width=\"200\">\n                    <p><span class=\"greenText\"><b>Successful harvest!</b></span><br>Your pay has increased by $0.02. Your bonus pay is now $1.12.</p>\n            ","response":0,"trial_type":"html-button-response","trial_index":108,"time_elapsed":429166,"internal_node_id":"0.0-4.0-1.50","subject_id":"5eeb8ccf11363a0c145d40c8","study_id":"6197b3f67c2b5cd3b6d9596a","session_id":"6197b576d87f8b5b8df617fb","condition":"full-information","relevant_dimensions":["antennae","pattern"],"bee_group":{"antennae":"B","wings":"X","pattern":"D","legs":"X"},"bonus":1.7800000000000011},{"rt":1423,"stimulus":"bees-with-color/bee-A1SM.svg","response":0,"trial_type":"image-button-response","trial_index":109,"time_elapsed":430590,"internal_node_id":"0.0-4.0-0.51","subject_id":"5eeb8ccf11363a0c145d40c8","study_id":"6197b3f67c2b5cd3b6d9596a","session_id":"6197b576d87f8b5b8df617fb","condition":"full-information","relevant_dimensions":["antennae","pattern"],"bee_group":{"antennae":"B","wings":"X","pattern":"D","legs":"X"},"action":"harvest","summary":"good-harvest","bonus":1.7800000000000011},{"rt":782.7999999970198,"stimulus":"\n                    <p><b>Action: <em>harvest</em></b></p>\n                    <p>This is the bee that you just saw.</p>\n                    <img src=\"bees-with-color/bee-A1SM.svg\" width=\"200\">\n                    <p><span class=\"greenText\"><b>Successful harvest!</b></span><br>Your pay has increased by $0.02. Your bonus pay is now $1.14.</p>\n            ","response":0,"trial_type":"html-button-response","trial_index":110,"time_elapsed":431374,"internal_node_id":"0.0-4.0-1.51","subject_id":"5eeb8ccf11363a0c145d40c8","study_id":"6197b3f67c2b5cd3b6d9596a","session_id":"6197b576d87f8b5b8df617fb","condition":"full-information","relevant_dimensions":["antennae","pattern"],"bee_group":{"antennae":"B","wings":"X","pattern":"D","legs":"X"},"bonus":1.7800000000000011},{"rt":1267.2000000029802,"stimulus":"bees-with-color/bee-B1DM.svg","response":1,"trial_type":"image-button-response","trial_index":111,"time_elapsed":432643,"internal_node_id":"0.0-4.0-0.52","subject_id":"5eeb8ccf11363a0c145d40c8","study_id":"6197b3f67c2b5cd3b6d9596a","session_id":"6197b576d87f8b5b8df617fb","condition":"full-information","relevant_dimensions":["antennae","pattern"],"bee_group":{"antennae":"B","wings":"X","pattern":"D","legs":"X"},"action":"avoid","summary":"good-avoid","bonus":1.7800000000000011},{"rt":885.2000000029802,"stimulus":"\n                    <p><b>Action: <em>avoid</em></b></p>\n                    <p>This is the bee that you just saw.</p>\n                    <img src=\"bees-with-color/bee-B1DM.svg\" width=\"200\">\n                    <p><span class=\"greenText\">Good choice!</span>  This bee would have stung you.<br>Your bonus pay is unchanged, and remains at $1.14.</p>\n            ","response":0,"trial_type":"html-button-response","trial_index":112,"time_elapsed":433529,"internal_node_id":"0.0-4.0-1.52","subject_id":"5eeb8ccf11363a0c145d40c8","study_id":"6197b3f67c2b5cd3b6d9596a","session_id":"6197b576d87f8b5b8df617fb","condition":"full-information","relevant_dimensions":["antennae","pattern"],"bee_group":{"antennae":"B","wings":"X","pattern":"D","legs":"X"},"bonus":1.7800000000000011},{"rt":1056.4000000059605,"stimulus":"bees-with-color/bee-A2SM.svg","response":0,"trial_type":"image-button-response","trial_index":113,"time_elapsed":434586,"internal_node_id":"0.0-4.0-0.53","subject_id":"5eeb8ccf11363a0c145d40c8","study_id":"6197b3f67c2b5cd3b6d9596a","session_id":"6197b576d87f8b5b8df617fb","condition":"full-information","relevant_dimensions":["antennae","pattern"],"bee_group":{"antennae":"B","wings":"X","pattern":"D","legs":"X"},"action":"harvest","summary":"good-harvest","bonus":1.7800000000000011},{"rt":1018.6000000089407,"stimulus":"\n                    <p><b>Action: <em>harvest</em></b></p>\n                    <p>This is the bee that you just saw.</p>\n                    <img src=\"bees-with-color/bee-A2SM.svg\" width=\"200\">\n                    <p><span class=\"greenText\"><b>Successful harvest!</b></span><br>Your pay has increased by $0.02. Your bonus pay is now $1.16.</p>\n            ","response":0,"trial_type":"html-button-response","trial_index":114,"time_elapsed":435606,"internal_node_id":"0.0-4.0-1.53","subject_id":"5eeb8ccf11363a0c145d40c8","study_id":"6197b3f67c2b5cd3b6d9596a","session_id":"6197b576d87f8b5b8df617fb","condition":"full-information","relevant_dimensions":["antennae","pattern"],"bee_group":{"antennae":"B","wings":"X","pattern":"D","legs":"X"},"bonus":1.7800000000000011},{"rt":939.2000000029802,"stimulus":"bees-with-color/bee-A1DM.svg","response":0,"trial_type":"image-button-response","trial_index":115,"time_elapsed":436547,"internal_node_id":"0.0-4.0-0.54","subject_id":"5eeb8ccf11363a0c145d40c8","study_id":"6197b3f67c2b5cd3b6d9596a","session_id":"6197b576d87f8b5b8df617fb","condition":"full-information","relevant_dimensions":["antennae","pattern"],"bee_group":{"antennae":"B","wings":"X","pattern":"D","legs":"X"},"action":"harvest","summary":"good-harvest","bonus":1.7800000000000011},{"rt":776.9000000059605,"stimulus":"\n                    <p><b>Action: <em>harvest</em></b></p>\n                    <p>This is the bee that you just saw.</p>\n                    <img src=\"bees-with-color/bee-A1DM.svg\" width=\"200\">\n                    <p><span class=\"greenText\"><b>Successful harvest!</b></span><br>Your pay has increased by $0.02. Your bonus pay is now $1.18.</p>\n            ","response":0,"trial_type":"html-button-response","trial_index":116,"time_elapsed":437324,"internal_node_id":"0.0-4.0-1.54","subject_id":"5eeb8ccf11363a0c145d40c8","study_id":"6197b3f67c2b5cd3b6d9596a","session_id":"6197b576d87f8b5b8df617fb","condition":"full-information","relevant_dimensions":["antennae","pattern"],"bee_group":{"antennae":"B","wings":"X","pattern":"D","legs":"X"},"bonus":1.7800000000000011},{"rt":987,"stimulus":"bees-with-color/bee-B2DF.svg","response":1,"trial_type":"image-button-response","trial_index":117,"time_elapsed":438312,"internal_node_id":"0.0-4.0-0.55","subject_id":"5eeb8ccf11363a0c145d40c8","study_id":"6197b3f67c2b5cd3b6d9596a","session_id":"6197b576d87f8b5b8df617fb","condition":"full-information","relevant_dimensions":["antennae","pattern"],"bee_group":{"antennae":"B","wings":"X","pattern":"D","legs":"X"},"action":"avoid","summary":"good-avoid","bonus":1.7800000000000011},{"rt":1002.9000000059605,"stimulus":"\n                    <p><b>Action: <em>avoid</em></b></p>\n                    <p>This is the bee that you just saw.</p>\n                    <img src=\"bees-with-color/bee-B2DF.svg\" width=\"200\">\n                    <p><span class=\"greenText\">Good choice!</span>  This bee would have stung you.<br>Your bonus pay is unchanged, and remains at $1.18.</p>\n            ","response":0,"trial_type":"html-button-response","trial_index":118,"time_elapsed":439316,"internal_node_id":"0.0-4.0-1.55","subject_id":"5eeb8ccf11363a0c145d40c8","study_id":"6197b3f67c2b5cd3b6d9596a","session_id":"6197b576d87f8b5b8df617fb","condition":"full-information","relevant_dimensions":["antennae","pattern"],"bee_group":{"antennae":"B","wings":"X","pattern":"D","legs":"X"},"bonus":1.7800000000000011},{"rt":1219.0999999940395,"stimulus":"bees-with-color/bee-B2SF.svg","response":0,"trial_type":"image-button-response","trial_index":119,"time_elapsed":440537,"internal_node_id":"0.0-4.0-0.56","subject_id":"5eeb8ccf11363a0c145d40c8","study_id":"6197b3f67c2b5cd3b6d9596a","session_id":"6197b576d87f8b5b8df617fb","condition":"full-information","relevant_dimensions":["antennae","pattern"],"bee_group":{"antennae":"B","wings":"X","pattern":"D","legs":"X"},"action":"harvest","summary":"good-harvest","bonus":1.7800000000000011},{"rt":706.3999999910593,"stimulus":"\n                    <p><b>Action: <em>harvest</em></b></p>\n                    <p>This is the bee that you just saw.</p>\n                    <img src=\"bees-with-color/bee-B2SF.svg\" width=\"200\">\n                    <p><span class=\"greenText\"><b>Successful harvest!</b></span><br>Your pay has increased by $0.02. Your bonus pay is now $1.20.</p>\n            ","response":0,"trial_type":"html-button-response","trial_index":120,"time_elapsed":441244,"internal_node_id":"0.0-4.0-1.56","subject_id":"5eeb8ccf11363a0c145d40c8","study_id":"6197b3f67c2b5cd3b6d9596a","session_id":"6197b576d87f8b5b8df617fb","condition":"full-information","relevant_dimensions":["antennae","pattern"],"bee_group":{"antennae":"B","wings":"X","pattern":"D","legs":"X"},"bonus":1.7800000000000011},{"rt":1227.2000000029802,"stimulus":"bees-with-color/bee-A1DF.svg","response":0,"trial_type":"image-button-response","trial_index":121,"time_elapsed":442473,"internal_node_id":"0.0-4.0-0.57","subject_id":"5eeb8ccf11363a0c145d40c8","study_id":"6197b3f67c2b5cd3b6d9596a","session_id":"6197b576d87f8b5b8df617fb","condition":"full-information","relevant_dimensions":["antennae","pattern"],"bee_group":{"antennae":"B","wings":"X","pattern":"D","legs":"X"},"action":"harvest","summary":"good-harvest","bonus":1.7800000000000011},{"rt":676.7999999970198,"stimulus":"\n                    <p><b>Action: <em>harvest</em></b></p>\n                    <p>This is the bee that you just saw.</p>\n                    <img src=\"bees-with-color/bee-A1DF.svg\" width=\"200\">\n                    <p><span class=\"greenText\"><b>Successful harvest!</b></span><br>Your pay has increased by $0.02. Your bonus pay is now $1.22.</p>\n            ","response":0,"trial_type":"html-button-response","trial_index":122,"time_elapsed":443151,"internal_node_id":"0.0-4.0-1.57","subject_id":"5eeb8ccf11363a0c145d40c8","study_id":"6197b3f67c2b5cd3b6d9596a","session_id":"6197b576d87f8b5b8df617fb","condition":"full-information","relevant_dimensions":["antennae","pattern"],"bee_group":{"antennae":"B","wings":"X","pattern":"D","legs":"X"},"bonus":1.7800000000000011},{"rt":1264.7999999970198,"stimulus":"bees-with-color/bee-B2SM.svg","response":0,"trial_type":"image-button-response","trial_index":123,"time_elapsed":444417,"internal_node_id":"0.0-4.0-0.58","subject_id":"5eeb8ccf11363a0c145d40c8","study_id":"6197b3f67c2b5cd3b6d9596a","session_id":"6197b576d87f8b5b8df617fb","condition":"full-information","relevant_dimensions":["antennae","pattern"],"bee_group":{"antennae":"B","wings":"X","pattern":"D","legs":"X"},"action":"harvest","summary":"good-harvest","bonus":1.7800000000000011},{"rt":628.8999999910593,"stimulus":"\n                    <p><b>Action: <em>harvest</em></b></p>\n                    <p>This is the bee that you just saw.</p>\n                    <img src=\"bees-with-color/bee-B2SM.svg\" width=\"200\">\n                    <p><span class=\"greenText\"><b>Successful harvest!</b></span><br>Your pay has increased by $0.02. Your bonus pay is now $1.24.</p>\n            ","response":0,"trial_type":"html-button-response","trial_index":124,"time_elapsed":445047,"internal_node_id":"0.0-4.0-1.58","subject_id":"5eeb8ccf11363a0c145d40c8","study_id":"6197b3f67c2b5cd3b6d9596a","session_id":"6197b576d87f8b5b8df617fb","condition":"full-information","relevant_dimensions":["antennae","pattern"],"bee_group":{"antennae":"B","wings":"X","pattern":"D","legs":"X"},"bonus":1.7800000000000011},{"rt":1258.7000000029802,"stimulus":"bees-with-color/bee-B2DM.svg","response":1,"trial_type":"image-button-response","trial_index":125,"time_elapsed":446307,"internal_node_id":"0.0-4.0-0.59","subject_id":"5eeb8ccf11363a0c145d40c8","study_id":"6197b3f67c2b5cd3b6d9596a","session_id":"6197b576d87f8b5b8df617fb","condition":"full-information","relevant_dimensions":["antennae","pattern"],"bee_group":{"antennae":"B","wings":"X","pattern":"D","legs":"X"},"action":"avoid","summary":"good-avoid","bonus":1.7800000000000011},{"rt":661.1000000089407,"stimulus":"\n                    <p><b>Action: <em>avoid</em></b></p>\n                    <p>This is the bee that you just saw.</p>\n                    <img src=\"bees-with-color/bee-B2DM.svg\" width=\"200\">\n                    <p><span class=\"greenText\">Good choice!</span>  This bee would have stung you.<br>Your bonus pay is unchanged, and remains at $1.24.</p>\n            ","response":0,"trial_type":"html-button-response","trial_index":126,"time_elapsed":446969,"internal_node_id":"0.0-4.0-1.59","subject_id":"5eeb8ccf11363a0c145d40c8","study_id":"6197b3f67c2b5cd3b6d9596a","session_id":"6197b576d87f8b5b8df617fb","condition":"full-information","relevant_dimensions":["antennae","pattern"],"bee_group":{"antennae":"B","wings":"X","pattern":"D","legs":"X"},"bonus":1.7800000000000011},{"rt":1258.9000000059605,"stimulus":"bees-with-color/bee-B1DF.svg","response":1,"trial_type":"image-button-response","trial_index":127,"time_elapsed":448229,"internal_node_id":"0.0-4.0-0.60","subject_id":"5eeb8ccf11363a0c145d40c8","study_id":"6197b3f67c2b5cd3b6d9596a","session_id":"6197b576d87f8b5b8df617fb","condition":"full-information","relevant_dimensions":["antennae","pattern"],"bee_group":{"antennae":"B","wings":"X","pattern":"D","legs":"X"},"action":"avoid","summary":"good-avoid","bonus":1.7800000000000011},{"rt":1110.4000000059605,"stimulus":"\n                    <p><b>Action: <em>avoid</em></b></p>\n                    <p>This is the bee that you just saw.</p>\n                    <img src=\"bees-with-color/bee-B1DF.svg\" width=\"200\">\n                    <p><span class=\"greenText\">Good choice!</span>  This bee would have stung you.<br>Your bonus pay is unchanged, and remains at $1.24.</p>\n            ","response":0,"trial_type":"html-button-response","trial_index":128,"time_elapsed":449340,"internal_node_id":"0.0-4.0-1.60","subject_id":"5eeb8ccf11363a0c145d40c8","study_id":"6197b3f67c2b5cd3b6d9596a","session_id":"6197b576d87f8b5b8df617fb","condition":"full-information","relevant_dimensions":["antennae","pattern"],"bee_group":{"antennae":"B","wings":"X","pattern":"D","legs":"X"},"bonus":1.7800000000000011},{"rt":963.0999999940395,"stimulus":"bees-with-color/bee-A1SF.svg","response":0,"trial_type":"image-button-response","trial_index":129,"time_elapsed":450304,"internal_node_id":"0.0-4.0-0.61","subject_id":"5eeb8ccf11363a0c145d40c8","study_id":"6197b3f67c2b5cd3b6d9596a","session_id":"6197b576d87f8b5b8df617fb","condition":"full-information","relevant_dimensions":["antennae","pattern"],"bee_group":{"antennae":"B","wings":"X","pattern":"D","legs":"X"},"action":"harvest","summary":"good-harvest","bonus":1.7800000000000011},{"rt":863.0999999940395,"stimulus":"\n                    <p><b>Action: <em>harvest</em></b></p>\n                    <p>This is the bee that you just saw.</p>\n                    <img src=\"bees-with-color/bee-A1SF.svg\" width=\"200\">\n                    <p><span class=\"greenText\"><b>Successful harvest!</b></span><br>Your pay has increased by $0.02. Your bonus pay is now $1.26.</p>\n            ","response":0,"trial_type":"html-button-response","trial_index":130,"time_elapsed":451169,"internal_node_id":"0.0-4.0-1.61","subject_id":"5eeb8ccf11363a0c145d40c8","study_id":"6197b3f67c2b5cd3b6d9596a","session_id":"6197b576d87f8b5b8df617fb","condition":"full-information","relevant_dimensions":["antennae","pattern"],"bee_group":{"antennae":"B","wings":"X","pattern":"D","legs":"X"},"bonus":1.7800000000000011},{"rt":1133.0999999940395,"stimulus":"bees-with-color/bee-A2DM.svg","response":0,"trial_type":"image-button-response","trial_index":131,"time_elapsed":452303,"internal_node_id":"0.0-4.0-0.62","subject_id":"5eeb8ccf11363a0c145d40c8","study_id":"6197b3f67c2b5cd3b6d9596a","session_id":"6197b576d87f8b5b8df617fb","condition":"full-information","relevant_dimensions":["antennae","pattern"],"bee_group":{"antennae":"B","wings":"X","pattern":"D","legs":"X"},"action":"harvest","summary":"good-harvest","bonus":1.7800000000000011},{"rt":846.9000000059605,"stimulus":"\n                    <p><b>Action: <em>harvest</em></b></p>\n                    <p>This is the bee that you just saw.</p>\n                    <img src=\"bees-with-color/bee-A2DM.svg\" width=\"200\">\n                    <p><span class=\"greenText\"><b>Successful harvest!</b></span><br>Your pay has increased by $0.02. Your bonus pay is now $1.28.</p>\n            ","response":0,"trial_type":"html-button-response","trial_index":132,"time_elapsed":453151,"internal_node_id":"0.0-4.0-1.62","subject_id":"5eeb8ccf11363a0c145d40c8","study_id":"6197b3f67c2b5cd3b6d9596a","session_id":"6197b576d87f8b5b8df617fb","condition":"full-information","relevant_dimensions":["antennae","pattern"],"bee_group":{"antennae":"B","wings":"X","pattern":"D","legs":"X"},"bonus":1.7800000000000011},{"rt":1336.7000000029802,"stimulus":"bees-with-color/bee-A2SF.svg","response":0,"trial_type":"image-button-response","trial_index":133,"time_elapsed":454488,"internal_node_id":"0.0-4.0-0.63","subject_id":"5eeb8ccf11363a0c145d40c8","study_id":"6197b3f67c2b5cd3b6d9596a","session_id":"6197b576d87f8b5b8df617fb","condition":"full-information","relevant_dimensions":["antennae","pattern"],"bee_group":{"antennae":"B","wings":"X","pattern":"D","legs":"X"},"action":"harvest","summary":"good-harvest","bonus":1.7800000000000011},{"rt":800.8999999910593,"stimulus":"\n                    <p><b>Action: <em>harvest</em></b></p>\n                    <p>This is the bee that you just saw.</p>\n                    <img src=\"bees-with-color/bee-A2SF.svg\" width=\"200\">\n                    <p><span class=\"greenText\"><b>Successful harvest!</b></span><br>Your pay has increased by $0.02. Your bonus pay is now $1.30.</p>\n            ","response":0,"trial_type":"html-button-response","trial_index":134,"time_elapsed":455290,"internal_node_id":"0.0-4.0-1.63","subject_id":"5eeb8ccf11363a0c145d40c8","study_id":"6197b3f67c2b5cd3b6d9596a","session_id":"6197b576d87f8b5b8df617fb","condition":"full-information","relevant_dimensions":["antennae","pattern"],"bee_group":{"antennae":"B","wings":"X","pattern":"D","legs":"X"},"bonus":1.7800000000000011},{"rt":8483.40000000596,"stimulus":"You have completed the first part of this experiment.<br><br>You will now begin a shorter second part, in which you will receive no feedback.<br>The same rules regarding bonus pay apply.<br><br>Press any key to begin.","response":"enter","trial_type":"html-keyboard-response","trial_index":135,"time_elapsed":463774,"internal_node_id":"0.0-5.0","subject_id":"5eeb8ccf11363a0c145d40c8","study_id":"6197b3f67c2b5cd3b6d9596a","session_id":"6197b576d87f8b5b8df617fb","condition":"full-information","relevant_dimensions":["antennae","pattern"],"bee_group":{"antennae":"B","wings":"X","pattern":"D","legs":"X"},"bonus":1.7800000000000011},{"rt":2474,"stimulus":"bees-with-color/bee-B1SM.svg","response":0,"trial_type":"image-button-response","trial_index":136,"time_elapsed":466256,"internal_node_id":"0.0-6.0-0.0","subject_id":"5eeb8ccf11363a0c145d40c8","study_id":"6197b3f67c2b5cd3b6d9596a","session_id":"6197b576d87f8b5b8df617fb","condition":"full-information","relevant_dimensions":["antennae","pattern"],"bee_group":{"antennae":"B","wings":"X","pattern":"D","legs":"X"},"bonus":1.7800000000000011},{"rt":1390.7000000029802,"stimulus":"bees-with-color/bee-A2SF.svg","response":0,"trial_type":"image-button-response","trial_index":137,"time_elapsed":467648,"internal_node_id":"0.0-6.0-0.1","subject_id":"5eeb8ccf11363a0c145d40c8","study_id":"6197b3f67c2b5cd3b6d9596a","session_id":"6197b576d87f8b5b8df617fb","condition":"full-information","relevant_dimensions":["antennae","pattern"],"bee_group":{"antennae":"B","wings":"X","pattern":"D","legs":"X"},"bonus":1.7800000000000011},{"rt":768.3999999910593,"stimulus":"bees-with-color/bee-B2SM.svg","response":0,"trial_type":"image-button-response","trial_index":138,"time_elapsed":468418,"internal_node_id":"0.0-6.0-0.2","subject_id":"5eeb8ccf11363a0c145d40c8","study_id":"6197b3f67c2b5cd3b6d9596a","session_id":"6197b576d87f8b5b8df617fb","condition":"full-information","relevant_dimensions":["antennae","pattern"],"bee_group":{"antennae":"B","wings":"X","pattern":"D","legs":"X"},"bonus":1.7800000000000011},{"rt":1220.4000000059605,"stimulus":"bees-with-color/bee-B2DF.svg","response":1,"trial_type":"image-button-response","trial_index":139,"time_elapsed":469640,"internal_node_id":"0.0-6.0-0.3","subject_id":"5eeb8ccf11363a0c145d40c8","study_id":"6197b3f67c2b5cd3b6d9596a","session_id":"6197b576d87f8b5b8df617fb","condition":"full-information","relevant_dimensions":["antennae","pattern"],"bee_group":{"antennae":"B","wings":"X","pattern":"D","legs":"X"},"bonus":1.7800000000000011},{"rt":954.5,"stimulus":"bees-with-color/bee-B2SF.svg","response":0,"trial_type":"image-button-response","trial_index":140,"time_elapsed":470596,"internal_node_id":"0.0-6.0-0.4","subject_id":"5eeb8ccf11363a0c145d40c8","study_id":"6197b3f67c2b5cd3b6d9596a","session_id":"6197b576d87f8b5b8df617fb","condition":"full-information","relevant_dimensions":["antennae","pattern"],"bee_group":{"antennae":"B","wings":"X","pattern":"D","legs":"X"},"bonus":1.7800000000000011},{"rt":1072.5,"stimulus":"bees-with-color/bee-B1DM.svg","response":1,"trial_type":"image-button-response","trial_index":141,"time_elapsed":471670,"internal_node_id":"0.0-6.0-0.5","subject_id":"5eeb8ccf11363a0c145d40c8","study_id":"6197b3f67c2b5cd3b6d9596a","session_id":"6197b576d87f8b5b8df617fb","condition":"full-information","relevant_dimensions":["antennae","pattern"],"bee_group":{"antennae":"B","wings":"X","pattern":"D","legs":"X"},"bonus":1.7800000000000011},{"rt":1056.5,"stimulus":"bees-with-color/bee-A1DM.svg","response":0,"trial_type":"image-button-response","trial_index":142,"time_elapsed":472728,"internal_node_id":"0.0-6.0-0.6","subject_id":"5eeb8ccf11363a0c145d40c8","study_id":"6197b3f67c2b5cd3b6d9596a","session_id":"6197b576d87f8b5b8df617fb","condition":"full-information","relevant_dimensions":["antennae","pattern"],"bee_group":{"antennae":"B","wings":"X","pattern":"D","legs":"X"},"bonus":1.7800000000000011},{"rt":854.7000000029802,"stimulus":"bees-with-color/bee-A1SF.svg","response":0,"trial_type":"image-button-response","trial_index":143,"time_elapsed":473584,"internal_node_id":"0.0-6.0-0.7","subject_id":"5eeb8ccf11363a0c145d40c8","study_id":"6197b3f67c2b5cd3b6d9596a","session_id":"6197b576d87f8b5b8df617fb","condition":"full-information","relevant_dimensions":["antennae","pattern"],"bee_group":{"antennae":"B","wings":"X","pattern":"D","legs":"X"},"bonus":1.7800000000000011},{"rt":1062.5,"stimulus":"bees-with-color/bee-A2DM.svg","response":0,"trial_type":"image-button-response","trial_index":144,"time_elapsed":474648,"internal_node_id":"0.0-6.0-0.8","subject_id":"5eeb8ccf11363a0c145d40c8","study_id":"6197b3f67c2b5cd3b6d9596a","session_id":"6197b576d87f8b5b8df617fb","condition":"full-information","relevant_dimensions":["antennae","pattern"],"bee_group":{"antennae":"B","wings":"X","pattern":"D","legs":"X"},"bonus":1.7800000000000011},{"rt":768.1000000089407,"stimulus":"bees-with-color/bee-A1SM.svg","response":0,"trial_type":"image-button-response","trial_index":145,"time_elapsed":475418,"internal_node_id":"0.0-6.0-0.9","subject_id":"5eeb8ccf11363a0c145d40c8","study_id":"6197b3f67c2b5cd3b6d9596a","session_id":"6197b576d87f8b5b8df617fb","condition":"full-information","relevant_dimensions":["antennae","pattern"],"bee_group":{"antennae":"B","wings":"X","pattern":"D","legs":"X"},"bonus":1.7800000000000011},{"rt":978.5999999940395,"stimulus":"bees-with-color/bee-B1DF.svg","response":1,"trial_type":"image-button-response","trial_index":146,"time_elapsed":476398,"internal_node_id":"0.0-6.0-0.10","subject_id":"5eeb8ccf11363a0c145d40c8","study_id":"6197b3f67c2b5cd3b6d9596a","session_id":"6197b576d87f8b5b8df617fb","condition":"full-information","relevant_dimensions":["antennae","pattern"],"bee_group":{"antennae":"B","wings":"X","pattern":"D","legs":"X"},"bonus":1.7800000000000011},{"rt":1042.4000000059605,"stimulus":"bees-with-color/bee-B1SF.svg","response":0,"trial_type":"image-button-response","trial_index":147,"time_elapsed":477442,"internal_node_id":"0.0-6.0-0.11","subject_id":"5eeb8ccf11363a0c145d40c8","study_id":"6197b3f67c2b5cd3b6d9596a","session_id":"6197b576d87f8b5b8df617fb","condition":"full-information","relevant_dimensions":["antennae","pattern"],"bee_group":{"antennae":"B","wings":"X","pattern":"D","legs":"X"},"bonus":1.7800000000000011},{"rt":1032.6000000089407,"stimulus":"bees-with-color/bee-A2DF.svg","response":0,"trial_type":"image-button-response","trial_index":148,"time_elapsed":478476,"internal_node_id":"0.0-6.0-0.12","subject_id":"5eeb8ccf11363a0c145d40c8","study_id":"6197b3f67c2b5cd3b6d9596a","session_id":"6197b576d87f8b5b8df617fb","condition":"full-information","relevant_dimensions":["antennae","pattern"],"bee_group":{"antennae":"B","wings":"X","pattern":"D","legs":"X"},"bonus":1.7800000000000011},{"rt":962.7000000029802,"stimulus":"bees-with-color/bee-A1DF.svg","response":0,"trial_type":"image-button-response","trial_index":149,"time_elapsed":479440,"internal_node_id":"0.0-6.0-0.13","subject_id":"5eeb8ccf11363a0c145d40c8","study_id":"6197b3f67c2b5cd3b6d9596a","session_id":"6197b576d87f8b5b8df617fb","condition":"full-information","relevant_dimensions":["antennae","pattern"],"bee_group":{"antennae":"B","wings":"X","pattern":"D","legs":"X"},"bonus":1.7800000000000011},{"rt":784.2999999970198,"stimulus":"bees-with-color/bee-A2SM.svg","response":0,"trial_type":"image-button-response","trial_index":150,"time_elapsed":480226,"internal_node_id":"0.0-6.0-0.14","subject_id":"5eeb8ccf11363a0c145d40c8","study_id":"6197b3f67c2b5cd3b6d9596a","session_id":"6197b576d87f8b5b8df617fb","condition":"full-information","relevant_dimensions":["antennae","pattern"],"bee_group":{"antennae":"B","wings":"X","pattern":"D","legs":"X"},"bonus":1.7800000000000011},{"rt":922.5,"stimulus":"bees-with-color/bee-B2DM.svg","response":1,"trial_type":"image-button-response","trial_index":151,"time_elapsed":481150,"internal_node_id":"0.0-6.0-0.15","subject_id":"5eeb8ccf11363a0c145d40c8","study_id":"6197b3f67c2b5cd3b6d9596a","session_id":"6197b576d87f8b5b8df617fb","condition":"full-information","relevant_dimensions":["antennae","pattern"],"bee_group":{"antennae":"B","wings":"X","pattern":"D","legs":"X"},"bonus":1.7800000000000011},{"rt":830.9000000059605,"stimulus":"bees-with-color/bee-B2DF.svg","response":1,"trial_type":"image-button-response","trial_index":152,"time_elapsed":481982,"internal_node_id":"0.0-6.0-0.16","subject_id":"5eeb8ccf11363a0c145d40c8","study_id":"6197b3f67c2b5cd3b6d9596a","session_id":"6197b576d87f8b5b8df617fb","condition":"full-information","relevant_dimensions":["antennae","pattern"],"bee_group":{"antennae":"B","wings":"X","pattern":"D","legs":"X"},"bonus":1.7800000000000011},{"rt":1142.800000011921,"stimulus":"bees-with-color/bee-B2DM.svg","response":1,"trial_type":"image-button-response","trial_index":153,"time_elapsed":483126,"internal_node_id":"0.0-6.0-0.17","subject_id":"5eeb8ccf11363a0c145d40c8","study_id":"6197b3f67c2b5cd3b6d9596a","session_id":"6197b576d87f8b5b8df617fb","condition":"full-information","relevant_dimensions":["antennae","pattern"],"bee_group":{"antennae":"B","wings":"X","pattern":"D","legs":"X"},"bonus":1.7800000000000011},{"rt":1156.7999999970198,"stimulus":"bees-with-color/bee-B2SM.svg","response":0,"trial_type":"image-button-response","trial_index":154,"time_elapsed":484284,"internal_node_id":"0.0-6.0-0.18","subject_id":"5eeb8ccf11363a0c145d40c8","study_id":"6197b3f67c2b5cd3b6d9596a","session_id":"6197b576d87f8b5b8df617fb","condition":"full-information","relevant_dimensions":["antennae","pattern"],"bee_group":{"antennae":"B","wings":"X","pattern":"D","legs":"X"},"bonus":1.7800000000000011},{"rt":1258.7000000029802,"stimulus":"bees-with-color/bee-A2DF.svg","response":0,"trial_type":"image-button-response","trial_index":155,"time_elapsed":485544,"internal_node_id":"0.0-6.0-0.19","subject_id":"5eeb8ccf11363a0c145d40c8","study_id":"6197b3f67c2b5cd3b6d9596a","session_id":"6197b576d87f8b5b8df617fb","condition":"full-information","relevant_dimensions":["antennae","pattern"],"bee_group":{"antennae":"B","wings":"X","pattern":"D","legs":"X"},"bonus":1.7800000000000011},{"rt":1430.7999999970198,"stimulus":"bees-with-color/bee-A1DM.svg","response":0,"trial_type":"image-button-response","trial_index":156,"time_elapsed":486976,"internal_node_id":"0.0-6.0-0.20","subject_id":"5eeb8ccf11363a0c145d40c8","study_id":"6197b3f67c2b5cd3b6d9596a","