[{"success":true,"trial_type":"fullscreen","trial_index":0,"time_elapsed":78974,"internal_node_id":"0.0-0.0","subject_id":"5f034a2302f4ca23d764cdef","study_id":"60edd13110225f80f9f3709b","session_id":"6196bf622a672cc10028cdc1","condition":"contingent","relevant_dimensions":["antennae","pattern"],"bee_group":{"antennae":"B","wings":"X","pattern":"D","legs":"X"},"bonus":1.180000000000001},{"success":true,"timeout":false,"failed_images":[],"failed_audio":[],"failed_video":[],"trial_type":"preload","trial_index":1,"time_elapsed":82333,"internal_node_id":"0.0-1.0","subject_id":"5f034a2302f4ca23d764cdef","study_id":"60edd13110225f80f9f3709b","session_id":"6196bf622a672cc10028cdc1","condition":"contingent","relevant_dimensions":["antennae","pattern"],"bee_group":{"antennae":"B","wings":"X","pattern":"D","legs":"X"},"bonus":1.180000000000001},{"rt":21258.700000047684,"stimulus":"Welcome! Press any key to begin.","response":" ","trial_type":"html-keyboard-response","trial_index":2,"time_elapsed":103594,"internal_node_id":"0.0-2.0","subject_id":"5f034a2302f4ca23d764cdef","study_id":"60edd13110225f80f9f3709b","session_id":"6196bf622a672cc10028cdc1","condition":"contingent","relevant_dimensions":["antennae","pattern"],"bee_group":{"antennae":"B","wings":"X","pattern":"D","legs":"X"},"bonus":1.180000000000001},{"view_history":[{"page_index":0,"viewing_time":2194.100000023842},{"page_index":1,"viewing_time":8201.899999976158},{"page_index":2,"viewing_time":7743.100000023842},{"page_index":3,"viewing_time":9430.600000023842},{"page_index":4,"viewing_time":3571.899999976158},{"page_index":5,"viewing_time":5807.800000011921},{"page_index":6,"viewing_time":5371.099999964237},{"page_index":7,"viewing_time":5698.300000011921},{"page_index":6,"viewing_time":3176.800000011921},{"page_index":7,"viewing_time":2004.199999988079},{"page_index":8,"viewing_time":2489.300000011921},{"page_index":9,"viewing_time":1240.199999988079},{"page_index":8,"viewing_time":3070.600000023842},{"page_index":9,"viewing_time":2182.300000011921},{"page_index":10,"viewing_time":1412.2999999523163},{"page_index":9,"viewing_time":377.60000002384186},{"page_index":8,"viewing_time":37763},{"page_index":9,"viewing_time":10618.800000011921},{"page_index":10,"viewing_time":6408.899999976158},{"page_index":11,"viewing_time":6134.5},{"page_index":12,"viewing_time":4496.699999988079},{"page_index":13,"viewing_time":1555.6000000238419},{"page_index":14,"viewing_time":1682.5}],"rt":132632.70000004768,"trial_type":"instructions","trial_index":3,"time_elapsed":236227,"internal_node_id":"0.0-3.0-0.0","subject_id":"5f034a2302f4ca23d764cdef","study_id":"60edd13110225f80f9f3709b","session_id":"6196bf622a672cc10028cdc1","condition":"contingent","relevant_dimensions":["antennae","pattern"],"bee_group":{"antennae":"B","wings":"X","pattern":"D","legs":"X"},"bonus":1.180000000000001},{"rt":9235.400000035763,"response":{"Q0":["Two or six legs","Stripes or spots on body","Single or double wings","Antennae or no antennae"]},"question_order":[0],"trial_type":"survey-multi-select","trial_index":4,"time_elapsed":245475,"internal_node_id":"0.0-3.0-1.0","subject_id":"5f034a2302f4ca23d764cdef","study_id":"60edd13110225f80f9f3709b","session_id":"6196bf622a672cc10028cdc1","condition":"contingent","relevant_dimensions":["antennae","pattern"],"bee_group":{"antennae":"B","wings":"X","pattern":"D","legs":"X"},"correct":true,"bonus":1.180000000000001},{"rt":14686.800000011921,"response":{"Q1":"No.","Q2":"Based on the four features of the bee.","Q3":"You do not learn if it was friendly or dangerous, and do not alter your bonus."},"question_order":[0,1,2],"trial_type":"survey-multi-choice","trial_index":5,"time_elapsed":260165,"internal_node_id":"0.0-3.0-2.0","subject_id":"5f034a2302f4ca23d764cdef","study_id":"60edd13110225f80f9f3709b","session_id":"6196bf622a672cc10028cdc1","condition":"contingent","relevant_dimensions":["antennae","pattern"],"bee_group":{"antennae":"B","wings":"X","pattern":"D","legs":"X"},"correct":true,"bonus":1.180000000000001},{"rt":3010.199999988079,"stimulus":"<p>Congrats, you got everything right<br>When you're ready, click the button below to continue to the experiment.</p>","response":0,"trial_type":"html-button-response","trial_index":6,"time_elapsed":263180,"internal_node_id":"0.0-3.0-3.0","subject_id":"5f034a2302f4ca23d764cdef","study_id":"60edd13110225f80f9f3709b","session_id":"6196bf622a672cc10028cdc1","condition":"contingent","relevant_dimensions":["antennae","pattern"],"bee_group":{"antennae":"B","wings":"X","pattern":"D","legs":"X"},"bonus":1.180000000000001},{"rt":3800.600000023842,"stimulus":"bees-with-color/bee-B1DF.svg","response":1,"trial_type":"image-button-response","trial_index":7,"time_elapsed":266989,"internal_node_id":"0.0-4.0-0.0","subject_id":"5f034a2302f4ca23d764cdef","study_id":"60edd13110225f80f9f3709b","session_id":"6196bf622a672cc10028cdc1","condition":"contingent","relevant_dimensions":["antennae","pattern"],"bee_group":{"antennae":"B","wings":"X","pattern":"D","legs":"X"},"action":"avoid","summary":"good-avoid","bonus":1.180000000000001},{"rt":2847,"stimulus":"\n                    <p><b>Action: <em>avoid</em></b></p>\n                    <p>This is the bee that you just saw.</p>\n                    <img src=\"bees-with-color/bee-B1DF.svg\" width=\"200\">\n                    <p><br>Your bonus pay is unchanged, and remains at $0.54.</p>\n            ","response":0,"trial_type":"html-button-response","trial_index":8,"time_elapsed":269844,"internal_node_id":"0.0-4.0-1.0","subject_id":"5f034a2302f4ca23d764cdef","study_id":"60edd13110225f80f9f3709b","session_id":"6196bf622a672cc10028cdc1","condition":"contingent","relevant_dimensions":["antennae","pattern"],"bee_group":{"antennae":"B","wings":"X","pattern":"D","legs":"X"},"bonus":1.180000000000001},{"rt":1590.8999999761581,"stimulus":"bees-with-color/bee-A1SF.svg","response":0,"trial_type":"image-button-response","trial_index":9,"time_elapsed":271442,"internal_node_id":"0.0-4.0-0.1","subject_id":"5f034a2302f4ca23d764cdef","study_id":"60edd13110225f80f9f3709b","session_id":"6196bf622a672cc10028cdc1","condition":"contingent","relevant_dimensions":["antennae","pattern"],"bee_group":{"antennae":"B","wings":"X","pattern":"D","legs":"X"},"action":"harvest","summary":"good-harvest","bonus":1.180000000000001},{"rt":20538.19999998808,"stimulus":"\n                    <p><b>Action: <em>harvest</em></b></p>\n                    <p>This is the bee that you just saw.</p>\n                    <img src=\"bees-with-color/bee-A1SF.svg\" width=\"200\">\n                    <p><span class=\"greenText\"><b>Successful harvest!</b></span><br>Your pay has increased by $0.02. Your bonus pay is now $0.56.</p>\n            ","response":0,"trial_type":"html-button-response","trial_index":10,"time_elapsed":291987,"internal_node_id":"0.0-4.0-1.1","subject_id":"5f034a2302f4ca23d764cdef","study_id":"60edd13110225f80f9f3709b","session_id":"6196bf622a672cc10028cdc1","condition":"contingent","relevant_dimensions":["antennae","pattern"],"bee_group":{"antennae":"B","wings":"X","pattern":"D","legs":"X"},"bonus":1.180000000000001},{"rt":3940.100000023842,"stimulus":"bees-with-color/bee-A2DF.svg","response":0,"trial_type":"image-button-response","trial_index":11,"time_elapsed":295929,"internal_node_id":"0.0-4.0-0.2","subject_id":"5f034a2302f4ca23d764cdef","study_id":"60edd13110225f80f9f3709b","session_id":"6196bf622a672cc10028cdc1","condition":"contingent","relevant_dimensions":["antennae","pattern"],"bee_group":{"antennae":"B","wings":"X","pattern":"D","legs":"X"},"action":"harvest","summary":"good-harvest","bonus":1.180000000000001},{"rt":16072,"stimulus":"\n                    <p><b>Action: <em>harvest</em></b></p>\n                    <p>This is the bee that you just saw.</p>\n                    <img src=\"bees-with-color/bee-A2DF.svg\" width=\"200\">\n                    <p><span class=\"greenText\"><b>Successful harvest!</b></span><br>Your pay has increased by $0.02. Your bonus pay is now $0.58.</p>\n            ","response":0,"trial_type":"html-button-response","trial_index":12,"time_elapsed":312005,"internal_node_id":"0.0-4.0-1.2","subject_id":"5f034a2302f4ca23d764cdef","study_id":"60edd13110225f80f9f3709b","session_id":"6196bf622a672cc10028cdc1","condition":"contingent","relevant_dimensions":["antennae","pattern"],"bee_group":{"antennae":"B","wings":"X","pattern":"D","legs":"X"},"bonus":1.180000000000001},{"rt":5511.399999976158,"stimulus":"bees-with-color/bee-A2DM.svg","response":0,"trial_type":"image-button-response","trial_index":13,"time_elapsed":317519,"internal_node_id":"0.0-4.0-0.3","subject_id":"5f034a2302f4ca23d764cdef","study_id":"60edd13110225f80f9f3709b","session_id":"6196bf622a672cc10028cdc1","condition":"contingent","relevant_dimensions":["antennae","pattern"],"bee_group":{"antennae":"B","wings":"X","pattern":"D","legs":"X"},"action":"harvest","summary":"good-harvest","bonus":1.180000000000001},{"rt":14141.599999964237,"stimulus":"\n                    <p><b>Action: <em>harvest</em></b></p>\n                    <p>This is the bee that you just saw.</p>\n                    <img src=\"bees-with-color/bee-A2DM.svg\" width=\"200\">\n                    <p><span class=\"greenText\"><b>Successful harvest!</b></span><br>Your pay has increased by $0.02. Your bonus pay is now $0.60.</p>\n            ","response":0,"trial_type":"html-button-response","trial_index":14,"time_elapsed":331666,"internal_node_id":"0.0-4.0-1.3","subject_id":"5f034a2302f4ca23d764cdef","study_id":"60edd13110225f80f9f3709b","session_id":"6196bf622a672cc10028cdc1","condition":"contingent","relevant_dimensions":["antennae","pattern"],"bee_group":{"antennae":"B","wings":"X","pattern":"D","legs":"X"},"bonus":1.180000000000001},{"rt":3278.800000011921,"stimulus":"bees-with-color/bee-B2SM.svg","response":0,"trial_type":"image-button-response","trial_index":15,"time_elapsed":334951,"internal_node_id":"0.0-4.0-0.4","subject_id":"5f034a2302f4ca23d764cdef","study_id":"60edd13110225f80f9f3709b","session_id":"6196bf622a672cc10028cdc1","condition":"contingent","relevant_dimensions":["antennae","pattern"],"bee_group":{"antennae":"B","wings":"X","pattern":"D","legs":"X"},"action":"harvest","summary":"good-harvest","bonus":1.180000000000001},{"rt":23782.099999964237,"stimulus":"\n                    <p><b>Action: <em>harvest</em></b></p>\n                    <p>This is the bee that you just saw.</p>\n                    <img src=\"bees-with-color/bee-B2SM.svg\" width=\"200\">\n                    <p><span class=\"greenText\"><b>Successful harvest!</b></span><br>Your pay has increased by $0.02. Your bonus pay is now $0.62.</p>\n            ","response":0,"trial_type":"html-button-response","trial_index":16,"time_elapsed":358738,"internal_node_id":"0.0-4.0-1.4","subject_id":"5f034a2302f4ca23d764cdef","study_id":"60edd13110225f80f9f3709b","session_id":"6196bf622a672cc10028cdc1","condition":"contingent","relevant_dimensions":["antennae","pattern"],"bee_group":{"antennae":"B","wings":"X","pattern":"D","legs":"X"},"bonus":1.180000000000001},{"rt":4678,"stimulus":"bees-with-color/bee-B2DM.svg","response":0,"trial_type":"image-button-response","trial_index":17,"time_elapsed":363418,"internal_node_id":"0.0-4.0-0.5","subject_id":"5f034a2302f4ca23d764cdef","study_id":"60edd13110225f80f9f3709b","session_id":"6196bf622a672cc10028cdc1","condition":"contingent","relevant_dimensions":["antennae","pattern"],"bee_group":{"antennae":"B","wings":"X","pattern":"D","legs":"X"},"action":"harvest","summary":"bad-harvest","bonus":1.180000000000001},{"rt":19955.30000001192,"stimulus":"\n                    <p><b>Action: <em>harvest</em></b></p>\n                    <p>This is the bee that you just saw.</p>\n                    <img src=\"bees-with-color/bee-B2DM.svg\" width=\"200\">\n                    <p><span class=\"redText\">Bad choice, the bee was angry.</span><br><b>You have been stung!</b><br>Your pay has been decreased by $0.10. Your bonus pay is now $0.52.</p>\n            ","response":0,"trial_type":"html-button-response","trial_index":18,"time_elapsed":383378,"internal_node_id":"0.0-4.0-1.5","subject_id":"5f034a2302f4ca23d764cdef","study_id":"60edd13110225f80f9f3709b","session_id":"6196bf622a672cc10028cdc1","condition":"contingent","relevant_dimensions":["antennae","pattern"],"bee_group":{"antennae":"B","wings":"X","pattern":"D","legs":"X"},"bonus":1.180000000000001},{"rt":5123.799999952316,"stimulus":"bees-with-color/bee-A2SF.svg","response":0,"trial_type":"image-button-response","trial_index":19,"time_elapsed":388506,"internal_node_id":"0.0-4.0-0.6","subject_id":"5f034a2302f4ca23d764cdef","study_id":"60edd13110225f80f9f3709b","session_id":"6196bf622a672cc10028cdc1","condition":"contingent","relevant_dimensions":["antennae","pattern"],"bee_group":{"antennae":"B","wings":"X","pattern":"D","legs":"X"},"action":"harvest","summary":"good-harvest","bonus":1.180000000000001},{"rt":12893.600000023842,"stimulus":"\n                    <p><b>Action: <em>harvest</em></b></p>\n                    <p>This is the bee that you just saw.</p>\n                    <img src=\"bees-with-color/bee-A2SF.svg\" width=\"200\">\n                    <p><span class=\"greenText\"><b>Successful harvest!</b></span><br>Your pay has increased by $0.02. Your bonus pay is now $0.54.</p>\n            ","response":0,"trial_type":"html-button-response","trial_index":20,"time_elapsed":401404,"internal_node_id":"0.0-4.0-1.6","subject_id":"5f034a2302f4ca23d764cdef","study_id":"60edd13110225f80f9f3709b","session_id":"6196bf622a672cc10028cdc1","condition":"contingent","relevant_dimensions":["antennae","pattern"],"bee_group":{"antennae":"B","wings":"X","pattern":"D","legs":"X"},"bonus":1.180000000000001},{"rt":3830.800000011921,"stimulus":"bees-with-color/bee-A2SM.svg","response":0,"trial_type":"image-button-response","trial_index":21,"time_elapsed":405238,"internal_node_id":"0.0-4.0-0.7","subject_id":"5f034a2302f4ca23d764cdef","study_id":"60edd13110225f80f9f3709b","session_id":"6196bf622a672cc10028cdc1","condition":"contingent","relevant_dimensions":["antennae","pattern"],"bee_group":{"antennae":"B","wings":"X","pattern":"D","legs":"X"},"action":"harvest","summary":"good-harvest","bonus":1.180000000000001},{"rt":10319.599999964237,"stimulus":"\n                    <p><b>Action: <em>harvest</em></b></p>\n                    <p>This is the bee that you just saw.</p>\n                    <img src=\"bees-with-color/bee-A2SM.svg\" width=\"200\">\n                    <p><span class=\"greenText\"><b>Successful harvest!</b></span><br>Your pay has increased by $0.02. Your bonus pay is now $0.56.</p>\n            ","response":0,"trial_type":"html-button-response","trial_index":22,"time_elapsed":415561,"internal_node_id":"0.0-4.0-1.7","subject_id":"5f034a2302f4ca23d764cdef","study_id":"60edd13110225f80f9f3709b","session_id":"6196bf622a672cc10028cdc1","condition":"contingent","relevant_dimensions":["antennae","pattern"],"bee_group":{"antennae":"B","wings":"X","pattern":"D","legs":"X"},"bonus":1.180000000000001},{"rt":6814.699999988079,"stimulus":"bees-with-color/bee-B2DF.svg","response":0,"trial_type":"image-button-response","trial_index":23,"time_elapsed":422380,"internal_node_id":"0.0-4.0-0.8","subject_id":"5f034a2302f4ca23d764cdef","study_id":"60edd13110225f80f9f3709b","session_id":"6196bf622a672cc10028cdc1","condition":"contingent","relevant_dimensions":["antennae","pattern"],"bee_group":{"antennae":"B","wings":"X","pattern":"D","legs":"X"},"action":"harvest","summary":"bad-harvest","bonus":1.180000000000001},{"rt":23182.899999976158,"stimulus":"\n                    <p><b>Action: <em>harvest</em></b></p>\n                    <p>This is the bee that you just saw.</p>\n                    <img src=\"bees-with-color/bee-B2DF.svg\" width=\"200\">\n                    <p><span class=\"redText\">Bad choice, the bee was angry.</span><br><b>You have been stung!</b><br>Your pay has been decreased by $0.10. Your bonus pay is now $0.46.</p>\n            ","response":0,"trial_type":"html-button-response","trial_index":24,"time_elapsed":445567,"internal_node_id":"0.0-4.0-1.8","subject_id":"5f034a2302f4ca23d764cdef","study_id":"60edd13110225f80f9f3709b","session_id":"6196bf622a672cc10028cdc1","condition":"contingent","relevant_dimensions":["antennae","pattern"],"bee_group":{"antennae":"B","wings":"X","pattern":"D","legs":"X"},"bonus":1.180000000000001},{"rt":4422.399999976158,"stimulus":"bees-with-color/bee-B1DM.svg","response":0,"trial_type":"image-button-response","trial_index":25,"time_elapsed":449995,"internal_node_id":"0.0-4.0-0.9","subject_id":"5f034a2302f4ca23d764cdef","study_id":"60edd13110225f80f9f3709b","session_id":"6196bf622a672cc10028cdc1","condition":"contingent","relevant_dimensions":["antennae","pattern"],"bee_group":{"antennae":"B","wings":"X","pattern":"D","legs":"X"},"action":"harvest","summary":"bad-harvest","bonus":1.180000000000001},{"rt":19004.30000001192,"stimulus":"\n                    <p><b>Action: <em>harvest</em></b></p>\n                    <p>This is the bee that you just saw.</p>\n                    <img src=\"bees-with-color/bee-B1DM.svg\" width=\"200\">\n                    <p><span class=\"redText\">Bad choice, the bee was angry.</span><br><b>You have been stung!</b><br>Your pay has been decreased by $0.10. Your bonus pay is now $0.36.</p>\n            ","response":0,"trial_type":"html-button-response","trial_index":26,"time_elapsed":469003,"internal_node_id":"0.0-4.0-1.9","subject_id":"5f034a2302f4ca23d764cdef","study_id":"60edd13110225f80f9f3709b","session_id":"6196bf622a672cc10028cdc1","condition":"contingent","relevant_dimensions":["antennae","pattern"],"bee_group":{"antennae":"B","wings":"X","pattern":"D","legs":"X"},"bonus":1.180000000000001},{"rt":3339,"stimulus":"bees-with-color/bee-A1SM.svg","response":0,"trial_type":"image-button-response","trial_index":27,"time_elapsed":472346,"internal_node_id":"0.0-4.0-0.10","subject_id":"5f034a2302f4ca23d764cdef","study_id":"60edd13110225f80f9f3709b","session_id":"6196bf622a672cc10028cdc1","condition":"contingent","relevant_dimensions":["antennae","pattern"],"bee_group":{"antennae":"B","wings":"X","pattern":"D","legs":"X"},"action":"harvest","summary":"good-harvest","bonus":1.180000000000001},{"rt":821.6000000238419,"stimulus":"\n                    <p><b>Action: <em>harvest</em></b></p>\n                    <p>This is the bee that you just saw.</p>\n                    <img src=\"bees-with-color/bee-A1SM.svg\" width=\"200\">\n                    <p><span class=\"greenText\"><b>Successful harvest!</b></span><br>Your pay has increased by $0.02. Your bonus pay is now $0.38.</p>\n            ","response":0,"trial_type":"html-button-response","trial_index":28,"time_elapsed":473170,"internal_node_id":"0.0-4.0-1.10","subject_id":"5f034a2302f4ca23d764cdef","study_id":"60edd13110225f80f9f3709b","session_id":"6196bf622a672cc10028cdc1","condition":"contingent","relevant_dimensions":["antennae","pattern"],"bee_group":{"antennae":"B","wings":"X","pattern":"D","legs":"X"},"bonus":1.180000000000001},{"rt":8492.5,"stimulus":"bees-with-color/bee-B2SF.svg","response":0,"trial_type":"image-button-response","trial_index":29,"time_elapsed":481664,"internal_node_id":"0.0-4.0-0.11","subject_id":"5f034a2302f4ca23d764cdef","study_id":"60edd13110225f80f9f3709b","session_id":"6196bf622a672cc10028cdc1","condition":"contingent","relevant_dimensions":["antennae","pattern"],"bee_group":{"antennae":"B","wings":"X","pattern":"D","legs":"X"},"action":"harvest","summary":"good-harvest","bonus":1.180000000000001},{"rt":2225.300000011921,"stimulus":"\n                    <p><b>Action: <em>harvest</em></b></p>\n                    <p>This is the bee that you just saw.</p>\n                    <img src=\"bees-with-color/bee-B2SF.svg\" width=\"200\">\n                    <p><span class=\"greenText\"><b>Successful harvest!</b></span><br>Your pay has increased by $0.02. Your bonus pay is now $0.40.</p>\n            ","response":0,"trial_type":"html-button-response","trial_index":30,"time_elapsed":483894,"internal_node_id":"0.0-4.0-1.11","subject_id":"5f034a2302f4ca23d764cdef","study_id":"60edd13110225f80f9f3709b","session_id":"6196bf622a672cc10028cdc1","condition":"contingent","relevant_dimensions":["antennae","pattern"],"bee_group":{"antennae":"B","wings":"X","pattern":"D","legs":"X"},"bonus":1.180000000000001},{"rt":7239.299999952316,"stimulus":"bees-with-color/bee-A1DF.svg","response":0,"trial_type":"image-button-response","trial_index":31,"time_elapsed":491139,"internal_node_id":"0.0-4.0-0.12","subject_id":"5f034a2302f4ca23d764cdef","study_id":"60edd13110225f80f9f3709b","session_id":"6196bf622a672cc10028cdc1","condition":"contingent","relevant_dimensions":["antennae","pattern"],"bee_group":{"antennae":"B","wings":"X","pattern":"D","legs":"X"},"action":"harvest","summary":"good-harvest","bonus":1.180000000000001},{"rt":12574.899999976158,"stimulus":"\n                    <p><b>Action: <em>harvest</em></b></p>\n                    <p>This is the bee that you just saw.</p>\n                    <img src=\"bees-with-color/bee-A1DF.svg\" width=\"200\">\n                    <p><span class=\"greenText\"><b>Successful harvest!</b></span><br>Your pay has increased by $0.02. Your bonus pay is now $0.42.</p>\n            ","response":0,"trial_type":"html-button-response","trial_index":32,"time_elapsed":503717,"internal_node_id":"0.0-4.0-1.12","subject_id":"5f034a2302f4ca23d764cdef","study_id":"60edd13110225f80f9f3709b","session_id":"6196bf622a672cc10028cdc1","condition":"contingent","relevant_dimensions":["antennae","pattern"],"bee_group":{"antennae":"B","wings":"X","pattern":"D","legs":"X"},"bonus":1.180000000000001},{"rt":9557.300000011921,"stimulus":"bees-with-color/bee-B1SF.svg","response":0,"trial_type":"image-button-response","trial_index":33,"time_elapsed":513277,"internal_node_id":"0.0-4.0-0.13","subject_id":"5f034a2302f4ca23d764cdef","study_id":"60edd13110225f80f9f3709b","session_id":"6196bf622a672cc10028cdc1","condition":"contingent","relevant_dimensions":["antennae","pattern"],"bee_group":{"antennae":"B","wings":"X","pattern":"D","legs":"X"},"action":"harvest","summary":"good-harvest","bonus":1.180000000000001},{"rt":9810.099999964237,"stimulus":"\n                    <p><b>Action: <em>harvest</em></b></p>\n                    <p>This is the bee that you just saw.</p>\n                    <img src=\"bees-with-color/bee-B1SF.svg\" width=\"200\">\n                    <p><span class=\"greenText\"><b>Successful harvest!</b></span><br>Your pay has increased by $0.02. Your bonus pay is now $0.44.</p>\n            ","response":0,"trial_type":"html-button-response","trial_index":34,"time_elapsed":523092,"internal_node_id":"0.0-4.0-1.13","subject_id":"5f034a2302f4ca23d764cdef","study_id":"60edd13110225f80f9f3709b","session_id":"6196bf622a672cc10028cdc1","condition":"contingent","relevant_dimensions":["antennae","pattern"],"bee_group":{"antennae":"B","wings":"X","pattern":"D","legs":"X"},"bonus":1.180000000000001},{"rt":6994.099999964237,"stimulus":"bees-with-color/bee-A1DM.svg","response":0,"trial_type":"image-button-response","trial_index":35,"time_elapsed":530089,"internal_node_id":"0.0-4.0-0.14","subject_id":"5f034a2302f4ca23d764cdef","study_id":"60edd13110225f80f9f3709b","session_id":"6196bf622a672cc10028cdc1","condition":"contingent","relevant_dimensions":["antennae","pattern"],"bee_group":{"antennae":"B","wings":"X","pattern":"D","legs":"X"},"action":"harvest","summary":"good-harvest","bonus":1.180000000000001},{"rt":1301,"stimulus":"\n                    <p><b>Action: <em>harvest</em></b></p>\n                    <p>This is the bee that you just saw.</p>\n                    <img src=\"bees-with-color/bee-A1DM.svg\" width=\"200\">\n                    <p><span class=\"greenText\"><b>Successful harvest!</b></span><br>Your pay has increased by $0.02. Your bonus pay is now $0.46.</p>\n            ","response":0,"trial_type":"html-button-response","trial_index":36,"time_elapsed":531393,"internal_node_id":"0.0-4.0-1.14","subject_id":"5f034a2302f4ca23d764cdef","study_id":"60edd13110225f80f9f3709b","session_id":"6196bf622a672cc10028cdc1","condition":"contingent","relevant_dimensions":["antennae","pattern"],"bee_group":{"antennae":"B","wings":"X","pattern":"D","legs":"X"},"bonus":1.180000000000001},{"rt":14529.699999988079,"stimulus":"bees-with-color/bee-B1SM.svg","response":1,"trial_type":"image-button-response","trial_index":37,"time_elapsed":545929,"internal_node_id":"0.0-4.0-0.15","subject_id":"5f034a2302f4ca23d764cdef","study_id":"60edd13110225f80f9f3709b","session_id":"6196bf622a672cc10028cdc1","condition":"contingent","relevant_dimensions":["antennae","pattern"],"bee_group":{"antennae":"B","wings":"X","pattern":"D","legs":"X"},"action":"avoid","summary":"bad-avoid","bonus":1.180000000000001},{"rt":3188.699999988079,"stimulus":"\n                    <p><b>Action: <em>avoid</em></b></p>\n                    <p>This is the bee that you just saw.</p>\n                    <img src=\"bees-with-color/bee-B1SM.svg\" width=\"200\">\n                    <p><br>Your bonus pay is unchanged, and remains at $0.46.</p>\n            ","response":0,"trial_type":"html-button-response","trial_index":38,"time_elapsed":549120,"internal_node_id":"0.0-4.0-1.15","subject_id":"5f034a2302f4ca23d764cdef","study_id":"60edd13110225f80f9f3709b","session_id":"6196bf622a672cc10028cdc1","condition":"contingent","relevant_dimensions":["antennae","pattern"],"bee_group":{"antennae":"B","wings":"X","pattern":"D","legs":"X"},"bonus":1.180000000000001},{"rt":10253,"stimulus":"bees-with-color/bee-B1DF.svg","response":1,"trial_type":"image-button-response","trial_index":39,"time_elapsed":559378,"internal_node_id":"0.0-4.0-0.16","subject_id":"5f034a2302f4ca23d764cdef","study_id":"60edd13110225f80f9f3709b","session_id":"6196bf622a672cc10028cdc1","condition":"contingent","relevant_dimensions":["antennae","pattern"],"bee_group":{"antennae":"B","wings":"X","pattern":"D","legs":"X"},"action":"avoid","summary":"good-avoid","bonus":1.180000000000001},{"rt":1273,"stimulus":"\n                    <p><b>Action: <em>avoid</em></b></p>\n                    <p>This is the bee that you just saw.</p>\n                    <img src=\"bees-with-color/bee-B1DF.svg\" width=\"200\">\n                    <p><br>Your bonus pay is unchanged, and remains at $0.46.</p>\n            ","response":0,"trial_type":"html-button-response","trial_index":40,"time_elapsed":560654,"internal_node_id":"0.0-4.0-1.16","subject_id":"5f034a2302f4ca23d764cdef","study_id":"60edd13110225f80f9f3709b","session_id":"6196bf622a672cc10028cdc1","condition":"contingent","relevant_dimensions":["antennae","pattern"],"bee_group":{"antennae":"B","wings":"X","pattern":"D","legs":"X"},"bonus":1.180000000000001},{"rt":2494.7999999523163,"stimulus":"bees-with-color/bee-A2DM.svg","response":0,"trial_type":"image-button-response","trial_index":41,"time_elapsed":563154,"internal_node_id":"0.0-4.0-0.17","subject_id":"5f034a2302f4ca23d764cdef","study_id":"60edd13110225f80f9f3709b","session_id":"6196bf622a672cc10028cdc1","condition":"contingent","relevant_dimensions":["antennae","pattern"],"bee_group":{"antennae":"B","wings":"X","pattern":"D","legs":"X"},"action":"harvest","summary":"good-harvest","bonus":1.180000000000001},{"rt":1274.0999999642372,"stimulus":"\n                    <p><b>Action: <em>harvest</em></b></p>\n                    <p>This is the bee that you just saw.</p>\n                    <img src=\"bees-with-color/bee-A2DM.svg\" width=\"200\">\n                    <p><span class=\"greenText\"><b>Successful harvest!</b></span><br>Your pay has increased by $0.02. Your bonus pay is now $0.48.</p>\n            ","response":0,"trial_type":"html-button-response","trial_index":42,"time_elapsed":564431,"internal_node_id":"0.0-4.0-1.17","subject_id":"5f034a2302f4ca23d764cdef","study_id":"60edd13110225f80f9f3709b","session_id":"6196bf622a672cc10028cdc1","condition":"contingent","relevant_dimensions":["antennae","pattern"],"bee_group":{"antennae":"B","wings":"X","pattern":"D","legs":"X"},"bonus":1.180000000000001},{"rt":2713.599999964237,"stimulus":"bees-with-color/bee-B1DM.svg","response":1,"trial_type":"image-button-response","trial_index":43,"time_elapsed":567148,"internal_node_id":"0.0-4.0-0.18","subject_id":"5f034a2302f4ca23d764cdef","study_id":"60edd13110225f80f9f3709b","session_id":"6196bf622a672cc10028cdc1","condition":"contingent","relevant_dimensions":["antennae","pattern"],"bee_group":{"antennae":"B","wings":"X","pattern":"D","legs":"X"},"action":"avoid","summary":"good-avoid","bonus":1.180000000000001},{"rt":1385,"stimulus":"\n                    <p><b>Action: <em>avoid</em></b></p>\n                    <p>This is the bee that you just saw.</p>\n                    <img src=\"bees-with-color/bee-B1DM.svg\" width=\"200\">\n                    <p><br>Your bonus pay is unchanged, and remains at $0.48.</p>\n            ","response":0,"trial_type":"html-button-response","trial_index":44,"time_elapsed":568535,"internal_node_id":"0.0-4.0-1.18","subject_id":"5f034a2302f4ca23d764cdef","study_id":"60edd13110225f80f9f3709b","session_id":"6196bf622a672cc10028cdc1","condition":"contingent","relevant_dimensions":["antennae","pattern"],"bee_group":{"antennae":"B","wings":"X","pattern":"D","legs":"X"},"bonus":1.180000000000001},{"rt":15697.300000011921,"stimulus":"bees-with-color/bee-B1SM.svg","response":0,"trial_type":"image-button-response","trial_index":45,"time_elapsed":584237,"internal_node_id":"0.0-4.0-0.19","subject_id":"5f034a2302f4ca23d764cdef","study_id":"60edd13110225f80f9f3709b","session_id":"6196bf622a672cc10028cdc1","condition":"contingent","relevant_dimensions":["antennae","pattern"],"bee_group":{"antennae":"B","wings":"X","pattern":"D","legs":"X"},"action":"harvest","summary":"good-harvest","bonus":1.180000000000001},{"rt":1059,"stimulus":"\n                    <p><b>Action: <em>harvest</em></b></p>\n                    <p>This is the bee that you just saw.</p>\n                    <img src=\"bees-with-color/bee-B1SM.svg\" width=\"200\">\n                    <p><span class=\"greenText\"><b>Successful harvest!</b></span><br>Your pay has increased by $0.02. Your bonus pay is now $0.50.</p>\n            ","response":0,"trial_type":"html-button-response","trial_index":46,"time_elapsed":585299,"internal_node_id":"0.0-4.0-1.19","subject_id":"5f034a2302f4ca23d764cdef","study_id":"60edd13110225f80f9f3709b","session_id":"6196bf622a672cc10028cdc1","condition":"contingent","relevant_dimensions":["antennae","pattern"],"bee_group":{"antennae":"B","wings":"X","pattern":"D","legs":"X"},"bonus":1.180000000000001},{"rt":6196.799999952316,"stimulus":"bees-with-color/bee-B2SF.svg","response":0,"trial_type":"image-button-response","trial_index":47,"time_elapsed":591501,"internal_node_id":"0.0-4.0-0.20","subject_id":"5f034a2302f4ca23d764cdef","study_id":"60edd13110225f80f9f3709b","session_id":"6196bf622a672cc10028cdc1","condition":"contingent","relevant_dimensions":["antennae","pattern"],"bee_group":{"antennae":"B","wings":"X","pattern":"D","legs":"X"},"action":"harvest","summary":"good-harvest","bonus":1.180000000000001},{"rt":1105,"stimulus":"\n                    <p><b>Action: <em>harvest</em></b></p>\n                    <p>This is the bee that you just saw.</p>\n                    <img src=\"bees-with-color/bee-B2SF.svg\" width=\"200\">\n                    <p><span class=\"greenText\"><b>Successful harvest!</b></span><br>Your pay has increased by $0.02. Your bonus pay is now $0.52.</p>\n            ","response":0,"trial_type":"html-button-response","trial_index":48,"time_elapsed":592610,"internal_node_id":"0.0-4.0-1.20","subject_id":"5f034a2302f4ca23d764cdef","study_id":"60edd13110225f80f9f3709b","session_id":"6196bf622a672cc10028cdc1","condition":"contingent","relevant_dimensions":["antennae","pattern"],"bee_group":{"antennae":"B","wings":"X","pattern":"D","legs":"X"},"bonus":1.180000000000001},{"rt":3554.800000011921,"stimulus":"bees-with-color/bee-A2SM.svg","response":0,"trial_type":"image-button-response","trial_index":49,"time_elapsed":596170,"internal_node_id":"0.0-4.0-0.21","subject_id":"5f034a2302f4ca23d764cdef","study_id":"60edd13110225f80f9f3709b","session_id":"6196bf622a672cc10028cdc1","condition":"contingent","relevant_dimensions":["antennae","pattern"],"bee_group":{"antennae":"B","wings":"X","pattern":"D","legs":"X"},"action":"harvest","summary":"good-harvest","bonus":1.180000000000001},{"rt":1318,"stimulus":"\n                    <p><b>Action: <em>harvest</em></b></p>\n                    <p>This is the bee that you just saw.</p>\n                    <img src=\"bees-with-color/bee-A2SM.svg\" width=\"200\">\n                    <p><span class=\"greenText\"><b>Successful harvest!</b></span><br>Your pay has increased by $0.02. Your bonus pay is now $0.54.</p>\n            ","response":0,"trial_type":"html-button-response","trial_index":50,"time_elapsed":597493,"internal_node_id":"0.0-4.0-1.21","subject_id":"5f034a2302f4ca23d764cdef","study_id":"60edd13110225f80f9f3709b","session_id":"6196bf622a672cc10028cdc1","condition":"contingent","relevant_dimensions":["antennae","pattern"],"bee_group":{"antennae":"B","wings":"X","pattern":"D","legs":"X"},"bonus":1.180000000000001},{"rt":2065,"stimulus":"bees-with-color/bee-A2SF.svg","response":1,"trial_type":"image-button-response","trial_index":51,"time_elapsed":599563,"internal_node_id":"0.0-4.0-0.22","subject_id":"5f034a2302f4ca23d764cdef","study_id":"60edd13110225f80f9f3709b","session_id":"6196bf622a672cc10028cdc1","condition":"contingent","relevant_dimensions":["antennae","pattern"],"bee_group":{"antennae":"B","wings":"X","pattern":"D","legs":"X"},"action":"avoid","summary":"bad-avoid","bonus":1.180000000000001},{"rt":1160.3999999761581,"stimulus":"\n                    <p><b>Action: <em>avoid</em></b></p>\n                    <p>This is the bee that you just saw.</p>\n                    <img src=\"bees-with-color/bee-A2SF.svg\" width=\"200\">\n                    <p><br>Your bonus pay is unchanged, and remains at $0.54.</p>\n            ","response":0,"trial_type":"html-button-response","trial_index":52,"time_elapsed":600727,"internal_node_id":"0.0-4.0-1.22","subject_id":"5f034a2302f4ca23d764cdef","study_id":"60edd13110225f80f9f3709b","session_id":"6196bf622a672cc10028cdc1","condition":"contingent","relevant_dimensions":["antennae","pattern"],"bee_group":{"antennae":"B","wings":"X","pattern":"D","legs":"X"},"bonus":1.180000000000001},{"rt":7223.099999964237,"stimulus":"bees-with-color/bee-A1DM.svg","response":0,"trial_type":"image-button-response","trial_index":53,"time_elapsed":607952,"internal_node_id":"0.0-4.0-0.23","subject_id":"5f034a2302f4ca23d764cdef","study_id":"60edd13110225f80f9f3709b","session_id":"6196bf622a672cc10028cdc1","condition":"contingent","relevant_dimensions":["antennae","pattern"],"bee_group":{"antennae":"B","wings":"X","pattern":"D","legs":"X"},"action":"harvest","summary":"good-harvest","bonus":1.180000000000001},{"rt":987.4000000357628,"stimulus":"\n                    <p><b>Action: <em>harvest</em></b></p>\n                    <p>This is the bee that you just saw.</p>\n                    <img src=\"bees-with-color/bee-A1DM.svg\" width=\"200\">\n                    <p><span class=\"greenText\"><b>Successful harvest!</b></span><br>Your pay has increased by $0.02. Your bonus pay is now $0.56.</p>\n            ","response":0,"trial_type":"html-button-response","trial_index":54,"time_elapsed":608943,"internal_node_id":"0.0-4.0-1.23","subject_id":"5f034a2302f4ca23d764cdef","study_id":"60edd13110225f80f9f3709b","session_id":"6196bf622a672cc10028cdc1","condition":"contingent","relevant_dimensions":["antennae","pattern"],"bee_group":{"antennae":"B","wings":"X","pattern":"D","legs":"X"},"bonus":1.180000000000001},{"rt":1871.800000011921,"stimulus":"bees-with-color/bee-A1DF.svg","response":1,"trial_type":"image-button-response","trial_index":55,"time_elapsed":610820,"internal_node_id":"0.0-4.0-0.24","subject_id":"5f034a2302f4ca23d764cdef","study_id":"60edd13110225f80f9f3709b","session_id":"6196bf622a672cc10028cdc1","condition":"contingent","relevant_dimensions":["antennae","pattern"],"bee_group":{"antennae":"B","wings":"X","pattern":"D","legs":"X"},"action":"avoid","summary":"bad-avoid","bonus":1.180000000000001},{"rt":1147.699999988079,"stimulus":"\n                    <p><b>Action: <em>avoid</em></b></p>\n                    <p>This is the bee that you just saw.</p>\n                    <img src=\"bees-with-color/bee-A1DF.svg\" width=\"200\">\n                    <p><br>Your bonus pay is unchanged, and remains at $0.56.</p>\n            ","response":0,"trial_type":"html-button-response","trial_index":56,"time_elapsed":611972,"internal_node_id":"0.0-4.0-1.24","subject_id":"5f034a2302f4ca23d764cdef","study_id":"60edd13110225f80f9f3709b","session_id":"6196bf622a672cc10028cdc1","condition":"contingent","relevant_dimensions":["antennae","pattern"],"bee_group":{"antennae":"B","wings":"X","pattern":"D","legs":"X"},"bonus":1.180000000000001},{"rt":9609,"stimulus":"bees-with-color/bee-B2DM.svg","response":0,"trial_type":"image-button-response","trial_index":57,"time_elapsed":621584,"internal_node_id":"0.0-4.0-0.25","subject_id":"5f034a2302f4ca23d764cdef","study_id":"60edd13110225f80f9f3709b","session_id":"6196bf622a672cc10028cdc1","condition":"contingent","relevant_dimensions":["antennae","pattern"],"bee_group":{"antennae":"B","wings":"X","pattern":"D","legs":"X"},"action":"harvest","summary":"bad-harvest","bonus":1.180000000000001},{"rt":1087.4000000357628,"stimulus":"\n                    <p><b>Action: <em>harvest</em></b></p>\n                    <p>This is the bee that you just saw.</p>\n                    <img src=\"bees-with-color/bee-B2DM.svg\" width=\"200\">\n                    <p><span class=\"redText\">Bad choice, the bee was angry.</span><br><b>You have been stung!</b><br>Your pay has been decreased by $0.10. Your bonus pay is now $0.46.</p>\n            ","response":0,"trial_type":"html-button-response","trial_index":58,"time_elapsed":622673,"internal_node_id":"0.0-4.0-1.25","subject_id":"5f034a2302f4ca23d764cdef","study_id":"60edd13110225f80f9f3709b","session_id":"6196bf622a672cc10028cdc1","condition":"contingent","relevant_dimensions":["antennae","pattern"],"bee_group":{"antennae":"B","wings":"X","pattern":"D","legs":"X"},"bonus":1.180000000000001},{"rt":3595.600000023842,"stimulus":"bees-with-color/bee-A1SF.svg","response":0,"trial_type":"image-button-response","trial_index":59,"time_elapsed":626274,"internal_node_id":"0.0-4.0-0.26","subject_id":"5f034a2302f4ca23d764cdef","study_id":"60edd13110225f80f9f3709b","session_id":"6196bf622a672cc10028cdc1","condition":"contingent","relevant_dimensions":["antennae","pattern"],"bee_group":{"antennae":"B","wings":"X","pattern":"D","legs":"X"},"action":"harvest","summary":"good-harvest","bonus":1.180000000000001},{"rt":1201,"stimulus":"\n                    <p><b>Action: <em>harvest</em></b></p>\n                    <p>This is the bee that you just saw.</p>\n                    <img src=\"bees-with-color/bee-A1SF.svg\" width=\"200\">\n                    <p><span class=\"greenText\"><b>Successful harvest!</b></span><br>Your pay has increased by $0.02. Your bonus pay is now $0.48.</p>\n            ","response":0,"trial_type":"html-button-response","trial_index":60,"time_elapsed":627478,"internal_node_id":"0.0-4.0-1.26","subject_id":"5f034a2302f4ca23d764cdef","study_id":"60edd13110225f80f9f3709b","session_id":"6196bf622a672cc10028cdc1","condition":"contingent","relevant_dimensions":["antennae","pattern"],"bee_group":{"antennae":"B","wings":"X","pattern":"D","legs":"X"},"bonus":1.180000000000001},{"rt":7930.900000035763,"stimulus":"bees-with-color/bee-B1SF.svg","response":1,"trial_type":"image-button-response","trial_index":61,"time_elapsed":635411,"internal_node_id":"0.0-4.0-0.27","subject_id":"5f034a2302f4ca23d764cdef","study_id":"60edd13110225f80f9f3709b","session_id":"6196bf622a672cc10028cdc1","condition":"contingent","relevant_dimensions":["antennae","pattern"],"bee_group":{"antennae":"B","wings":"X","pattern":"D","legs":"X"},"action":"avoid","summary":"bad-avoid","bonus":1.180000000000001},{"rt":1025.9000000357628,"stimulus":"\n                    <p><b>Action: <em>avoid</em></b></p>\n                    <p>This is the bee that you just saw.</p>\n                    <img src=\"bees-with-color/bee-B1SF.svg\" width=\"200\">\n                    <p><br>Your bonus pay is unchanged, and remains at $0.48.</p>\n            ","response":0,"trial_type":"html-button-response","trial_index":62,"time_elapsed":636441,"internal_node_id":"0.0-4.0-1.27","subject_id":"5f034a2302f4ca23d764cdef","study_id":"60edd13110225f80f9f3709b","session_id":"6196bf622a672cc10028cdc1","condition":"contingent","relevant_dimensions":["antennae","pattern"],"bee_group":{"antennae":"B","wings":"X","pattern":"D","legs":"X"},"bonus":1.180000000000001},{"rt":1794.6000000238419,"stimulus":"bees-with-color/bee-B2SM.svg","response":1,"trial_type":"image-button-response","trial_index":63,"time_elapsed":638240,"internal_node_id":"0.0-4.0-0.28","subject_id":"5f034a2302f4ca23d764cdef","study_id":"60edd13110225f80f9f3709b","session_id":"6196bf622a672cc10028cdc1","condition":"contingent","relevant_dimensions":["antennae","pattern"],"bee_group":{"antennae":"B","wings":"X","pattern":"D","legs":"X"},"action":"avoid","summary":"bad-avoid","bonus":1.180000000000001},{"rt":960.0999999642372,"stimulus":"\n                    <p><b>Action: <em>avoid</em></b></p>\n                    <p>This is the bee that you just saw.</p>\n                    <img src=\"bees-with-color/bee-B2SM.svg\" width=\"200\">\n                    <p><br>Your bonus pay is unchanged, and remains at $0.48.</p>\n            ","response":0,"trial_type":"html-button-response","trial_index":64,"time_elapsed":639203,"internal_node_id":"0.0-4.0-1.28","subject_id":"5f034a2302f4ca23d764cdef","study_id":"60edd13110225f80f9f3709b","session_id":"6196bf622a672cc10028cdc1","condition":"contingent","relevant_dimensions":["antennae","pattern"],"bee_group":{"antennae":"B","wings":"X","pattern":"D","legs":"X"},"bonus":1.180000000000001},{"rt":2196.899999976158,"stimulus":"bees-with-color/bee-A2DF.svg","response":0,"trial_type":"image-button-response","trial_index":65,"time_elapsed":641406,"internal_node_id":"0.0-4.0-0.29","subject_id":"5f034a2302f4ca23d764cdef","study_id":"60edd13110225f80f9f3709b","session_id":"6196bf622a672cc10028cdc1","condition":"contingent","relevant_dimensions":["antennae","pattern"],"bee_group":{"antennae":"B","wings":"X","pattern":"D","legs":"X"},"action":"harvest","summary":"good-harvest","bonus":1.180000000000001},{"rt":1163.199999988079,"stimulus":"\n                    <p><b>Action: <em>harvest</em></b></p>\n                    <p>This is the bee that you just saw.</p>\n                    <img src=\"bees-with-color/bee-A2DF.svg\" width=\"200\">\n                    <p><span class=\"greenText\"><b>Successful harvest!</b></span><br>Your pay has increased by $0.02. Your bonus pay is now $0.50.</p>\n            ","response":0,"trial_type":"html-button-response","trial_index":66,"time_elapsed":642572,"internal_node_id":"0.0-4.0-1.29","subject_id":"5f034a2302f4ca23d764cdef","study_id":"60edd13110225f80f9f3709b","session_id":"6196bf622a672cc10028cdc1","condition":"contingent","relevant_dimensions":["antennae","pattern"],"bee_group":{"antennae":"B","wings":"X","pattern":"D","legs":"X"},"bonus":1.180000000000001},{"rt":3182.800000011921,"stimulus":"bees-with-color/bee-A1SM.svg","response":0,"trial_type":"image-button-response","trial_index":67,"time_elapsed":645757,"internal_node_id":"0.0-4.0-0.30","subject_id":"5f034a2302f4ca23d764cdef","study_id":"60edd13110225f80f9f3709b","session_id":"6196bf622a672cc10028cdc1","condition":"contingent","relevant_dimensions":["antennae","pattern"],"bee_group":{"antennae":"B","wings":"X","pattern":"D","legs":"X"},"action":"harvest","summary":"good-harvest","bonus":1.180000000000001},{"rt":921.1999999880791,"stimulus":"\n                    <p><b>Action: <em>harvest</em></b></p>\n                    <p>This is the bee that you just saw.</p>\n                    <img src=\"bees-with-color/bee-A1SM.svg\" width=\"200\">\n                    <p><span class=\"greenText\"><b>Successful harvest!</b></span><br>Your pay has increased by $0.02. Your bonus pay is now $0.52.</p>\n            ","response":0,"trial_type":"html-button-response","trial_index":68,"time_elapsed":646680,"internal_node_id":"0.0-4.0-1.30","subject_id":"5f034a2302f4ca23d764cdef","study_id":"60edd13110225f80f9f3709b","session_id":"6196bf622a672cc10028cdc1","condition":"contingent","relevant_dimensions":["antennae","pattern"],"bee_group":{"antennae":"B","wings":"X","pattern":"D","legs":"X"},"bonus":1.180000000000001},{"rt":1432.0999999642372,"stimulus":"bees-with-color/bee-B2DF.svg","response":1,"trial_type":"image-button-response","trial_index":69,"time_elapsed":648117,"internal_node_id":"0.0-4.0-0.31","subject_id":"5f034a2302f4ca23d764cdef","study_id":"60edd13110225f80f9f3709b","session_id":"6196bf622a672cc10028cdc1","condition":"contingent","relevant_dimensions":["antennae","pattern"],"bee_group":{"antennae":"B","wings":"X","pattern":"D","legs":"X"},"action":"avoid","summary":"good-avoid","bonus":1.180000000000001},{"rt":929.3000000119209,"stimulus":"\n                    <p><b>Action: <em>avoid</em></b></p>\n                    <p>This is the bee that you just saw.</p>\n                    <img src=\"bees-with-color/bee-B2DF.svg\" width=\"200\">\n                    <p><br>Your bonus pay is unchanged, and remains at $0.52.</p>\n            ","response":0,"trial_type":"html-button-response","trial_index":70,"time_elapsed":649048,"internal_node_id":"0.0-4.0-1.31","subject_id":"5f034a2302f4ca23d764cdef","study_id":"60edd13110225f80f9f3709b","session_id":"6196bf622a672cc10028cdc1","condition":"contingent","relevant_dimensions":["antennae","pattern"],"bee_group":{"antennae":"B","wings":"X","pattern":"D","legs":"X"},"bonus":1.180000000000001},{"rt":6963.199999988079,"stimulus":"bees-with-color/bee-A1SF.svg","response":0,"trial_type":"image-button-response","trial_index":71,"time_elapsed":656013,"internal_node_id":"0.0-4.0-0.32","subject_id":"5f034a2302f4ca23d764cdef","study_id":"60edd13110225f80f9f3709b","session_id":"6196bf622a672cc10028cdc1","condition":"contingent","relevant_dimensions":["antennae","pattern"],"bee_group":{"antennae":"B","wings":"X","pattern":"D","legs":"X"},"action":"harvest","summary":"good-harvest","bonus":1.180000000000001},{"rt":865.6000000238419,"stimulus":"\n                    <p><b>Action: <em>harvest</em></b></p>\n                    <p>This is the bee that you just saw.</p>\n                    <img src=\"bees-with-color/bee-A1SF.svg\" width=\"200\">\n                    <p><span class=\"greenText\"><b>Successful harvest!</b></span><br>Your pay has increased by $0.02. Your bonus pay is now $0.54.</p>\n            ","response":0,"trial_type":"html-button-response","trial_index":72,"time_elapsed":656883,"internal_node_id":"0.0-4.0-1.32","subject_id":"5f034a2302f4ca23d764cdef","study_id":"60edd13110225f80f9f3709b","session_id":"6196bf622a672cc10028cdc1","condition":"contingent","relevant_dimensions":["antennae","pattern"],"bee_group":{"antennae":"B","wings":"X","pattern":"D","legs":"X"},"bonus":1.180000000000001},{"rt":1723.6000000238419,"stimulus":"bees-with-color/bee-B1DF.svg","response":1,"trial_type":"image-button-response","trial_index":73,"time_elapsed":658609,"internal_node_id":"0.0-4.0-0.33","subject_id":"5f034a2302f4ca23d764cdef","study_id":"60edd13110225f80f9f3709b","session_id":"6196bf622a672cc10028cdc1","condition":"contingent","relevant_dimensions":["antennae","pattern"],"bee_group":{"antennae":"B","wings":"X","pattern":"D","legs":"X"},"action":"avoid","summary":"good-avoid","bonus":1.180000000000001},{"rt":1080.300000011921,"stimulus":"\n                    <p><b>Action: <em>avoid</em></b></p>\n                    <p>This is the bee that you just saw.</p>\n                    <img src=\"bees-with-color/bee-B1DF.svg\" width=\"200\">\n                    <p><br>Your bonus pay is unchanged, and remains at $0.54.</p>\n            ","response":0,"trial_type":"html-button-response","trial_index":74,"time_elapsed":659691,"internal_node_id":"0.0-4.0-1.33","subject_id":"5f034a2302f4ca23d764cdef","study_id":"60edd13110225f80f9f3709b","session_id":"6196bf622a672cc10028cdc1","condition":"contingent","relevant_dimensions":["antennae","pattern"],"bee_group":{"antennae":"B","wings":"X","pattern":"D","legs":"X"},"bonus":1.180000000000001},{"rt":2625.699999988079,"stimulus":"bees-with-color/bee-B1SF.svg","response":0,"trial_type":"image-button-response","trial_index":75,"time_elapsed":662320,"internal_node_id":"0.0-4.0-0.34","subject_id":"5f034a2302f4ca23d764cdef","study_id":"60edd13110225f80f9f3709b","session_id":"6196bf622a672cc10028cdc1","condition":"contingent","relevant_dimensions":["antennae","pattern"],"bee_group":{"antennae":"B","wings":"X","pattern":"D","legs":"X"},"action":"harvest","summary":"good-harvest","bonus":1.180000000000001},{"rt":849.5999999642372,"stimulus":"\n                    <p><b>Action: <em>harvest</em></b></p>\n                    <p>This is the bee that you just saw.</p>\n                    <img src=\"bees-with-color/bee-B1SF.svg\" width=\"200\">\n                    <p><span class=\"greenText\"><b>Successful harvest!</b></span><br>Your pay has increased by $0.02. Your bonus pay is now $0.56.</p>\n            ","response":0,"trial_type":"html-button-response","trial_index":76,"time_elapsed":663174,"internal_node_id":"0.0-4.0-1.34","subject_id":"5f034a2302f4ca23d764cdef","study_id":"60edd13110225f80f9f3709b","session_id":"6196bf622a672cc10028cdc1","condition":"contingent","relevant_dimensions":["antennae","pattern"],"bee_group":{"antennae":"B","wings":"X","pattern":"D","legs":"X"},"bonus":1.180000000000001},{"rt":1524.6000000238419,"stimulus":"bees-with-color/bee-B2SF.svg","response":1,"trial_type":"image-button-response","trial_index":77,"time_elapsed":664704,"internal_node_id":"0.0-4.0-0.35","subject_id":"5f034a2302f4ca23d764cdef","study_id":"60edd13110225f80f9f3709b","session_id":"6196bf622a672cc10028cdc1","condition":"contingent","relevant_dimensions":["antennae","pattern"],"bee_group":{"antennae":"B","wings":"X","pattern":"D","legs":"X"},"action":"avoid","summary":"bad-avoid","bonus":1.180000000000001},{"rt":2051,"stimulus":"\n                    <p><b>Action: <em>avoid</em></b></p>\n                    <p>This is the bee that you just saw.</p>\n                    <img src=\"bees-with-color/bee-B2SF.svg\" width=\"200\">\n                    <p><br>Your bonus pay is unchanged, and remains at $0.56.</p>\n            ","response":0,"trial_type":"html-button-response","trial_index":78,"time_elapsed":666760,"internal_node_id":"0.0-4.0-1.35","subject_id":"5f034a2302f4ca23d764cdef","study_id":"60edd13110225f80f9f3709b","session_id":"6196bf622a672cc10028cdc1","condition":"contingent","relevant_dimensions":["antennae","pattern"],"bee_group":{"antennae":"B","wings":"X","pattern":"D","legs":"X"},"bonus":1.180000000000001},{"rt":2496.5,"stimulus":"bees-with-color/bee-B2DM.svg","response":1,"trial_type":"image-button-response","trial_index":79,"time_elapsed":669261,"internal_node_id":"0.0-4.0-0.36","subject_id":"5f034a2302f4ca23d764cdef","study_id":"60edd13110225f80f9f3709b","session_id":"6196bf622a672cc10028cdc1","condition":"contingent","relevant_dimensions":["antennae","pattern"],"bee_group":{"antennae":"B","wings":"X","pattern":"D","legs":"X"},"action":"avoid","summary":"good-avoid","bonus":1.180000000000001},{"rt":1257,"stimulus":"\n                    <p><b>Action: <em>avoid</em></b></p>\n                    <p>This is the bee that you just saw.</p>\n                    <img src=\"bees-with-color/bee-B2DM.svg\" width=\"200\">\n                    <p><br>Your bonus pay is unchanged, and remains at $0.56.</p>\n            ","response":0,"trial_type":"html-button-response","trial_index":80,"time_elapsed":670524,"internal_node_id":"0.0-4.0-1.36","subject_id":"5f034a2302f4ca23d764cdef","study_id":"60edd13110225f80f9f3709b","session_id":"6196bf622a672cc10028cdc1","condition":"contingent","relevant_dimensions":["antennae","pattern"],"bee_group":{"antennae":"B","wings":"X","pattern":"D","legs":"X"},"bonus":1.180000000000001},{"rt":1803.3999999761581,"stimulus":"bees-with-color/bee-B2SM.svg","response":0,"trial_type":"image-button-response","trial_index":81,"time_elapsed":672329,"internal_node_id":"0.0-4.0-0.37","subject_id":"5f034a2302f4ca23d764cdef","study_id":"60edd13110225f80f9f3709b","session_id":"6196bf622a672cc10028cdc1","condition":"contingent","relevant_dimensions":["antennae","pattern"],"bee_group":{"antennae":"B","wings":"X","pattern":"D","legs":"X"},"action":"harvest","summary":"good-harvest","bonus":1.180000000000001},{"rt":828.1999999880791,"stimulus":"\n                    <p><b>Action: <em>harvest</em></b></p>\n                    <p>This is the bee that you just saw.</p>\n                    <img src=\"bees-with-color/bee-B2SM.svg\" width=\"200\">\n                    <p><span class=\"greenText\"><b>Successful harvest!</b></span><br>Your pay has increased by $0.02. Your bonus pay is now $0.58.</p>\n            ","response":0,"trial_type":"html-button-response","trial_index":82,"time_elapsed":673160,"internal_node_id":"0.0-4.0-1.37","subject_id":"5f034a2302f4ca23d764cdef","study_id":"60edd13110225f80f9f3709b","session_id":"6196bf622a672cc10028cdc1","condition":"contingent","relevant_dimensions":["antennae","pattern"],"bee_group":{"antennae":"B","wings":"X","pattern":"D","legs":"X"},"bonus":1.180000000000001},{"rt":1635.3999999761581,"stimulus":"bees-with-color/bee-A1DF.svg","response":0,"trial_type":"image-button-response","trial_index":83,"time_elapsed":674800,"internal_node_id":"0.0-4.0-0.38","subject_id":"5f034a2302f4ca23d764cdef","study_id":"60edd13110225f80f9f3709b","session_id":"6196bf622a672cc10028cdc1","condition":"contingent","relevant_dimensions":["antennae","pattern"],"bee_group":{"antennae":"B","wings":"X","pattern":"D","legs":"X"},"action":"harvest","summary":"good-harvest","bonus":1.180000000000001},{"rt":849,"stimulus":"\n                    <p><b>Action: <em>harvest</em></b></p>\n                    <p>This is the bee that you just saw.</p>\n                    <img src=\"bees-with-color/bee-A1DF.svg\" width=\"200\">\n                    <p><span class=\"greenText\"><b>Successful harvest!</b></span><br>Your pay has increased by $0.02. Your bonus pay is now $0.60.</p>\n            ","response":0,"trial_type":"html-button-response","trial_index":84,"time_elapsed":675650,"internal_node_id":"0.0-4.0-1.38","subject_id":"5f034a2302f4ca23d764cdef","study_id":"60edd13110225f80f9f3709b","session_id":"6196bf622a672cc10028cdc1","condition":"contingent","relevant_dimensions":["antennae","pattern"],"bee_group":{"antennae":"B","wings":"X","pattern":"D","legs":"X"},"bonus":1.180000000000001},{"rt":1764.2000000476837,"stimulus":"bees-with-color/bee-A2DF.svg","response":0,"trial_type":"image-button-response","trial_index":85,"time_elapsed":677416,"internal_node_id":"0.0-4.0-0.39","subject_id":"5f034a2302f4ca23d764cdef","study_id":"60edd13110225f80f9f3709b","session_id":"6196bf622a672cc10028cdc1","condition":"contingent","relevant_dimensions":["antennae","pattern"],"bee_group":{"antennae":"B","wings":"X","pattern":"D","legs":"X"},"action":"harvest","summary":"good-harvest","bonus":1.180000000000001},{"rt":832.5999999642372,"stimulus":"\n                    <p><b>Action: <em>harvest</em></b></p>\n                    <p>This is the bee that you just saw.</p>\n                    <img src=\"bees-with-color/bee-A2DF.svg\" width=\"200\">\n                    <p><span class=\"greenText\"><b>Successful harvest!</b></span><br>Your pay has increased by $0.02. Your bonus pay is now $0.62.</p>\n            ","response":0,"trial_type":"html-button-response","trial_index":86,"time_elapsed":678250,"internal_node_id":"0.0-4.0-1.39","subject_id":"5f034a2302f4ca23d764cdef","study_id":"60edd13110225f80f9f3709b","session_id":"6196bf622a672cc10028cdc1","condition":"contingent","relevant_dimensions":["antennae","pattern"],"bee_group":{"antennae":"B","wings":"X","pattern":"D","legs":"X"},"bonus":1.180000000000001},{"rt":1642.5999999642372,"stimulus":"bees-with-color/bee-B2DF.svg","response":1,"trial_type":"image-button-response","trial_index":87,"time_elapsed":679895,"internal_node_id":"0.0-4.0-0.40","subject_id":"5f034a2302f4ca23d764cdef","study_id":"60edd13110225f80f9f3709b","session_id":"6196bf622a672cc10028cdc1","condition":"contingent","relevant_dimensions":["antennae","pattern"],"bee_group":{"antennae":"B","wings":"X","pattern":"D","legs":"X"},"action":"avoid","summary":"good-avoid","bonus":1.180000000000001},{"rt":852,"stimulus":"\n                    <p><b>Action: <em>avoid</em></b></p>\n                    <p>This is the bee that you just saw.</p>\n                    <img src=\"bees-with-color/bee-B2DF.svg\" width=\"200\">\n                    <p><br>Your bonus pay is unchanged, and remains at $0.62.</p>\n            ","response":0,"trial_type":"html-button-response","trial_index":88,"time_elapsed":680749,"internal_node_id":"0.0-4.0-1.40","subject_id":"5f034a2302f4ca23d764cdef","study_id":"60edd13110225f80f9f3709b","session_id":"6196bf622a672cc10028cdc1","condition":"contingent","relevant_dimensions":["antennae","pattern"],"bee_group":{"antennae":"B","wings":"X","pattern":"D","legs":"X"},"bonus":1.180000000000001},{"rt":2203.699999988079,"stimulus":"bees-with-color/bee-B1SM.svg","response":0,"trial_type":"image-button-response","trial_index":89,"time_elapsed":682956,"internal_node_id":"0.0-4.0-0.41","subject_id":"5f034a2302f4ca23d764cdef","study_id":"60edd13110225f80f9f3709b","session_id":"6196bf622a672cc10028cdc1","condition":"contingent","relevant_dimensions":["antennae","pattern"],"bee_group":{"antennae":"B","wings":"X","pattern":"D","legs":"X"},"action":"harvest","summary":"good-harvest","bonus":1.180000000000001},{"rt":670.8999999761581,"stimulus":"\n                    <p><b>Action: <em>harvest</em></b></p>\n                    <p>This is the bee that you just saw.</p>\n                    <img src=\"bees-with-color/bee-B1SM.svg\" width=\"200\">\n                    <p><span class=\"greenText\"><b>Successful harvest!</b></span><br>Your pay has increased by $0.02. Your bonus pay is now $0.64.</p>\n            ","response":0,"trial_type":"html-button-response","trial_index":90,"time_elapsed":683628,"internal_node_id":"0.0-4.0-1.41","subject_id":"5f034a2302f4ca23d764cdef","study_id":"60edd13110225f80f9f3709b","session_id":"6196bf622a672cc10028cdc1","condition":"contingent","relevant_dimensions":["antennae","pattern"],"bee_group":{"antennae":"B","wings":"X","pattern":"D","legs":"X"},"bonus":1.180000000000001},{"rt":1769.2999999523163,"stimulus":"bees-with-color/bee-A1SM.svg","response":0,"trial_type":"image-button-response","trial_index":91,"time_elapsed":685401,"internal_node_id":"0.0-4.0-0.42","subject_id":"5f034a2302f4ca23d764cdef","study_id":"60edd13110225f80f9f3709b","session_id":"6196bf622a672cc10028cdc1","condition":"contingent","relevant_dimensions":["antennae","pattern"],"bee_group":{"antennae":"B","wings":"X","pattern":"D","legs":"X"},"action":"harvest","summary":"good-harvest","bonus":1.180000000000001},{"rt":832,"stimulus":"\n                    <p><b>Action: <em>harvest</em></b></p>\n                    <p>This is the bee that you just saw.</p>\n                    <img src=\"bees-with-color/bee-A1SM.svg\" width=\"200\">\n                    <p><span class=\"greenText\"><b>Successful harvest!</b></span><br>Your pay has increased by $0.02. Your bonus pay is now $0.66.</p>\n            ","response":0,"trial_type":"html-button-response","trial_index":92,"time_elapsed":686237,"internal_node_id":"0.0-4.0-1.42","subject_id":"5f034a2302f4ca23d764cdef","study_id":"60edd13110225f80f9f3709b","session_id":"6196bf622a672cc10028cdc1","condition":"contingent","relevant_dimensions":["antennae","pattern"],"bee_group":{"antennae":"B","wings":"X","pattern":"D","legs":"X"},"bonus":1.180000000000001},{"rt":1984.8999999761581,"stimulus":"bees-with-color/bee-A1DM.svg","response":0,"trial_type":"image-button-response","trial_index":93,"time_elapsed":688224,"internal_node_id":"0.0-4.0-0.43","subject_id":"5f034a2302f4ca23d764cdef","study_id":"60edd13110225f80f9f3709b","session_id":"6196bf622a672cc10028cdc1","condition":"contingent","relevant_dimensions":["antennae","pattern"],"bee_group":{"antennae":"B","wings":"X","pattern":"D","legs":"X"},"action":"harvest","summary":"good-harvest","bonus":1.180000000000001},{"rt":908.2999999523163,"stimulus":"\n                    <p><b>Action: <em>harvest</em></b></p>\n                    <p>This is the bee that you just saw.</p>\n                    <img src=\"bees-with-color/bee-A1DM.svg\" width=\"200\">\n                    <p><span class=\"greenText\"><b>Successful harvest!</b></span><br>Your pay has increased by $0.02. Your bonus pay is now $0.68.</p>\n            ","response":0,"trial_type":"html-button-response","trial_index":94,"time_elapsed":689136,"internal_node_id":"0.0-4.0-1.43","subject_id":"5f034a2302f4ca23d764cdef","study_id":"60edd13110225f80f9f3709b","session_id":"6196bf622a672cc10028cdc1","condition":"contingent","relevant_dimensions":["antennae","pattern"],"bee_group":{"antennae":"B","wings":"X","pattern":"D","legs":"X"},"bonus":1.180000000000001},{"rt":1824.800000011921,"stimulus":"bees-with-color/bee-A2SF.svg","response":0,"trial_type":"image-button-response","trial_index":95,"time_elapsed":690963,"internal_node_id":"0.0-4.0-0.44","subject_id":"5f034a2302f4ca23d764cdef","study_id":"60edd13110225f80f9f3709b","session_id":"6196bf622a672cc10028cdc1","condition":"contingent","relevant_dimensions":["antennae","pattern"],"bee_group":{"antennae":"B","wings":"X","pattern":"D","legs":"X"},"action":"harvest","summary":"good-harvest","bonus":1.180000000000001},{"rt":763.6999999880791,"stimulus":"\n                    <p><b>Action: <em>harvest</em></b></p>\n                    <p>This is the bee that you just saw.</p>\n                    <img src=\"bees-with-color/bee-A2SF.svg\" width=\"200\">\n                    <p><span class=\"greenText\"><b>Successful harvest!</b></span><br>Your pay has increased by $0.02. Your bonus pay is now $0.70.</p>\n            ","response":0,"trial_type":"html-button-response","trial_index":96,"time_elapsed":691728,"internal_node_id":"0.0-4.0-1.44","subject_id":"5f034a2302f4ca23d764cdef","study_id":"60edd13110225f80f9f3709b","session_id":"6196bf622a672cc10028cdc1","condition":"contingent","relevant_dimensions":["antennae","pattern"],"bee_group":{"antennae":"B","wings":"X","pattern":"D","legs":"X"},"bonus":1.180000000000001},{"rt":1130,"stimulus":"bees-with-color/bee-B1DM.svg","response":1,"trial_type":"image-button-response","trial_index":97,"time_elapsed":692862,"internal_node_id":"0.0-4.0-0.45","subject_id":"5f034a2302f4ca23d764cdef","study_id":"60edd13110225f80f9f3709b","session_id":"6196bf622a672cc10028cdc1","condition":"contingent","relevant_dimensions":["antennae","pattern"],"bee_group":{"antennae":"B","wings":"X","pattern":"D","legs":"X"},"action":"avoid","summary":"good-avoid","bonus":1.180000000000001},{"rt":922.8999999761581,"stimulus":"\n                    <p><b>Action: <em>avoid</em></b></p>\n                    <p>This is the bee that you just saw.</p>\n                    <img src=\"bees-with-color/bee-B1DM.svg\" width=\"200\">\n                    <p><br>Your bonus pay is unchanged, and remains at $0.70.</p>\n            ","response":0,"trial_type":"html-button-response","trial_index":98,"time_elapsed":693790,"internal_node_id":"0.0-4.0-1.45","subject_id":"5f034a2302f4ca23d764cdef","study_id":"60edd13110225f80f9f3709b","session_id":"6196bf622a672cc10028cdc1","condition":"contingent","relevant_dimensions":["antennae","pattern"],"bee_group":{"antennae":"B","wings":"X","pattern":"D","legs":"X"},"bonus":1.180000000000001},{"rt":2070.199999988079,"stimulus":"bees-with-color/bee-A2DM.svg","response":0,"trial_type":"image-button-response","trial_index":99,"time_elapsed":695863,"internal_node_id":"0.0-4.0-0.46","subject_id":"5f034a2302f4ca23d764cdef","study_id":"60edd13110225f80f9f3709b","session_id":"6196bf622a672cc10028cdc1","condition":"contingent","relevant_dimensions":["antennae","pattern"],"bee_group":{"antennae":"B","wings":"X","pattern":"D","legs":"X"},"action":"harvest","summary":"good-harvest","bonus":1.180000000000001},{"rt":886.2000000476837,"stimulus":"\n                    <p><b>Action: <em>harvest</em></b></p>\n                    <p>This is the bee that you just saw.</p>\n                    <img src=\"bees-with-color/bee-A2DM.svg\" width=\"200\">\n                    <p><span class=\"greenText\"><b>Successful harvest!</b></span><br>Your pay has increased by $0.02. Your bonus pay is now $0.72.</p>\n            ","response":0,"trial_type":"html-button-response","trial_index":100,"time_elapsed":696754,"internal_node_id":"0.0-4.0-1.46","subject_id":"5f034a2302f4ca23d764cdef","study_id":"60edd13110225f80f9f3709b","session_id":"6196bf622a672cc10028cdc1","condition":"contingent","relevant_dimensions":["antennae","pattern"],"bee_group":{"antennae":"B","wings":"X","pattern":"D","legs":"X"},"bonus":1.180000000000001},{"rt":1464.5,"stimulus":"bees-with-color/bee-A2SM.svg","response":0,"trial_type":"image-button-response","trial_index":101,"time_elapsed":698220,"internal_node_id":"0.0-4.0-0.47","subject_id":"5f034a2302f4ca23d764cdef","study_id":"60edd13110225f80f9f3709b","session_id":"6196bf622a672cc10028cdc1","condition":"contingent","relevant_dimensions":["antennae","pattern"],"bee_group":{"antennae":"B","wings":"X","pattern":"D","legs":"X"},"action":"harvest","summary":"good-harvest","bonus":1.180000000000001},{"rt":869.6000000238419,"stimulus":"\n                    <p><b>Action: <em>harvest</em></b></p>\n                    <p>This is the bee that you just saw.</p>\n                    <img src=\"bees-with-color/bee-A2SM.svg\" width=\"200\">\n                    <p><span class=\"greenText\"><b>Successful harvest!</b></span><br>Your pay has increased by $0.02. Your bonus pay is now $0.74.</p>\n            ","response":0,"trial_type":"html-button-response","trial_index":102,"time_elapsed":699092,"internal_node_id":"0.0-4.0-1.47","subject_id":"5f034a2302f4ca23d764cdef","study_id":"60edd13110225f80f9f3709b","session_id":"6196bf622a672cc10028cdc1","condition":"contingent","relevant_dimensions":["antennae","pattern"],"bee_group":{"antennae":"B","wings":"X","pattern":"D","legs":"X"},"bonus":1.180000000000001},{"rt":3880.199999988079,"stimulus":"bees-with-color/bee-A1DM.svg","response":0,"trial_type":"image-button-response","trial_index":103,"time_elapsed":702977,"internal_node_id":"0.0-4.0-0.48","subject_id":"5f034a2302f4ca23d764cdef","study_id":"60edd13110225f80f9f3709b","session_id":"6196bf622a672cc10028cdc1","condition":"contingent","relevant_dimensions":["antennae","pattern"],"bee_group":{"antennae":"B","wings":"X","pattern":"D","legs":"X"},"action":"harvest","summary":"good-harvest","bonus":1.180000000000001},{"rt":749.1999999880791,"stimulus":"\n                    <p><b>Action: <em>harvest</em></b></p>\n                    <p>This is the bee that you just saw.</p>\n                    <img src=\"bees-with-color/bee-A1DM.svg\" width=\"200\">\n                    <p><span class=\"greenText\"><b>Successful harvest!</b></span><br>Your pay has increased by $0.02. Your bonus pay is now $0.76.</p>\n            ","response":0,"trial_type":"html-button-response","trial_index":104,"time_elapsed":703730,"internal_node_id":"0.0-4.0-1.48","subject_id":"5f034a2302f4ca23d764cdef","study_id":"60edd13110225f80f9f3709b","session_id":"6196bf622a672cc10028cdc1","condition":"contingent","relevant_dimensions":["antennae","pattern"],"bee_group":{"antennae":"B","wings":"X","pattern":"D","legs":"X"},"bonus":1.180000000000001},{"rt":1096.199999988079,"stimulus":"bees-with-color/bee-B1SF.svg","response":1,"trial_type":"image-button-response","trial_index":105,"time_elapsed":704833,"internal_node_id":"0.0-4.0-0.49","subject_id":"5f034a2302f4ca23d764cdef","study_id":"60edd13110225f80f9f3709b","session_id":"6196bf622a672cc10028cdc1","condition":"contingent","relevant_dimensions":["antennae","pattern"],"bee_group":{"antennae":"B","wings":"X","pattern":"D","legs":"X"},"action":"avoid","summary":"bad-avoid","bonus":1.180000000000001},{"rt":1407.4000000357628,"stimulus":"\n                    <p><b>Action: <em>avoid</em></b></p>\n                    <p>This is the bee that you just saw.</p>\n                    <img src=\"bees-with-color/bee-B1SF.svg\" width=\"200\">\n                    <p><br>Your bonus pay is unchanged, and remains at $0.76.</p>\n            ","response":0,"trial_type":"html-button-response","trial_index":106,"time_elapsed":706245,"internal_node_id":"0.0-4.0-1.49","subject_id":"5f034a2302f4ca23d764cdef","study_id":"60edd13110225f80f9f3709b","session_id":"6196bf622a672cc10028cdc1","condition":"contingent","relevant_dimensions":["antennae","pattern"],"bee_group":{"antennae":"B","wings":"X","pattern":"D","legs":"X"},"bonus":1.180000000000001},{"rt":1883.3999999761581,"stimulus":"bees-with-color/bee-A1DF.svg","response":1,"trial_type":"image-button-response","trial_index":107,"time_elapsed":708132,"internal_node_id":"0.0-4.0-0.50","subject_id":"5f034a2302f4ca23d764cdef","study_id":"60edd13110225f80f9f3709b","session_id":"6196bf622a672cc10028cdc1","condition":"contingent","relevant_dimensions":["antennae","pattern"],"bee_group":{"antennae":"B","wings":"X","pattern":"D","legs":"X"},"action":"avoid","summary":"bad-avoid","bonus":1.180000000000001},{"rt":1029,"stimulus":"\n                    <p><b>Action: <em>avoid</em></b></p>\n                    <p>This is the bee that you just saw.</p>\n                    <img src=\"bees-with-color/bee-A1DF.svg\" width=\"200\">\n                    <p><br>Your bonus pay is unchanged, and remains at $0.76.</p>\n            ","response":0,"trial_type":"html-button-response","trial_index":108,"time_elapsed":709163,"internal_node_id":"0.0-4.0-1.50","subject_id":"5f034a2302f4ca23d764cdef","study_id":"60edd13110225f80f9f3709b","session_id":"6196bf622a672cc10028cdc1","condition":"contingent","relevant_dimensions":["antennae","pattern"],"bee_group":{"antennae":"B","wings":"X","pattern":"D","legs":"X"},"bonus":1.180000000000001},{"rt":1474.699999988079,"stimulus":"bees-with-color/bee-B1DF.svg","response":1,"trial_type":"image-button-response","trial_index":109,"time_elapsed":710641,"internal_node_id":"0.0-4.0-0.51","subject_id":"5f034a2302f4ca23d764cdef","study_id":"60edd13110225f80f9f3709b","session_id":"6196bf622a672cc10028cdc1","condition":"contingent","relevant_dimensions":["antennae","pattern"],"bee_group":{"antennae":"B","wings":"X","pattern":"D","legs":"X"},"action":"avoid","summary":"good-avoid","bonus":1.180000000000001},{"rt":894.8999999761581,"stimulus":"\n                    <p><b>Action: <em>avoid</em></b></p>\n                    <p>This is the bee that you just saw.</p>\n                    <img src=\"bees-with-color/bee-B1DF.svg\" width=\"200\">\n                    <p><br>Your bonus pay is unchanged, and remains at $0.76.</p>\n            ","response":0,"trial_type":"html-button-response","trial_index":110,"time_elapsed":711540,"internal_node_id":"0.0-4.0-1.51","subject_id":"5f034a2302f4ca23d764cdef","study_id":"60edd13110225f80f9f3709b","session_id":"6196bf622a672cc10028cdc1","condition":"contingent","relevant_dimensions":["antennae","pattern"],"bee_group":{"antennae":"B","wings":"X","pattern":"D","legs":"X"},"bonus":1.180000000000001},{"rt":1500.0999999642372,"stimulus":"bees-with-color/bee-B2DF.svg","response":1,"trial_type":"image-button-response","trial_index":111,"time_elapsed":713044,"internal_node_id":"0.0-4.0-0.52","subject_id":"5f034a2302f4ca23d764cdef","study_id":"60edd13110225f80f9f3709b","session_id":"6196bf622a672cc10028cdc1","condition":"contingent","relevant_dimensions":["antennae","pattern"],"bee_group":{"antennae":"B","wings":"X","pattern":"D","legs":"X"},"action":"avoid","summary":"good-avoid","bonus":1.180000000000001},{"rt":743.9000000357628,"stimulus":"\n                    <p><b>Action: <em>avoid</em></b></p>\n                    <p>This is the bee that you just saw.</p>\n                    <img src=\"bees-with-color/bee-B2DF.svg\" width=\"200\">\n                    <p><br>Your bonus pay is unchanged, and remains at $0.76.</p>\n            ","response":0,"trial_type":"html-button-response","trial_index":112,"time_elapsed":713793,"internal_node_id":"0.0-4.0-1.52","subject_id":"5f034a2302f4ca23d764cdef","study_id":"60edd13110225f80f9f3709b","session_id":"6196bf622a672cc10028cdc1","condition":"contingent","relevant_dimensions":["antennae","pattern"],"bee_group":{"antennae":"B","wings":"X","pattern":"D","legs":"X"},"bonus":1.180000000000001},{"rt":1116.5999999642372,"stimulus":"bees-with-color/bee-A2SF.svg","response":0,"trial_type":"image-button-response","trial_index":113,"time_elapsed":714914,"internal_node_id":"0.0-4.0-0.53","subject_id":"5f034a2302f4ca23d764cdef","study_id":"60edd13110225f80f9f3709b","session_id":"6196bf622a672cc10028cdc1","condition":"contingent","relevant_dimensions":["antennae","pattern"],"bee_group":{"antennae":"B","wings":"X","pattern":"D","legs":"X"},"action":"harvest","summary":"good-harvest","bonus":1.180000000000001},{"rt":811.3000000119209,"stimulus":"\n                    <p><b>Action: <em>harvest</em></b></p>\n                    <p>This is the bee that you just saw.</p>\n                    <img src=\"bees-with-color/bee-A2SF.svg\" width=\"200\">\n                    <p><span class=\"greenText\"><b>Successful harvest!</b></span><br>Your pay has increased by $0.02. Your bonus pay is now $0.78.</p>\n            ","response":0,"trial_type":"html-button-response","trial_index":114,"time_elapsed":715731,"internal_node_id":"0.0-4.0-1.53","subject_id":"5f034a2302f4ca23d764cdef","study_id":"60edd13110225f80f9f3709b","session_id":"6196bf622a672cc10028cdc1","condition":"contingent","relevant_dimensions":["antennae","pattern"],"bee_group":{"antennae":"B","wings":"X","pattern":"D","legs":"X"},"bonus":1.180000000000001},{"rt":1324.3999999761581,"stimulus":"bees-with-color/bee-A1SF.svg","response":0,"trial_type":"image-button-response","trial_index":115,"time_elapsed":717060,"internal_node_id":"0.0-4.0-0.54","subject_id":"5f034a2302f4ca23d764cdef","study_id":"60edd13110225f80f9f3709b","session_id":"6196bf622a672cc10028cdc1","condition":"contingent","relevant_dimensions":["antennae","pattern"],"bee_group":{"antennae":"B","wings":"X","pattern":"D","legs":"X"},"action":"harvest","summary":"good-harvest","bonus":1.180000000000001},{"rt":827.2999999523163,"stimulus":"\n                    <p><b>Action: <em>harvest</em></b></p>\n                    <p>This is the bee that you just saw.</p>\n                    <img src=\"bees-with-color/bee-A1SF.svg\" width=\"200\">\n                    <p><span class=\"greenText\"><b>Successful harvest!</b></span><br>Your pay has increased by $0.02. Your bonus pay is now $0.80.</p>\n            ","response":0,"trial_type":"html-button-response","trial_index":116,"time_elapsed":717891,"internal_node_id":"0.0-4.0-1.54","subject_id":"5f034a2302f4ca23d764cdef","study_id":"60edd13110225f80f9f3709b","session_id":"6196bf622a672cc10028cdc1","condition":"contingent","relevant_dimensions":["antennae","pattern"],"bee_group":{"antennae":"B","wings":"X","pattern":"D","legs":"X"},"bonus":1.180000000000001},{"rt":1275.800000011921,"stimulus":"bees-with-color/bee-A2SM.svg","response":0,"trial_type":"image-button-response","trial_index":117,"time_elapsed":719170,"internal_node_id":"0.0-4.0-0.55","subject_id":"5f034a2302f4ca23d764cdef","study_id":"60edd13110225f80f9f3709b","session_id":"6196bf622a672cc10028cdc1","condition":"contingent","relevant_dimensions":["antennae","pattern"],"bee_group":{"antennae":"B","wings":"X","pattern":"D","legs":"X"},"action":"harvest","summary":"good-harvest","bonus":1.180000000000001},{"rt":825.8000000119209,"stimulus":"\n                    <p><b>Action: <em>harvest</em></b></p>\n                    <p>This is the bee that you just saw.</p>\n                    <img src=\"bees-with-color/bee-A2SM.svg\" width=\"200\">\n                    <p><span class=\"greenText\"><b>Successful harvest!</b></span><br>Your pay has increased by $0.02. Your bonus pay is now $0.82.</p>\n            ","response":0,"trial_type":"html-button-response","trial_index":118,"time_elapsed":720000,"internal_node_id":"0.0-4.0-1.55","subject_id":"5f034a2302f4ca23d764cdef","study_id":"60edd13110225f80f9f3709b","session_id":"6196bf622a672cc10028cdc1","condition":"contingent","relevant_dimensions":["antennae","pattern"],"bee_group":{"antennae":"B","wings":"X","pattern":"D","legs":"X"},"bonus":1.180000000000001},{"rt":2526.199999988079,"stimulus":"bees-with-color/bee-B2SM.svg","response":1,"trial_type":"image-button-response","trial_index":119,"time_elapsed":722527,"internal_node_id":"0.0-4.0-0.56","subject_id":"5f034a2302f4ca23d764cdef","study_id":"60edd13110225f80f9f3709b","session_id":"6196bf622a672cc10028cdc1","condition":"contingent","relevant_dimensions":["antennae","pattern"],"bee_group":{"antennae":"B","wings":"X","pattern":"D","legs":"X"},"action":"avoid","summary":"bad-avoid","bonus":1.180000000000001},{"rt":1128.6000000238419,"stimulus":"\n                    <p><b>Action: <em>avoid</em></b></p>\n                    <p>This is the bee that you just saw.</p>\n                    <img src=\"bees-with-color/bee-B2SM.svg\" width=\"200\">\n                    <p><br>Your bonus pay is unchanged, and remains at $0.82.</p>\n            ","response":0,"trial_type":"html-button-response","trial_index":120,"time_elapsed":723658,"internal_node_id":"0.0-4.0-1.56","subject_id":"5f034a2302f4ca23d764cdef","study_id":"60edd13110225f80f9f3709b","session_id":"6196bf622a672cc10028cdc1","condition":"contingent","relevant_dimensions":["antennae","pattern"],"bee_group":{"antennae":"B","wings":"X","pattern":"D","legs":"X"},"bonus":1.180000000000001},{"rt":1255.1000000238419,"stimulus":"bees-with-color/bee-B2DM.svg","response":1,"trial_type":"image-button-response","trial_index":121,"time_elapsed":724917,"internal_node_id":"0.0-4.0-0.57","subject_id":"5f034a2302f4ca23d764cdef","study_id":"60edd13110225f80f9f3709b","session_id":"6196bf622a672cc10028cdc1","condition":"contingent","relevant_dimensions":["antennae","pattern"],"bee_group":{"antennae":"B","wings":"X","pattern":"D","legs":"X"},"action":"avoid","summary":"good-avoid","bonus":1.180000000000001},{"rt":723.8999999761581,"stimulus":"\n                    <p><b>Action: <em>avoid</em></b></p>\n                    <p>This is the bee that you just saw.</p>\n                    <img src=\"bees-with-color/bee-B2DM.svg\" width=\"200\">\n                    <p><br>Your bonus pay is unchanged, and remains at $0.82.</p>\n            ","response":0,"trial_type":"html-button-response","trial_index":122,"time_elapsed":725645,"internal_node_id":"0.0-4.0-1.57","subject_id":"5f034a2302f4ca23d764cdef","study_id":"60edd13110225f80f9f3709b","session_id":"6196bf622a672cc10028cdc1","condition":"contingent","relevant_dimensions":["antennae","pattern"],"bee_group":{"antennae":"B","wings":"X","pattern":"D","legs":"X"},"bonus":1.180000000000001},{"rt":1295.3999999761581,"stimulus":"bees-with-color/bee-B1DM.svg","response":1,"trial_type":"image-button-response","trial_index":123,"time_elapsed":726943,"internal_node_id":"0.0-4.0-0.58","subject_id":"5f034a2302f4ca23d764cdef","study_id":"60edd13110225f80f9f3709b","session_id":"6196bf622a672cc10028cdc1","condition":"contingent","relevant_dimensions":["antennae","pattern"],"bee_group":{"antennae":"B","wings":"X","pattern":"D","legs":"X"},"action":"avoid","summary":"good-avoid","bonus":1.180000000000001},{"rt":685.7999999523163,"stimulus":"\n                    <p><b>Action: <em>avoid</em></b></p>\n                    <p>This is the bee that you just saw.</p>\n                    <img src=\"bees-with-color/bee-B1DM.svg\" width=\"200\">\n                    <p><br>Your bonus pay is unchanged, and remains at $0.82.</p>\n            ","response":0,"trial_type":"html-button-response","trial_index":124,"time_elapsed":727632,"internal_node_id":"0.0-4.0-1.58","subject_id":"5f034a2302f4ca23d764cdef","study_id":"60edd13110225f80f9f3709b","session_id":"6196bf622a672cc10028cdc1","condition":"contingent","relevant_dimensions":["antennae","pattern"],"bee_group":{"antennae":"B","wings":"X","pattern":"D","legs":"X"},"bonus":1.180000000000001},{"rt":1317.8999999761581,"stimulus":"bees-with-color/bee-A2DM.svg","response":0,"trial_type":"image-button-response","trial_index":125,"time_elapsed":728954,"internal_node_id":"0.0-4.0-0.59","subject_id":"5f034a2302f4ca23d764cdef","study_id":"60edd13110225f80f9f3709b","session_id":"6196bf622a672cc10028cdc1","condition":"contingent","relevant_dimensions":["antennae","pattern"],"bee_group":{"antennae":"B","wings":"X","pattern":"D","legs":"X"},"action":"harvest","summary":"good-harvest","bonus":1.180000000000001},{"rt":666.8000000119209,"stimulus":"\n                    <p><b>Action: <em>harvest</em></b></p>\n                    <p>This is the bee that you just saw.</p>\n                    <img src=\"bees-with-color/bee-A2DM.svg\" width=\"200\">\n                    <p><span class=\"greenText\"><b>Successful harvest!</b></span><br>Your pay has increased by $0.02. Your bonus pay is now $0.84.</p>\n            ","response":0,"trial_type":"html-button-response","trial_index":126,"time_elapsed":729624,"internal_node_id":"0.0-4.0-1.59","subject_id":"5f034a2302f4ca23d764cdef","study_id":"60edd13110225f80f9f3709b","session_id":"6196bf622a672cc10028cdc1","condition":"contingent","relevant_dimensions":["antennae","pattern"],"bee_group":{"antennae":"B","wings":"X","pattern":"D","legs":"X"},"bonus":1.180000000000001},{"rt":3605,"stimulus":"bees-with-color/bee-A2DF.svg","response":0,"trial_type":"image-button-response","trial_index":127,"time_elapsed":733233,"internal_node_id":"0.0-4.0-0.60","subject_id":"5f034a2302f4ca23d764cdef","study_id":"60edd13110225f80f9f3709b","session_id":"6196bf622a672cc10028cdc1","condition":"contingent","relevant_dimensions":["antennae","pattern"],"bee_group":{"antennae":"B","wings":"X","pattern":"D","legs":"X"},"action":"harvest","summary":"good-harvest","bonus":1.180000000000001},{"rt":721.9000000357628,"stimulus":"\n                    <p><b>Action: <em>harvest</em></b></p>\n                    <p>This is the bee that you just saw.</p>\n                    <img src=\"bees-with-color/bee-A2DF.svg\" width=\"200\">\n                    <p><span class=\"greenText\"><b>Successful harvest!</b></span><br>Your pay has increased by $0.02. Your bonus pay is now $0.86.</p>\n            ","response":0,"trial_type":"html-button-response","trial_index":128,"time_elapsed":733959,"internal_node_id":"0.0-4.0-1.60","subject_id":"5f034a2302f4ca23d764cdef","study_id":"60edd13110225f80f9f3709b","session_id":"6196bf622a672cc10028cdc1","condition":"contingent","relevant_dimensions":["antennae","pattern"],"bee_group":{"antennae":"B","wings":"X","pattern":"D","legs":"X"},"bonus":1.180000000000001},{"rt":1380.6000000238419,"stimulus":"bees-with-color/bee-A1SM.svg","response":0,"trial_type":"image-button-response","trial_index":129,"time_elapsed":735344,"internal_node_id":"0.0-4.0-0.61","subject_id":"5f034a2302f4ca23d764cdef","study_id":"60edd13110225f80f9f3709b","session_id":"6196bf622a672cc10028cdc1","condition":"contingent","relevant_dimensions":["antennae","pattern"],"bee_group":{"antennae":"B","wings":"X","pattern":"D","legs":"X"},"action":"harvest","summary":"good-harvest","bonus":1.180000000000001},{"rt":814.1000000238419,"stimulus":"\n                    <p><b>Action: <em>harvest</em></b></p>\n                    <p>This is the bee that you just saw.</p>\n                    <img src=\"bees-with-color/bee-A1SM.svg\" width=\"200\">\n                    <p><span class=\"greenText\"><b>Successful harvest!</b></span><br>Your pay has increased by $0.02. Your bonus pay is now $0.88.</p>\n            ","response":0,"trial_type":"html-button-response","trial_index":130,"time_elapsed":736162,"internal_node_id":"0.0-4.0-1.61","subject_id":"5f034a2302f4ca23d764cdef","study_id":"60edd13110225f80f9f3709b","session_id":"6196bf622a672cc10028cdc1","condition":"contingent","relevant_dimensions":["antennae","pattern"],"bee_group":{"antennae":"B","wings":"X","pattern":"D","legs":"X"},"bonus":1.180000000000001},{"rt":1146,"stimulus":"bees-with-color/bee-B2SF.svg","response":1,"trial_type":"image-button-response","trial_index":131,"time_elapsed":737312,"internal_node_id":"0.0-4.0-0.62","subject_id":"5f034a2302f4ca23d764cdef","study_id":"60edd13110225f80f9f3709b","session_id":"6196bf622a672cc10028cdc1","condition":"contingent","relevant_dimensions":["antennae","pattern"],"bee_group":{"antennae":"B","wings":"X","pattern":"D","legs":"X"},"action":"avoid","summary":"bad-avoid","bonus":1.180000000000001},{"rt":1035.1000000238419,"stimulus":"\n                    <p><b>Action: <em>avoid</em></b></p>\n                    <p>This is the bee that you just saw.</p>\n                    <img src=\"bees-with-color/bee-B2SF.svg\" width=\"200\">\n                    <p><br>Your bonus pay is unchanged, and remains at $0.88.</p>\n            ","response":0,"trial_type":"html-button-response","trial_index":132,"time_elapsed":738351,"internal_node_id":"0.0-4.0-1.62","subject_id":"5f034a2302f4ca23d764cdef","study_id":"60edd13110225f80f9f3709b","session_id":"6196bf622a672cc10028cdc1","condition":"contingent","relevant_dimensions":["antennae","pattern"],"bee_group":{"antennae":"B","wings":"X","pattern":"D","legs":"X"},"bonus":1.180000000000001},{"rt":1462.5999999642372,"stimulus":"bees-with-color/bee-B1SM.svg","response":0,"trial_type":"image-button-response","trial_index":133,"time_elapsed":739818,"internal_node_id":"0.0-4.0-0.63","subject_id":"5f034a2302f4ca23d764cdef","study_id":"60edd13110225f80f9f3709b","session_id":"6196bf622a672cc10028cdc1","condition":"contingent","relevant_dimensions":["antennae","pattern"],"bee_group":{"antennae":"B","wings":"X","pattern":"D","legs":"X"},"action":"harvest","summary":"good-harvest","bonus":1.180000000000001},{"rt":809.4000000357628,"stimulus":"\n                    <p><b>Action: <em>harvest</em></b></p>\n                    <p>This is the bee that you just saw.</p>\n                    <img src=\"bees-with-color/bee-B1SM.svg\" width=\"200\">\n                    <p><span class=\"greenText\"><b>Successful harvest!</b></span><br>Your pay has increased by $0.02. Your bonus pay is now $0.90.</p>\n            ","response":0,"trial_type":"html-button-response","trial_index":134,"time_elapsed":740631,"internal_node_id":"0.0-4.0-1.63","subject_id":"5f034a2302f4ca23d764cdef","study_id":"60edd13110225f80f9f3709b","session_id":"6196bf622a672cc10028cdc1","condition":"contingent","relevant_dimensions":["antennae","pattern"],"bee_group":{"antennae":"B","wings":"X","pattern":"D","legs":"X"},"bonus":1.180000000000001},{"rt":3297.400000035763,"stimulus":"You have completed the first part of this experiment.<br><br>You will now begin a shorter second part, in which you will receive no feedback.<br>The same rules regarding bonus pay apply.<br><br>Press any key to begin.","response":" ","trial_type":"html-keyboard-response","trial_index":135,"time_elapsed":743930,"internal_node_id":"0.0-5.0","subject_id":"5f034a2302f4ca23d764cdef","study_id":"60edd13110225f80f9f3709b","session_id":"6196bf622a672cc10028cdc1","condition":"contingent","relevant_dimensions":["antennae","pattern"],"bee_group":{"antennae":"B","wings":"X","pattern":"D","legs":"X"},"bonus":1.180000000000001},{"rt":4236.399999976158,"stimulus":"bees-with-color/bee-A1DM.svg","response":0,"trial_type":"image-button-response","trial_index":136,"time_elapsed":748177,"internal_node_id":"0.0-6.0-0.0","subject_id":"5f034a2302f4ca23d764cdef","study_id":"60edd13110225f80f9f3709b","session_id":"6196bf622a672cc10028cdc1","condition":"contingent","relevant_dimensions":["antennae","pattern"],"bee_group":{"antennae":"B","wings":"X","pattern":"D","legs":"X"},"bonus":1.180000000000001},{"rt":11187.399999976158,"stimulus":"bees-with-color/bee-B1SF.svg","response":0,"trial_type":"image-button-response","trial_index":137,"time_elapsed":759372,"internal_node_id":"0.0-6.0-0.1","subject_id":"5f034a2302f4ca23d764cdef","study_id":"60edd13110225f80f9f3709b","session_id":"6196bf622a672cc10028cdc1","condition":"contingent","relevant_dimensions":["antennae","pattern"],"bee_group":{"antennae":"B","wings":"X","pattern":"D","legs":"X"},"bonus":1.180000000000001},{"rt":3029.5,"stimulus":"bees-with-color/bee-A2SF.svg","response":0,"trial_type":"image-button-response","trial_index":138,"time_elapsed":762404,"internal_node_id":"0.0-6.0-0.2","subject_id":"5f034a2302f4ca23d764cdef","study_id":"60edd13110225f80f9f3709b","session_id":"6196bf622a672cc10028cdc1","condition":"contingent","relevant_dimensions":["antennae","pattern"],"bee_group":{"antennae":"B","wings":"X","pattern":"D","legs":"X"},"bonus":1.180000000000001},{"rt":1439,"stimulus":"bees-with-color/bee-A2DF.svg","response":0,"trial_type":"image-button-response","trial_index":139,"time_elapsed":763845,"internal_node_id":"0.0-6.0-0.3","subject_id":"5f034a2302f4ca23d764cdef","study_id":"60edd13110225f80f9f3709b","session_id":"6196bf622a672cc10028cdc1","condition":"contingent","relevant_dimensions":["antennae","pattern"],"bee_group":{"antennae":"B","wings":"X","pattern":"D","legs":"X"},"bonus":1.180000000000001},{"rt":1873.3999999761581,"stimulus":"bees-with-color/bee-B2SM.svg","response":0,"trial_type":"image-button-response","trial_index":140,"time_elapsed":765726,"internal_node_id":"0.0-6.0-0.4","subject_id":"5f034a2302f4ca23d764cdef","study_id":"60edd13110225f80f9f3709b","session_id":"6196bf622a672cc10028cdc1","condition":"contingent","relevant_dimensions":["antennae","pattern"],"bee_group":{"antennae":"B","wings":"X","pattern":"D","legs":"X"},"bonus":1.180000000000001},{"rt":1641.6000000238419,"stimulus":"bees-with-color/bee-B2DM.svg","response":0,"trial_type":"image-button-response","trial_index":141,"time_elapsed":767372,"internal_node_id":"0.0-6.0-0.5","subject_id":"5f034a2302f4ca23d764cdef","study_id":"60edd13110225f80f9f3709b","session_id":"6196bf622a672cc10028cdc1","condition":"contingent","relevant_dimensions":["antennae","pattern"],"bee_group":{"antennae":"B","wings":"X","pattern":"D","legs":"X"},"bonus":1.180000000000001},{"rt":6359.199999988079,"stimulus":"bees-with-color/bee-B1SM.svg","response":1,"trial_type":"image-button-response","trial_index":142,"time_elapsed":773734,"internal_node_id":"0.0-6.0-0.6","subject_id":"5f034a2302f4ca23d764cdef","study_id":"60edd13110225f80f9f3709b","session_id":"6196bf622a672cc10028cdc1","condition":"contingent","relevant_dimensions":["antennae","pattern"],"bee_group":{"antennae":"B","wings":"X","pattern":"D","legs":"X"},"bonus":1.180000000000001},{"rt":1207.5,"stimulus":"bees-with-color/bee-B1DF.svg","response":1,"trial_type":"image-button-response","trial_index":143,"time_elapsed":774947,"internal_node_id":"0.0-6.0-0.7","subject_id":"5f034a2302f4ca23d764cdef","study_id":"60edd13110225f80f9f3709b","session_id":"6196bf622a672cc10028cdc1","condition":"contingent","relevant_dimensions":["antennae","pattern"],"bee_group":{"antennae":"B","wings":"X","pattern":"D","legs":"X"},"bonus":1.180000000000001},{"rt":2777.099999964237,"stimulus":"bees-with-color/bee-A1DF.svg","response":0,"trial_type":"image-button-response","trial_index":144,"time_elapsed":777731,"internal_node_id":"0.0-6.0-0.8","subject_id":"5f034a2302f4ca23d764cdef","study_id":"60edd13110225f80f9f3709b","session_id":"6196bf622a672cc10028cdc1","condition":"contingent","relevant_dimensions":["antennae","pattern"],"bee_group":{"antennae":"B","wings":"X","pattern":"D","legs":"X"},"bonus":1.180000000000001},{"rt":1279,"stimulus":"bees-with-color/bee-B2DF.svg","response":1,"trial_type":"image-button-response","trial_index":145,"time_elapsed":779017,"internal_node_id":"0.0-6.0-0.9","subject_id":"5f034a2302f4ca23d764cdef","study_id":"60edd13110225f80f9f3709b","session_id":"6196bf622a672cc10028cdc1","condition":"contingent","relevant_dimensions":["antennae","pattern"],"bee_group":{"antennae":"B","wings":"X","pattern":"D","legs":"X"},"bonus":1.180000000000001},{"rt":1901.699999988079,"stimulus":"bees-with-color/bee-A2SM.svg","response":0,"trial_type":"image-button-response","trial_index":146,"time_elapsed":780921,"internal_node_id":"0.0-6.0-0.10","subject_id":"5f034a2302f4ca23d764cdef","study_id":"60edd13110225f80f9f3709b","session_id":"6196bf622a672cc10028cdc1","condition":"contingent","relevant_dimensions":["antennae","pattern"],"bee_group":{"antennae":"B","wings":"X","pattern":"D","legs":"X"},"bonus":1.180000000000001},{"rt":1306.199999988079,"stimulus":"bees-with-color/bee-A1SM.svg","response":0,"trial_type":"image-button-response","trial_index":147,"time_elapsed":782232,"internal_node_id":"0.0-6.0-0.11","subject_id":"5f034a2302f4ca23d764cdef","study_id":"60edd13110225f80f9f3709b","session_id":"6196bf622a672cc10028cdc1","condition":"contingent","relevant_dimensions":["antennae","pattern"],"bee_group":{"antennae":"B","wings":"X","pattern":"D","legs":"X"},"bonus":1.180000000000001},{"rt":2975.199999988079,"stimulus":"bees-with-color/bee-A1SF.svg","response":0,"trial_type":"image-button-response","trial_index":148,"time_elapsed":785214,"internal_node_id":"0.0-6.0-0.12","subject_id":"5f034a2302f4ca23d764cdef","study_id":"60edd13110225f80f9f3709b","session_id":"6196bf622a672cc10028cdc1","condition":"contingent","relevant_dimensions":["antennae","pattern"],"bee_group":{"antennae":"B","wings":"X","pattern":"D","legs":"X"},"bonus":1.180000000000001},{"rt":1052.3999999761581,"stimulus":"bees-with-color/bee-B2SF.svg","response":1,"trial_type":"image-button-response","trial_index":149,"time_elapsed":786273,"internal_node_id":"0.0-6.0-0.13","subject_id":"5f034a2302f4ca23d764cdef","study_id":"60edd13110225f80f9f3709b","session_id":"6196bf622a672cc10028cdc1","condition":"contingent","relevant_dimensions":["antennae","pattern"],"bee_group":{"antennae":"B","wings":"X","pattern":"D","legs":"X"},"bonus":1.180000000000001},{"rt":1108.7000000476837,"stimulus":"bees-with-color/bee-B1DM.svg","response":1,"trial_type":"image-button-response","trial_index":150,"time_elapsed":787388,"internal_node_id":"0.0-6.0-0.14","subject_id":"5f034a2302f4ca23d764cdef","study_id":"60edd13110225f80f9f3709b","session_id":"6196bf622a672cc10028cdc1","condition":"contingent","relevant_dimensions":["antennae","pattern"],"bee_group":{"antennae":"B","wings":"X","pattern":"D","legs":"X"},"bonus":1.180000000000001},{"rt":1101.5999999642372,"stimulus":"bees-with-color/bee-A2DM.svg","response":0,"trial_type":"image-button-response","trial_index":151,"time_elapsed":788497,"internal_node_id":"0.0-6.0-0.15","subject_id":"5f034a2302f4ca23d764cdef","study_id":"60edd13110225f80f9f3709b","session_id":"6196bf622a672cc10028cdc1","condition":"contingent","relevant_dimensions":["antennae","pattern"],"bee_group":{"antennae":"B","wings":"X","pattern":"D","legs":"X"},"bonus":1.180000000000001},{"rt":1313.6000000238419,"stimulus":"bees-with-color/bee-A1DF.svg","response":0,"trial_type":"image-button-response","trial_index":152,"time_elapsed":789815,"internal_node_id":"0.0-6.0-0.16","subject_id":"5f034a2302f4ca23d764cdef","study_id":"60edd13110225f80f9f3709b","session_id":"6196bf622a672cc10028cdc1","condition":"contingent","relevant_dimensions":["antennae","pattern"],"bee_group":{"antennae":"B","wings":"X","pattern":"D","legs":"X"},"bonus":1.180000000000001},{"rt":1585.800000011921,"stimulus":"bees-with-color/bee-B2DM.svg","response":1,"trial_type":"image-button-response","trial_index":153,"time_elapsed":791403,"internal_node_id":"0.0-6.0-0.17","subject_id":"5f034a2302f4ca23d764cdef","study_id":"60edd13110225f80f9f3709b","session_id":"6196bf622a672cc10028cdc1","condition":"contingent","relevant_dimensions":["antennae","pattern"],"bee_group":{"antennae":"B","wings":"X","pattern":"D","legs":"X"},"bonus":1.180000000000001},{"rt":1434.1000000238419,"stimulus":"bees-with-color/bee-B1DF.svg","response":1,"trial_type":"image-button-response","trial_index":154,"time_elapsed":792842,"internal_node_id":"0.0-6.0-0.18","subject_id":"5f034a2302f4ca23d764cdef","study_id":"60edd13110225f80f9f3709b","session_id":"6196bf622a672cc10028cdc1","condition":"contingent","relevant_dimensions":["antennae","pattern"],"bee_group":{"antennae":"B","wings":"X","pattern":"D","legs":"X"},"bonus":1.180000000000001},{"rt":1951.4000000357628,"stimulus":"bees-with-color/bee-B1SF.svg","response":0,"trial_type":"image-button-response","trial_index":155,"time_elapsed":794798,"internal_node_id":"0.0-6.0-0.19","subject_id":"5f034a2302f4ca23d764cdef","study_id":"60edd13110225f80f9f3709b","session_id":"6196bf622a672cc10028cdc1","condition":"contingent","relevant_dimensions":["antennae","pattern"],"bee_group":{"antennae":"B","wings":"X","pattern":"D","legs":"X"},"bonus":1.180000000000001},{"rt":1108.4000000357628,"stimulus":"bees-with-color/bee-B1SM.svg","response":0,"trial_type":"image-button-response","trial_index":156,"time_elapsed":795909,"internal_node_id":"0.0-6.0-0.20","subject_id":"5f034a2302f4ca23d764cdef","study_id":"60edd13110225f80f9f3709b","session_id":"6196bf622a672cc10028cdc1","condition":"contingent","relevant_dimensions":["antennae","pattern"],"bee_group":{"antennae":"B","wings":"X","pattern":"D","legs":"X"},"bonus":1.180000000000001},{"rt":2029.5,"stimulus":"bees-with-color/bee-A2SM.svg","response":0,"trial_type":"image-button-response","trial_index":157,"time_elapsed":797943,"internal_node_id":"0.0-6.0-0.21","subject_id":"5f034a2302f4ca23d764cdef","study_id":"60edd13110225f80f9f3709b","session_id":"6196bf622a672cc10028cdc1","condition":"contingent","relevant_dimensions":["antennae","pattern"],"bee_group":{"antennae":"B","wings":"X","pattern":"D","legs":"X"},"bonus":1.180000000000001},{"rt":1539.800000011921,"stimulus":"bees-with-color/bee-A2DF.svg","response":1,"trial_type":"image-button-response","trial_index":158,"time_elapsed":799487,"internal_node_id":"0.0-6.0-0.22","subject_id":"5f034a2302f4ca23d764cdef","study_id":"60edd13110225f80f9f3709b","session_id":"6196bf622a672cc10028cdc1","condition":"contingent","relevant_dimensions":["antennae","pattern"],"bee_group":{"antennae":"B","wings":"X","pattern":"D","legs":"X"},"bonus":1.180000000000001},{"rt":1380.5,"stimulus":"bees-with-color/bee-A2SF.svg","response":0,"trial_type":"image-button-response","trial_index":159,"time_elapsed":800872,"internal_node_id":"0.0-6.0-0.23","subject_id":"5f034a2302f4ca23d764cdef","study_id":"60edd13110225f80f9f3709b","session_id":"6196bf622a672cc10028cdc1","condition":"contingent","relevant_dimensions":["antennae","pattern"],"bee_group":{"antennae":"B","wings":"X","pattern":"D","legs":"X"},"bonus":1.180000000000001},{"rt":1178,"stimulus":"bees-with-color/bee-B2DF.svg","response":1,"trial_type":"image-button-response","trial_index":160,"time_elapsed":802056,"internal_node_id":"0.0-6.0-0.24","subject_id":"5f034a2302f4ca23d764cdef","study_id":"60edd13110225f80f9f3709b","session_id":"6196bf622a672cc10028cdc1","condition":"contingent","relevant_dimensions":["antennae","pattern"],"bee_group":{"antennae":"B","wings":"X","pattern":"D","legs":"X"},"bonus":1.180000000000001},{"rt":9407.5,"stimulus":"bees-with-color/bee-A1SF.svg","response":0,"trial_type":"image-button-response","trial_index":161,"time_elapsed":811468,"internal_node_id":"0.0-6.0-0.25","subject_id":"5f034a2302