[{"success":true,"trial_type":"fullscreen","trial_index":0,"time_elapsed":23816,"internal_node_id":"0.0-0.0","subject_id":"5f20552d41aabd0e9fd6aab2","study_id":"60edd13110225f80f9f3709b","session_id":"6196c1f45374a715cfdfd777","condition":"full-information","relevant_dimensions":["antennae","pattern"],"bee_group":{"antennae":"A","wings":"X","pattern":"S","legs":"X"},"bonus":1.5000000000000013},{"success":true,"timeout":false,"failed_images":[],"failed_audio":[],"failed_video":[],"trial_type":"preload","trial_index":1,"time_elapsed":25835,"internal_node_id":"0.0-1.0","subject_id":"5f20552d41aabd0e9fd6aab2","study_id":"60edd13110225f80f9f3709b","session_id":"6196c1f45374a715cfdfd777","condition":"full-information","relevant_dimensions":["antennae","pattern"],"bee_group":{"antennae":"A","wings":"X","pattern":"S","legs":"X"},"bonus":1.5000000000000013},{"rt":1975.8000000044703,"stimulus":"Welcome! Press any key to begin.","response":"l","trial_type":"html-keyboard-response","trial_index":2,"time_elapsed":27813,"internal_node_id":"0.0-2.0","subject_id":"5f20552d41aabd0e9fd6aab2","study_id":"60edd13110225f80f9f3709b","session_id":"6196c1f45374a715cfdfd777","condition":"full-information","relevant_dimensions":["antennae","pattern"],"bee_group":{"antennae":"A","wings":"X","pattern":"S","legs":"X"},"bonus":1.5000000000000013},{"view_history":[{"page_index":0,"viewing_time":3200.7999999970198},{"page_index":1,"viewing_time":9792.60000000149},{"page_index":2,"viewing_time":11941.70000000298},{"page_index":3,"viewing_time":12262.60000000149},{"page_index":4,"viewing_time":9121.79999999702},{"page_index":5,"viewing_time":8822.89999999851},{"page_index":6,"viewing_time":8682.80000000447},{"page_index":7,"viewing_time":17112.5},{"page_index":8,"viewing_time":7023},{"page_index":9,"viewing_time":4843.89999999851},{"page_index":10,"viewing_time":4412.60000000149},{"page_index":11,"viewing_time":8363.09999999404},{"page_index":12,"viewing_time":6853.60000000149},{"page_index":13,"viewing_time":1051.8999999985099},{"page_index":14,"viewing_time":1633.2000000029802}],"rt":115119.5,"trial_type":"instructions","trial_index":3,"time_elapsed":142935,"internal_node_id":"0.0-3.0-0.0","subject_id":"5f20552d41aabd0e9fd6aab2","study_id":"60edd13110225f80f9f3709b","session_id":"6196c1f45374a715cfdfd777","condition":"full-information","relevant_dimensions":["antennae","pattern"],"bee_group":{"antennae":"A","wings":"X","pattern":"S","legs":"X"},"bonus":1.5000000000000013},{"rt":11717.89999999851,"response":{"Q0":["Two or six legs","Stripes or spots on body","Single or double wings","Antennae or no antennae"]},"question_order":[0],"trial_type":"survey-multi-select","trial_index":4,"time_elapsed":154660,"internal_node_id":"0.0-3.0-1.0","subject_id":"5f20552d41aabd0e9fd6aab2","study_id":"60edd13110225f80f9f3709b","session_id":"6196c1f45374a715cfdfd777","condition":"full-information","relevant_dimensions":["antennae","pattern"],"bee_group":{"antennae":"A","wings":"X","pattern":"S","legs":"X"},"correct":true,"bonus":1.5000000000000013},{"rt":25374.19999999553,"response":{"Q1":"No.","Q2":"Based on the four features of the bee.","Q3":"You learn if it was friendly or dangerous, but do not alter your bonus."},"question_order":[0,1,2],"trial_type":"survey-multi-choice","trial_index":5,"time_elapsed":180043,"internal_node_id":"0.0-3.0-2.0","subject_id":"5f20552d41aabd0e9fd6aab2","study_id":"60edd13110225f80f9f3709b","session_id":"6196c1f45374a715cfdfd777","condition":"full-information","relevant_dimensions":["antennae","pattern"],"bee_group":{"antennae":"A","wings":"X","pattern":"S","legs":"X"},"correct":true,"bonus":1.5000000000000013},{"rt":2373.60000000149,"stimulus":"<p>Congrats, you got everything right<br>When you're ready, click the button below to continue to the experiment.</p>","response":0,"trial_type":"html-button-response","trial_index":6,"time_elapsed":182424,"internal_node_id":"0.0-3.0-3.0","subject_id":"5f20552d41aabd0e9fd6aab2","study_id":"60edd13110225f80f9f3709b","session_id":"6196c1f45374a715cfdfd777","condition":"full-information","relevant_dimensions":["antennae","pattern"],"bee_group":{"antennae":"A","wings":"X","pattern":"S","legs":"X"},"bonus":1.5000000000000013},{"rt":3127.2999999970198,"stimulus":"bees-with-color/bee-A2SF.svg","response":0,"trial_type":"image-button-response","trial_index":7,"time_elapsed":185557,"internal_node_id":"0.0-4.0-0.0","subject_id":"5f20552d41aabd0e9fd6aab2","study_id":"60edd13110225f80f9f3709b","session_id":"6196c1f45374a715cfdfd777","condition":"full-information","relevant_dimensions":["antennae","pattern"],"bee_group":{"antennae":"A","wings":"X","pattern":"S","legs":"X"},"action":"harvest","summary":"bad-harvest","bonus":1.5000000000000013},{"rt":8109.70000000298,"stimulus":"\n                    <p><b>Action: <em>harvest</em></b></p>\n                    <p>This is the bee that you just saw.</p>\n                    <img src=\"bees-with-color/bee-A2SF.svg\" width=\"200\">\n                    <p><span class=\"redText\">Bad choice, the bee was angry.</span><br><b>You have been stung!</b><br>Your pay has been decreased by $0.10. Your bonus pay is now $0.44.</p>\n            ","response":0,"trial_type":"html-button-response","trial_index":8,"time_elapsed":193671,"internal_node_id":"0.0-4.0-1.0","subject_id":"5f20552d41aabd0e9fd6aab2","study_id":"60edd13110225f80f9f3709b","session_id":"6196c1f45374a715cfdfd777","condition":"full-information","relevant_dimensions":["antennae","pattern"],"bee_group":{"antennae":"A","wings":"X","pattern":"S","legs":"X"},"bonus":1.5000000000000013},{"rt":1638.3999999985099,"stimulus":"bees-with-color/bee-A2DF.svg","response":1,"trial_type":"image-button-response","trial_index":9,"time_elapsed":195312,"internal_node_id":"0.0-4.0-0.1","subject_id":"5f20552d41aabd0e9fd6aab2","study_id":"60edd13110225f80f9f3709b","session_id":"6196c1f45374a715cfdfd777","condition":"full-information","relevant_dimensions":["antennae","pattern"],"bee_group":{"antennae":"A","wings":"X","pattern":"S","legs":"X"},"action":"avoid","summary":"bad-avoid","bonus":1.5000000000000013},{"rt":4900.39999999851,"stimulus":"\n                    <p><b>Action: <em>avoid</em></b></p>\n                    <p>This is the bee that you just saw.</p>\n                    <img src=\"bees-with-color/bee-A2DF.svg\" width=\"200\">\n                    <p><span class=\"redText\">Bad choice,</span> the bee was friendly.<br>Your bonus pay is unchanged, and remains at $0.44.</p>\n            ","response":0,"trial_type":"html-button-response","trial_index":10,"time_elapsed":200215,"internal_node_id":"0.0-4.0-1.1","subject_id":"5f20552d41aabd0e9fd6aab2","study_id":"60edd13110225f80f9f3709b","session_id":"6196c1f45374a715cfdfd777","condition":"full-information","relevant_dimensions":["antennae","pattern"],"bee_group":{"antennae":"A","wings":"X","pattern":"S","legs":"X"},"bonus":1.5000000000000013},{"rt":1649,"stimulus":"bees-with-color/bee-B2DM.svg","response":0,"trial_type":"image-button-response","trial_index":11,"time_elapsed":201868,"internal_node_id":"0.0-4.0-0.2","subject_id":"5f20552d41aabd0e9fd6aab2","study_id":"60edd13110225f80f9f3709b","session_id":"6196c1f45374a715cfdfd777","condition":"full-information","relevant_dimensions":["antennae","pattern"],"bee_group":{"antennae":"A","wings":"X","pattern":"S","legs":"X"},"action":"harvest","summary":"good-harvest","bonus":1.5000000000000013},{"rt":6230.19999999553,"stimulus":"\n                    <p><b>Action: <em>harvest</em></b></p>\n                    <p>This is the bee that you just saw.</p>\n                    <img src=\"bees-with-color/bee-B2DM.svg\" width=\"200\">\n                    <p><span class=\"greenText\"><b>Successful harvest!</b></span><br>Your pay has increased by $0.02. Your bonus pay is now $0.46.</p>\n            ","response":0,"trial_type":"html-button-response","trial_index":12,"time_elapsed":208100,"internal_node_id":"0.0-4.0-1.2","subject_id":"5f20552d41aabd0e9fd6aab2","study_id":"60edd13110225f80f9f3709b","session_id":"6196c1f45374a715cfdfd777","condition":"full-information","relevant_dimensions":["antennae","pattern"],"bee_group":{"antennae":"A","wings":"X","pattern":"S","legs":"X"},"bonus":1.5000000000000013},{"rt":2139.6999999955297,"stimulus":"bees-with-color/bee-A2DM.svg","response":0,"trial_type":"image-button-response","trial_index":13,"time_elapsed":210243,"internal_node_id":"0.0-4.0-0.3","subject_id":"5f20552d41aabd0e9fd6aab2","study_id":"60edd13110225f80f9f3709b","session_id":"6196c1f45374a715cfdfd777","condition":"full-information","relevant_dimensions":["antennae","pattern"],"bee_group":{"antennae":"A","wings":"X","pattern":"S","legs":"X"},"action":"harvest","summary":"good-harvest","bonus":1.5000000000000013},{"rt":2250.7999999970198,"stimulus":"\n                    <p><b>Action: <em>harvest</em></b></p>\n                    <p>This is the bee that you just saw.</p>\n                    <img src=\"bees-with-color/bee-A2DM.svg\" width=\"200\">\n                    <p><span class=\"greenText\"><b>Successful harvest!</b></span><br>Your pay has increased by $0.02. Your bonus pay is now $0.48.</p>\n            ","response":0,"trial_type":"html-button-response","trial_index":14,"time_elapsed":212495,"internal_node_id":"0.0-4.0-1.3","subject_id":"5f20552d41aabd0e9fd6aab2","study_id":"60edd13110225f80f9f3709b","session_id":"6196c1f45374a715cfdfd777","condition":"full-information","relevant_dimensions":["antennae","pattern"],"bee_group":{"antennae":"A","wings":"X","pattern":"S","legs":"X"},"bonus":1.5000000000000013},{"rt":1200.1000000014901,"stimulus":"bees-with-color/bee-B2SM.svg","response":1,"trial_type":"image-button-response","trial_index":15,"time_elapsed":213698,"internal_node_id":"0.0-4.0-0.4","subject_id":"5f20552d41aabd0e9fd6aab2","study_id":"60edd13110225f80f9f3709b","session_id":"6196c1f45374a715cfdfd777","condition":"full-information","relevant_dimensions":["antennae","pattern"],"bee_group":{"antennae":"A","wings":"X","pattern":"S","legs":"X"},"action":"avoid","summary":"bad-avoid","bonus":1.5000000000000013},{"rt":5260.20000000298,"stimulus":"\n                    <p><b>Action: <em>avoid</em></b></p>\n                    <p>This is the bee that you just saw.</p>\n                    <img src=\"bees-with-color/bee-B2SM.svg\" width=\"200\">\n                    <p><span class=\"redText\">Bad choice,</span> the bee was friendly.<br>Your bonus pay is unchanged, and remains at $0.48.</p>\n            ","response":0,"trial_type":"html-button-response","trial_index":16,"time_elapsed":218961,"internal_node_id":"0.0-4.0-1.4","subject_id":"5f20552d41aabd0e9fd6aab2","study_id":"60edd13110225f80f9f3709b","session_id":"6196c1f45374a715cfdfd777","condition":"full-information","relevant_dimensions":["antennae","pattern"],"bee_group":{"antennae":"A","wings":"X","pattern":"S","legs":"X"},"bonus":1.5000000000000013},{"rt":1769.2999999970198,"stimulus":"bees-with-color/bee-B1DM.svg","response":0,"trial_type":"image-button-response","trial_index":17,"time_elapsed":220734,"internal_node_id":"0.0-4.0-0.5","subject_id":"5f20552d41aabd0e9fd6aab2","study_id":"60edd13110225f80f9f3709b","session_id":"6196c1f45374a715cfdfd777","condition":"full-information","relevant_dimensions":["antennae","pattern"],"bee_group":{"antennae":"A","wings":"X","pattern":"S","legs":"X"},"action":"harvest","summary":"good-harvest","bonus":1.5000000000000013},{"rt":2019.5,"stimulus":"\n                    <p><b>Action: <em>harvest</em></b></p>\n                    <p>This is the bee that you just saw.</p>\n                    <img src=\"bees-with-color/bee-B1DM.svg\" width=\"200\">\n                    <p><span class=\"greenText\"><b>Successful harvest!</b></span><br>Your pay has increased by $0.02. Your bonus pay is now $0.50.</p>\n            ","response":0,"trial_type":"html-button-response","trial_index":18,"time_elapsed":222756,"internal_node_id":"0.0-4.0-1.5","subject_id":"5f20552d41aabd0e9fd6aab2","study_id":"60edd13110225f80f9f3709b","session_id":"6196c1f45374a715cfdfd777","condition":"full-information","relevant_dimensions":["antennae","pattern"],"bee_group":{"antennae":"A","wings":"X","pattern":"S","legs":"X"},"bonus":1.5000000000000013},{"rt":2059.39999999851,"stimulus":"bees-with-color/bee-B1SF.svg","response":1,"trial_type":"image-button-response","trial_index":19,"time_elapsed":224818,"internal_node_id":"0.0-4.0-0.6","subject_id":"5f20552d41aabd0e9fd6aab2","study_id":"60edd13110225f80f9f3709b","session_id":"6196c1f45374a715cfdfd777","condition":"full-information","relevant_dimensions":["antennae","pattern"],"bee_group":{"antennae":"A","wings":"X","pattern":"S","legs":"X"},"action":"avoid","summary":"bad-avoid","bonus":1.5000000000000013},{"rt":3310.5,"stimulus":"\n                    <p><b>Action: <em>avoid</em></b></p>\n                    <p>This is the bee that you just saw.</p>\n                    <img src=\"bees-with-color/bee-B1SF.svg\" width=\"200\">\n                    <p><span class=\"redText\">Bad choice,</span> the bee was friendly.<br>Your bonus pay is unchanged, and remains at $0.50.</p>\n            ","response":0,"trial_type":"html-button-response","trial_index":20,"time_elapsed":228131,"internal_node_id":"0.0-4.0-1.6","subject_id":"5f20552d41aabd0e9fd6aab2","study_id":"60edd13110225f80f9f3709b","session_id":"6196c1f45374a715cfdfd777","condition":"full-information","relevant_dimensions":["antennae","pattern"],"bee_group":{"antennae":"A","wings":"X","pattern":"S","legs":"X"},"bonus":1.5000000000000013},{"rt":3520,"stimulus":"bees-with-color/bee-A1SF.svg","response":1,"trial_type":"image-button-response","trial_index":21,"time_elapsed":231654,"internal_node_id":"0.0-4.0-0.7","subject_id":"5f20552d41aabd0e9fd6aab2","study_id":"60edd13110225f80f9f3709b","session_id":"6196c1f45374a715cfdfd777","condition":"full-information","relevant_dimensions":["antennae","pattern"],"bee_group":{"antennae":"A","wings":"X","pattern":"S","legs":"X"},"action":"avoid","summary":"good-avoid","bonus":1.5000000000000013},{"rt":4109.60000000149,"stimulus":"\n                    <p><b>Action: <em>avoid</em></b></p>\n                    <p>This is the bee that you just saw.</p>\n                    <img src=\"bees-with-color/bee-A1SF.svg\" width=\"200\">\n                    <p><span class=\"greenText\">Good choice!</span>  This bee would have stung you.<br>Your bonus pay is unchanged, and remains at $0.50.</p>\n            ","response":0,"trial_type":"html-button-response","trial_index":22,"time_elapsed":235766,"internal_node_id":"0.0-4.0-1.7","subject_id":"5f20552d41aabd0e9fd6aab2","study_id":"60edd13110225f80f9f3709b","session_id":"6196c1f45374a715cfdfd777","condition":"full-information","relevant_dimensions":["antennae","pattern"],"bee_group":{"antennae":"A","wings":"X","pattern":"S","legs":"X"},"bonus":1.5000000000000013},{"rt":1298.6000000014901,"stimulus":"bees-with-color/bee-B2DF.svg","response":0,"trial_type":"image-button-response","trial_index":23,"time_elapsed":237068,"internal_node_id":"0.0-4.0-0.8","subject_id":"5f20552d41aabd0e9fd6aab2","study_id":"60edd13110225f80f9f3709b","session_id":"6196c1f45374a715cfdfd777","condition":"full-information","relevant_dimensions":["antennae","pattern"],"bee_group":{"antennae":"A","wings":"X","pattern":"S","legs":"X"},"action":"harvest","summary":"good-harvest","bonus":1.5000000000000013},{"rt":2739.2999999970198,"stimulus":"\n                    <p><b>Action: <em>harvest</em></b></p>\n                    <p>This is the bee that you just saw.</p>\n                    <img src=\"bees-with-color/bee-B2DF.svg\" width=\"200\">\n                    <p><span class=\"greenText\"><b>Successful harvest!</b></span><br>Your pay has increased by $0.02. Your bonus pay is now $0.52.</p>\n            ","response":0,"trial_type":"html-button-response","trial_index":24,"time_elapsed":239809,"internal_node_id":"0.0-4.0-1.8","subject_id":"5f20552d41aabd0e9fd6aab2","study_id":"60edd13110225f80f9f3709b","session_id":"6196c1f45374a715cfdfd777","condition":"full-information","relevant_dimensions":["antennae","pattern"],"bee_group":{"antennae":"A","wings":"X","pattern":"S","legs":"X"},"bonus":1.5000000000000013},{"rt":1169.2000000029802,"stimulus":"bees-with-color/bee-A1DF.svg","response":0,"trial_type":"image-button-response","trial_index":25,"time_elapsed":240982,"internal_node_id":"0.0-4.0-0.9","subject_id":"5f20552d41aabd0e9fd6aab2","study_id":"60edd13110225f80f9f3709b","session_id":"6196c1f45374a715cfdfd777","condition":"full-information","relevant_dimensions":["antennae","pattern"],"bee_group":{"antennae":"A","wings":"X","pattern":"S","legs":"X"},"action":"harvest","summary":"good-harvest","bonus":1.5000000000000013},{"rt":799,"stimulus":"\n                    <p><b>Action: <em>harvest</em></b></p>\n                    <p>This is the bee that you just saw.</p>\n                    <img src=\"bees-with-color/bee-A1DF.svg\" width=\"200\">\n                    <p><span class=\"greenText\"><b>Successful harvest!</b></span><br>Your pay has increased by $0.02. Your bonus pay is now $0.54.</p>\n            ","response":0,"trial_type":"html-button-response","trial_index":26,"time_elapsed":241783,"internal_node_id":"0.0-4.0-1.9","subject_id":"5f20552d41aabd0e9fd6aab2","study_id":"60edd13110225f80f9f3709b","session_id":"6196c1f45374a715cfdfd777","condition":"full-information","relevant_dimensions":["antennae","pattern"],"bee_group":{"antennae":"A","wings":"X","pattern":"S","legs":"X"},"bonus":1.5000000000000013},{"rt":2240.7999999970198,"stimulus":"bees-with-color/bee-A1SM.svg","response":0,"trial_type":"image-button-response","trial_index":27,"time_elapsed":244027,"internal_node_id":"0.0-4.0-0.10","subject_id":"5f20552d41aabd0e9fd6aab2","study_id":"60edd13110225f80f9f3709b","session_id":"6196c1f45374a715cfdfd777","condition":"full-information","relevant_dimensions":["antennae","pattern"],"bee_group":{"antennae":"A","wings":"X","pattern":"S","legs":"X"},"action":"harvest","summary":"bad-harvest","bonus":1.5000000000000013},{"rt":4749,"stimulus":"\n                    <p><b>Action: <em>harvest</em></b></p>\n                    <p>This is the bee that you just saw.</p>\n                    <img src=\"bees-with-color/bee-A1SM.svg\" width=\"200\">\n                    <p><span class=\"redText\">Bad choice, the bee was angry.</span><br><b>You have been stung!</b><br>Your pay has been decreased by $0.10. Your bonus pay is now $0.44.</p>\n            ","response":0,"trial_type":"html-button-response","trial_index":28,"time_elapsed":248779,"internal_node_id":"0.0-4.0-1.10","subject_id":"5f20552d41aabd0e9fd6aab2","study_id":"60edd13110225f80f9f3709b","session_id":"6196c1f45374a715cfdfd777","condition":"full-information","relevant_dimensions":["antennae","pattern"],"bee_group":{"antennae":"A","wings":"X","pattern":"S","legs":"X"},"bonus":1.5000000000000013},{"rt":2118.5,"stimulus":"bees-with-color/bee-A2SM.svg","response":0,"trial_type":"image-button-response","trial_index":29,"time_elapsed":250901,"internal_node_id":"0.0-4.0-0.11","subject_id":"5f20552d41aabd0e9fd6aab2","study_id":"60edd13110225f80f9f3709b","session_id":"6196c1f45374a715cfdfd777","condition":"full-information","relevant_dimensions":["antennae","pattern"],"bee_group":{"antennae":"A","wings":"X","pattern":"S","legs":"X"},"action":"harvest","summary":"bad-harvest","bonus":1.5000000000000013},{"rt":4539.79999999702,"stimulus":"\n                    <p><b>Action: <em>harvest</em></b></p>\n                    <p>This is the bee that you just saw.</p>\n                    <img src=\"bees-with-color/bee-A2SM.svg\" width=\"200\">\n                    <p><span class=\"redText\">Bad choice, the bee was angry.</span><br><b>You have been stung!</b><br>Your pay has been decreased by $0.10. Your bonus pay is now $0.34.</p>\n            ","response":0,"trial_type":"html-button-response","trial_index":30,"time_elapsed":255443,"internal_node_id":"0.0-4.0-1.11","subject_id":"5f20552d41aabd0e9fd6aab2","study_id":"60edd13110225f80f9f3709b","session_id":"6196c1f45374a715cfdfd777","condition":"full-information","relevant_dimensions":["antennae","pattern"],"bee_group":{"antennae":"A","wings":"X","pattern":"S","legs":"X"},"bonus":1.5000000000000013},{"rt":1488.7999999970198,"stimulus":"bees-with-color/bee-B1SM.svg","response":0,"trial_type":"image-button-response","trial_index":31,"time_elapsed":256935,"internal_node_id":"0.0-4.0-0.12","subject_id":"5f20552d41aabd0e9fd6aab2","study_id":"60edd13110225f80f9f3709b","session_id":"6196c1f45374a715cfdfd777","condition":"full-information","relevant_dimensions":["antennae","pattern"],"bee_group":{"antennae":"A","wings":"X","pattern":"S","legs":"X"},"action":"harvest","summary":"good-harvest","bonus":1.5000000000000013},{"rt":1380.3999999985099,"stimulus":"\n                    <p><b>Action: <em>harvest</em></b></p>\n                    <p>This is the bee that you just saw.</p>\n                    <img src=\"bees-with-color/bee-B1SM.svg\" width=\"200\">\n                    <p><span class=\"greenText\"><b>Successful harvest!</b></span><br>Your pay has increased by $0.02. Your bonus pay is now $0.36.</p>\n            ","response":0,"trial_type":"html-button-response","trial_index":32,"time_elapsed":258317,"internal_node_id":"0.0-4.0-1.12","subject_id":"5f20552d41aabd0e9fd6aab2","study_id":"60edd13110225f80f9f3709b","session_id":"6196c1f45374a715cfdfd777","condition":"full-information","relevant_dimensions":["antennae","pattern"],"bee_group":{"antennae":"A","wings":"X","pattern":"S","legs":"X"},"bonus":1.5000000000000013},{"rt":1551,"stimulus":"bees-with-color/bee-B1DF.svg","response":0,"trial_type":"image-button-response","trial_index":33,"time_elapsed":259870,"internal_node_id":"0.0-4.0-0.13","subject_id":"5f20552d41aabd0e9fd6aab2","study_id":"60edd13110225f80f9f3709b","session_id":"6196c1f45374a715cfdfd777","condition":"full-information","relevant_dimensions":["antennae","pattern"],"bee_group":{"antennae":"A","wings":"X","pattern":"S","legs":"X"},"action":"harvest","summary":"good-harvest","bonus":1.5000000000000013},{"rt":621.4000000059605,"stimulus":"\n                    <p><b>Action: <em>harvest</em></b></p>\n                    <p>This is the bee that you just saw.</p>\n                    <img src=\"bees-with-color/bee-B1DF.svg\" width=\"200\">\n                    <p><span class=\"greenText\"><b>Successful harvest!</b></span><br>Your pay has increased by $0.02. Your bonus pay is now $0.38.</p>\n            ","response":0,"trial_type":"html-button-response","trial_index":34,"time_elapsed":260492,"internal_node_id":"0.0-4.0-1.13","subject_id":"5f20552d41aabd0e9fd6aab2","study_id":"60edd13110225f80f9f3709b","session_id":"6196c1f45374a715cfdfd777","condition":"full-information","relevant_dimensions":["antennae","pattern"],"bee_group":{"antennae":"A","wings":"X","pattern":"S","legs":"X"},"bonus":1.5000000000000013},{"rt":1370,"stimulus":"bees-with-color/bee-A1DM.svg","response":0,"trial_type":"image-button-response","trial_index":35,"time_elapsed":261865,"internal_node_id":"0.0-4.0-0.14","subject_id":"5f20552d41aabd0e9fd6aab2","study_id":"60edd13110225f80f9f3709b","session_id":"6196c1f45374a715cfdfd777","condition":"full-information","relevant_dimensions":["antennae","pattern"],"bee_group":{"antennae":"A","wings":"X","pattern":"S","legs":"X"},"action":"harvest","summary":"good-harvest","bonus":1.5000000000000013},{"rt":519.1000000014901,"stimulus":"\n                    <p><b>Action: <em>harvest</em></b></p>\n                    <p>This is the bee that you just saw.</p>\n                    <img src=\"bees-with-color/bee-A1DM.svg\" width=\"200\">\n                    <p><span class=\"greenText\"><b>Successful harvest!</b></span><br>Your pay has increased by $0.02. Your bonus pay is now $0.40.</p>\n            ","response":0,"trial_type":"html-button-response","trial_index":36,"time_elapsed":262386,"internal_node_id":"0.0-4.0-1.14","subject_id":"5f20552d41aabd0e9fd6aab2","study_id":"60edd13110225f80f9f3709b","session_id":"6196c1f45374a715cfdfd777","condition":"full-information","relevant_dimensions":["antennae","pattern"],"bee_group":{"antennae":"A","wings":"X","pattern":"S","legs":"X"},"bonus":1.5000000000000013},{"rt":5172.0999999940395,"stimulus":"bees-with-color/bee-B2SF.svg","response":0,"trial_type":"image-button-response","trial_index":37,"time_elapsed":267560,"internal_node_id":"0.0-4.0-0.15","subject_id":"5f20552d41aabd0e9fd6aab2","study_id":"60edd13110225f80f9f3709b","session_id":"6196c1f45374a715cfdfd777","condition":"full-information","relevant_dimensions":["antennae","pattern"],"bee_group":{"antennae":"A","wings":"X","pattern":"S","legs":"X"},"action":"harvest","summary":"good-harvest","bonus":1.5000000000000013},{"rt":919.7999999970198,"stimulus":"\n                    <p><b>Action: <em>harvest</em></b></p>\n                    <p>This is the bee that you just saw.</p>\n                    <img src=\"bees-with-color/bee-B2SF.svg\" width=\"200\">\n                    <p><span class=\"greenText\"><b>Successful harvest!</b></span><br>Your pay has increased by $0.02. Your bonus pay is now $0.42.</p>\n            ","response":0,"trial_type":"html-button-response","trial_index":38,"time_elapsed":268482,"internal_node_id":"0.0-4.0-1.15","subject_id":"5f20552d41aabd0e9fd6aab2","study_id":"60edd13110225f80f9f3709b","session_id":"6196c1f45374a715cfdfd777","condition":"full-information","relevant_dimensions":["antennae","pattern"],"bee_group":{"antennae":"A","wings":"X","pattern":"S","legs":"X"},"bonus":1.5000000000000013},{"rt":1501.3999999985099,"stimulus":"bees-with-color/bee-A1SF.svg","response":1,"trial_type":"image-button-response","trial_index":39,"time_elapsed":269985,"internal_node_id":"0.0-4.0-0.16","subject_id":"5f20552d41aabd0e9fd6aab2","study_id":"60edd13110225f80f9f3709b","session_id":"6196c1f45374a715cfdfd777","condition":"full-information","relevant_dimensions":["antennae","pattern"],"bee_group":{"antennae":"A","wings":"X","pattern":"S","legs":"X"},"action":"avoid","summary":"good-avoid","bonus":1.5000000000000013},{"rt":4019.5,"stimulus":"\n                    <p><b>Action: <em>avoid</em></b></p>\n                    <p>This is the bee that you just saw.</p>\n                    <img src=\"bees-with-color/bee-A1SF.svg\" width=\"200\">\n                    <p><span class=\"greenText\">Good choice!</span>  This bee would have stung you.<br>Your bonus pay is unchanged, and remains at $0.42.</p>\n            ","response":0,"trial_type":"html-button-response","trial_index":40,"time_elapsed":274007,"internal_node_id":"0.0-4.0-1.16","subject_id":"5f20552d41aabd0e9fd6aab2","study_id":"60edd13110225f80f9f3709b","session_id":"6196c1f45374a715cfdfd777","condition":"full-information","relevant_dimensions":["antennae","pattern"],"bee_group":{"antennae":"A","wings":"X","pattern":"S","legs":"X"},"bonus":1.5000000000000013},{"rt":3181.10000000149,"stimulus":"bees-with-color/bee-A2SF.svg","response":1,"trial_type":"image-button-response","trial_index":41,"time_elapsed":277190,"internal_node_id":"0.0-4.0-0.17","subject_id":"5f20552d41aabd0e9fd6aab2","study_id":"60edd13110225f80f9f3709b","session_id":"6196c1f45374a715cfdfd777","condition":"full-information","relevant_dimensions":["antennae","pattern"],"bee_group":{"antennae":"A","wings":"X","pattern":"S","legs":"X"},"action":"avoid","summary":"good-avoid","bonus":1.5000000000000013},{"rt":888.1999999955297,"stimulus":"\n                    <p><b>Action: <em>avoid</em></b></p>\n                    <p>This is the bee that you just saw.</p>\n                    <img src=\"bees-with-color/bee-A2SF.svg\" width=\"200\">\n                    <p><span class=\"greenText\">Good choice!</span>  This bee would have stung you.<br>Your bonus pay is unchanged, and remains at $0.42.</p>\n            ","response":0,"trial_type":"html-button-response","trial_index":42,"time_elapsed":278080,"internal_node_id":"0.0-4.0-1.17","subject_id":"5f20552d41aabd0e9fd6aab2","study_id":"60edd13110225f80f9f3709b","session_id":"6196c1f45374a715cfdfd777","condition":"full-information","relevant_dimensions":["antennae","pattern"],"bee_group":{"antennae":"A","wings":"X","pattern":"S","legs":"X"},"bonus":1.5000000000000013},{"rt":1339.5,"stimulus":"bees-with-color/bee-B2SF.svg","response":0,"trial_type":"image-button-response","trial_index":43,"time_elapsed":279422,"internal_node_id":"0.0-4.0-0.18","subject_id":"5f20552d41aabd0e9fd6aab2","study_id":"60edd13110225f80f9f3709b","session_id":"6196c1f45374a715cfdfd777","condition":"full-information","relevant_dimensions":["antennae","pattern"],"bee_group":{"antennae":"A","wings":"X","pattern":"S","legs":"X"},"action":"harvest","summary":"good-harvest","bonus":1.5000000000000013},{"rt":1450.8999999985099,"stimulus":"\n                    <p><b>Action: <em>harvest</em></b></p>\n                    <p>This is the bee that you just saw.</p>\n                    <img src=\"bees-with-color/bee-B2SF.svg\" width=\"200\">\n                    <p><span class=\"greenText\"><b>Successful harvest!</b></span><br>Your pay has increased by $0.02. Your bonus pay is now $0.44.</p>\n            ","response":0,"trial_type":"html-button-response","trial_index":44,"time_elapsed":280875,"internal_node_id":"0.0-4.0-1.18","subject_id":"5f20552d41aabd0e9fd6aab2","study_id":"60edd13110225f80f9f3709b","session_id":"6196c1f45374a715cfdfd777","condition":"full-information","relevant_dimensions":["antennae","pattern"],"bee_group":{"antennae":"A","wings":"X","pattern":"S","legs":"X"},"bonus":1.5000000000000013},{"rt":1419,"stimulus":"bees-with-color/bee-A1DM.svg","response":0,"trial_type":"image-button-response","trial_index":45,"time_elapsed":282297,"internal_node_id":"0.0-4.0-0.19","subject_id":"5f20552d41aabd0e9fd6aab2","study_id":"60edd13110225f80f9f3709b","session_id":"6196c1f45374a715cfdfd777","condition":"full-information","relevant_dimensions":["antennae","pattern"],"bee_group":{"antennae":"A","wings":"X","pattern":"S","legs":"X"},"action":"harvest","summary":"good-harvest","bonus":1.5000000000000013},{"rt":1598.8999999985099,"stimulus":"\n                    <p><b>Action: <em>harvest</em></b></p>\n                    <p>This is the bee that you just saw.</p>\n                    <img src=\"bees-with-color/bee-A1DM.svg\" width=\"200\">\n                    <p><span class=\"greenText\"><b>Successful harvest!</b></span><br>Your pay has increased by $0.02. Your bonus pay is now $0.46.</p>\n            ","response":0,"trial_type":"html-button-response","trial_index":46,"time_elapsed":283898,"internal_node_id":"0.0-4.0-1.19","subject_id":"5f20552d41aabd0e9fd6aab2","study_id":"60edd13110225f80f9f3709b","session_id":"6196c1f45374a715cfdfd777","condition":"full-information","relevant_dimensions":["antennae","pattern"],"bee_group":{"antennae":"A","wings":"X","pattern":"S","legs":"X"},"bonus":1.5000000000000013},{"rt":2820.89999999851,"stimulus":"bees-with-color/bee-B2SM.svg","response":0,"trial_type":"image-button-response","trial_index":47,"time_elapsed":286721,"internal_node_id":"0.0-4.0-0.20","subject_id":"5f20552d41aabd0e9fd6aab2","study_id":"60edd13110225f80f9f3709b","session_id":"6196c1f45374a715cfdfd777","condition":"full-information","relevant_dimensions":["antennae","pattern"],"bee_group":{"antennae":"A","wings":"X","pattern":"S","legs":"X"},"action":"harvest","summary":"good-harvest","bonus":1.5000000000000013},{"rt":1000.2000000029802,"stimulus":"\n                    <p><b>Action: <em>harvest</em></b></p>\n                    <p>This is the bee that you just saw.</p>\n                    <img src=\"bees-with-color/bee-B2SM.svg\" width=\"200\">\n                    <p><span class=\"greenText\"><b>Successful harvest!</b></span><br>Your pay has increased by $0.02. Your bonus pay is now $0.48.</p>\n            ","response":0,"trial_type":"html-button-response","trial_index":48,"time_elapsed":287723,"internal_node_id":"0.0-4.0-1.20","subject_id":"5f20552d41aabd0e9fd6aab2","study_id":"60edd13110225f80f9f3709b","session_id":"6196c1f45374a715cfdfd777","condition":"full-information","relevant_dimensions":["antennae","pattern"],"bee_group":{"antennae":"A","wings":"X","pattern":"S","legs":"X"},"bonus":1.5000000000000013},{"rt":1350.1999999955297,"stimulus":"bees-with-color/bee-B1DF.svg","response":0,"trial_type":"image-button-response","trial_index":49,"time_elapsed":289075,"internal_node_id":"0.0-4.0-0.21","subject_id":"5f20552d41aabd0e9fd6aab2","study_id":"60edd13110225f80f9f3709b","session_id":"6196c1f45374a715cfdfd777","condition":"full-information","relevant_dimensions":["antennae","pattern"],"bee_group":{"antennae":"A","wings":"X","pattern":"S","legs":"X"},"action":"harvest","summary":"good-harvest","bonus":1.5000000000000013},{"rt":779.1999999955297,"stimulus":"\n                    <p><b>Action: <em>harvest</em></b></p>\n                    <p>This is the bee that you just saw.</p>\n                    <img src=\"bees-with-color/bee-B1DF.svg\" width=\"200\">\n                    <p><span class=\"greenText\"><b>Successful harvest!</b></span><br>Your pay has increased by $0.02. Your bonus pay is now $0.50.</p>\n            ","response":0,"trial_type":"html-button-response","trial_index":50,"time_elapsed":289857,"internal_node_id":"0.0-4.0-1.21","subject_id":"5f20552d41aabd0e9fd6aab2","study_id":"60edd13110225f80f9f3709b","session_id":"6196c1f45374a715cfdfd777","condition":"full-information","relevant_dimensions":["antennae","pattern"],"bee_group":{"antennae":"A","wings":"X","pattern":"S","legs":"X"},"bonus":1.5000000000000013},{"rt":1509.6000000014901,"stimulus":"bees-with-color/bee-B1SF.svg","response":0,"trial_type":"image-button-response","trial_index":51,"time_elapsed":291369,"internal_node_id":"0.0-4.0-0.22","subject_id":"5f20552d41aabd0e9fd6aab2","study_id":"60edd13110225f80f9f3709b","session_id":"6196c1f45374a715cfdfd777","condition":"full-information","relevant_dimensions":["antennae","pattern"],"bee_group":{"antennae":"A","wings":"X","pattern":"S","legs":"X"},"action":"harvest","summary":"good-harvest","bonus":1.5000000000000013},{"rt":540.3999999985099,"stimulus":"\n                    <p><b>Action: <em>harvest</em></b></p>\n                    <p>This is the bee that you just saw.</p>\n                    <img src=\"bees-with-color/bee-B1SF.svg\" width=\"200\">\n                    <p><span class=\"greenText\"><b>Successful harvest!</b></span><br>Your pay has increased by $0.02. Your bonus pay is now $0.52.</p>\n            ","response":0,"trial_type":"html-button-response","trial_index":52,"time_elapsed":291912,"internal_node_id":"0.0-4.0-1.22","subject_id":"5f20552d41aabd0e9fd6aab2","study_id":"60edd13110225f80f9f3709b","session_id":"6196c1f45374a715cfdfd777","condition":"full-information","relevant_dimensions":["antennae","pattern"],"bee_group":{"antennae":"A","wings":"X","pattern":"S","legs":"X"},"bonus":1.5000000000000013},{"rt":1529.8000000044703,"stimulus":"bees-with-color/bee-A1DF.svg","response":0,"trial_type":"image-button-response","trial_index":53,"time_elapsed":293444,"internal_node_id":"0.0-4.0-0.23","subject_id":"5f20552d41aabd0e9fd6aab2","study_id":"60edd13110225f80f9f3709b","session_id":"6196c1f45374a715cfdfd777","condition":"full-information","relevant_dimensions":["antennae","pattern"],"bee_group":{"antennae":"A","wings":"X","pattern":"S","legs":"X"},"action":"harvest","summary":"good-harvest","bonus":1.5000000000000013},{"rt":669.8000000044703,"stimulus":"\n                    <p><b>Action: <em>harvest</em></b></p>\n                    <p>This is the bee that you just saw.</p>\n                    <img src=\"bees-with-color/bee-A1DF.svg\" width=\"200\">\n                    <p><span class=\"greenText\"><b>Successful harvest!</b></span><br>Your pay has increased by $0.02. Your bonus pay is now $0.54.</p>\n            ","response":0,"trial_type":"html-button-response","trial_index":54,"time_elapsed":294116,"internal_node_id":"0.0-4.0-1.23","subject_id":"5f20552d41aabd0e9fd6aab2","study_id":"60edd13110225f80f9f3709b","session_id":"6196c1f45374a715cfdfd777","condition":"full-information","relevant_dimensions":["antennae","pattern"],"bee_group":{"antennae":"A","wings":"X","pattern":"S","legs":"X"},"bonus":1.5000000000000013},{"rt":2050.39999999851,"stimulus":"bees-with-color/bee-A2SM.svg","response":1,"trial_type":"image-button-response","trial_index":55,"time_elapsed":296169,"internal_node_id":"0.0-4.0-0.24","subject_id":"5f20552d41aabd0e9fd6aab2","study_id":"60edd13110225f80f9f3709b","session_id":"6196c1f45374a715cfdfd777","condition":"full-information","relevant_dimensions":["antennae","pattern"],"bee_group":{"antennae":"A","wings":"X","pattern":"S","legs":"X"},"action":"avoid","summary":"good-avoid","bonus":1.5000000000000013},{"rt":731.1999999955297,"stimulus":"\n                    <p><b>Action: <em>avoid</em></b></p>\n                    <p>This is the bee that you just saw.</p>\n                    <img src=\"bees-with-color/bee-A2SM.svg\" width=\"200\">\n                    <p><span class=\"greenText\">Good choice!</span>  This bee would have stung you.<br>Your bonus pay is unchanged, and remains at $0.54.</p>\n            ","response":0,"trial_type":"html-button-response","trial_index":56,"time_elapsed":296902,"internal_node_id":"0.0-4.0-1.24","subject_id":"5f20552d41aabd0e9fd6aab2","study_id":"60edd13110225f80f9f3709b","session_id":"6196c1f45374a715cfdfd777","condition":"full-information","relevant_dimensions":["antennae","pattern"],"bee_group":{"antennae":"A","wings":"X","pattern":"S","legs":"X"},"bonus":1.5000000000000013},{"rt":1510.6000000014901,"stimulus":"bees-with-color/bee-B2DF.svg","response":0,"trial_type":"image-button-response","trial_index":57,"time_elapsed":298414,"internal_node_id":"0.0-4.0-0.25","subject_id":"5f20552d41aabd0e9fd6aab2","study_id":"60edd13110225f80f9f3709b","session_id":"6196c1f45374a715cfdfd777","condition":"full-information","relevant_dimensions":["antennae","pattern"],"bee_group":{"antennae":"A","wings":"X","pattern":"S","legs":"X"},"action":"harvest","summary":"good-harvest","bonus":1.5000000000000013},{"rt":499.8999999985099,"stimulus":"\n                    <p><b>Action: <em>harvest</em></b></p>\n                    <p>This is the bee that you just saw.</p>\n                    <img src=\"bees-with-color/bee-B2DF.svg\" width=\"200\">\n                    <p><span class=\"greenText\"><b>Successful harvest!</b></span><br>Your pay has increased by $0.02. Your bonus pay is now $0.56.</p>\n            ","response":0,"trial_type":"html-button-response","trial_index":58,"time_elapsed":298916,"internal_node_id":"0.0-4.0-1.25","subject_id":"5f20552d41aabd0e9fd6aab2","study_id":"60edd13110225f80f9f3709b","session_id":"6196c1f45374a715cfdfd777","condition":"full-information","relevant_dimensions":["antennae","pattern"],"bee_group":{"antennae":"A","wings":"X","pattern":"S","legs":"X"},"bonus":1.5000000000000013},{"rt":2699.7000000029802,"stimulus":"bees-with-color/bee-A1SM.svg","response":1,"trial_type":"image-button-response","trial_index":59,"time_elapsed":301618,"internal_node_id":"0.0-4.0-0.26","subject_id":"5f20552d41aabd0e9fd6aab2","study_id":"60edd13110225f80f9f3709b","session_id":"6196c1f45374a715cfdfd777","condition":"full-information","relevant_dimensions":["antennae","pattern"],"bee_group":{"antennae":"A","wings":"X","pattern":"S","legs":"X"},"action":"avoid","summary":"good-avoid","bonus":1.5000000000000013},{"rt":570.7999999970198,"stimulus":"\n                    <p><b>Action: <em>avoid</em></b></p>\n                    <p>This is the bee that you just saw.</p>\n                    <img src=\"bees-with-color/bee-A1SM.svg\" width=\"200\">\n                    <p><span class=\"greenText\">Good choice!</span>  This bee would have stung you.<br>Your bonus pay is unchanged, and remains at $0.56.</p>\n            ","response":0,"trial_type":"html-button-response","trial_index":60,"time_elapsed":302190,"internal_node_id":"0.0-4.0-1.26","subject_id":"5f20552d41aabd0e9fd6aab2","study_id":"60edd13110225f80f9f3709b","session_id":"6196c1f45374a715cfdfd777","condition":"full-information","relevant_dimensions":["antennae","pattern"],"bee_group":{"antennae":"A","wings":"X","pattern":"S","legs":"X"},"bonus":1.5000000000000013},{"rt":1290.8999999985099,"stimulus":"bees-with-color/bee-A2DF.svg","response":0,"trial_type":"image-button-response","trial_index":61,"time_elapsed":303483,"internal_node_id":"0.0-4.0-0.27","subject_id":"5f20552d41aabd0e9fd6aab2","study_id":"60edd13110225f80f9f3709b","session_id":"6196c1f45374a715cfdfd777","condition":"full-information","relevant_dimensions":["antennae","pattern"],"bee_group":{"antennae":"A","wings":"X","pattern":"S","legs":"X"},"action":"harvest","summary":"good-harvest","bonus":1.5000000000000013},{"rt":561.6999999955297,"stimulus":"\n                    <p><b>Action: <em>harvest</em></b></p>\n                    <p>This is the bee that you just saw.</p>\n                    <img src=\"bees-with-color/bee-A2DF.svg\" width=\"200\">\n                    <p><span class=\"greenText\"><b>Successful harvest!</b></span><br>Your pay has increased by $0.02. Your bonus pay is now $0.58.</p>\n            ","response":0,"trial_type":"html-button-response","trial_index":62,"time_elapsed":304047,"internal_node_id":"0.0-4.0-1.27","subject_id":"5f20552d41aabd0e9fd6aab2","study_id":"60edd13110225f80f9f3709b","session_id":"6196c1f45374a715cfdfd777","condition":"full-information","relevant_dimensions":["antennae","pattern"],"bee_group":{"antennae":"A","wings":"X","pattern":"S","legs":"X"},"bonus":1.5000000000000013},{"rt":1018.8999999985099,"stimulus":"bees-with-color/bee-B2DM.svg","response":0,"trial_type":"image-button-response","trial_index":63,"time_elapsed":305069,"internal_node_id":"0.0-4.0-0.28","subject_id":"5f20552d41aabd0e9fd6aab2","study_id":"60edd13110225f80f9f3709b","session_id":"6196c1f45374a715cfdfd777","condition":"full-information","relevant_dimensions":["antennae","pattern"],"bee_group":{"antennae":"A","wings":"X","pattern":"S","legs":"X"},"action":"harvest","summary":"good-harvest","bonus":1.5000000000000013},{"rt":508.90000000596046,"stimulus":"\n                    <p><b>Action: <em>harvest</em></b></p>\n                    <p>This is the bee that you just saw.</p>\n                    <img src=\"bees-with-color/bee-B2DM.svg\" width=\"200\">\n                    <p><span class=\"greenText\"><b>Successful harvest!</b></span><br>Your pay has increased by $0.02. Your bonus pay is now $0.60.</p>\n            ","response":0,"trial_type":"html-button-response","trial_index":64,"time_elapsed":305580,"internal_node_id":"0.0-4.0-1.28","subject_id":"5f20552d41aabd0e9fd6aab2","study_id":"60edd13110225f80f9f3709b","session_id":"6196c1f45374a715cfdfd777","condition":"full-information","relevant_dimensions":["antennae","pattern"],"bee_group":{"antennae":"A","wings":"X","pattern":"S","legs":"X"},"bonus":1.5000000000000013},{"rt":1080.3999999985099,"stimulus":"bees-with-color/bee-A2DM.svg","response":0,"trial_type":"image-button-response","trial_index":65,"time_elapsed":306663,"internal_node_id":"0.0-4.0-0.29","subject_id":"5f20552d41aabd0e9fd6aab2","study_id":"60edd13110225f80f9f3709b","session_id":"6196c1f45374a715cfdfd777","condition":"full-information","relevant_dimensions":["antennae","pattern"],"bee_group":{"antennae":"A","wings":"X","pattern":"S","legs":"X"},"action":"harvest","summary":"good-harvest","bonus":1.5000000000000013},{"rt":489.6000000014901,"stimulus":"\n                    <p><b>Action: <em>harvest</em></b></p>\n                    <p>This is the bee that you just saw.</p>\n                    <img src=\"bees-with-color/bee-A2DM.svg\" width=\"200\">\n                    <p><span class=\"greenText\"><b>Successful harvest!</b></span><br>Your pay has increased by $0.02. Your bonus pay is now $0.62.</p>\n            ","response":0,"trial_type":"html-button-response","trial_index":66,"time_elapsed":307154,"internal_node_id":"0.0-4.0-1.29","subject_id":"5f20552d41aabd0e9fd6aab2","study_id":"60edd13110225f80f9f3709b","session_id":"6196c1f45374a715cfdfd777","condition":"full-information","relevant_dimensions":["antennae","pattern"],"bee_group":{"antennae":"A","wings":"X","pattern":"S","legs":"X"},"bonus":1.5000000000000013},{"rt":1910.3999999985099,"stimulus":"bees-with-color/bee-B1SM.svg","response":0,"trial_type":"image-button-response","trial_index":67,"time_elapsed":309067,"internal_node_id":"0.0-4.0-0.30","subject_id":"5f20552d41aabd0e9fd6aab2","study_id":"60edd13110225f80f9f3709b","session_id":"6196c1f45374a715cfdfd777","condition":"full-information","relevant_dimensions":["antennae","pattern"],"bee_group":{"antennae":"A","wings":"X","pattern":"S","legs":"X"},"action":"harvest","summary":"good-harvest","bonus":1.5000000000000013},{"rt":429.5,"stimulus":"\n                    <p><b>Action: <em>harvest</em></b></p>\n                    <p>This is the bee that you just saw.</p>\n                    <img src=\"bees-with-color/bee-B1SM.svg\" width=\"200\">\n                    <p><span class=\"greenText\"><b>Successful harvest!</b></span><br>Your pay has increased by $0.02. Your bonus pay is now $0.64.</p>\n            ","response":0,"trial_type":"html-button-response","trial_index":68,"time_elapsed":309499,"internal_node_id":"0.0-4.0-1.30","subject_id":"5f20552d41aabd0e9fd6aab2","study_id":"60edd13110225f80f9f3709b","session_id":"6196c1f45374a715cfdfd777","condition":"full-information","relevant_dimensions":["antennae","pattern"],"bee_group":{"antennae":"A","wings":"X","pattern":"S","legs":"X"},"bonus":1.5000000000000013},{"rt":950.8999999985099,"stimulus":"bees-with-color/bee-B1DM.svg","response":0,"trial_type":"image-button-response","trial_index":69,"time_elapsed":310451,"internal_node_id":"0.0-4.0-0.31","subject_id":"5f20552d41aabd0e9fd6aab2","study_id":"60edd13110225f80f9f3709b","session_id":"6196c1f45374a715cfdfd777","condition":"full-information","relevant_dimensions":["antennae","pattern"],"bee_group":{"antennae":"A","wings":"X","pattern":"S","legs":"X"},"action":"harvest","summary":"good-harvest","bonus":1.5000000000000013},{"rt":449.69999999552965,"stimulus":"\n                    <p><b>Action: <em>harvest</em></b></p>\n                    <p>This is the bee that you just saw.</p>\n                    <img src=\"bees-with-color/bee-B1DM.svg\" width=\"200\">\n                    <p><span class=\"greenText\"><b>Successful harvest!</b></span><br>Your pay has increased by $0.02. Your bonus pay is now $0.66.</p>\n            ","response":0,"trial_type":"html-button-response","trial_index":70,"time_elapsed":310903,"internal_node_id":"0.0-4.0-1.31","subject_id":"5f20552d41aabd0e9fd6aab2","study_id":"60edd13110225f80f9f3709b","session_id":"6196c1f45374a715cfdfd777","condition":"full-information","relevant_dimensions":["antennae","pattern"],"bee_group":{"antennae":"A","wings":"X","pattern":"S","legs":"X"},"bonus":1.5000000000000013},{"rt":732.0999999940395,"stimulus":"bees-with-color/bee-B2DF.svg","response":0,"trial_type":"image-button-response","trial_index":71,"time_elapsed":311637,"internal_node_id":"0.0-4.0-0.32","subject_id":"5f20552d41aabd0e9fd6aab2","study_id":"60edd13110225f80f9f3709b","session_id":"6196c1f45374a715cfdfd777","condition":"full-information","relevant_dimensions":["antennae","pattern"],"bee_group":{"antennae":"A","wings":"X","pattern":"S","legs":"X"},"action":"harvest","summary":"good-harvest","bonus":1.5000000000000013},{"rt":468.5,"stimulus":"\n                    <p><b>Action: <em>harvest</em></b></p>\n                    <p>This is the bee that you just saw.</p>\n                    <img src=\"bees-with-color/bee-B2DF.svg\" width=\"200\">\n                    <p><span class=\"greenText\"><b>Successful harvest!</b></span><br>Your pay has increased by $0.02. Your bonus pay is now $0.68.</p>\n            ","response":0,"trial_type":"html-button-response","trial_index":72,"time_elapsed":312108,"internal_node_id":"0.0-4.0-1.32","subject_id":"5f20552d41aabd0e9fd6aab2","study_id":"60edd13110225f80f9f3709b","session_id":"6196c1f45374a715cfdfd777","condition":"full-information","relevant_dimensions":["antennae","pattern"],"bee_group":{"antennae":"A","wings":"X","pattern":"S","legs":"X"},"bonus":1.5000000000000013},{"rt":1569.7000000029802,"stimulus":"bees-with-color/bee-B2SM.svg","response":0,"trial_type":"image-button-response","trial_index":73,"time_elapsed":313680,"internal_node_id":"0.0-4.0-0.33","subject_id":"5f20552d41aabd0e9fd6aab2","study_id":"60edd13110225f80f9f3709b","session_id":"6196c1f45374a715cfdfd777","condition":"full-information","relevant_dimensions":["antennae","pattern"],"bee_group":{"antennae":"A","wings":"X","pattern":"S","legs":"X"},"action":"harvest","summary":"good-harvest","bonus":1.5000000000000013},{"rt":419.20000000298023,"stimulus":"\n                    <p><b>Action: <em>harvest</em></b></p>\n                    <p>This is the bee that you just saw.</p>\n                    <img src=\"bees-with-color/bee-B2SM.svg\" width=\"200\">\n                    <p><span class=\"greenText\"><b>Successful harvest!</b></span><br>Your pay has increased by $0.02. Your bonus pay is now $0.70.</p>\n            ","response":0,"trial_type":"html-button-response","trial_index":74,"time_elapsed":314102,"internal_node_id":"0.0-4.0-1.33","subject_id":"5f20552d41aabd0e9fd6aab2","study_id":"60edd13110225f80f9f3709b","session_id":"6196c1f45374a715cfdfd777","condition":"full-information","relevant_dimensions":["antennae","pattern"],"bee_group":{"antennae":"A","wings":"X","pattern":"S","legs":"X"},"bonus":1.5000000000000013},{"rt":1139.4000000059605,"stimulus":"bees-with-color/bee-B2DM.svg","response":0,"trial_type":"image-button-response","trial_index":75,"time_elapsed":315244,"internal_node_id":"0.0-4.0-0.34","subject_id":"5f20552d41aabd0e9fd6aab2","study_id":"60edd13110225f80f9f3709b","session_id":"6196c1f45374a715cfdfd777","condition":"full-information","relevant_dimensions":["antennae","pattern"],"bee_group":{"antennae":"A","wings":"X","pattern":"S","legs":"X"},"action":"harvest","summary":"good-harvest","bonus":1.5000000000000013},{"rt":490.30000000447035,"stimulus":"\n                    <p><b>Action: <em>harvest</em></b></p>\n                    <p>This is the bee that you just saw.</p>\n                    <img src=\"bees-with-color/bee-B2DM.svg\" width=\"200\">\n                    <p><span class=\"greenText\"><b>Successful harvest!</b></span><br>Your pay has increased by $0.02. Your bonus pay is now $0.72.</p>\n            ","response":0,"trial_type":"html-button-response","trial_index":76,"time_elapsed":315737,"internal_node_id":"0.0-4.0-1.34","subject_id":"5f20552d41aabd0e9fd6aab2","study_id":"60edd13110225f80f9f3709b","session_id":"6196c1f45374a715cfdfd777","condition":"full-information","relevant_dimensions":["antennae","pattern"],"bee_group":{"antennae":"A","wings":"X","pattern":"S","legs":"X"},"bonus":1.5000000000000013},{"rt":1610.7000000029802,"stimulus":"bees-with-color/bee-A1SF.svg","response":1,"trial_type":"image-button-response","trial_index":77,"time_elapsed":317349,"internal_node_id":"0.0-4.0-0.35","subject_id":"5f20552d41aabd0e9fd6aab2","study_id":"60edd13110225f80f9f3709b","session_id":"6196c1f45374a715cfdfd777","condition":"full-information","relevant_dimensions":["antennae","pattern"],"bee_group":{"antennae":"A","wings":"X","pattern":"S","legs":"X"},"action":"avoid","summary":"good-avoid","bonus":1.5000000000000013},{"rt":560,"stimulus":"\n                    <p><b>Action: <em>avoid</em></b></p>\n                    <p>This is the bee that you just saw.</p>\n                    <img src=\"bees-with-color/bee-A1SF.svg\" width=\"200\">\n                    <p><span class=\"greenText\">Good choice!</span>  This bee would have stung you.<br>Your bonus pay is unchanged, and remains at $0.72.</p>\n            ","response":0,"trial_type":"html-button-response","trial_index":78,"time_elapsed":317911,"internal_node_id":"0.0-4.0-1.35","subject_id":"5f20552d41aabd0e9fd6aab2","study_id":"60edd13110225f80f9f3709b","session_id":"6196c1f45374a715cfdfd777","condition":"full-information","relevant_dimensions":["antennae","pattern"],"bee_group":{"antennae":"A","wings":"X","pattern":"S","legs":"X"},"bonus":1.5000000000000013},{"rt":1550.3999999985099,"stimulus":"bees-with-color/bee-A2SM.svg","response":1,"trial_type":"image-button-response","trial_index":79,"time_elapsed":319463,"internal_node_id":"0.0-4.0-0.36","subject_id":"5f20552d41aabd0e9fd6aab2","study_id":"60edd13110225f80f9f3709b","session_id":"6196c1f45374a715cfdfd777","condition":"full-information","relevant_dimensions":["antennae","pattern"],"bee_group":{"antennae":"A","wings":"X","pattern":"S","legs":"X"},"action":"avoid","summary":"good-avoid","bonus":1.5000000000000013},{"rt":509.8999999985099,"stimulus":"\n                    <p><b>Action: <em>avoid</em></b></p>\n                    <p>This is the bee that you just saw.</p>\n                    <img src=\"bees-with-color/bee-A2SM.svg\" width=\"200\">\n                    <p><span class=\"greenText\">Good choice!</span>  This bee would have stung you.<br>Your bonus pay is unchanged, and remains at $0.72.</p>\n            ","response":0,"trial_type":"html-button-response","trial_index":80,"time_elapsed":319975,"internal_node_id":"0.0-4.0-1.36","subject_id":"5f20552d41aabd0e9fd6aab2","study_id":"60edd13110225f80f9f3709b","session_id":"6196c1f45374a715cfdfd777","condition":"full-information","relevant_dimensions":["antennae","pattern"],"bee_group":{"antennae":"A","wings":"X","pattern":"S","legs":"X"},"bonus":1.5000000000000013},{"rt":1439.8999999985099,"stimulus":"bees-with-color/bee-B1SM.svg","response":0,"trial_type":"image-button-response","trial_index":81,"time_elapsed":321417,"internal_node_id":"0.0-4.0-0.37","subject_id":"5f20552d41aabd0e9fd6aab2","study_id":"60edd13110225f80f9f3709b","session_id":"6196c1f45374a715cfdfd777","condition":"full-information","relevant_dimensions":["antennae","pattern"],"bee_group":{"antennae":"A","wings":"X","pattern":"S","legs":"X"},"action":"harvest","summary":"good-harvest","bonus":1.5000000000000013},{"rt":449.8999999985099,"stimulus":"\n                    <p><b>Action: <em>harvest</em></b></p>\n                    <p>This is the bee that you just saw.</p>\n                    <img src=\"bees-with-color/bee-B1SM.svg\" width=\"200\">\n                    <p><span class=\"greenText\"><b>Successful harvest!</b></span><br>Your pay has increased by $0.02. Your bonus pay is now $0.74.</p>\n            ","response":0,"trial_type":"html-button-response","trial_index":82,"time_elapsed":321869,"internal_node_id":"0.0-4.0-1.37","subject_id":"5f20552d41aabd0e9fd6aab2","study_id":"60edd13110225f80f9f3709b","session_id":"6196c1f45374a715cfdfd777","condition":"full-information","relevant_dimensions":["antennae","pattern"],"bee_group":{"antennae":"A","wings":"X","pattern":"S","legs":"X"},"bonus":1.5000000000000013},{"rt":1101,"stimulus":"bees-with-color/bee-A2DM.svg","response":0,"trial_type":"image-button-response","trial_index":83,"time_elapsed":322972,"internal_node_id":"0.0-4.0-0.38","subject_id":"5f20552d41aabd0e9fd6aab2","study_id":"60edd13110225f80f9f3709b","session_id":"6196c1f45374a715cfdfd777","condition":"full-information","relevant_dimensions":["antennae","pattern"],"bee_group":{"antennae":"A","wings":"X","pattern":"S","legs":"X"},"action":"harvest","summary":"good-harvest","bonus":1.5000000000000013},{"rt":489.8999999985099,"stimulus":"\n                    <p><b>Action: <em>harvest</em></b></p>\n                    <p>This is the bee that you just saw.</p>\n                    <img src=\"bees-with-color/bee-A2DM.svg\" width=\"200\">\n                    <p><span class=\"greenText\"><b>Successful harvest!</b></span><br>Your pay has increased by $0.02. Your bonus pay is now $0.76.</p>\n            ","response":0,"trial_type":"html-button-response","trial_index":84,"time_elapsed":323465,"internal_node_id":"0.0-4.0-1.38","subject_id":"5f20552d41aabd0e9fd6aab2","study_id":"60edd13110225f80f9f3709b","session_id":"6196c1f45374a715cfdfd777","condition":"full-information","relevant_dimensions":["antennae","pattern"],"bee_group":{"antennae":"A","wings":"X","pattern":"S","legs":"X"},"bonus":1.5000000000000013},{"rt":849.6000000014901,"stimulus":"bees-with-color/bee-A1DM.svg","response":0,"trial_type":"image-button-response","trial_index":85,"time_elapsed":324316,"internal_node_id":"0.0-4.0-0.39","subject_id":"5f20552d41aabd0e9fd6aab2","study_id":"60edd13110225f80f9f3709b","session_id":"6196c1f45374a715cfdfd777","condition":"full-information","relevant_dimensions":["antennae","pattern"],"bee_group":{"antennae":"A","wings":"X","pattern":"S","legs":"X"},"action":"harvest","summary":"good-harvest","bonus":1.5000000000000013},{"rt":490.70000000298023,"stimulus":"\n                    <p><b>Action: <em>harvest</em></b></p>\n                    <p>This is the bee that you just saw.</p>\n                    <img src=\"bees-with-color/bee-A1DM.svg\" width=\"200\">\n                    <p><span class=\"greenText\"><b>Successful harvest!</b></span><br>Your pay has increased by $0.02. Your bonus pay is now $0.78.</p>\n            ","response":0,"trial_type":"html-button-response","trial_index":86,"time_elapsed":324808,"internal_node_id":"0.0-4.0-1.39","subject_id":"5f20552d41aabd0e9fd6aab2","study_id":"60edd13110225f80f9f3709b","session_id":"6196c1f45374a715cfdfd777","condition":"full-information","relevant_dimensions":["antennae","pattern"],"bee_group":{"antennae":"A","wings":"X","pattern":"S","legs":"X"},"bonus":1.5000000000000013},{"rt":549.8999999985099,"stimulus":"bees-with-color/bee-A2DF.svg","response":0,"trial_type":"image-button-response","trial_index":87,"time_elapsed":325360,"internal_node_id":"0.0-4.0-0.40","subject_id":"5f20552d41aabd0e9fd6aab2","study_id":"60edd13110225f80f9f3709b","session_id":"6196c1f45374a715cfdfd777","condition":"full-information","relevant_dimensions":["antennae","pattern"],"bee_group":{"antennae":"A","wings":"X","pattern":"S","legs":"X"},"action":"harvest","summary":"good-harvest","bonus":1.5000000000000013},{"rt":530.2999999970198,"stimulus":"\n                    <p><b>Action: <em>harvest</em></b></p>\n                    <p>This is the bee that you just saw.</p>\n                    <img src=\"bees-with-color/bee-A2DF.svg\" width=\"200\">\n                    <p><span class=\"greenText\"><b>Successful harvest!</b></span><br>Your pay has increased by $0.02. Your bonus pay is now $0.80.</p>\n            ","response":0,"trial_type":"html-button-response","trial_index":88,"time_elapsed":325892,"internal_node_id":"0.0-4.0-1.40","subject_id":"5f20552d41aabd0e9fd6aab2","study_id":"60edd13110225f80f9f3709b","session_id":"6196c1f45374a715cfdfd777","condition":"full-information","relevant_dimensions":["antennae","pattern"],"bee_group":{"antennae":"A","wings":"X","pattern":"S","legs":"X"},"bonus":1.5000000000000013},{"rt":1190.2999999970198,"stimulus":"bees-with-color/bee-A2SF.svg","response":1,"trial_type":"image-button-response","trial_index":89,"time_elapsed":327084,"internal_node_id":"0.0-4.0-0.41","subject_id":"5f20552d41aabd0e9fd6aab2","study_id":"60edd13110225f80f9f3709b","session_id":"6196c1f45374a715cfdfd777","condition":"full-information","relevant_dimensions":["antennae","pattern"],"bee_group":{"antennae":"A","wings":"X","pattern":"S","legs":"X"},"action":"avoid","summary":"good-avoid","bonus":1.5000000000000013},{"rt":480.20000000298023,"stimulus":"\n                    <p><b>Action: <em>avoid</em></b></p>\n                    <p>This is the bee that you just saw.</p>\n                    <img src=\"bees-with-color/bee-A2SF.svg\" width=\"200\">\n                    <p><span class=\"greenText\">Good choice!</span>  This bee would have stung you.<br>Your bonus pay is unchanged, and remains at $0.80.</p>\n            ","response":0,"trial_type":"html-button-response","trial_index":90,"time_elapsed":327567,"internal_node_id":"0.0-4.0-1.41","subject_id":"5f20552d41aabd0e9fd6aab2","study_id":"60edd13110225f80f9f3709b","session_id":"6196c1f45374a715cfdfd777","condition":"full-information","relevant_dimensions":["antennae","pattern"],"bee_group":{"antennae":"A","wings":"X","pattern":"S","legs":"X"},"bonus":1.5000000000000013},{"rt":970,"stimulus":"bees-with-color/bee-B1SF.svg","response":1,"trial_type":"image-button-response","trial_index":91,"time_elapsed":328539,"internal_node_id":"0.0-4.0-0.42","subject_id":"5f20552d41aabd0e9fd6aab2","study_id":"60edd13110225f80f9f3709b","session_id":"6196c1f45374a715cfdfd777","condition":"full-information","relevant_dimensions":["antennae","pattern"],"bee_group":{"antennae":"A","wings":"X","pattern":"S","legs":"X"},"action":"avoid","summary":"bad-avoid","bonus":1.5000000000000013},{"rt":1842.5,"stimulus":"\n                    <p><b>Action: <em>avoid</em></b></p>\n                    <p>This is the bee that you just saw.</p>\n                    <img src=\"bees-with-color/bee-B1SF.svg\" width=\"200\">\n                    <p><span class=\"redText\">Bad choice,</span> the bee was friendly.<br>Your bonus pay is unchanged, and remains at $0.80.</p>\n            ","response":0,"trial_type":"html-button-response","trial_index":92,"time_elapsed":330383,"internal_node_id":"0.0-4.0-1.42","subject_id":"5f20552d41aabd0e9fd6aab2","study_id":"60edd13110225f80f9f3709b","session_id":"6196c1f45374a715cfdfd777","condition":"full-information","relevant_dimensions":["antennae","pattern"],"bee_group":{"antennae":"A","wings":"X","pattern":"S","legs":"X"},"bonus":1.5000000000000013},{"rt":2140,"stimulus":"bees-with-color/bee-A1SM.svg","response":1,"trial_type":"image-button-response","trial_index":93,"time_elapsed":332525,"internal_node_id":"0.0-4.0-0.43","subject_id":"5f20552d41aabd0e9fd6aab2","study_id":"60edd13110225f80f9f3709b","session_id":"6196c1f45374a715cfdfd777","condition":"full-information","relevant_dimensions":["antennae","pattern"],"bee_group":{"antennae":"A","wings":"X","pattern":"S","legs":"X"},"action":"avoid","summary":"good-avoid","bonus":1.5000000000000013},{"rt":480.8999999985099,"stimulus":"\n                    <p><b>Action: <em>avoid</em></b></p>\n                    <p>This is the bee that you just saw.</p>\n                    <img src=\"bees-with-color/bee-A1SM.svg\" width=\"200\">\n                    <p><span class=\"greenText\">Good choice!</span>  This bee would have stung you.<br>Your bonus pay is unchanged, and remains at $0.80.</p>\n            ","response":0,"trial_type":"html-button-response","trial_index":94,"time_elapsed":333008,"internal_node_id":"0.0-4.0-1.43","subject_id":"5f20552d41aabd0e9fd6aab2","study_id":"60edd13110225f80f9f3709b","session_id":"6196c1f45374a715cfdfd777","condition":"full-information","relevant_dimensions":["antennae","pattern"],"bee_group":{"antennae":"A","wings":"X","pattern":"S","legs":"X"},"bonus":1.5000000000000013},{"rt":969.0999999940395,"stimulus":"bees-with-color/bee-B1DM.svg","response":0,"trial_type":"image-button-response","trial_index":95,"time_elapsed":333980,"internal_node_id":"0.0-4.0-0.44","subject_id":"5f20552d41aabd0e9fd6aab2","study_id":"60edd13110225f80f9f3709b","session_id":"6196c1f45374a715cfdfd777","condition":"full-information","relevant_dimensions":["antennae","pattern"],"bee_group":{"antennae":"A","wings":"X","pattern":"S","legs":"X"},"action":"harvest","summary":"good-harvest","bonus":1.5000000000000013},{"rt":920.8999999985099,"stimulus":"\n                    <p><b>Action: <em>harvest</em></b></p>\n                    <p>This is the bee that you just saw.</p>\n                    <img src=\"bees-with-color/bee-B1DM.svg\" width=\"200\">\n                    <p><span class=\"greenText\"><b>Successful harvest!</b></span><br>Your pay has increased by $0.02. Your bonus pay is now $0.82.</p>\n            ","response":0,"trial_type":"html-button-response","trial_index":96,"time_elapsed":334904,"internal_node_id":"0.0-4.0-1.44","subject_id":"5f20552d41aabd0e9fd6aab2","study_id":"60edd13110225f80f9f3709b","session_id":"6196c1f45374a715cfdfd777","condition":"full-information","relevant_dimensions":["antennae","pattern"],"bee_group":{"antennae":"A","wings":"X","pattern":"S","legs":"X"},"bonus":1.5000000000000013},{"rt":1170.3000000044703,"stimulus":"bees-with-color/bee-A1DF.svg","response":0,"trial_type":"image-button-response","trial_index":97,"time_elapsed":336076,"internal_node_id":"0.0-4.0-0.45","subject_id":"5f20552d41aabd0e9fd6aab2","study_id":"60edd13110225f80f9f3709b","session_id":"6196c1f45374a715cfdfd777","condition":"full-information","relevant_dimensions":["antennae","pattern"],"bee_group":{"antennae":"A","wings":"X","pattern":"S","legs":"X"},"action":"harvest","summary":"good-harvest","bonus":1.5000000000000013},{"rt":441.1000000014901,"stimulus":"\n                    <p><b>Action: <em>harvest</em></b></p>\n                    <p>This is the bee that you just saw.</p>\n                    <img src=\"bees-with-color/bee-A1DF.svg\" width=\"200\">\n                    <p><span class=\"greenText\"><b>Successful harvest!</b></span><br>Your pay has increased by $0.02. Your bonus pay is now $0.84.</p>\n            ","response":0,"trial_type":"html-button-response","trial_index":98,"time_elapsed":336520,"internal_node_id":"0.0-4.0-1.45","subject_id":"5f20552d41aabd0e9fd6aab2","study_id":"60edd13110225f80f9f3709b","session_id":"6196c1f45374a715cfdfd777","condition":"full-information","relevant_dimensions":["antennae","pattern"],"bee_group":{"antennae":"A","wings":"X","pattern":"S","legs":"X"},"bonus":1.5000000000000013},{"rt":1178.1000000014901,"stimulus":"bees-with-color/bee-B2SF.svg","response":0,"trial_type":"image-button-response","trial_index":99,"time_elapsed":337700,"internal_node_id":"0.0-4.0-0.46","subject_id":"5f20552d41aabd0e9fd6aab2","study_id":"60edd13110225f80f9f3709b","session_id":"6196c1f45374a715cfdfd777","condition":"full-information","relevant_dimensions":["antennae","pattern"],"bee_group":{"antennae":"A","wings":"X","pattern":"S","legs":"X"},"action":"harvest","summary":"good-harvest","bonus":1.5000000000000013},{"rt":429.70000000298023,"stimulus":"\n                    <p><b>Action: <em>harvest</em></b></p>\n                    <p>This is the bee that you just saw.</p>\n                    <img src=\"bees-with-color/bee-B2SF.svg\" width=\"200\">\n                    <p><span class=\"greenText\"><b>Successful harvest!</b></span><br>Your pay has increased by $0.02. Your bonus pay is now $0.86.</p>\n            ","response":0,"trial_type":"html-button-response","trial_index":100,"time_elapsed":338132,"internal_node_id":"0.0-4.0-1.46","subject_id":"5f20552d41aabd0e9fd6aab2","study_id":"60edd13110225f80f9f3709b","session_id":"6196c1f45374a715cfdfd777","condition":"full-information","relevant_dimensions":["antennae","pattern"],"bee_group":{"antennae":"A","wings":"X","pattern":"S","legs":"X"},"bonus":1.5000000000000013},{"rt":751.3999999985099,"stimulus":"bees-with-color/bee-B1DF.svg","response":0,"trial_type":"image-button-response","trial_index":101,"time_elapsed":338885,"internal_node_id":"0.0-4.0-0.47","subject_id":"5f20552d41aabd0e9fd6aab2","study_id":"60edd13110225f80f9f3709b","session_id":"6196c1f45374a715cfdfd777","condition":"full-information","relevant_dimensions":["antennae","pattern"],"bee_group":{"antennae":"A","wings":"X","pattern":"S","legs":"X"},"action":"harvest","summary":"good-harvest","bonus":1.5000000000000013},{"rt":429.29999999701977,"stimulus":"\n                    <p><b>Action: <em>harvest</em></b></p>\n                    <p>This is the bee that you just saw.</p>\n                    <img src=\"bees-with-color/bee-B1DF.svg\" width=\"200\">\n                    <p><span class=\"greenText\"><b>Successful harvest!</b></span><br>Your pay has increased by $0.02. Your bonus pay is now $0.88.</p>\n            ","response":0,"trial_type":"html-button-response","trial_index":102,"time_elapsed":339316,"internal_node_id":"0.0-4.0-1.47","subject_id":"5f20552d41aabd0e9fd6aab2","study_id":"60edd13110225f80f9f3709b","session_id":"6196c1f45374a715cfdfd777","condition":"full-information","relevant_dimensions":["antennae","pattern"],"bee_group":{"antennae":"A","wings":"X","pattern":"S","legs":"X"},"bonus":1.5000000000000013},{"rt":961,"stimulus":"bees-with-color/bee-A2SM.svg","response":0,"trial_type":"image-button-response","trial_index":103,"time_elapsed":340279,"internal_node_id":"0.0-4.0-0.48","subject_id":"5f20552d41aabd0e9fd6aab2","study_id":"60edd13110225f80f9f3709b","session_id":"6196c1f45374a715cfdfd777","condition":"full-information","relevant_dimensions":["antennae","pattern"],"bee_group":{"antennae":"A","wings":"X","pattern":"S","legs":"X"},"action":"harvest","summary":"bad-harvest","bonus":1.5000000000000013},{"rt":600.1000000014901,"stimulus":"\n                    <p><b>Action: <em>harvest</em></b></p>\n                    <p>This is the bee that you just saw.</p>\n                    <img src=\"bees-with-color/bee-A2SM.svg\" width=\"200\">\n                    <p><span class=\"redText\">Bad choice, the bee was angry.</span><br><b>You have been stung!</b><br>Your pay has been decreased by $0.10. Your bonus pay is now $0.78.</p>\n            ","response":0,"trial_type":"html-button-response","trial_index":104,"time_elapsed":340881,"internal_node_id":"0.0-4.0-1.48","subject_id":"5f20552d41aabd0e9fd6aab2","study_id":"60edd13110225f80f9f3709b","session_id":"6196c1f45374a715cfdfd777","condition":"full-information","relevant_dimensions":["antennae","pattern"],"bee_group":{"antennae":"A","wings":"X","pattern":"S","legs":"X"},"bonus":1.5000000000000013},{"rt":2131,"stimulus":"bees-with-color/bee-B2SM.svg","response":0,"trial_type":"image-button-response","trial_index":105,"time_elapsed":343014,"internal_node_id":"0.0-4.0-0.49","subject_id":"5f20552d41aabd0e9fd6aab2","study_id":"60edd13110225f80f9f3709b","session_id":"6196c1f45374a715cfdfd777","condition":"full-information","relevant_dimensions":["antennae","pattern"],"bee_group":{"antennae":"A","wings":"X","pattern":"S","legs":"X"},"action":"harvest","summary":"good-harvest","bonus":1.5000000000000013},{"rt":951.5,"stimulus":"\n                    <p><b>Action: <em>harvest</em></b></p>\n                    <p>This is the bee that you just saw.</p>\n                    <img src=\"bees-with-color/bee-B2SM.svg\" width=\"200\">\n                    <p><span class=\"greenText\"><b>Successful harvest!</b></span><br>Your pay has increased by $0.02. Your bonus pay is now $0.80.</p>\n            ","response":0,"trial_type":"html-button-response","trial_index":106,"time_elapsed":343968,"internal_node_id":"0.0-4.0-1.49","subject_id":"5f20552d41aabd0e9fd6aab2","study_id":"60edd13110225f80f9f3709b","session_id":"6196c1f45374a715cfdfd777","condition":"full-information","relevant_dimensions":["antennae","pattern"],"bee_group":{"antennae":"A","wings":"X","pattern":"S","legs":"X"},"bonus":1.5000000000000013},{"rt":3310.0999999940395,"stimulus":"bees-with-color/bee-A2DF.svg","response":0,"trial_type":"image-button-response","trial_index":107,"time_elapsed":347280,"internal_node_id":"0.0-4.0-0.50","subject_id":"5f20552d41aabd0e9fd6aab2","study_id":"60edd13110225f80f9f3709b","session_id":"6196c1f45374a715cfdfd777","condition":"full-information","relevant_dimensions":["antennae","pattern"],"bee_group":{"antennae":"A","wings":"X","pattern":"S","legs":"X"},"action":"harvest","summary":"good-harvest","bonus":1.5000000000000013},{"rt":471.1000000014901,"stimulus":"\n                    <p><b>Action: <em>harvest</em></b></p>\n                    <p>This is the bee that you just saw.</p>\n                    <img src=\"bees-with-color/bee-A2DF.svg\" width=\"200\">\n                    <p><span class=\"greenText\"><b>Successful harvest!</b></span><br>Your pay has increased by $0.02. Your bonus pay is now $0.82.</p>\n            ","response":0,"trial_type":"html-button-response","trial_index":108,"time_elapsed":347752,"internal_node_id":"0.0-4.0-1.50","subject_id":"5f20552d41aabd0e9fd6aab2","study_id":"60edd13110225f80f9f3709b","session_id":"6196c1f45374a715cfdfd777","condition":"full-information","relevant_dimensions":["antennae","pattern"],"bee_group":{"antennae":"A","wings":"X","pattern":"S","legs":"X"},"bonus":1.5000000000000013},{"rt":4988.60000000149,"stimulus":"bees-with-color/bee-B1SF.svg","response":0,"trial_type":"image-button-response","trial_index":109,"time_elapsed":352743,"internal_node_id":"0.0-4.0-0.51","subject_id":"5f20552d41aabd0e9fd6aab2","study_id":"60edd13110225f80f9f3709b","session_id":"6196c1f45374a715cfdfd777","condition":"full-information","relevant_dimensions":["antennae","pattern"],"bee_group":{"antennae":"A","wings":"X","pattern":"S","legs":"X"},"action":"harvest","summary":"good-harvest","bonus":1.5000000000000013},{"rt":480.6000000014901,"stimulus":"\n                    <p><b>Action: <em>harvest</em></b></p>\n                    <p>This is the bee that you just saw.</p>\n                    <img src=\"bees-with-color/bee-B1SF.svg\" width=\"200\">\n                    <p><span class=\"greenText\"><b>Successful harvest!</b></span><br>Your pay has increased by $0.02. Your bonus pay is now $0.84.</p>\n            ","response":0,"trial_type":"html-button-response","trial_index":110,"time_elapsed":353225,"internal_node_id":"0.0-4.0-1.51","subject_id":"5f20552d41aabd0e9fd6aab2","study_id":"60edd13110225f80f9f3709b","session_id":"6196c1f45374a715cfdfd777","condition":"full-information","relevant_dimensions":["antennae","pattern"],"bee_group":{"antennae":"A","wings":"X","pattern":"S","legs":"X"},"bonus":1.5000000000000013},{"rt":1031.7000000029802,"stimulus":"bees-with-color/bee-B1SM.svg","response":0,"trial_type":"image-button-response","trial_index":111,"time_elapsed":354259,"internal_node_id":"0.0-4.0-0.52","subject_id":"5f20552d41aabd0e9fd6aab2","study_id":"60edd13110225f80f9f3709b","session_id":"6196c1f45374a715cfdfd777","condition":"full-information","relevant_dimensions":["antennae","pattern"],"bee_group":{"antennae":"A","wings":"X","pattern":"S","legs":"X"},"action":"harvest","summary":"good-harvest","bonus":1.5000000000000013},{"rt":369.59999999403954,"stimulus":"\n                    <p><b>Action: <em>harvest</em></b></p>\n                    <p>This is the bee that you just saw.</p>\n                    <img src=\"bees-with-color/bee-B1SM.svg\" width=\"200\">\n                    <p><span class=\"greenText\"><b>Successful harvest!</b></span><br>Your pay has increased by $0.02. Your bonus pay is now $0.86.</p>\n            ","response":0,"trial_type":"html-button-response","trial_index":112,"time_elapsed":354630,"internal_node_id":"0.0-4.0-1.52","subject_id":"5f20552d41aabd0e9fd6aab2","study_id":"60edd13110225f80f9f3709b","session_id":"6196c1f45374a715cfdfd777","condition":"full-information","relevant_dimensions":["antennae","pattern"],"bee_group":{"antennae":"A","wings":"X","pattern":"S","legs":"X"},"bonus":1.5000000000000013},{"rt":1110.6000000014901,"stimulus":"bees-with-color/bee-A1SM.svg","response":1,"trial_type":"image-button-response","trial_index":113,"time_elapsed":355743,"internal_node_id":"0.0-4.0-0.53","subject_id":"5f20552d41aabd0e9fd6aab2","study_id":"60edd13110225f80f9f3709b","session_id":"6196c1f45374a715cfdfd777","condition":"full-information","relevant_dimensions":["antennae","pattern"],"bee_group":{"antennae":"A","wings":"X","pattern":"S","legs":"X"},"action":"avoid","summary":"good-avoid","bonus":1.5000000000000013},{"rt":399.69999999552965,"stimulus":"\n                    <p><b>Action: <em>avoid</em></b></p>\n                    <p>This is the bee that you just saw.</p>\n                    <img src=\"bees-with-color/bee-A1SM.svg\" width=\"200\">\n                    <p><span class=\"greenText\">Good choice!</span>  This bee would have stung you.<br>Your bonus pay is unchanged, and remains at $0.86.</p>\n            ","response":0,"trial_type":"html-button-response","trial_index":114,"time_elapsed":356145,"internal_node_id":"0.0-4.0-1.53","subject_id":"5f20552d41aabd0e9fd6aab2","study_id":"60edd13110225f80f9f3709b","session_id":"6196c1f45374a715cfdfd777","condition":"full-information","relevant_dimensions":["antennae","pattern"],"bee_group":{"antennae":"A","wings":"X","pattern":"S","legs":"X"},"bonus":1.5000000000000013},{"rt":1422.3000000044703,"stimulus":"bees-with-color/bee-A2DM.svg","response":0,"trial_type":"image-button-response","trial_index":115,"time_elapsed":357569,"internal_node_id":"0.0-4.0-0.54","subject_id":"5f20552d41aabd0e9fd6aab2","study_id":"60edd13110225f80f9f3709b","session_id":"6196c1f45374a715cfdfd777","condition":"full-information","relevant_dimensions":["antennae","pattern"],"bee_group":{"antennae":"A","wings":"X","pattern":"S","legs":"X"},"action":"harvest","summary":"good-harvest","bonus":1.5000000000000013},{"rt":379.20000000298023,"stimulus":"\n                    <p><b>Action: <em>harvest</em></b></p>\n                    <p>This is the bee that you just saw.</p>\n                    <img src=\"bees-with-color/bee-A2DM.svg\" width=\"200\">\n                    <p><span class=\"greenText\"><b>Successful harvest!</b></span><br>Your pay has increased by $0.02. Your bonus pay is now $0.88.</p>\n            ","response":0,"trial_type":"html-button-response","trial_index":116,"time_elapsed":357950,"internal_node_id":"0.0-4.0-1.54","subject_id":"5f20552d41aabd0e9fd6aab2","study_id":"60edd13110225f80f9f3709b","session_id":"6196c1f45374a715cfdfd777","condition":"full-information","relevant_dimensions":["antennae","pattern"],"bee_group":{"antennae":"A","wings":"X","pattern":"S","legs":"X"},"bonus":1.5000000000000013},{"rt":1500.1000000014901,"stimulus":"bees-with-color/bee-B1DF.svg","response":0,"trial_type":"image-button-response","trial_index":117,"time_elapsed":359453,"internal_node_id":"0.0-4.0-0.55","subject_id":"5f20552d41aabd0e9fd6aab2","study_id":"60edd13110225f80f9f3709b","session_id":"6196c1f45374a715cfdfd777","condition":"full-information","relevant_dimensions":["antennae","pattern"],"bee_group":{"antennae":"A","wings":"X","pattern":"S","legs":"X"},"action":"harvest","summary":"good-harvest","bonus":1.5000000000000013},{"rt":379.3999999985099,"stimulus":"\n                    <p><b>Action: <em>harvest</em></b></p>\n                    <p>This is the bee that you just saw.</p>\n                    <img src=\"bees-with-color/bee-B1DF.svg\" width=\"200\">\n                    <p><span class=\"greenText\"><b>Successful harvest!</b></span><br>Your pay has increased by $0.02. Your bonus pay is now $0.90.</p>\n            ","response":0,"trial_type":"html-button-response","trial_index":118,"time_elapsed":359834,"internal_node_id":"0.0-4.0-1.55","subject_id":"5f20552d41aabd0e9fd6aab2","study_id":"60edd13110225f80f9f3709b","session_id":"6196c1f45374a715cfdfd777","condition":"full-information","relevant_dimensions":["antennae","pattern"],"bee_group":{"antennae":"A","wings":"X","pattern":"S","legs":"X"},"bonus":1.5000000000000013},{"rt":790.2999999970198,"stimulus":"bees-with-color/bee-B1DM.svg","response":0,"trial_type":"image-button-response","trial_index":119,"time_elapsed":360626,"internal_node_id":"0.0-4.0-0.56","subject_id":"5f20552d41aabd0e9fd6aab2","study_id":"60edd13110225f80f9f3709b","session_id":"6196c1f45374a715cfdfd777","condition":"full-information","relevant_dimensions":["antennae","pattern"],"bee_group":{"antennae":"A","wings":"X","pattern":"S","legs":"X"},"action":"harvest","summary":"good-harvest","bonus":1.5000000000000013},{"rt":401.6000000014901,"stimulus":"\n                    <p><b>Action: <em>harvest</em></b></p>\n                    <p>This is the bee that you just saw.</p>\n                    <img src=\"bees-with-color/bee-B1DM.svg\" width=\"200\">\n                    <p><span class=\"greenText\"><b>Successful harvest!</b></span><br>Your pay has increased by $0.02. Your bonus pay is now $0.92.</p>\n            ","response":0,"trial_type":"html-button-response","trial_index":120,"time_elapsed":361029,"internal_node_id":"0.0-4.0-1.56","subject_id":"5f20552d41aabd0e9fd6aab2","study_id":"60edd13110225f80f9f3709b","session_id":"6196c1f45374a715cfdfd777","condition":"full-information","relevant_dimensions":["antennae","pattern"],"bee_group":{"antennae":"A","wings":"X","pattern":"S","legs":"X"},"bonus":1.5000000000000013},{"rt":1190,"stimulus":"bees-with-color/bee-B2SF.svg","response":0,"trial_type":"image-button-response","trial_index":121,"time_elapsed":362221,"internal_node_id":"0.0-4.0-0.57","subject_id":"5f20552d41aabd0e9fd6aab2","study_id":"60edd13110225f80f9f3709b","session_id":"6196c1f45374a715cfdfd777","condition":"full-information","relevant_dimensions":["antennae","pattern"],"bee_group":{"antennae":"A","wings":"X","pattern":"S","legs":"X"},"action":"harvest","summary":"good-harvest","bonus":1.5000000000000013},{"rt":400.19999999552965,"stimulus":"\n                    <p><b>Action: <em>harvest</em></b></p>\n                    <p>This is the bee that you just saw.</p>\n                    <img src=\"bees-with-color/bee-B2SF.svg\" width=\"200\">\n                    <p><span class=\"greenText\"><b>Successful harvest!</b></span><br>Your pay has increased by $0.02. Your bonus pay is now $0.94.</p>\n            ","response":0,"trial_type":"html-button-response","trial_index":122,"time_elapsed":362623,"internal_node_id":"0.0-4.0-1.57","subject_id":"5f20552d41aabd0e9fd6aab2","study_id":"60edd13110225f80f9f3709b","session_id":"6196c1f45374a715cfdfd777","condition":"full-information","relevant_dimensions":["antennae","pattern"],"bee_group":{"antennae":"A","wings":"X","pattern":"S","legs":"X"},"bonus":1.5000000000000013},{"rt":810.2000000029802,"stimulus":"bees-with-color/bee-B2DF.svg","response":0,"trial_type":"image-button-response","trial_index":123,"time_elapsed":363435,"internal_node_id":"0.0-4.0-0.58","subject_id":"5f20552d41aabd0e9fd6aab2","study_id":"60edd13110225f80f9f3709b","session_id":"6196c1f45374a715cfdfd777","condition":"full-information","relevant_dimensions":["antennae","pattern"],"bee_group":{"antennae":"A","wings":"X","pattern":"S","legs":"X"},"action":"harvest","summary":"good-harvest","bonus":1.5000000000000013},{"rt":479.8999999985099,"stimulus":"\n                    <p><b>Action: <em>harvest</em></b></p>\n                    <p>This is the bee that you just saw.</p>\n                    <img src=\"bees-with-color/bee-B2DF.svg\" width=\"200\">\n                    <p><span class=\"greenText\"><b>Successful harvest!</b></span><br>Your pay has increased by $0.02. Your bonus pay is now $0.96.</p>\n            ","response":0,"trial_type":"html-button-response","trial_index":124,"time_elapsed":363917,"internal_node_id":"0.0-4.0-1.58","subject_id":"5f20552d41aabd0e9fd6aab2","study_id":"60edd13110225f80f9f3709b","session_id":"6196c1f45374a715cfdfd777","condition":"full-information","relevant_dimensions":["antennae","pattern"],"bee_group":{"antennae":"A","wings":"X","pattern":"S","legs":"X"},"bonus":1.5000000000000013},{"rt":832.3000000044703,"stimulus":"bees-with-color/bee-B2DM.svg","response":0,"trial_type":"image-button-response","trial_index":125,"time_elapsed":364753,"internal_node_id":"0.0-4.0-0.59","subject_id":"5f20552d41aabd0e9fd6aab2","study_id":"60edd13110225f80f9f3709b","session_id":"6196c1f45374a715cfdfd777","condition":"full-information","relevant_dimensions":["antennae","pattern"],"bee_group":{"antennae":"A","wings":"X","pattern":"S","legs":"X"},"action":"harvest","summary":"good-harvest","bonus":1.5000000000000013},{"rt":561.8999999985099,"stimulus":"\n                    <p><b>Action: <em>harvest</em></b></p>\n                    <p>This is the bee that you just saw.</p>\n                    <img src=\"bees-with-color/bee-B2DM.svg\" width=\"200\">\n                    <p><span class=\"greenText\"><b>Successful harvest!</b></span><br>Your pay has increased by $0.02. Your bonus pay is now $0.98.</p>\n            ","response":0,"trial_type":"html-button-response","trial_index":126,"time_elapsed":365317,"internal_node_id":"0.0-4.0-1.59","subject_id":"5f20552d41aabd0e9fd6aab2","study_id":"60edd13110225f80f9f3709b","session_id":"6196c1f45374a715cfdfd777","condition":"full-information","relevant_dimensions":["antennae","pattern"],"bee_group":{"antennae":"A","wings":"X","pattern":"S","legs":"X"},"bonus":1.5000000000000013},{"rt":2129.9000000059605,"stimulus":"bees-with-color/bee-A1DM.svg","response":0,"trial_type":"image-button-response","trial_index":127,"time_elapsed":367448,"internal_node_id":"0.0-4.0-0.60","subject_id":"5f20552d41aabd0e9fd6aab2","study_id":"60edd13110225f80f9f3709b","session_id":"6196c1f45374a715cfdfd777","condition":"full-information","relevant_dimensions":["antennae","pattern"],"bee_group":{"antennae":"A","wings":"X","pattern":"S","legs":"X"},"action":"harvest","summary":"good-harvest","bonus":1.5000000000000013},{"rt":491.1000000014901,"stimulus":"\n                    <p><b>Action: <em>harvest</em></b></p>\n                    <p>This is the bee that you just saw.</p>\n                    <img src=\"bees-with-color/bee-A1DM.svg\" width=\"200\">\n                    <p><span class=\"greenText\"><b>Successful harvest!</b></span><br>Your pay has increased by $0.02. Your bonus pay is now $1.00.</p>\n            ","response":0,"trial_type":"html-button-response","trial_index":128,"time_elapsed":367941,"internal_node_id":"0.0-4.0-1.60","subject_id":"5f20552d41aabd0e9fd6aab2","study_id":"60edd13110225f80f9f3709b","session_id":"6196c1f45374a715cfdfd777","condition":"full-information","relevant_dimensions":["antennae","pattern"],"bee_group":{"antennae":"A","wings":"X","pattern":"S","legs":"X"},"bonus":1.5000000000000013},{"rt":2979.7000000029802,"stimulus":"bees-with-color/bee-A2SF.svg","response":1,"trial_type":"image-button-response","trial_index":129,"time_elapsed":370922,"internal_node_id":"0.0-4.0-0.61","subject_id":"5f20552d41aabd0e9fd6aab2","study_id":"60edd13110225f80f9f3709b","session_id":"6196c1f45374a715cfdfd777","condition":"full-information","relevant_dimensions":["antennae","pattern"],"bee_group":{"antennae":"A","wings":"X","pattern":"S","legs":"X"},"action":"avoid","summary":"good-avoid","bonus":1.5000000000000013},{"rt":490.6000000014901,"stimulus":"\n                    <p><b>Action: <em>avoid</em></b></p>\n                    <p>This is the bee that you just saw.</p>\n                    <img src=\"bees-with-color/bee-A2SF.svg\" width=\"200\">\n                    <p><span class=\"greenText\">Good choice!</span>  This bee would have stung you.<br>Your bonus pay is unchanged, and remains at $1.00.</p>\n            ","response":0,"trial_type":"html-button-response","trial_index":130,"time_elapsed":371414,"internal_node_id":"0.0-4.0-1.61","subject_id":"5f20552d41aabd0e9fd6aab2","study_id":"60edd13110225f80f9f3709b","session_id":"6196c1f45374a715cfdfd777","condition":"full-information","relevant_dimensions":["antennae","pattern"],"bee_group":{"antennae":"A","wings":"X","pattern":"S","legs":"X"},"bonus":1.5000000000000013},{"rt":1510.5,"stimulus":"bees-with-color/bee-A1SF.svg","response":1,"trial_type":"image-button-response","trial_index":131,"time_elapsed":372926,"internal_node_id":"0.0-4.0-0.62","subject_id":"5f20552d41aabd0e9fd6aab2","study_id":"60edd13110225f80f9f3709b","session_id":"6196c1f45374a715cfdfd777","condition":"full-information","relevant_dimensions":["antennae","pattern"],"bee_group":{"antennae":"A","wings":"X","pattern":"S","legs":"X"},"action":"avoid","summary":"good-avoid","bonus":1.5000000000000013},{"rt":490.59999999403954,"stimulus":"\n                    <p><b>Action: <em>avoid</em></b></p>\n                    <p>This is the bee that you just saw.</p>\n                    <img src=\"bees-with-color/bee-A1SF.svg\" width=\"200\">\n                    <p><span class=\"greenText\">Good choice!</span>  This bee would have stung you.<br>Your bonus pay is unchanged, and remains at $1.00.</p>\n            ","response":0,"trial_type":"html-button-response","trial_index":132,"time_elapsed":373419,"internal_node_id":"0.0-4.0-1.62","subject_id":"5f20552d41aabd0e9fd6aab2","study_id":"60edd13110225f80f9f3709b","session_id":"6196c1f45374a715cfdfd777","condition":"full-information","relevant_dimensions":["antennae","pattern"],"bee_group":{"antennae":"A","wings":"X","pattern":"S","legs":"X"},"bonus":1.5000000000000013},{"rt":1209.9000000059605,"stimulus":"bees-with-color/bee-A1DF.svg","response":0,"trial_type":"image-button-response","trial_index":133,"time_elapsed":374631,"internal_node_id":"0.0-4.0-0.63","subject_id":"5f20552d41aabd0e9fd6aab2","study_id":"60edd13110225f80f9f3709b","session_id":"6196c1f45374a715cfdfd777","condition":"full-information","relevant_dimensions":["antennae","pattern"],"bee_group":{"antennae":"A","wings":"X","pattern":"S","legs":"X"},"action":"harvest","summary":"good-harvest","bonus":1.5000000000000013},{"rt":549.8999999985099,"stimulus":"\n                    <p><b>Action: <em>harvest</em></b></p>\n                    <p>This is the bee that you just saw.</p>\n                    <img src=\"bees-with-color/bee-A1DF.svg\" width=\"200\">\n                    <p><span class=\"greenText\"><b>Successful harvest!</b></span><br>Your pay has increased by $0.02. Your bonus pay is now $1.02.</p>\n            ","response":0,"trial_type":"html-button-response","trial_index":134,"time_elapsed":375183,"internal_node_id":"0.0-4.0-1.63","subject_id":"5f20552d41aabd0e9fd6aab2","study_id":"60edd13110225f80f9f3709b","session_id":"6196c1f45374a715cfdfd777","condition":"full-information","relevant_dimensions":["antennae","pattern"],"bee_group":{"antennae":"A","wings":"X","pattern":"S","legs":"X"},"bonus":1.5000000000000013},{"rt":9883.19999999553,"stimulus":"You have completed the first part of this experiment.<br><br>You will now begin a shorter second part, in which you will receive no feedback.<br>The same rules regarding bonus pay apply.<br><br>Press any key to begin.","response":"l","trial_type":"html-keyboard-response","trial_index":135,"time_elapsed":385069,"internal_node_id":"0.0-5.0","subject_id":"5f20552d41aabd0e9fd6aab2","study_id":"60edd13110225f80f9f3709b","session_id":"6196c1f45374a715cfdfd777","condition":"full-information","relevant_dimensions":["antennae","pattern"],"bee_group":{"antennae":"A","wings":"X","pattern":"S","legs":"X"},"bonus":1.5000000000000013},{"rt":2626.7999999970198,"stimulus":"bees-with-color/bee-A1DF.svg","response":0,"trial_type":"image-button-response","trial_index":136,"time_elapsed":387705,"internal_node_id":"0.0-6.0-0.0","subject_id":"5f20552d41aabd0e9fd6aab2","study_id":"60edd13110225f80f9f3709b","session_id":"6196c1f45374a715cfdfd777","condition":"full-information","relevant_dimensions":["antennae","pattern"],"bee_group":{"antennae":"A","wings":"X","pattern":"S","legs":"X"},"bonus":1.5000000000000013},{"rt":2897.5,"stimulus":"bees-with-color/bee-B2SF.svg","response":0,"trial_type":"image-button-response","trial_index":137,"time_elapsed":390606,"internal_node_id":"0.0-6.0-0.1","subject_id":"5f20552d41aabd0e9fd6aab2","study_id":"60edd13110225f80f9f3709b","session_id":"6196c1f45374a715cfdfd777","condition":"full-information","relevant_dimensions":["antennae","pattern"],"bee_group":{"antennae":"A","wings":"X","pattern":"S","legs":"X"},"bonus":1.5000000000000013},{"rt":1378.3999999985099,"stimulus":"bees-with-color/bee-B1SF.svg","response":0,"trial_type":"image-button-response","trial_index":138,"time_elapsed":391988,"internal_node_id":"0.0-6.0-0.2","subject_id":"5f20552d41aabd0e9fd6aab2","study_id":"60edd13110225f80f9f3709b","session_id":"6196c1f45374a715cfdfd777","condition":"full-information","relevant_dimensions":["antennae","pattern"],"bee_group":{"antennae":"A","wings":"X","pattern":"S","legs":"X"},"bonus":1.5000000000000013},{"rt":1058.0999999940395,"stimulus":"bees-with-color/bee-A2SM.svg","response":1,"trial_type":"image-button-response","trial_index":139,"time_elapsed":393050,"internal_node_id":"0.0-6.0-0.3","subject_id":"5f20552d41aabd0e9fd6aab2","study_id":"60edd13110225f80f9f3709b","session_id":"6196c1f45374a715cfdfd777","condition":"full-information","relevant_dimensions":["antennae","pattern"],"bee_group":{"antennae":"A","wings":"X","pattern":"S","legs":"X"},"bonus":1.5000000000000013},{"rt":1919.1000000014901,"stimulus":"bees-with-color/bee-A1SF.svg","response":1,"trial_type":"image-button-response","trial_index":140,"time_elapsed":394972,"internal_node_id":"0.0-6.0-0.4","subject_id":"5f20552d41aabd0e9fd6aab2","study_id":"60edd13110225f80f9f3709b","session_id":"6196c1f45374a715cfdfd777","condition":"full-information","relevant_dimensions":["antennae","pattern"],"bee_group":{"antennae":"A","wings":"X","pattern":"S","legs":"X"},"bonus":1.5000000000000013},{"rt":788.3999999985099,"stimulus":"bees-with-color/bee-B2DF.svg","response":0,"trial_type":"image-button-response","trial_index":141,"time_elapsed":395763,"internal_node_id":"0.0-6.0-0.5","subject_id":"5f20552d41aabd0e9fd6aab2","study_id":"60edd13110225f80f9f3709b","session_id":"6196c1f45374a715cfdfd777","condition":"full-information","relevant_dimensions":["antennae","pattern"],"bee_group":{"antennae":"A","wings":"X","pattern":"S","legs":"X"},"bonus":1.5000000000000013},{"rt":770.5,"stimulus":"bees-with-color/bee-B1DF.svg","response":0,"trial_type":"image-button-response","trial_index":142,"time_elapsed":396536,"internal_node_id":"0.0-6.0-0.6","subject_id":"5f20552d41aabd0e9fd6aab2","study_id":"60edd13110225f80f9f3709b","session_id":"6196c1f45374a715cfdfd777","condition":"full-information","relevant_dimensions":["antennae","pattern"],"bee_group":{"antennae":"A","wings":"X","pattern":"S","legs":"X"},"bonus":1.5000000000000013},{"rt":747.6999999955297,"stimulus":"bees-with-color/bee-A2DM.svg","response":0,"trial_type":"image-button-response","trial_index":143,"time_elapsed":397288,"internal_node_id":"0.0-6.0-0.7","subject_id":"5f20552d41aabd0e9fd6aab2","study_id":"60edd13110225f80f9f3709b","session_id":"6196c1f45374a715cfdfd777","condition":"full-information","relevant_dimensions":["antennae","pattern"],"bee_group":{"antennae":"A","wings":"X","pattern":"S","legs":"X"},"bonus":1.5000000000000013},{"rt":669.5,"stimulus":"bees-with-color/bee-B1DM.svg","response":0,"trial_type":"image-button-response","trial_index":144,"time_elapsed":397960,"internal_node_id":"0.0-6.0-0.8","subject_id":"5f20552d41aabd0e9fd6aab2","study_id":"60edd13110225f80f9f3709b","session_id":"6196c1f45374a715cfdfd777","condition":"full-information","relevant_dimensions":["antennae","pattern"],"bee_group":{"antennae":"A","wings":"X","pattern":"S","legs":"X"},"bonus":1.5000000000000013},{"rt":640,"stimulus":"bees-with-color/bee-B2DM.svg","response":0,"trial_type":"image-button-response","trial_index":145,"time_elapsed":398603,"internal_node_id":"0.0-6.0-0.9","subject_id":"5f20552d41aabd0e9fd6aab2","study_id":"60edd13110225f80f9f3709b","session_id":"6196c1f45374a715cfdfd777","condition":"full-information","relevant_dimensions":["antennae","pattern"],"bee_group":{"antennae":"A","wings":"X","pattern":"S","legs":"X"},"bonus":1.5000000000000013},{"rt":1238.6000000014901,"stimulus":"bees-with-color/bee-B2SM.svg","response":0,"trial_type":"image-button-response","trial_index":146,"time_elapsed":399845,"internal_node_id":"0.0-6.0-0.10","subject_id":"5f20552d41aabd0e9fd6aab2","study_id":"60edd13110225f80f9f3709b","session_id":"6196c1f45374a715cfdfd777","condition":"full-information","relevant_dimensions":["antennae","pattern"],"bee_group":{"antennae":"A","wings":"X","pattern":"S","legs":"X"},"bonus":1.5000000000000013},{"rt":969,"stimulus":"bees-with-color/bee-A2SF.svg","response":1,"trial_type":"image-button-response","trial_index":147,"time_elapsed":400817,"internal_node_id":"0.0-6.0-0.11","subject_id":"5f20552d41aabd0e9fd6aab2","study_id":"60edd13110225f80f9f3709b","session_id":"6196c1f45374a715cfdfd777","condition":"full-information","relevant_dimensions":["antennae","pattern"],"bee_group":{"antennae":"A","wings":"X","pattern":"S","legs":"X"},"bonus":1.5000000000000013},{"rt":708.5999999940395,"stimulus":"bees-with-color/bee-A1DM.svg","response":0,"trial_type":"image-button-response","trial_index":148,"time_elapsed":401529,"internal_node_id":"0.0-6.0-0.12","subject_id":"5f20552d41aabd0e9fd6aab2","study_id":"60edd13110225f80f9f3709b","session_id":"6196c1f45374a715cfdfd777","condition":"full-information","relevant_dimensions":["antennae","pattern"],"bee_group":{"antennae":"A","wings":"X","pattern":"S","legs":"X"},"bonus":1.5000000000000013},{"rt":1008,"stimulus":"bees-with-color/bee-A1SM.svg","response":1,"trial_type":"image-button-response","trial_index":149,"time_elapsed":402540,"internal_node_id":"0.0-6.0-0.13","subject_id":"5f20552d41aabd0e9fd6aab2","study_id":"60edd13110225f80f9f3709b","session_id":"6196c1f45374a715cfdfd777","condition":"full-information","relevant_dimensions":["antennae","pattern"],"bee_group":{"antennae":"A","wings":"X","pattern":"S","legs":"X"},"bonus":1.5000000000000013},{"rt":1149.9000000059605,"stimulus":"bees-with-color/bee-A2DF.svg","response":0,"trial_type":"image-button-response","trial_index":150,"time_elapsed":403693,"internal_node_id":"0.0-6.0-0.14","subject_id":"5f20552d41aabd0e9fd6aab2","study_id":"60edd13110225f80f9f3709b","session_id":"6196c1f45374a715cfdfd777","condition":"full-information","relevant_dimensions":["antennae","pattern"],"bee_group":{"antennae":"A","wings":"X","pattern":"S","legs":"X"},"bonus":1.5000000000000013},{"rt":1238,"stimulus":"bees-with-color/bee-B1SM.svg","response":0,"trial_type":"image-button-response","trial_index":151,"time_elapsed":404935,"internal_node_id":"0.0-6.0-0.15","subject_id":"5f20552d41aabd0e9fd6aab2","study_id":"60edd13110225f80f9f3709b","session_id":"6196c1f45374a715cfdfd777","condition":"full-information","relevant_dimensions":["antennae","pattern"],"bee_group":{"antennae":"A","wings":"X","pattern":"S","legs":"X"},"bonus":1.5000000000000013},{"rt":749.6000000014901,"stimulus":"bees-with-color/bee-B2SM.svg","response":0,"trial_type":"image-button-response","trial_index":152,"time_elapsed":405687,"internal_node_id":"0.0-6.0-0.16","subject_id":"5f20552d41aabd0e9fd6aab2","study_id":"60edd13110225f80f9f3709b","session_id":"6196c1f45374a715cfdfd777","condition":"full-information","relevant_dimensions":["antennae","pattern"],"bee_group":{"antennae":"A","wings":"X","pattern":"S","legs":"X"},"bonus":1.5000000000000013},{"rt":1259,"stimulus":"bees-with-color/bee-A2SM.svg","response":1,"trial_type":"image-button-response","trial_index":153,"time_elapsed":406949,"internal_node_id":"0.0-6.0-0.17","subject_id":"5f20552d41aabd0e9fd6aab2","study_id":"60edd13110225f80f9f3709b","session_id":"6196c1f45374a715cfdfd777","condition":"full-information","relevant_dimensions":["antennae","pattern"],"bee_group":{"antennae":"A","wings":"X","pattern":"S","legs":"X"},"bonus":1.5000000000000013},{"rt":719.1000000014901,"stimulus":"bees-with-color/bee-A2DM.svg","response":0,"trial_type":"image-button-response","trial_index":154,"time_elapsed":407670,"internal_node_id":"0.0-6.0-0.18","subject_id":"5f20552d41aabd0e9fd6aab2","study_id":"60edd13110225f80f9f3709b","session_id":"6196c1f45374a715cfdfd777","condition":"full-information","relevant_dimensions":["antennae","pattern"],"bee_group":{"antennae":"A","wings":"X","pattern":"S","legs":"X"},"bonus":1.5000000000000013},{"rt":680.2000000029802,"stimulus":"bees-with-color/bee-B2DM.svg","response":0,"trial_type":"image-button-response","trial_index":155,"time_elapsed":408353,"internal_node_id":"0.0-6.0-0.19","subject_id":"5f20552d41aabd0e9fd6aab2","study_id":"60edd13110225f80f9f3709b","session_id":"6196c1f45374a715cfdfd777","condition":"full-information","relevant_dimensions":["antennae","pattern"],"bee_group":{"antennae":"A","wings":"X","pattern":"S","legs":"X"},"bonus":1.5000000000000013},{"rt":630.1000000014901,"stimulus":"bees-with-color/bee-A1DF.svg","response":0,"trial_type":"image-button-response","trial_index":156,"time_elapsed":408986,"internal_node_id":"0.0-6.0-0.20","subject_id":"5f20552d41aabd0e9fd6a