[{"success":true,"trial_type":"fullscreen","trial_index":0,"time_elapsed":32901,"internal_node_id":"0.0-0.0","subject_id":"612fc78547802a3f177e0d53","study_id":"60edd13110225f80f9f3709b","session_id":"6196c9222dd7c4d3346ec4a6","condition":"contingent","relevant_dimensions":["antennae","legs"],"bee_group":{"antennae":"A","wings":"X","pattern":"X","legs":"M"},"bonus":1.0000000000000007},{"success":true,"timeout":false,"failed_images":[],"failed_audio":[],"failed_video":[],"trial_type":"preload","trial_index":1,"time_elapsed":37765,"internal_node_id":"0.0-1.0","subject_id":"612fc78547802a3f177e0d53","study_id":"60edd13110225f80f9f3709b","session_id":"6196c9222dd7c4d3346ec4a6","condition":"contingent","relevant_dimensions":["antennae","legs"],"bee_group":{"antennae":"A","wings":"X","pattern":"X","legs":"M"},"bonus":1.0000000000000007},{"rt":9718.800000000745,"stimulus":"Welcome! Press any key to begin.","response":" ","trial_type":"html-keyboard-response","trial_index":2,"time_elapsed":47485,"internal_node_id":"0.0-2.0","subject_id":"612fc78547802a3f177e0d53","study_id":"60edd13110225f80f9f3709b","session_id":"6196c9222dd7c4d3346ec4a6","condition":"contingent","relevant_dimensions":["antennae","legs"],"bee_group":{"antennae":"A","wings":"X","pattern":"X","legs":"M"},"bonus":1.0000000000000007},{"view_history":[{"page_index":0,"viewing_time":8322.900000002235},{"page_index":1,"viewing_time":37432.39999999851},{"page_index":2,"viewing_time":58113},{"page_index":3,"viewing_time":81733.10000000149},{"page_index":4,"viewing_time":14175.89999999851},{"page_index":5,"viewing_time":20709},{"page_index":6,"viewing_time":30422.300000000745},{"page_index":7,"viewing_time":12783.89999999851},{"page_index":8,"viewing_time":5979.300000000745},{"page_index":9,"viewing_time":3936.199999999255},{"page_index":10,"viewing_time":3151.800000000745},{"page_index":11,"viewing_time":17769.699999999255},{"page_index":12,"viewing_time":15926.60000000149},{"page_index":13,"viewing_time":1700.5999999977648},{"page_index":14,"viewing_time":5625.900000002235}],"rt":317783.40000000224,"trial_type":"instructions","trial_index":3,"time_elapsed":365384,"internal_node_id":"0.0-3.0-0.0","subject_id":"612fc78547802a3f177e0d53","study_id":"60edd13110225f80f9f3709b","session_id":"6196c9222dd7c4d3346ec4a6","condition":"contingent","relevant_dimensions":["antennae","legs"],"bee_group":{"antennae":"A","wings":"X","pattern":"X","legs":"M"},"bonus":1.0000000000000007},{"rt":32796.400000002235,"response":{"Q0":["Two or six legs","Stripes or spots on body","Single or double wings","Antennae or no antennae"]},"question_order":[0],"trial_type":"survey-multi-select","trial_index":4,"time_elapsed":398191,"internal_node_id":"0.0-3.0-1.0","subject_id":"612fc78547802a3f177e0d53","study_id":"60edd13110225f80f9f3709b","session_id":"6196c9222dd7c4d3346ec4a6","condition":"contingent","relevant_dimensions":["antennae","legs"],"bee_group":{"antennae":"A","wings":"X","pattern":"X","legs":"M"},"correct":true,"bonus":1.0000000000000007},{"rt":66975.60000000149,"response":{"Q1":"No.","Q2":"Based on the four features of the bee.","Q3":"You do not learn if it was friendly or dangerous, and do not alter your bonus."},"question_order":[0,1,2],"trial_type":"survey-multi-choice","trial_index":5,"time_elapsed":465175,"internal_node_id":"0.0-3.0-2.0","subject_id":"612fc78547802a3f177e0d53","study_id":"60edd13110225f80f9f3709b","session_id":"6196c9222dd7c4d3346ec4a6","condition":"contingent","relevant_dimensions":["antennae","legs"],"bee_group":{"antennae":"A","wings":"X","pattern":"X","legs":"M"},"correct":true,"bonus":1.0000000000000007},{"rt":10526.300000000745,"stimulus":"<p>Congrats, you got everything right<br>When you're ready, click the button below to continue to the experiment.</p>","response":0,"trial_type":"html-button-response","trial_index":6,"time_elapsed":475708,"internal_node_id":"0.0-3.0-3.0","subject_id":"612fc78547802a3f177e0d53","study_id":"60edd13110225f80f9f3709b","session_id":"6196c9222dd7c4d3346ec4a6","condition":"contingent","relevant_dimensions":["antennae","legs"],"bee_group":{"antennae":"A","wings":"X","pattern":"X","legs":"M"},"bonus":1.0000000000000007},{"rt":7611.60000000149,"stimulus":"bees-with-color/bee-B2DM.svg","response":1,"trial_type":"image-button-response","trial_index":7,"time_elapsed":483324,"internal_node_id":"0.0-4.0-0.0","subject_id":"612fc78547802a3f177e0d53","study_id":"60edd13110225f80f9f3709b","session_id":"6196c9222dd7c4d3346ec4a6","condition":"contingent","relevant_dimensions":["antennae","legs"],"bee_group":{"antennae":"A","wings":"X","pattern":"X","legs":"M"},"action":"avoid","summary":"bad-avoid","bonus":1.0000000000000007},{"rt":10557.400000002235,"stimulus":"\n                    <p><b>Action: <em>avoid</em></b></p>\n                    <p>This is the bee that you just saw.</p>\n                    <img src=\"bees-with-color/bee-B2DM.svg\" width=\"200\">\n                    <p><br>Your bonus pay is unchanged, and remains at $0.54.</p>\n            ","response":0,"trial_type":"html-button-response","trial_index":8,"time_elapsed":493894,"internal_node_id":"0.0-4.0-1.0","subject_id":"612fc78547802a3f177e0d53","study_id":"60edd13110225f80f9f3709b","session_id":"6196c9222dd7c4d3346ec4a6","condition":"contingent","relevant_dimensions":["antennae","legs"],"bee_group":{"antennae":"A","wings":"X","pattern":"X","legs":"M"},"bonus":1.0000000000000007},{"rt":4530,"stimulus":"bees-with-color/bee-B1SM.svg","response":0,"trial_type":"image-button-response","trial_index":9,"time_elapsed":498428,"internal_node_id":"0.0-4.0-0.1","subject_id":"612fc78547802a3f177e0d53","study_id":"60edd13110225f80f9f3709b","session_id":"6196c9222dd7c4d3346ec4a6","condition":"contingent","relevant_dimensions":["antennae","legs"],"bee_group":{"antennae":"A","wings":"X","pattern":"X","legs":"M"},"action":"harvest","summary":"good-harvest","bonus":1.0000000000000007},{"rt":7025.599999997765,"stimulus":"\n                    <p><b>Action: <em>harvest</em></b></p>\n                    <p>This is the bee that you just saw.</p>\n                    <img src=\"bees-with-color/bee-B1SM.svg\" width=\"200\">\n                    <p><span class=\"greenText\"><b>Successful harvest!</b></span><br>Your pay has increased by $0.02. Your bonus pay is now $0.56.</p>\n            ","response":0,"trial_type":"html-button-response","trial_index":10,"time_elapsed":505458,"internal_node_id":"0.0-4.0-1.1","subject_id":"612fc78547802a3f177e0d53","study_id":"60edd13110225f80f9f3709b","session_id":"6196c9222dd7c4d3346ec4a6","condition":"contingent","relevant_dimensions":["antennae","legs"],"bee_group":{"antennae":"A","wings":"X","pattern":"X","legs":"M"},"bonus":1.0000000000000007},{"rt":4210.5,"stimulus":"bees-with-color/bee-B1DM.svg","response":1,"trial_type":"image-button-response","trial_index":11,"time_elapsed":509671,"internal_node_id":"0.0-4.0-0.2","subject_id":"612fc78547802a3f177e0d53","study_id":"60edd13110225f80f9f3709b","session_id":"6196c9222dd7c4d3346ec4a6","condition":"contingent","relevant_dimensions":["antennae","legs"],"bee_group":{"antennae":"A","wings":"X","pattern":"X","legs":"M"},"action":"avoid","summary":"bad-avoid","bonus":1.0000000000000007},{"rt":2581.599999997765,"stimulus":"\n                    <p><b>Action: <em>avoid</em></b></p>\n                    <p>This is the bee that you just saw.</p>\n                    <img src=\"bees-with-color/bee-B1DM.svg\" width=\"200\">\n                    <p><br>Your bonus pay is unchanged, and remains at $0.56.</p>\n            ","response":0,"trial_type":"html-button-response","trial_index":12,"time_elapsed":512255,"internal_node_id":"0.0-4.0-1.2","subject_id":"612fc78547802a3f177e0d53","study_id":"60edd13110225f80f9f3709b","session_id":"6196c9222dd7c4d3346ec4a6","condition":"contingent","relevant_dimensions":["antennae","legs"],"bee_group":{"antennae":"A","wings":"X","pattern":"X","legs":"M"},"bonus":1.0000000000000007},{"rt":1845.9000000022352,"stimulus":"bees-with-color/bee-A2SM.svg","response":0,"trial_type":"image-button-response","trial_index":13,"time_elapsed":514103,"internal_node_id":"0.0-4.0-0.3","subject_id":"612fc78547802a3f177e0d53","study_id":"60edd13110225f80f9f3709b","session_id":"6196c9222dd7c4d3346ec4a6","condition":"contingent","relevant_dimensions":["antennae","legs"],"bee_group":{"antennae":"A","wings":"X","pattern":"X","legs":"M"},"action":"harvest","summary":"bad-harvest","bonus":1.0000000000000007},{"rt":5305,"stimulus":"\n                    <p><b>Action: <em>harvest</em></b></p>\n                    <p>This is the bee that you just saw.</p>\n                    <img src=\"bees-with-color/bee-A2SM.svg\" width=\"200\">\n                    <p><span class=\"redText\">Bad choice, the bee was angry.</span><br><b>You have been stung!</b><br>Your pay has been decreased by $0.10. Your bonus pay is now $0.46.</p>\n            ","response":0,"trial_type":"html-button-response","trial_index":14,"time_elapsed":519411,"internal_node_id":"0.0-4.0-1.3","subject_id":"612fc78547802a3f177e0d53","study_id":"60edd13110225f80f9f3709b","session_id":"6196c9222dd7c4d3346ec4a6","condition":"contingent","relevant_dimensions":["antennae","legs"],"bee_group":{"antennae":"A","wings":"X","pattern":"X","legs":"M"},"bonus":1.0000000000000007},{"rt":5696.199999999255,"stimulus":"bees-with-color/bee-B1DF.svg","response":0,"trial_type":"image-button-response","trial_index":15,"time_elapsed":525110,"internal_node_id":"0.0-4.0-0.4","subject_id":"612fc78547802a3f177e0d53","study_id":"60edd13110225f80f9f3709b","session_id":"6196c9222dd7c4d3346ec4a6","condition":"contingent","relevant_dimensions":["antennae","legs"],"bee_group":{"antennae":"A","wings":"X","pattern":"X","legs":"M"},"action":"harvest","summary":"good-harvest","bonus":1.0000000000000007},{"rt":3163.60000000149,"stimulus":"\n                    <p><b>Action: <em>harvest</em></b></p>\n                    <p>This is the bee that you just saw.</p>\n                    <img src=\"bees-with-color/bee-B1DF.svg\" width=\"200\">\n                    <p><span class=\"greenText\"><b>Successful harvest!</b></span><br>Your pay has increased by $0.02. Your bonus pay is now $0.48.</p>\n            ","response":0,"trial_type":"html-button-response","trial_index":16,"time_elapsed":528277,"internal_node_id":"0.0-4.0-1.4","subject_id":"612fc78547802a3f177e0d53","study_id":"60edd13110225f80f9f3709b","session_id":"6196c9222dd7c4d3346ec4a6","condition":"contingent","relevant_dimensions":["antennae","legs"],"bee_group":{"antennae":"A","wings":"X","pattern":"X","legs":"M"},"bonus":1.0000000000000007},{"rt":4271.29999999702,"stimulus":"bees-with-color/bee-B2DF.svg","response":0,"trial_type":"image-button-response","trial_index":17,"time_elapsed":532554,"internal_node_id":"0.0-4.0-0.5","subject_id":"612fc78547802a3f177e0d53","study_id":"60edd13110225f80f9f3709b","session_id":"6196c9222dd7c4d3346ec4a6","condition":"contingent","relevant_dimensions":["antennae","legs"],"bee_group":{"antennae":"A","wings":"X","pattern":"X","legs":"M"},"action":"harvest","summary":"good-harvest","bonus":1.0000000000000007},{"rt":1346,"stimulus":"\n                    <p><b>Action: <em>harvest</em></b></p>\n                    <p>This is the bee that you just saw.</p>\n                    <img src=\"bees-with-color/bee-B2DF.svg\" width=\"200\">\n                    <p><span class=\"greenText\"><b>Successful harvest!</b></span><br>Your pay has increased by $0.02. Your bonus pay is now $0.50.</p>\n            ","response":0,"trial_type":"html-button-response","trial_index":18,"time_elapsed":533902,"internal_node_id":"0.0-4.0-1.5","subject_id":"612fc78547802a3f177e0d53","study_id":"60edd13110225f80f9f3709b","session_id":"6196c9222dd7c4d3346ec4a6","condition":"contingent","relevant_dimensions":["antennae","legs"],"bee_group":{"antennae":"A","wings":"X","pattern":"X","legs":"M"},"bonus":1.0000000000000007},{"rt":1480.4000000022352,"stimulus":"bees-with-color/bee-A1DM.svg","response":1,"trial_type":"image-button-response","trial_index":19,"time_elapsed":535385,"internal_node_id":"0.0-4.0-0.6","subject_id":"612fc78547802a3f177e0d53","study_id":"60edd13110225f80f9f3709b","session_id":"6196c9222dd7c4d3346ec4a6","condition":"contingent","relevant_dimensions":["antennae","legs"],"bee_group":{"antennae":"A","wings":"X","pattern":"X","legs":"M"},"action":"avoid","summary":"good-avoid","bonus":1.0000000000000007},{"rt":1120.3999999985099,"stimulus":"\n                    <p><b>Action: <em>avoid</em></b></p>\n                    <p>This is the bee that you just saw.</p>\n                    <img src=\"bees-with-color/bee-A1DM.svg\" width=\"200\">\n                    <p><br>Your bonus pay is unchanged, and remains at $0.50.</p>\n            ","response":0,"trial_type":"html-button-response","trial_index":20,"time_elapsed":536507,"internal_node_id":"0.0-4.0-1.6","subject_id":"612fc78547802a3f177e0d53","study_id":"60edd13110225f80f9f3709b","session_id":"6196c9222dd7c4d3346ec4a6","condition":"contingent","relevant_dimensions":["antennae","legs"],"bee_group":{"antennae":"A","wings":"X","pattern":"X","legs":"M"},"bonus":1.0000000000000007},{"rt":3115.7999999970198,"stimulus":"bees-with-color/bee-B2SF.svg","response":1,"trial_type":"image-button-response","trial_index":21,"time_elapsed":539625,"internal_node_id":"0.0-4.0-0.7","subject_id":"612fc78547802a3f177e0d53","study_id":"60edd13110225f80f9f3709b","session_id":"6196c9222dd7c4d3346ec4a6","condition":"contingent","relevant_dimensions":["antennae","legs"],"bee_group":{"antennae":"A","wings":"X","pattern":"X","legs":"M"},"action":"avoid","summary":"bad-avoid","bonus":1.0000000000000007},{"rt":950,"stimulus":"\n                    <p><b>Action: <em>avoid</em></b></p>\n                    <p>This is the bee that you just saw.</p>\n                    <img src=\"bees-with-color/bee-B2SF.svg\" width=\"200\">\n                    <p><br>Your bonus pay is unchanged, and remains at $0.50.</p>\n            ","response":0,"trial_type":"html-button-response","trial_index":22,"time_elapsed":540576,"internal_node_id":"0.0-4.0-1.7","subject_id":"612fc78547802a3f177e0d53","study_id":"60edd13110225f80f9f3709b","session_id":"6196c9222dd7c4d3346ec4a6","condition":"contingent","relevant_dimensions":["antennae","legs"],"bee_group":{"antennae":"A","wings":"X","pattern":"X","legs":"M"},"bonus":1.0000000000000007},{"rt":3947.10000000149,"stimulus":"bees-with-color/bee-B2SM.svg","response":0,"trial_type":"image-button-response","trial_index":23,"time_elapsed":544525,"internal_node_id":"0.0-4.0-0.8","subject_id":"612fc78547802a3f177e0d53","study_id":"60edd13110225f80f9f3709b","session_id":"6196c9222dd7c4d3346ec4a6","condition":"contingent","relevant_dimensions":["antennae","legs"],"bee_group":{"antennae":"A","wings":"X","pattern":"X","legs":"M"},"action":"harvest","summary":"good-harvest","bonus":1.0000000000000007},{"rt":1052.5,"stimulus":"\n                    <p><b>Action: <em>harvest</em></b></p>\n                    <p>This is the bee that you just saw.</p>\n                    <img src=\"bees-with-color/bee-B2SM.svg\" width=\"200\">\n                    <p><span class=\"greenText\"><b>Successful harvest!</b></span><br>Your pay has increased by $0.02. Your bonus pay is now $0.52.</p>\n            ","response":0,"trial_type":"html-button-response","trial_index":24,"time_elapsed":545588,"internal_node_id":"0.0-4.0-1.8","subject_id":"612fc78547802a3f177e0d53","study_id":"60edd13110225f80f9f3709b","session_id":"6196c9222dd7c4d3346ec4a6","condition":"contingent","relevant_dimensions":["antennae","legs"],"bee_group":{"antennae":"A","wings":"X","pattern":"X","legs":"M"},"bonus":1.0000000000000007},{"rt":2305.800000000745,"stimulus":"bees-with-color/bee-A2DM.svg","response":1,"trial_type":"image-button-response","trial_index":25,"time_elapsed":547897,"internal_node_id":"0.0-4.0-0.9","subject_id":"612fc78547802a3f177e0d53","study_id":"60edd13110225f80f9f3709b","session_id":"6196c9222dd7c4d3346ec4a6","condition":"contingent","relevant_dimensions":["antennae","legs"],"bee_group":{"antennae":"A","wings":"X","pattern":"X","legs":"M"},"action":"avoid","summary":"good-avoid","bonus":1.0000000000000007},{"rt":1148.6000000014901,"stimulus":"\n                    <p><b>Action: <em>avoid</em></b></p>\n                    <p>This is the bee that you just saw.</p>\n                    <img src=\"bees-with-color/bee-A2DM.svg\" width=\"200\">\n                    <p><br>Your bonus pay is unchanged, and remains at $0.52.</p>\n            ","response":0,"trial_type":"html-button-response","trial_index":26,"time_elapsed":549047,"internal_node_id":"0.0-4.0-1.9","subject_id":"612fc78547802a3f177e0d53","study_id":"60edd13110225f80f9f3709b","session_id":"6196c9222dd7c4d3346ec4a6","condition":"contingent","relevant_dimensions":["antennae","legs"],"bee_group":{"antennae":"A","wings":"X","pattern":"X","legs":"M"},"bonus":1.0000000000000007},{"rt":2508.199999999255,"stimulus":"bees-with-color/bee-A2SF.svg","response":1,"trial_type":"image-button-response","trial_index":27,"time_elapsed":551557,"internal_node_id":"0.0-4.0-0.10","subject_id":"612fc78547802a3f177e0d53","study_id":"60edd13110225f80f9f3709b","session_id":"6196c9222dd7c4d3346ec4a6","condition":"contingent","relevant_dimensions":["antennae","legs"],"bee_group":{"antennae":"A","wings":"X","pattern":"X","legs":"M"},"action":"avoid","summary":"bad-avoid","bonus":1.0000000000000007},{"rt":1043.199999999255,"stimulus":"\n                    <p><b>Action: <em>avoid</em></b></p>\n                    <p>This is the bee that you just saw.</p>\n                    <img src=\"bees-with-color/bee-A2SF.svg\" width=\"200\">\n                    <p><br>Your bonus pay is unchanged, and remains at $0.52.</p>\n            ","response":0,"trial_type":"html-button-response","trial_index":28,"time_elapsed":552602,"internal_node_id":"0.0-4.0-1.10","subject_id":"612fc78547802a3f177e0d53","study_id":"60edd13110225f80f9f3709b","session_id":"6196c9222dd7c4d3346ec4a6","condition":"contingent","relevant_dimensions":["antennae","legs"],"bee_group":{"antennae":"A","wings":"X","pattern":"X","legs":"M"},"bonus":1.0000000000000007},{"rt":2066,"stimulus":"bees-with-color/bee-A2DF.svg","response":1,"trial_type":"image-button-response","trial_index":29,"time_elapsed":554672,"internal_node_id":"0.0-4.0-0.11","subject_id":"612fc78547802a3f177e0d53","study_id":"60edd13110225f80f9f3709b","session_id":"6196c9222dd7c4d3346ec4a6","condition":"contingent","relevant_dimensions":["antennae","legs"],"bee_group":{"antennae":"A","wings":"X","pattern":"X","legs":"M"},"action":"avoid","summary":"bad-avoid","bonus":1.0000000000000007},{"rt":945.8999999985099,"stimulus":"\n                    <p><b>Action: <em>avoid</em></b></p>\n                    <p>This is the bee that you just saw.</p>\n                    <img src=\"bees-with-color/bee-A2DF.svg\" width=\"200\">\n                    <p><br>Your bonus pay is unchanged, and remains at $0.52.</p>\n            ","response":0,"trial_type":"html-button-response","trial_index":30,"time_elapsed":555619,"internal_node_id":"0.0-4.0-1.11","subject_id":"612fc78547802a3f177e0d53","study_id":"60edd13110225f80f9f3709b","session_id":"6196c9222dd7c4d3346ec4a6","condition":"contingent","relevant_dimensions":["antennae","legs"],"bee_group":{"antennae":"A","wings":"X","pattern":"X","legs":"M"},"bonus":1.0000000000000007},{"rt":2383,"stimulus":"bees-with-color/bee-B1SF.svg","response":0,"trial_type":"image-button-response","trial_index":31,"time_elapsed":558012,"internal_node_id":"0.0-4.0-0.12","subject_id":"612fc78547802a3f177e0d53","study_id":"60edd13110225f80f9f3709b","session_id":"6196c9222dd7c4d3346ec4a6","condition":"contingent","relevant_dimensions":["antennae","legs"],"bee_group":{"antennae":"A","wings":"X","pattern":"X","legs":"M"},"action":"harvest","summary":"good-harvest","bonus":1.0000000000000007},{"rt":1079.9000000022352,"stimulus":"\n                    <p><b>Action: <em>harvest</em></b></p>\n                    <p>This is the bee that you just saw.</p>\n                    <img src=\"bees-with-color/bee-B1SF.svg\" width=\"200\">\n                    <p><span class=\"greenText\"><b>Successful harvest!</b></span><br>Your pay has increased by $0.02. Your bonus pay is now $0.54.</p>\n            ","response":0,"trial_type":"html-button-response","trial_index":32,"time_elapsed":559094,"internal_node_id":"0.0-4.0-1.12","subject_id":"612fc78547802a3f177e0d53","study_id":"60edd13110225f80f9f3709b","session_id":"6196c9222dd7c4d3346ec4a6","condition":"contingent","relevant_dimensions":["antennae","legs"],"bee_group":{"antennae":"A","wings":"X","pattern":"X","legs":"M"},"bonus":1.0000000000000007},{"rt":2002.4000000022352,"stimulus":"bees-with-color/bee-A1SF.svg","response":0,"trial_type":"image-button-response","trial_index":33,"time_elapsed":561098,"internal_node_id":"0.0-4.0-0.13","subject_id":"612fc78547802a3f177e0d53","study_id":"60edd13110225f80f9f3709b","session_id":"6196c9222dd7c4d3346ec4a6","condition":"contingent","relevant_dimensions":["antennae","legs"],"bee_group":{"antennae":"A","wings":"X","pattern":"X","legs":"M"},"action":"harvest","summary":"good-harvest","bonus":1.0000000000000007},{"rt":1036.699999999255,"stimulus":"\n                    <p><b>Action: <em>harvest</em></b></p>\n                    <p>This is the bee that you just saw.</p>\n                    <img src=\"bees-with-color/bee-A1SF.svg\" width=\"200\">\n                    <p><span class=\"greenText\"><b>Successful harvest!</b></span><br>Your pay has increased by $0.02. Your bonus pay is now $0.56.</p>\n            ","response":0,"trial_type":"html-button-response","trial_index":34,"time_elapsed":562137,"internal_node_id":"0.0-4.0-1.13","subject_id":"612fc78547802a3f177e0d53","study_id":"60edd13110225f80f9f3709b","session_id":"6196c9222dd7c4d3346ec4a6","condition":"contingent","relevant_dimensions":["antennae","legs"],"bee_group":{"antennae":"A","wings":"X","pattern":"X","legs":"M"},"bonus":1.0000000000000007},{"rt":1208.300000000745,"stimulus":"bees-with-color/bee-A1SM.svg","response":1,"trial_type":"image-button-response","trial_index":35,"time_elapsed":563347,"internal_node_id":"0.0-4.0-0.14","subject_id":"612fc78547802a3f177e0d53","study_id":"60edd13110225f80f9f3709b","session_id":"6196c9222dd7c4d3346ec4a6","condition":"contingent","relevant_dimensions":["antennae","legs"],"bee_group":{"antennae":"A","wings":"X","pattern":"X","legs":"M"},"action":"avoid","summary":"good-avoid","bonus":1.0000000000000007},{"rt":1000.3000000007451,"stimulus":"\n                    <p><b>Action: <em>avoid</em></b></p>\n                    <p>This is the bee that you just saw.</p>\n                    <img src=\"bees-with-color/bee-A1SM.svg\" width=\"200\">\n                    <p><br>Your bonus pay is unchanged, and remains at $0.56.</p>\n            ","response":0,"trial_type":"html-button-response","trial_index":36,"time_elapsed":564349,"internal_node_id":"0.0-4.0-1.14","subject_id":"612fc78547802a3f177e0d53","study_id":"60edd13110225f80f9f3709b","session_id":"6196c9222dd7c4d3346ec4a6","condition":"contingent","relevant_dimensions":["antennae","legs"],"bee_group":{"antennae":"A","wings":"X","pattern":"X","legs":"M"},"bonus":1.0000000000000007},{"rt":1352.300000000745,"stimulus":"bees-with-color/bee-A1DF.svg","response":1,"trial_type":"image-button-response","trial_index":37,"time_elapsed":565704,"internal_node_id":"0.0-4.0-0.15","subject_id":"612fc78547802a3f177e0d53","study_id":"60edd13110225f80f9f3709b","session_id":"6196c9222dd7c4d3346ec4a6","condition":"contingent","relevant_dimensions":["antennae","legs"],"bee_group":{"antennae":"A","wings":"X","pattern":"X","legs":"M"},"action":"avoid","summary":"bad-avoid","bonus":1.0000000000000007},{"rt":1020.7000000029802,"stimulus":"\n                    <p><b>Action: <em>avoid</em></b></p>\n                    <p>This is the bee that you just saw.</p>\n                    <img src=\"bees-with-color/bee-A1DF.svg\" width=\"200\">\n                    <p><br>Your bonus pay is unchanged, and remains at $0.56.</p>\n            ","response":0,"trial_type":"html-button-response","trial_index":38,"time_elapsed":566727,"internal_node_id":"0.0-4.0-1.15","subject_id":"612fc78547802a3f177e0d53","study_id":"60edd13110225f80f9f3709b","session_id":"6196c9222dd7c4d3346ec4a6","condition":"contingent","relevant_dimensions":["antennae","legs"],"bee_group":{"antennae":"A","wings":"X","pattern":"X","legs":"M"},"bonus":1.0000000000000007},{"rt":4133.400000002235,"stimulus":"bees-with-color/bee-A1DM.svg","response":1,"trial_type":"image-button-response","trial_index":39,"time_elapsed":570862,"internal_node_id":"0.0-4.0-0.16","subject_id":"612fc78547802a3f177e0d53","study_id":"60edd13110225f80f9f3709b","session_id":"6196c9222dd7c4d3346ec4a6","condition":"contingent","relevant_dimensions":["antennae","legs"],"bee_group":{"antennae":"A","wings":"X","pattern":"X","legs":"M"},"action":"avoid","summary":"good-avoid","bonus":1.0000000000000007},{"rt":837.3999999985099,"stimulus":"\n                    <p><b>Action: <em>avoid</em></b></p>\n                    <p>This is the bee that you just saw.</p>\n                    <img src=\"bees-with-color/bee-A1DM.svg\" width=\"200\">\n                    <p><br>Your bonus pay is unchanged, and remains at $0.56.</p>\n            ","response":0,"trial_type":"html-button-response","trial_index":40,"time_elapsed":571704,"internal_node_id":"0.0-4.0-1.16","subject_id":"612fc78547802a3f177e0d53","study_id":"60edd13110225f80f9f3709b","session_id":"6196c9222dd7c4d3346ec4a6","condition":"contingent","relevant_dimensions":["antennae","legs"],"bee_group":{"antennae":"A","wings":"X","pattern":"X","legs":"M"},"bonus":1.0000000000000007},{"rt":3841.800000000745,"stimulus":"bees-with-color/bee-B1DM.svg","response":1,"trial_type":"image-button-response","trial_index":41,"time_elapsed":575548,"internal_node_id":"0.0-4.0-0.17","subject_id":"612fc78547802a3f177e0d53","study_id":"60edd13110225f80f9f3709b","session_id":"6196c9222dd7c4d3346ec4a6","condition":"contingent","relevant_dimensions":["antennae","legs"],"bee_group":{"antennae":"A","wings":"X","pattern":"X","legs":"M"},"action":"avoid","summary":"bad-avoid","bonus":1.0000000000000007},{"rt":931.6000000014901,"stimulus":"\n                    <p><b>Action: <em>avoid</em></b></p>\n                    <p>This is the bee that you just saw.</p>\n                    <img src=\"bees-with-color/bee-B1DM.svg\" width=\"200\">\n                    <p><br>Your bonus pay is unchanged, and remains at $0.56.</p>\n            ","response":0,"trial_type":"html-button-response","trial_index":42,"time_elapsed":576482,"internal_node_id":"0.0-4.0-1.17","subject_id":"612fc78547802a3f177e0d53","study_id":"60edd13110225f80f9f3709b","session_id":"6196c9222dd7c4d3346ec4a6","condition":"contingent","relevant_dimensions":["antennae","legs"],"bee_group":{"antennae":"A","wings":"X","pattern":"X","legs":"M"},"bonus":1.0000000000000007},{"rt":2593.199999999255,"stimulus":"bees-with-color/bee-B1SM.svg","response":0,"trial_type":"image-button-response","trial_index":43,"time_elapsed":579081,"internal_node_id":"0.0-4.0-0.18","subject_id":"612fc78547802a3f177e0d53","study_id":"60edd13110225f80f9f3709b","session_id":"6196c9222dd7c4d3346ec4a6","condition":"contingent","relevant_dimensions":["antennae","legs"],"bee_group":{"antennae":"A","wings":"X","pattern":"X","legs":"M"},"action":"harvest","summary":"good-harvest","bonus":1.0000000000000007},{"rt":3733.10000000149,"stimulus":"\n                    <p><b>Action: <em>harvest</em></b></p>\n                    <p>This is the bee that you just saw.</p>\n                    <img src=\"bees-with-color/bee-B1SM.svg\" width=\"200\">\n                    <p><span class=\"greenText\"><b>Successful harvest!</b></span><br>Your pay has increased by $0.02. Your bonus pay is now $0.58.</p>\n            ","response":0,"trial_type":"html-button-response","trial_index":44,"time_elapsed":582816,"internal_node_id":"0.0-4.0-1.18","subject_id":"612fc78547802a3f177e0d53","study_id":"60edd13110225f80f9f3709b","session_id":"6196c9222dd7c4d3346ec4a6","condition":"contingent","relevant_dimensions":["antennae","legs"],"bee_group":{"antennae":"A","wings":"X","pattern":"X","legs":"M"},"bonus":1.0000000000000007},{"rt":2220.900000002235,"stimulus":"bees-with-color/bee-B1DF.svg","response":1,"trial_type":"image-button-response","trial_index":45,"time_elapsed":585049,"internal_node_id":"0.0-4.0-0.19","subject_id":"612fc78547802a3f177e0d53","study_id":"60edd13110225f80f9f3709b","session_id":"6196c9222dd7c4d3346ec4a6","condition":"contingent","relevant_dimensions":["antennae","legs"],"bee_group":{"antennae":"A","wings":"X","pattern":"X","legs":"M"},"action":"avoid","summary":"bad-avoid","bonus":1.0000000000000007},{"rt":1088.0999999977648,"stimulus":"\n                    <p><b>Action: <em>avoid</em></b></p>\n                    <p>This is the bee that you just saw.</p>\n                    <img src=\"bees-with-color/bee-B1DF.svg\" width=\"200\">\n                    <p><br>Your bonus pay is unchanged, and remains at $0.58.</p>\n            ","response":0,"trial_type":"html-button-response","trial_index":46,"time_elapsed":586181,"internal_node_id":"0.0-4.0-1.19","subject_id":"612fc78547802a3f177e0d53","study_id":"60edd13110225f80f9f3709b","session_id":"6196c9222dd7c4d3346ec4a6","condition":"contingent","relevant_dimensions":["antennae","legs"],"bee_group":{"antennae":"A","wings":"X","pattern":"X","legs":"M"},"bonus":1.0000000000000007},{"rt":1710.800000000745,"stimulus":"bees-with-color/bee-A1SM.svg","response":0,"trial_type":"image-button-response","trial_index":47,"time_elapsed":587894,"internal_node_id":"0.0-4.0-0.20","subject_id":"612fc78547802a3f177e0d53","study_id":"60edd13110225f80f9f3709b","session_id":"6196c9222dd7c4d3346ec4a6","condition":"contingent","relevant_dimensions":["antennae","legs"],"bee_group":{"antennae":"A","wings":"X","pattern":"X","legs":"M"},"action":"harvest","summary":"bad-harvest","bonus":1.0000000000000007},{"rt":3685,"stimulus":"\n                    <p><b>Action: <em>harvest</em></b></p>\n                    <p>This is the bee that you just saw.</p>\n                    <img src=\"bees-with-color/bee-A1SM.svg\" width=\"200\">\n                    <p><span class=\"redText\">Bad choice, the bee was angry.</span><br><b>You have been stung!</b><br>Your pay has been decreased by $0.10. Your bonus pay is now $0.48.</p>\n            ","response":0,"trial_type":"html-button-response","trial_index":48,"time_elapsed":591581,"internal_node_id":"0.0-4.0-1.20","subject_id":"612fc78547802a3f177e0d53","study_id":"60edd13110225f80f9f3709b","session_id":"6196c9222dd7c4d3346ec4a6","condition":"contingent","relevant_dimensions":["antennae","legs"],"bee_group":{"antennae":"A","wings":"X","pattern":"X","legs":"M"},"bonus":1.0000000000000007},{"rt":1172.8999999985099,"stimulus":"bees-with-color/bee-B2SF.svg","response":0,"trial_type":"image-button-response","trial_index":49,"time_elapsed":592756,"internal_node_id":"0.0-4.0-0.21","subject_id":"612fc78547802a3f177e0d53","study_id":"60edd13110225f80f9f3709b","session_id":"6196c9222dd7c4d3346ec4a6","condition":"contingent","relevant_dimensions":["antennae","legs"],"bee_group":{"antennae":"A","wings":"X","pattern":"X","legs":"M"},"action":"harvest","summary":"good-harvest","bonus":1.0000000000000007},{"rt":1048.800000000745,"stimulus":"\n                    <p><b>Action: <em>harvest</em></b></p>\n                    <p>This is the bee that you just saw.</p>\n                    <img src=\"bees-with-color/bee-B2SF.svg\" width=\"200\">\n                    <p><span class=\"greenText\"><b>Successful harvest!</b></span><br>Your pay has increased by $0.02. Your bonus pay is now $0.50.</p>\n            ","response":0,"trial_type":"html-button-response","trial_index":50,"time_elapsed":593807,"internal_node_id":"0.0-4.0-1.21","subject_id":"612fc78547802a3f177e0d53","study_id":"60edd13110225f80f9f3709b","session_id":"6196c9222dd7c4d3346ec4a6","condition":"contingent","relevant_dimensions":["antennae","legs"],"bee_group":{"antennae":"A","wings":"X","pattern":"X","legs":"M"},"bonus":1.0000000000000007},{"rt":2505.300000000745,"stimulus":"bees-with-color/bee-B1SF.svg","response":0,"trial_type":"image-button-response","trial_index":51,"time_elapsed":596314,"internal_node_id":"0.0-4.0-0.22","subject_id":"612fc78547802a3f177e0d53","study_id":"60edd13110225f80f9f3709b","session_id":"6196c9222dd7c4d3346ec4a6","condition":"contingent","relevant_dimensions":["antennae","legs"],"bee_group":{"antennae":"A","wings":"X","pattern":"X","legs":"M"},"action":"harvest","summary":"good-harvest","bonus":1.0000000000000007},{"rt":1010.5,"stimulus":"\n                    <p><b>Action: <em>harvest</em></b></p>\n                    <p>This is the bee that you just saw.</p>\n                    <img src=\"bees-with-color/bee-B1SF.svg\" width=\"200\">\n                    <p><span class=\"greenText\"><b>Successful harvest!</b></span><br>Your pay has increased by $0.02. Your bonus pay is now $0.52.</p>\n            ","response":0,"trial_type":"html-button-response","trial_index":52,"time_elapsed":597326,"internal_node_id":"0.0-4.0-1.22","subject_id":"612fc78547802a3f177e0d53","study_id":"60edd13110225f80f9f3709b","session_id":"6196c9222dd7c4d3346ec4a6","condition":"contingent","relevant_dimensions":["antennae","legs"],"bee_group":{"antennae":"A","wings":"X","pattern":"X","legs":"M"},"bonus":1.0000000000000007},{"rt":1556.9000000022352,"stimulus":"bees-with-color/bee-B2DF.svg","response":1,"trial_type":"image-button-response","trial_index":53,"time_elapsed":598886,"internal_node_id":"0.0-4.0-0.23","subject_id":"612fc78547802a3f177e0d53","study_id":"60edd13110225f80f9f3709b","session_id":"6196c9222dd7c4d3346ec4a6","condition":"contingent","relevant_dimensions":["antennae","legs"],"bee_group":{"antennae":"A","wings":"X","pattern":"X","legs":"M"},"action":"avoid","summary":"bad-avoid","bonus":1.0000000000000007},{"rt":928.6999999992549,"stimulus":"\n                    <p><b>Action: <em>avoid</em></b></p>\n                    <p>This is the bee that you just saw.</p>\n                    <img src=\"bees-with-color/bee-B2DF.svg\" width=\"200\">\n                    <p><br>Your bonus pay is unchanged, and remains at $0.52.</p>\n            ","response":0,"trial_type":"html-button-response","trial_index":54,"time_elapsed":599817,"internal_node_id":"0.0-4.0-1.23","subject_id":"612fc78547802a3f177e0d53","study_id":"60edd13110225f80f9f3709b","session_id":"6196c9222dd7c4d3346ec4a6","condition":"contingent","relevant_dimensions":["antennae","legs"],"bee_group":{"antennae":"A","wings":"X","pattern":"X","legs":"M"},"bonus":1.0000000000000007},{"rt":3054.800000000745,"stimulus":"bees-with-color/bee-A2SF.svg","response":1,"trial_type":"image-button-response","trial_index":55,"time_elapsed":602884,"internal_node_id":"0.0-4.0-0.24","subject_id":"612fc78547802a3f177e0d53","study_id":"60edd13110225f80f9f3709b","session_id":"6196c9222dd7c4d3346ec4a6","condition":"contingent","relevant_dimensions":["antennae","legs"],"bee_group":{"antennae":"A","wings":"X","pattern":"X","legs":"M"},"action":"avoid","summary":"bad-avoid","bonus":1.0000000000000007},{"rt":902,"stimulus":"\n                    <p><b>Action: <em>avoid</em></b></p>\n                    <p>This is the bee that you just saw.</p>\n                    <img src=\"bees-with-color/bee-A2SF.svg\" width=\"200\">\n                    <p><br>Your bonus pay is unchanged, and remains at $0.52.</p>\n            ","response":0,"trial_type":"html-button-response","trial_index":56,"time_elapsed":603789,"internal_node_id":"0.0-4.0-1.24","subject_id":"612fc78547802a3f177e0d53","study_id":"60edd13110225f80f9f3709b","session_id":"6196c9222dd7c4d3346ec4a6","condition":"contingent","relevant_dimensions":["antennae","legs"],"bee_group":{"antennae":"A","wings":"X","pattern":"X","legs":"M"},"bonus":1.0000000000000007},{"rt":2711.699999999255,"stimulus":"bees-with-color/bee-A2DM.svg","response":1,"trial_type":"image-button-response","trial_index":57,"time_elapsed":606503,"internal_node_id":"0.0-4.0-0.25","subject_id":"612fc78547802a3f177e0d53","study_id":"60edd13110225f80f9f3709b","session_id":"6196c9222dd7c4d3346ec4a6","condition":"contingent","relevant_dimensions":["antennae","legs"],"bee_group":{"antennae":"A","wings":"X","pattern":"X","legs":"M"},"action":"avoid","summary":"good-avoid","bonus":1.0000000000000007},{"rt":753.2999999970198,"stimulus":"\n                    <p><b>Action: <em>avoid</em></b></p>\n                    <p>This is the bee that you just saw.</p>\n                    <img src=\"bees-with-color/bee-A2DM.svg\" width=\"200\">\n                    <p><br>Your bonus pay is unchanged, and remains at $0.52.</p>\n            ","response":0,"trial_type":"html-button-response","trial_index":58,"time_elapsed":607259,"internal_node_id":"0.0-4.0-1.25","subject_id":"612fc78547802a3f177e0d53","study_id":"60edd13110225f80f9f3709b","session_id":"6196c9222dd7c4d3346ec4a6","condition":"contingent","relevant_dimensions":["antennae","legs"],"bee_group":{"antennae":"A","wings":"X","pattern":"X","legs":"M"},"bonus":1.0000000000000007},{"rt":2120.300000000745,"stimulus":"bees-with-color/bee-A1DF.svg","response":1,"trial_type":"image-button-response","trial_index":59,"time_elapsed":609382,"internal_node_id":"0.0-4.0-0.26","subject_id":"612fc78547802a3f177e0d53","study_id":"60edd13110225f80f9f3709b","session_id":"6196c9222dd7c4d3346ec4a6","condition":"contingent","relevant_dimensions":["antennae","legs"],"bee_group":{"antennae":"A","wings":"X","pattern":"X","legs":"M"},"action":"avoid","summary":"bad-avoid","bonus":1.0000000000000007},{"rt":815,"stimulus":"\n                    <p><b>Action: <em>avoid</em></b></p>\n                    <p>This is the bee that you just saw.</p>\n                    <img src=\"bees-with-color/bee-A1DF.svg\" width=\"200\">\n                    <p><br>Your bonus pay is unchanged, and remains at $0.52.</p>\n            ","response":0,"trial_type":"html-button-response","trial_index":60,"time_elapsed":610199,"internal_node_id":"0.0-4.0-1.26","subject_id":"612fc78547802a3f177e0d53","study_id":"60edd13110225f80f9f3709b","session_id":"6196c9222dd7c4d3346ec4a6","condition":"contingent","relevant_dimensions":["antennae","legs"],"bee_group":{"antennae":"A","wings":"X","pattern":"X","legs":"M"},"bonus":1.0000000000000007},{"rt":1950.800000000745,"stimulus":"bees-with-color/bee-B2SM.svg","response":0,"trial_type":"image-button-response","trial_index":61,"time_elapsed":612152,"internal_node_id":"0.0-4.0-0.27","subject_id":"612fc78547802a3f177e0d53","study_id":"60edd13110225f80f9f3709b","session_id":"6196c9222dd7c4d3346ec4a6","condition":"contingent","relevant_dimensions":["antennae","legs"],"bee_group":{"antennae":"A","wings":"X","pattern":"X","legs":"M"},"action":"harvest","summary":"good-harvest","bonus":1.0000000000000007},{"rt":888,"stimulus":"\n                    <p><b>Action: <em>harvest</em></b></p>\n                    <p>This is the bee that you just saw.</p>\n                    <img src=\"bees-with-color/bee-B2SM.svg\" width=\"200\">\n                    <p><span class=\"greenText\"><b>Successful harvest!</b></span><br>Your pay has increased by $0.02. Your bonus pay is now $0.54.</p>\n            ","response":0,"trial_type":"html-button-response","trial_index":62,"time_elapsed":613042,"internal_node_id":"0.0-4.0-1.27","subject_id":"612fc78547802a3f177e0d53","study_id":"60edd13110225f80f9f3709b","session_id":"6196c9222dd7c4d3346ec4a6","condition":"contingent","relevant_dimensions":["antennae","legs"],"bee_group":{"antennae":"A","wings":"X","pattern":"X","legs":"M"},"bonus":1.0000000000000007},{"rt":1765,"stimulus":"bees-with-color/bee-B2DM.svg","response":0,"trial_type":"image-button-response","trial_index":63,"time_elapsed":614812,"internal_node_id":"0.0-4.0-0.28","subject_id":"612fc78547802a3f177e0d53","study_id":"60edd13110225f80f9f3709b","session_id":"6196c9222dd7c4d3346ec4a6","condition":"contingent","relevant_dimensions":["antennae","legs"],"bee_group":{"antennae":"A","wings":"X","pattern":"X","legs":"M"},"action":"harvest","summary":"good-harvest","bonus":1.0000000000000007},{"rt":1043,"stimulus":"\n                    <p><b>Action: <em>harvest</em></b></p>\n                    <p>This is the bee that you just saw.</p>\n                    <img src=\"bees-with-color/bee-B2DM.svg\" width=\"200\">\n                    <p><span class=\"greenText\"><b>Successful harvest!</b></span><br>Your pay has increased by $0.02. Your bonus pay is now $0.56.</p>\n            ","response":0,"trial_type":"html-button-response","trial_index":64,"time_elapsed":615864,"internal_node_id":"0.0-4.0-1.28","subject_id":"612fc78547802a3f177e0d53","study_id":"60edd13110225f80f9f3709b","session_id":"6196c9222dd7c4d3346ec4a6","condition":"contingent","relevant_dimensions":["antennae","legs"],"bee_group":{"antennae":"A","wings":"X","pattern":"X","legs":"M"},"bonus":1.0000000000000007},{"rt":7332.5,"stimulus":"bees-with-color/bee-A1SF.svg","response":0,"trial_type":"image-button-response","trial_index":65,"time_elapsed":623198,"internal_node_id":"0.0-4.0-0.29","subject_id":"612fc78547802a3f177e0d53","study_id":"60edd13110225f80f9f3709b","session_id":"6196c9222dd7c4d3346ec4a6","condition":"contingent","relevant_dimensions":["antennae","legs"],"bee_group":{"antennae":"A","wings":"X","pattern":"X","legs":"M"},"action":"harvest","summary":"good-harvest","bonus":1.0000000000000007},{"rt":1097,"stimulus":"\n                    <p><b>Action: <em>harvest</em></b></p>\n                    <p>This is the bee that you just saw.</p>\n                    <img src=\"bees-with-color/bee-A1SF.svg\" width=\"200\">\n                    <p><span class=\"greenText\"><b>Successful harvest!</b></span><br>Your pay has increased by $0.02. Your bonus pay is now $0.58.</p>\n            ","response":0,"trial_type":"html-button-response","trial_index":66,"time_elapsed":624299,"internal_node_id":"0.0-4.0-1.29","subject_id":"612fc78547802a3f177e0d53","study_id":"60edd13110225f80f9f3709b","session_id":"6196c9222dd7c4d3346ec4a6","condition":"contingent","relevant_dimensions":["antennae","legs"],"bee_group":{"antennae":"A","wings":"X","pattern":"X","legs":"M"},"bonus":1.0000000000000007},{"rt":2463.699999999255,"stimulus":"bees-with-color/bee-A2SM.svg","response":1,"trial_type":"image-button-response","trial_index":67,"time_elapsed":626765,"internal_node_id":"0.0-4.0-0.30","subject_id":"612fc78547802a3f177e0d53","study_id":"60edd13110225f80f9f3709b","session_id":"6196c9222dd7c4d3346ec4a6","condition":"contingent","relevant_dimensions":["antennae","legs"],"bee_group":{"antennae":"A","wings":"X","pattern":"X","legs":"M"},"action":"avoid","summary":"good-avoid","bonus":1.0000000000000007},{"rt":1674.3999999985099,"stimulus":"\n                    <p><b>Action: <em>avoid</em></b></p>\n                    <p>This is the bee that you just saw.</p>\n                    <img src=\"bees-with-color/bee-A2SM.svg\" width=\"200\">\n                    <p><br>Your bonus pay is unchanged, and remains at $0.58.</p>\n            ","response":0,"trial_type":"html-button-response","trial_index":68,"time_elapsed":628441,"internal_node_id":"0.0-4.0-1.30","subject_id":"612fc78547802a3f177e0d53","study_id":"60edd13110225f80f9f3709b","session_id":"6196c9222dd7c4d3346ec4a6","condition":"contingent","relevant_dimensions":["antennae","legs"],"bee_group":{"antennae":"A","wings":"X","pattern":"X","legs":"M"},"bonus":1.0000000000000007},{"rt":1359.2999999970198,"stimulus":"bees-with-color/bee-A2DF.svg","response":1,"trial_type":"image-button-response","trial_index":69,"time_elapsed":629803,"internal_node_id":"0.0-4.0-0.31","subject_id":"612fc78547802a3f177e0d53","study_id":"60edd13110225f80f9f3709b","session_id":"6196c9222dd7c4d3346ec4a6","condition":"contingent","relevant_dimensions":["antennae","legs"],"bee_group":{"antennae":"A","wings":"X","pattern":"X","legs":"M"},"action":"avoid","summary":"bad-avoid","bonus":1.0000000000000007},{"rt":3986.699999999255,"stimulus":"\n                    <p><b>Action: <em>avoid</em></b></p>\n                    <p>This is the bee that you just saw.</p>\n                    <img src=\"bees-with-color/bee-A2DF.svg\" width=\"200\">\n                    <p><br>Your bonus pay is unchanged, and remains at $0.58.</p>\n            ","response":0,"trial_type":"html-button-response","trial_index":70,"time_elapsed":633798,"internal_node_id":"0.0-4.0-1.31","subject_id":"612fc78547802a3f177e0d53","study_id":"60edd13110225f80f9f3709b","session_id":"6196c9222dd7c4d3346ec4a6","condition":"contingent","relevant_dimensions":["antennae","legs"],"bee_group":{"antennae":"A","wings":"X","pattern":"X","legs":"M"},"bonus":1.0000000000000007},{"rt":1587.5,"stimulus":"bees-with-color/bee-B1DF.svg","response":0,"trial_type":"image-button-response","trial_index":71,"time_elapsed":635389,"internal_node_id":"0.0-4.0-0.32","subject_id":"612fc78547802a3f177e0d53","study_id":"60edd13110225f80f9f3709b","session_id":"6196c9222dd7c4d3346ec4a6","condition":"contingent","relevant_dimensions":["antennae","legs"],"bee_group":{"antennae":"A","wings":"X","pattern":"X","legs":"M"},"action":"harvest","summary":"good-harvest","bonus":1.0000000000000007},{"rt":19592.199999999255,"stimulus":"\n                    <p><b>Action: <em>harvest</em></b></p>\n                    <p>This is the bee that you just saw.</p>\n                    <img src=\"bees-with-color/bee-B1DF.svg\" width=\"200\">\n                    <p><span class=\"greenText\"><b>Successful harvest!</b></span><br>Your pay has increased by $0.02. Your bonus pay is now $0.60.</p>\n            ","response":0,"trial_type":"html-button-response","trial_index":72,"time_elapsed":654985,"internal_node_id":"0.0-4.0-1.32","subject_id":"612fc78547802a3f177e0d53","study_id":"60edd13110225f80f9f3709b","session_id":"6196c9222dd7c4d3346ec4a6","condition":"contingent","relevant_dimensions":["antennae","legs"],"bee_group":{"antennae":"A","wings":"X","pattern":"X","legs":"M"},"bonus":1.0000000000000007},{"rt":3708.2000000029802,"stimulus":"bees-with-color/bee-B2SM.svg","response":1,"trial_type":"image-button-response","trial_index":73,"time_elapsed":658707,"internal_node_id":"0.0-4.0-0.33","subject_id":"612fc78547802a3f177e0d53","study_id":"60edd13110225f80f9f3709b","session_id":"6196c9222dd7c4d3346ec4a6","condition":"contingent","relevant_dimensions":["antennae","legs"],"bee_group":{"antennae":"A","wings":"X","pattern":"X","legs":"M"},"action":"avoid","summary":"bad-avoid","bonus":1.0000000000000007},{"rt":2449.5,"stimulus":"\n                    <p><b>Action: <em>avoid</em></b></p>\n                    <p>This is the bee that you just saw.</p>\n                    <img src=\"bees-with-color/bee-B2SM.svg\" width=\"200\">\n                    <p><br>Your bonus pay is unchanged, and remains at $0.60.</p>\n            ","response":0,"trial_type":"html-button-response","trial_index":74,"time_elapsed":661162,"internal_node_id":"0.0-4.0-1.33","subject_id":"612fc78547802a3f177e0d53","study_id":"60edd13110225f80f9f3709b","session_id":"6196c9222dd7c4d3346ec4a6","condition":"contingent","relevant_dimensions":["antennae","legs"],"bee_group":{"antennae":"A","wings":"X","pattern":"X","legs":"M"},"bonus":1.0000000000000007},{"rt":2252.400000002235,"stimulus":"bees-with-color/bee-A1SM.svg","response":0,"trial_type":"image-button-response","trial_index":75,"time_elapsed":663417,"internal_node_id":"0.0-4.0-0.34","subject_id":"612fc78547802a3f177e0d53","study_id":"60edd13110225f80f9f3709b","session_id":"6196c9222dd7c4d3346ec4a6","condition":"contingent","relevant_dimensions":["antennae","legs"],"bee_group":{"antennae":"A","wings":"X","pattern":"X","legs":"M"},"action":"harvest","summary":"bad-harvest","bonus":1.0000000000000007},{"rt":5343.300000000745,"stimulus":"\n                    <p><b>Action: <em>harvest</em></b></p>\n                    <p>This is the bee that you just saw.</p>\n                    <img src=\"bees-with-color/bee-A1SM.svg\" width=\"200\">\n                    <p><span class=\"redText\">Bad choice, the bee was angry.</span><br><b>You have been stung!</b><br>Your pay has been decreased by $0.10. Your bonus pay is now $0.50.</p>\n            ","response":0,"trial_type":"html-button-response","trial_index":76,"time_elapsed":668762,"internal_node_id":"0.0-4.0-1.34","subject_id":"612fc78547802a3f177e0d53","study_id":"60edd13110225f80f9f3709b","session_id":"6196c9222dd7c4d3346ec4a6","condition":"contingent","relevant_dimensions":["antennae","legs"],"bee_group":{"antennae":"A","wings":"X","pattern":"X","legs":"M"},"bonus":1.0000000000000007},{"rt":1359.800000000745,"stimulus":"bees-with-color/bee-B2DF.svg","response":0,"trial_type":"image-button-response","trial_index":77,"time_elapsed":670124,"internal_node_id":"0.0-4.0-0.35","subject_id":"612fc78547802a3f177e0d53","study_id":"60edd13110225f80f9f3709b","session_id":"6196c9222dd7c4d3346ec4a6","condition":"contingent","relevant_dimensions":["antennae","legs"],"bee_group":{"antennae":"A","wings":"X","pattern":"X","legs":"M"},"action":"harvest","summary":"good-harvest","bonus":1.0000000000000007},{"rt":12421.300000000745,"stimulus":"\n                    <p><b>Action: <em>harvest</em></b></p>\n                    <p>This is the bee that you just saw.</p>\n                    <img src=\"bees-with-color/bee-B2DF.svg\" width=\"200\">\n                    <p><span class=\"greenText\"><b>Successful harvest!</b></span><br>Your pay has increased by $0.02. Your bonus pay is now $0.52.</p>\n            ","response":0,"trial_type":"html-button-response","trial_index":78,"time_elapsed":682548,"internal_node_id":"0.0-4.0-1.35","subject_id":"612fc78547802a3f177e0d53","study_id":"60edd13110225f80f9f3709b","session_id":"6196c9222dd7c4d3346ec4a6","condition":"contingent","relevant_dimensions":["antennae","legs"],"bee_group":{"antennae":"A","wings":"X","pattern":"X","legs":"M"},"bonus":1.0000000000000007},{"rt":1986.199999999255,"stimulus":"bees-with-color/bee-A2DM.svg","response":1,"trial_type":"image-button-response","trial_index":79,"time_elapsed":684539,"internal_node_id":"0.0-4.0-0.36","subject_id":"612fc78547802a3f177e0d53","study_id":"60edd13110225f80f9f3709b","session_id":"6196c9222dd7c4d3346ec4a6","condition":"contingent","relevant_dimensions":["antennae","legs"],"bee_group":{"antennae":"A","wings":"X","pattern":"X","legs":"M"},"action":"avoid","summary":"good-avoid","bonus":1.0000000000000007},{"rt":2222.199999999255,"stimulus":"\n                    <p><b>Action: <em>avoid</em></b></p>\n                    <p>This is the bee that you just saw.</p>\n                    <img src=\"bees-with-color/bee-A2DM.svg\" width=\"200\">\n                    <p><br>Your bonus pay is unchanged, and remains at $0.52.</p>\n            ","response":0,"trial_type":"html-button-response","trial_index":80,"time_elapsed":686770,"internal_node_id":"0.0-4.0-1.36","subject_id":"612fc78547802a3f177e0d53","study_id":"60edd13110225f80f9f3709b","session_id":"6196c9222dd7c4d3346ec4a6","condition":"contingent","relevant_dimensions":["antennae","legs"],"bee_group":{"antennae":"A","wings":"X","pattern":"X","legs":"M"},"bonus":1.0000000000000007},{"rt":3033.39999999851,"stimulus":"bees-with-color/bee-B1DM.svg","response":1,"trial_type":"image-button-response","trial_index":81,"time_elapsed":689806,"internal_node_id":"0.0-4.0-0.37","subject_id":"612fc78547802a3f177e0d53","study_id":"60edd13110225f80f9f3709b","session_id":"6196c9222dd7c4d3346ec4a6","condition":"contingent","relevant_dimensions":["antennae","legs"],"bee_group":{"antennae":"A","wings":"X","pattern":"X","legs":"M"},"action":"avoid","summary":"bad-avoid","bonus":1.0000000000000007},{"rt":1087,"stimulus":"\n                    <p><b>Action: <em>avoid</em></b></p>\n                    <p>This is the bee that you just saw.</p>\n                    <img src=\"bees-with-color/bee-B1DM.svg\" width=\"200\">\n                    <p><br>Your bonus pay is unchanged, and remains at $0.52.</p>\n            ","response":0,"trial_type":"html-button-response","trial_index":82,"time_elapsed":690897,"internal_node_id":"0.0-4.0-1.37","subject_id":"612fc78547802a3f177e0d53","study_id":"60edd13110225f80f9f3709b","session_id":"6196c9222dd7c4d3346ec4a6","condition":"contingent","relevant_dimensions":["antennae","legs"],"bee_group":{"antennae":"A","wings":"X","pattern":"X","legs":"M"},"bonus":1.0000000000000007},{"rt":4600.599999997765,"stimulus":"bees-with-color/bee-B2DM.svg","response":1,"trial_type":"image-button-response","trial_index":83,"time_elapsed":695500,"internal_node_id":"0.0-4.0-0.38","subject_id":"612fc78547802a3f177e0d53","study_id":"60edd13110225f80f9f3709b","session_id":"6196c9222dd7c4d3346ec4a6","condition":"contingent","relevant_dimensions":["antennae","legs"],"bee_group":{"antennae":"A","wings":"X","pattern":"X","legs":"M"},"action":"avoid","summary":"bad-avoid","bonus":1.0000000000000007},{"rt":854.8999999985099,"stimulus":"\n                    <p><b>Action: <em>avoid</em></b></p>\n                    <p>This is the bee that you just saw.</p>\n                    <img src=\"bees-with-color/bee-B2DM.svg\" width=\"200\">\n                    <p><br>Your bonus pay is unchanged, and remains at $0.52.</p>\n            ","response":0,"trial_type":"html-button-response","trial_index":84,"time_elapsed":696358,"internal_node_id":"0.0-4.0-1.38","subject_id":"612fc78547802a3f177e0d53","study_id":"60edd13110225f80f9f3709b","session_id":"6196c9222dd7c4d3346ec4a6","condition":"contingent","relevant_dimensions":["antennae","legs"],"bee_group":{"antennae":"A","wings":"X","pattern":"X","legs":"M"},"bonus":1.0000000000000007},{"rt":4148.10000000149,"stimulus":"bees-with-color/bee-B1SF.svg","response":0,"trial_type":"image-button-response","trial_index":85,"time_elapsed":700516,"internal_node_id":"0.0-4.0-0.39","subject_id":"612fc78547802a3f177e0d53","study_id":"60edd13110225f80f9f3709b","session_id":"6196c9222dd7c4d3346ec4a6","condition":"contingent","relevant_dimensions":["antennae","legs"],"bee_group":{"antennae":"A","wings":"X","pattern":"X","legs":"M"},"action":"harvest","summary":"good-harvest","bonus":1.0000000000000007},{"rt":933.6999999992549,"stimulus":"\n                    <p><b>Action: <em>harvest</em></b></p>\n                    <p>This is the bee that you just saw.</p>\n                    <img src=\"bees-with-color/bee-B1SF.svg\" width=\"200\">\n                    <p><span class=\"greenText\"><b>Successful harvest!</b></span><br>Your pay has increased by $0.02. Your bonus pay is now $0.54.</p>\n            ","response":0,"trial_type":"html-button-response","trial_index":86,"time_elapsed":701452,"internal_node_id":"0.0-4.0-1.39","subject_id":"612fc78547802a3f177e0d53","study_id":"60edd13110225f80f9f3709b","session_id":"6196c9222dd7c4d3346ec4a6","condition":"contingent","relevant_dimensions":["antennae","legs"],"bee_group":{"antennae":"A","wings":"X","pattern":"X","legs":"M"},"bonus":1.0000000000000007},{"rt":8624.60000000149,"stimulus":"bees-with-color/bee-A1DF.svg","response":0,"trial_type":"image-button-response","trial_index":87,"time_elapsed":710080,"internal_node_id":"0.0-4.0-0.40","subject_id":"612fc78547802a3f177e0d53","study_id":"60edd13110225f80f9f3709b","session_id":"6196c9222dd7c4d3346ec4a6","condition":"contingent","relevant_dimensions":["antennae","legs"],"bee_group":{"antennae":"A","wings":"X","pattern":"X","legs":"M"},"action":"harvest","summary":"good-harvest","bonus":1.0000000000000007},{"rt":1655.800000000745,"stimulus":"\n                    <p><b>Action: <em>harvest</em></b></p>\n                    <p>This is the bee that you just saw.</p>\n                    <img src=\"bees-with-color/bee-A1DF.svg\" width=\"200\">\n                    <p><span class=\"greenText\"><b>Successful harvest!</b></span><br>Your pay has increased by $0.02. Your bonus pay is now $0.56.</p>\n            ","response":0,"trial_type":"html-button-response","trial_index":88,"time_elapsed":711739,"internal_node_id":"0.0-4.0-1.40","subject_id":"612fc78547802a3f177e0d53","study_id":"60edd13110225f80f9f3709b","session_id":"6196c9222dd7c4d3346ec4a6","condition":"contingent","relevant_dimensions":["antennae","legs"],"bee_group":{"antennae":"A","wings":"X","pattern":"X","legs":"M"},"bonus":1.0000000000000007},{"rt":2214.400000002235,"stimulus":"bees-with-color/bee-B1SM.svg","response":1,"trial_type":"image-button-response","trial_index":89,"time_elapsed":713955,"internal_node_id":"0.0-4.0-0.41","subject_id":"612fc78547802a3f177e0d53","study_id":"60edd13110225f80f9f3709b","session_id":"6196c9222dd7c4d3346ec4a6","condition":"contingent","relevant_dimensions":["antennae","legs"],"bee_group":{"antennae":"A","wings":"X","pattern":"X","legs":"M"},"action":"avoid","summary":"bad-avoid","bonus":1.0000000000000007},{"rt":1315.300000000745,"stimulus":"\n                    <p><b>Action: <em>avoid</em></b></p>\n                    <p>This is the bee that you just saw.</p>\n                    <img src=\"bees-with-color/bee-B1SM.svg\" width=\"200\">\n                    <p><br>Your bonus pay is unchanged, and remains at $0.56.</p>\n            ","response":0,"trial_type":"html-button-response","trial_index":90,"time_elapsed":715272,"internal_node_id":"0.0-4.0-1.41","subject_id":"612fc78547802a3f177e0d53","study_id":"60edd13110225f80f9f3709b","session_id":"6196c9222dd7c4d3346ec4a6","condition":"contingent","relevant_dimensions":["antennae","legs"],"bee_group":{"antennae":"A","wings":"X","pattern":"X","legs":"M"},"bonus":1.0000000000000007},{"rt":3631.89999999851,"stimulus":"bees-with-color/bee-B2SF.svg","response":0,"trial_type":"image-button-response","trial_index":91,"time_elapsed":718907,"internal_node_id":"0.0-4.0-0.42","subject_id":"612fc78547802a3f177e0d53","study_id":"60edd13110225f80f9f3709b","session_id":"6196c9222dd7c4d3346ec4a6","condition":"contingent","relevant_dimensions":["antennae","legs"],"bee_group":{"antennae":"A","wings":"X","pattern":"X","legs":"M"},"action":"harvest","summary":"good-harvest","bonus":1.0000000000000007},{"rt":1109.199999999255,"stimulus":"\n                    <p><b>Action: <em>harvest</em></b></p>\n                    <p>This is the bee that you just saw.</p>\n                    <img src=\"bees-with-color/bee-B2SF.svg\" width=\"200\">\n                    <p><span class=\"greenText\"><b>Successful harvest!</b></span><br>Your pay has increased by $0.02. Your bonus pay is now $0.58.</p>\n            ","response":0,"trial_type":"html-button-response","trial_index":92,"time_elapsed":720021,"internal_node_id":"0.0-4.0-1.42","subject_id":"612fc78547802a3f177e0d53","study_id":"60edd13110225f80f9f3709b","session_id":"6196c9222dd7c4d3346ec4a6","condition":"contingent","relevant_dimensions":["antennae","legs"],"bee_group":{"antennae":"A","wings":"X","pattern":"X","legs":"M"},"bonus":1.0000000000000007},{"rt":2764.5,"stimulus":"bees-with-color/bee-A1DM.svg","response":1,"trial_type":"image-button-response","trial_index":93,"time_elapsed":722788,"internal_node_id":"0.0-4.0-0.43","subject_id":"612fc78547802a3f177e0d53","study_id":"60edd13110225f80f9f3709b","session_id":"6196c9222dd7c4d3346ec4a6","condition":"contingent","relevant_dimensions":["antennae","legs"],"bee_group":{"antennae":"A","wings":"X","pattern":"X","legs":"M"},"action":"avoid","summary":"good-avoid","bonus":1.0000000000000007},{"rt":1108.300000000745,"stimulus":"\n                    <p><b>Action: <em>avoid</em></b></p>\n                    <p>This is the bee that you just saw.</p>\n                    <img src=\"bees-with-color/bee-A1DM.svg\" width=\"200\">\n                    <p><br>Your bonus pay is unchanged, and remains at $0.58.</p>\n            ","response":0,"trial_type":"html-button-response","trial_index":94,"time_elapsed":723898,"internal_node_id":"0.0-4.0-1.43","subject_id":"612fc78547802a3f177e0d53","study_id":"60edd13110225f80f9f3709b","session_id":"6196c9222dd7c4d3346ec4a6","condition":"contingent","relevant_dimensions":["antennae","legs"],"bee_group":{"antennae":"A","wings":"X","pattern":"X","legs":"M"},"bonus":1.0000000000000007},{"rt":2339.2999999970198,"stimulus":"bees-with-color/bee-A1SF.svg","response":0,"trial_type":"image-button-response","trial_index":95,"time_elapsed":726239,"internal_node_id":"0.0-4.0-0.44","subject_id":"612fc78547802a3f177e0d53","study_id":"60edd13110225f80f9f3709b","session_id":"6196c9222dd7c4d3346ec4a6","condition":"contingent","relevant_dimensions":["antennae","legs"],"bee_group":{"antennae":"A","wings":"X","pattern":"X","legs":"M"},"action":"harvest","summary":"good-harvest","bonus":1.0000000000000007},{"rt":988.6999999992549,"stimulus":"\n                    <p><b>Action: <em>harvest</em></b></p>\n                    <p>This is the bee that you just saw.</p>\n                    <img src=\"bees-with-color/bee-A1SF.svg\" width=\"200\">\n                    <p><span class=\"greenText\"><b>Successful harvest!</b></span><br>Your pay has increased by $0.02. Your bonus pay is now $0.60.</p>\n            ","response":0,"trial_type":"html-button-response","trial_index":96,"time_elapsed":727230,"internal_node_id":"0.0-4.0-1.44","subject_id":"612fc78547802a3f177e0d53","study_id":"60edd13110225f80f9f3709b","session_id":"6196c9222dd7c4d3346ec4a6","condition":"contingent","relevant_dimensions":["antennae","legs"],"bee_group":{"antennae":"A","wings":"X","pattern":"X","legs":"M"},"bonus":1.0000000000000007},{"rt":1625.300000000745,"stimulus":"bees-with-color/bee-A2SF.svg","response":0,"trial_type":"image-button-response","trial_index":97,"time_elapsed":728857,"internal_node_id":"0.0-4.0-0.45","subject_id":"612fc78547802a3f177e0d53","study_id":"60edd13110225f80f9f3709b","session_id":"6196c9222dd7c4d3346ec4a6","condition":"contingent","relevant_dimensions":["antennae","legs"],"bee_group":{"antennae":"A","wings":"X","pattern":"X","legs":"M"},"action":"harvest","summary":"good-harvest","bonus":1.0000000000000007},{"rt":889.5,"stimulus":"\n                    <p><b>Action: <em>harvest</em></b></p>\n                    <p>This is the bee that you just saw.</p>\n                    <img src=\"bees-with-color/bee-A2SF.svg\" width=\"200\">\n                    <p><span class=\"greenText\"><b>Successful harvest!</b></span><br>Your pay has increased by $0.02. Your bonus pay is now $0.62.</p>\n            ","response":0,"trial_type":"html-button-response","trial_index":98,"time_elapsed":729749,"internal_node_id":"0.0-4.0-1.45","subject_id":"612fc78547802a3f177e0d53","study_id":"60edd13110225f80f9f3709b","session_id":"6196c9222dd7c4d3346ec4a6","condition":"contingent","relevant_dimensions":["antennae","legs"],"bee_group":{"antennae":"A","wings":"X","pattern":"X","legs":"M"},"bonus":1.0000000000000007},{"rt":1860.8999999985099,"stimulus":"bees-with-color/bee-A2SM.svg","response":1,"trial_type":"image-button-response","trial_index":99,"time_elapsed":731614,"internal_node_id":"0.0-4.0-0.46","subject_id":"612fc78547802a3f177e0d53","study_id":"60edd13110225f80f9f3709b","session_id":"6196c9222dd7c4d3346ec4a6","condition":"contingent","relevant_dimensions":["antennae","legs"],"bee_group":{"antennae":"A","wings":"X","pattern":"X","legs":"M"},"action":"avoid","summary":"good-avoid","bonus":1.0000000000000007},{"rt":969.9000000022352,"stimulus":"\n                    <p><b>Action: <em>avoid</em></b></p>\n                    <p>This is the bee that you just saw.</p>\n                    <img src=\"bees-with-color/bee-A2SM.svg\" width=\"200\">\n                    <p><br>Your bonus pay is unchanged, and remains at $0.62.</p>\n            ","response":0,"trial_type":"html-button-response","trial_index":100,"time_elapsed":732590,"internal_node_id":"0.0-4.0-1.46","subject_id":"612fc78547802a3f177e0d53","study_id":"60edd13110225f80f9f3709b","session_id":"6196c9222dd7c4d3346ec4a6","condition":"contingent","relevant_dimensions":["antennae","legs"],"bee_group":{"antennae":"A","wings":"X","pattern":"X","legs":"M"},"bonus":1.0000000000000007},{"rt":3599.300000000745,"stimulus":"bees-with-color/bee-A2DF.svg","response":0,"trial_type":"image-button-response","trial_index":101,"time_elapsed":736192,"internal_node_id":"0.0-4.0-0.47","subject_id":"612fc78547802a3f177e0d53","study_id":"60edd13110225f80f9f3709b","session_id":"6196c9222dd7c4d3346ec4a6","condition":"contingent","relevant_dimensions":["antennae","legs"],"bee_group":{"antennae":"A","wings":"X","pattern":"X","legs":"M"},"action":"harvest","summary":"good-harvest","bonus":1.0000000000000007},{"rt":880.8000000007451,"stimulus":"\n                    <p><b>Action: <em>harvest</em></b></p>\n                    <p>This is the bee that you just saw.</p>\n                    <img src=\"bees-with-color/bee-A2DF.svg\" width=\"200\">\n                    <p><span class=\"greenText\"><b>Successful harvest!</b></span><br>Your pay has increased by $0.02. Your bonus pay is now $0.64.</p>\n            ","response":0,"trial_type":"html-button-response","trial_index":102,"time_elapsed":737075,"internal_node_id":"0.0-4.0-1.47","subject_id":"612fc78547802a3f177e0d53","study_id":"60edd13110225f80f9f3709b","session_id":"6196c9222dd7c4d3346ec4a6","condition":"contingent","relevant_dimensions":["antennae","legs"],"bee_group":{"antennae":"A","wings":"X","pattern":"X","legs":"M"},"bonus":1.0000000000000007},{"rt":3344.699999999255,"stimulus":"bees-with-color/bee-A1DM.svg","response":1,"trial_type":"image-button-response","trial_index":103,"time_elapsed":740422,"internal_node_id":"0.0-4.0-0.48","subject_id":"612fc78547802a3f177e0d53","study_id":"60edd13110225f80f9f3709b","session_id":"6196c9222dd7c4d3346ec4a6","condition":"contingent","relevant_dimensions":["antennae","legs"],"bee_group":{"antennae":"A","wings":"X","pattern":"X","legs":"M"},"action":"avoid","summary":"good-avoid","bonus":1.0000000000000007},{"rt":1386.199999999255,"stimulus":"\n                    <p><b>Action: <em>avoid</em></b></p>\n                    <p>This is the bee that you just saw.</p>\n                    <img src=\"bees-with-color/bee-A1DM.svg\" width=\"200\">\n                    <p><br>Your bonus pay is unchanged, and remains at $0.64.</p>\n            ","response":0,"trial_type":"html-button-response","trial_index":104,"time_elapsed":741810,"internal_node_id":"0.0-4.0-1.48","subject_id":"612fc78547802a3f177e0d53","study_id":"60edd13110225f80f9f3709b","session_id":"6196c9222dd7c4d3346ec4a6","condition":"contingent","relevant_dimensions":["antennae","legs"],"bee_group":{"antennae":"A","wings":"X","pattern":"X","legs":"M"},"bonus":1.0000000000000007},{"rt":2779.60000000149,"stimulus":"bees-with-color/bee-B2SM.svg","response":1,"trial_type":"image-button-response","trial_index":105,"time_elapsed":744592,"internal_node_id":"0.0-4.0-0.49","subject_id":"612fc78547802a3f177e0d53","study_id":"60edd13110225f80f9f3709b","session_id":"6196c9222dd7c4d3346ec4a6","condition":"contingent","relevant_dimensions":["antennae","legs"],"bee_group":{"antennae":"A","wings":"X","pattern":"X","legs":"M"},"action":"avoid","summary":"bad-avoid","bonus":1.0000000000000007},{"rt":1214.2000000029802,"stimulus":"\n                    <p><b>Action: <em>avoid</em></b></p>\n                    <p>This is the bee that you just saw.</p>\n                    <img src=\"bees-with-color/bee-B2SM.svg\" width=\"200\">\n                    <p><br>Your bonus pay is unchanged, and remains at $0.64.</p>\n            ","response":0,"trial_type":"html-button-response","trial_index":106,"time_elapsed":745808,"internal_node_id":"0.0-4.0-1.49","subject_id":"612fc78547802a3f177e0d53","study_id":"60edd13110225f80f9f3709b","session_id":"6196c9222dd7c4d3346ec4a6","condition":"contingent","relevant_dimensions":["antennae","legs"],"bee_group":{"antennae":"A","wings":"X","pattern":"X","legs":"M"},"bonus":1.0000000000000007},{"rt":2812.300000000745,"stimulus":"bees-with-color/bee-A1SF.svg","response":0,"trial_type":"image-button-response","trial_index":107,"time_elapsed":748625,"internal_node_id":"0.0-4.0-0.50","subject_id":"612fc78547802a3f177e0d53","study_id":"60edd13110225f80f9f3709b","session_id":"6196c9222dd7c4d3346ec4a6","condition":"contingent","relevant_dimensions":["antennae","legs"],"bee_group":{"antennae":"A","wings":"X","pattern":"X","legs":"M"},"action":"harvest","summary":"good-harvest","bonus":1.0000000000000007},{"rt":898.1999999992549,"stimulus":"\n                    <p><b>Action: <em>harvest</em></b></p>\n                    <p>This is the bee that you just saw.</p>\n                    <img src=\"bees-with-color/bee-A1SF.svg\" width=\"200\">\n                    <p><span class=\"greenText\"><b>Successful harvest!</b></span><br>Your pay has increased by $0.02. Your bonus pay is now $0.66.</p>\n            ","response":0,"trial_type":"html-button-response","trial_index":108,"time_elapsed":749539,"internal_node_id":"0.0-4.0-1.50","subject_id":"612fc78547802a3f177e0d53","study_id":"60edd13110225f80f9f3709b","session_id":"6196c9222dd7c4d3346ec4a6","condition":"contingent","relevant_dimensions":["antennae","legs"],"bee_group":{"antennae":"A","wings":"X","pattern":"X","legs":"M"},"bonus":1.0000000000000007},{"rt":1875.4000000022352,"stimulus":"bees-with-color/bee-A2DM.svg","response":1,"trial_type":"image-button-response","trial_index":109,"time_elapsed":751416,"internal_node_id":"0.0-4.0-0.51","subject_id":"612fc78547802a3f177e0d53","study_id":"60edd13110225f80f9f3709b","session_id":"6196c9222dd7c4d3346ec4a6","condition":"contingent","relevant_dimensions":["antennae","legs"],"bee_group":{"antennae":"A","wings":"X","pattern":"X","legs":"M"},"action":"avoid","summary":"good-avoid","bonus":1.0000000000000007},{"rt":1079.4000000022352,"stimulus":"\n                    <p><b>Action: <em>avoid</em></b></p>\n                    <p>This is the bee that you just saw.</p>\n                    <img src=\"bees-with-color/bee-A2DM.svg\" width=\"200\">\n                    <p><br>Your bonus pay is unchanged, and remains at $0.66.</p>\n            ","response":0,"trial_type":"html-button-response","trial_index":110,"time_elapsed":752498,"internal_node_id":"0.0-4.0-1.51","subject_id":"612fc78547802a3f177e0d53","study_id":"60edd13110225f80f9f3709b","session_id":"6196c9222dd7c4d3346ec4a6","condition":"contingent","relevant_dimensions":["antennae","legs"],"bee_group":{"antennae":"A","wings":"X","pattern":"X","legs":"M"},"bonus":1.0000000000000007},{"rt":2215.5,"stimulus":"bees-with-color/bee-B2DM.svg","response":1,"trial_type":"image-button-response","trial_index":111,"time_elapsed":754716,"internal_node_id":"0.0-4.0-0.52","subject_id":"612fc78547802a3f177e0d53","study_id":"60edd13110225f80f9f3709b","session_id":"6196c9222dd7c4d3346ec4a6","condition":"contingent","relevant_dimensions":["antennae","legs"],"bee_group":{"antennae":"A","wings":"X","pattern":"X","legs":"M"},"action":"avoid","summary":"bad-avoid","bonus":1.0000000000000007},{"rt":661.8000000007451,"stimulus":"\n                    <p><b>Action: <em>avoid</em></b></p>\n                    <p>This is the bee that you just saw.</p>\n                    <img src=\"bees-with-color/bee-B2DM.svg\" width=\"200\">\n                    <p><br>Your bonus pay is unchanged, and remains at $0.66.</p>\n            ","response":0,"trial_type":"html-button-response","trial_index":112,"time_elapsed":755381,"internal_node_id":"0.0-4.0-1.52","subject_id":"612fc78547802a3f177e0d53","study_id":"60edd13110225f80f9f3709b","session_id":"6196c9222dd7c4d3346ec4a6","condition":"contingent","relevant_dimensions":["antennae","legs"],"bee_group":{"antennae":"A","wings":"X","pattern":"X","legs":"M"},"bonus":1.0000000000000007},{"rt":2384.7000000029802,"stimulus":"bees-with-color/bee-B1DF.svg","response":0,"trial_type":"image-button-response","trial_index":113,"time_elapsed":757768,"internal_node_id":"0.0-4.0-0.53","subject_id":"612fc78547802a3f177e0d53","study_id":"60edd13110225f80f9f3709b","session_id":"6196c9222dd7c4d3346ec4a6","condition":"contingent","relevant_dimensions":["antennae","legs"],"bee_group":{"antennae":"A","wings":"X","pattern":"X","legs":"M"},"action":"harvest","summary":"good-harvest","bonus":1.0000000000000007},{"rt":797.1999999992549,"stimulus":"\n                    <p><b>Action: <em>harvest</em></b></p>\n                    <p>This is the bee that you just saw.</p>\n                    <img src=\"bees-with-color/bee-B1DF.svg\" width=\"200\">\n                    <p><span class=\"greenText\"><b>Successful harvest!</b></span><br>Your pay has increased by $0.02. Your bonus pay is now $0.68.</p>\n            ","response":0,"trial_type":"html-button-response","trial_index":114,"time_elapsed":758568,"internal_node_id":"0.0-4.0-1.53","subject_id":"612fc78547802a3f177e0d53","study_id":"60edd13110225f80f9f3709b","session_id":"6196c9222dd7c4d3346ec4a6","condition":"contingent","relevant_dimensions":["antennae","legs"],"bee_group":{"antennae":"A","wings":"X","pattern":"X","legs":"M"},"bonus":1.0000000000000007},{"rt":1272.1000000014901,"stimulus":"bees-with-color/bee-B1DM.svg","response":1,"trial_type":"image-button-response","trial_index":115,"time_elapsed":759842,"internal_node_id":"0.0-4.0-0.54","subject_id":"612fc78547802a3f177e0d53","study_id":"60edd13110225f80f9f3709b","session_id":"6196c9222dd7c4d3346ec4a6","condition":"contingent","relevant_dimensions":["antennae","legs"],"bee_group":{"antennae":"A","wings":"X","pattern":"X","legs":"M"},"action":"avoid","summary":"bad-avoid","bonus":1.0000000000000007},{"rt":758.0999999977648,"stimulus":"\n                    <p><b>Action: <em>avoid</em></b></p>\n                    <p>This is the bee that you just saw.</p>\n                    <img src=\"bees-with-color/bee-B1DM.svg\" width=\"200\">\n                    <p><br>Your bonus pay is unchanged, and remains at $0.68.</p>\n            ","response":0,"trial_type":"html-button-response","trial_index":116,"time_elapsed":760629,"internal_node_id":"0.0-4.0-1.54","subject_id":"612fc78547802a3f177e0d53","study_id":"60edd13110225f80f9f3709b","session_id":"6196c9222dd7c4d3346ec4a6","condition":"contingent","relevant_dimensions":["antennae","legs"],"bee_group":{"antennae":"A","wings":"X","pattern":"X","legs":"M"},"bonus":1.0000000000000007},{"rt":1866.1000000014901,"stimulus":"bees-with-color/bee-A2SF.svg","response":0,"trial_type":"image-button-response","trial_index":117,"time_elapsed":762509,"internal_node_id":"0.0-4.0-0.55","subject_id":"612fc78547802a3f177e0d53","study_id":"60edd13110225f80f9f3709b","session_id":"6196c9222dd7c4d3346ec4a6","condition":"contingent","relevant_dimensions":["antennae","legs"],"bee_group":{"antennae":"A","wings":"X","pattern":"X","legs":"M"},"action":"harvest","summary":"good-harvest","bonus":1.0000000000000007},{"rt":943.5999999977648,"stimulus":"\n                    <p><b>Action: <em>harvest</em></b></p>\n                    <p>This is the bee that you just saw.</p>\n                    <img src=\"bees-with-color/bee-A2SF.svg\" width=\"200\">\n                    <p><span class=\"greenText\"><b>Successful harvest!</b></span><br>Your pay has increased by $0.02. Your bonus pay is now $0.70.</p>\n            ","response":0,"trial_type":"html-button-response","trial_index":118,"time_elapsed":763454,"internal_node_id":"0.0-4.0-1.55","subject_id":"612fc78547802a3f177e0d53","study_id":"60edd13110225f80f9f3709b","session_id":"6196c9222dd7c4d3346ec4a6","condition":"contingent","relevant_dimensions":["antennae","legs"],"bee_group":{"antennae":"A","wings":"X","pattern":"X","legs":"M"},"bonus":1.0000000000000007},{"rt":2308,"stimulus":"bees-with-color/bee-B1SM.svg","response":1,"trial_type":"image-button-response","trial_index":119,"time_elapsed":765764,"internal_node_id":"0.0-4.0-0.56","subject_id":"612fc78547802a3f177e0d53","study_id":"60edd13110225f80f9f3709b","session_id":"6196c9222dd7c4d3346ec4a6","condition":"contingent","relevant_dimensions":["antennae","legs"],"bee_group":{"antennae":"A","wings":"X","pattern":"X","legs":"M"},"action":"avoid","summary":"bad-avoid","bonus":1.0000000000000007},{"rt":796.6999999992549,"stimulus":"\n                    <p><b>Action: <em>avoid</em></b></p>\n                    <p>This is the bee that you just saw.</p>\n                    <img src=\"bees-with-color/bee-B1SM.svg\" width=\"200\">\n                    <p><br>Your bonus pay is unchanged, and remains at $0.70.</p>\n            ","response":0,"trial_type":"html-button-response","trial_index":120,"time_elapsed":766562,"internal_node_id":"0.0-4.0-1.56","subject_id":"612fc78547802a3f177e0d53","study_id":"60edd13110225f80f9f3709b","session_id":"6196c9222dd7c4d3346ec4a6","condition":"contingent","relevant_dimensions":["antennae","legs"],"bee_group":{"antennae":"A","wings":"X","pattern":"X","legs":"M"},"bonus":1.0000000000000007},{"rt":966.7999999970198,"stimulus":"bees-with-color/bee-A1SM.svg","response":1,"trial_type":"image-button-response","trial_index":121,"time_elapsed":767532,"internal_node_id":"0.0-4.0-0.57","subject_id":"612fc78547802a3f177e0d53","study_id":"60edd13110225f80f9f3709b","session_id":"6196c9222dd7c4d3346ec4a6","condition":"contingent","relevant_dimensions":["antennae","legs"],"bee_group":{"antennae":"A","wings":"X","pattern":"X","legs":"M"},"action":"avoid","summary":"good-avoid","bonus":1.0000000000000007},{"rt":801.4000000022352,"stimulus":"\n                    <p><b>Action: <em>avoid</em></b></p>\n                    <p>This is the bee that you just saw.</p>\n                    <img src=\"bees-with-color/bee-A1SM.svg\" width=\"200\">\n                    <p><br>Your bonus pay is unchanged, and remains at $0.70.</p>\n            ","response":0,"trial_type":"html-button-response","trial_index":122,"time_elapsed":768335,"internal_node_id":"0.0-4.0-1.57","subject_id":"612fc78547802a3f177e0d53","study_id":"60edd13110225f80f9f3709b","session_id":"6196c9222dd7c4d3346ec4a6","condition":"contingent","relevant_dimensions":["antennae","legs"],"bee_group":{"antennae":"A","wings":"X","pattern":"X","legs":"M"},"bonus":1.0000000000000007},{"rt":1616.800000000745,"stimulus":"bees-with-color/bee-B2SF.svg","response":0,"trial_type":"image-button-response","trial_index":123,"time_elapsed":769954,"internal_node_id":"0.0-4.0-0.58","subject_id":"612fc78547802a3f177e0d53","study_id":"60edd13110225f80f9f3709b","session_id":"6196c9222dd7c4d3346ec4a6","condition":"contingent","relevant_dimensions":["antennae","legs"],"bee_group":{"antennae":"A","wings":"X","pattern":"X","legs":"M"},"action":"harvest","summary":"good-harvest","bonus":1.0000000000000007},{"rt":892,"stimulus":"\n                    <p><b>Action: <em>harvest</em></b></p>\n                    <p>This is the bee that you just saw.</p>\n                    <img src=\"bees-with-color/bee-B2SF.svg\" width=\"200\">\n                    <p><span class=\"greenText\"><b>Successful harvest!</b></span><br>Your pay has increased by $0.02. Your bonus pay is now $0.72.</p>\n            ","response":0,"trial_type":"html-button-response","trial_index":124,"time_elapsed":770847,"internal_node_id":"0.0-4.0-1.58","subject_id":"612fc78547802a3f177e0d53","study_id":"60edd13110225f80f9f3709b","session_id":"6196c9222dd7c4d3346ec4a6","condition":"contingent","relevant_dimensions":["antennae","legs"],"bee_group":{"antennae":"A","wings":"X","pattern":"X","legs":"M"},"bonus":1.0000000000000007},{"rt":2389.199999999255,"stimulus":"bees-with-color/bee-B2DF.svg","response":0,"trial_type":"image-button-response","trial_index":125,"time_elapsed":773238,"internal_node_id":"0.0-4.0-0.59","subject_id":"612fc78547802a3f177e0d53","study_id":"60edd13110225f80f9f3709b","session_id":"6196c9222dd7c4d3346ec4a6","condition":"contingent","relevant_dimensions":["antennae","legs"],"bee_group":{"antennae":"A","wings":"X","pattern":"X","legs":"M"},"action":"harvest","summary":"good-harvest","bonus":1.0000000000000007},{"rt":798.3999999985099,"stimulus":"\n                    <p><b>Action: <em>harvest</em></b></p>\n                    <p>This is the bee that you just saw.</p>\n                    <img src=\"bees-with-color/bee-B2DF.svg\" width=\"200\">\n                    <p><span class=\"greenText\"><b>Successful harvest!</b></span><br>Your pay has increased by $0.02. Your bonus pay is now $0.74.</p>\n            ","response":0,"trial_type":"html-button-response","trial_index":126,"time_elapsed":774039,"internal_node_id":"0.0-4.0-1.59","subject_id":"612fc78547802a3f177e0d53","study_id":"60edd13110225f80f9f3709b","session_id":"6196c9222dd7c4d3346ec4a6","condition":"contingent","relevant_dimensions":["antennae","legs"],"bee_group":{"antennae":"A","wings":"X","pattern":"X","legs":"M"},"bonus":1.0000000000000007},{"rt":2785.699999999255,"stimulus":"bees-with-color/bee-B1SF.svg","response":0,"trial_type":"image-button-response","trial_index":127,"time_elapsed":776826,"internal_node_id":"0.0-4.0-0.60","subject_id":"612fc78547802a3f177e0d53","study_id":"60edd13110225f80f9f3709b","session_id":"6196c9222dd7c4d3346ec4a6","condition":"contingent","relevant_dimensions":["antennae","legs"],"bee_group":{"antennae":"A","wings":"X","pattern":"X","legs":"M"},"action":"harvest","summary":"good-harvest","bonus":1.0000000000000007},{"rt":880.6000000014901,"stimulus":"\n                    <p><b>Action: <em>harvest</em></b></p>\n                    <p>This is the bee that you just saw.</p>\n                    <img src=\"bees-with-color/bee-B1SF.svg\" width=\"200\">\n                    <p><span class=\"greenText\"><b>Successful harvest!</b></span><br>Your pay has increased by $0.02. Your bonus pay is now $0.76.</p>\n            ","response":0,"trial_type":"html-button-response","trial_index":128,"time_elapsed":777708,"internal_node_id":"0.0-4.0-1.60","subject_id":"612fc78547802a3f177e0d53","study_id":"60edd13110225f80f9f3709b","session_id":"6196c9222dd7c4d3346ec4a6","condition":"contingent","relevant_dimensions":["antennae","legs"],"bee_group":{"antennae":"A","wings":"X","pattern":"X","legs":"M"},"bonus":1.0000000000000007},{"rt":2913.10000000149,"stimulus":"bees-with-color/bee-A1DF.svg","response":0,"trial_type":"image-button-response","trial_index":129,"time_elapsed":780623,"internal_node_id":"0.0-4.0-0.61","subject_id":"612fc78547802a3f177e0d53","study_id":"60edd13110225f80f9f3709b","session_id":"6196c9222dd7c4d3346ec4a6","condition":"contingent","relevant_dimensions":["antennae","legs"],"bee_group":{"antennae":"A","wings":"X","pattern":"X","legs":"M"},"action":"harvest","summary":"good-harvest","bonus":1.0000000000000007},{"rt":847.8999999985099,"stimulus":"\n                    <p><b>Action: <em>harvest</em></b></p>\n                    <p>This is the bee that you just saw.</p>\n                    <img src=\"bees-with-color/bee-A1DF.svg\" width=\"200\">\n                    <p><span class=\"greenText\"><b>Successful harvest!</b></span><br>Your pay has increased by $0.02. Your bonus pay is now $0.78.</p>\n            ","response":0,"trial_type":"html-button-response","trial_index":130,"time_elapsed":781473,"internal_node_id":"0.0-4.0-1.61","subject_id":"612fc78547802a3f177e0d53","study_id":"60edd13110225f80f9f3709b","session_id":"6196c9222dd7c4d3346ec4a6","condition":"contingent","relevant_dimensions":["antennae","legs"],"bee_group":{"antennae":"A","wings":"X","pattern":"X","legs":"M"},"bonus":1.0000000000000007},{"rt":2339.60000000149,"stimulus":"bees-with-color/bee-A2DF.svg","response":0,"trial_type":"image-button-response","trial_index":131,"time_elapsed":783815,"internal_node_id":"0.0-4.0-0.62","subject_id":"612fc78547802a3f177e0d53","study_id":"60edd13110225f80f9f3709b","session_id":"6196c9222dd7c4d3346ec4a6","condition":"contingent","relevant_dimensions":["antennae","legs"],"bee_group":{"antennae":"A","wings":"X","pattern":"X","legs":"M"},"action":"harvest","summary":"good-harvest","bonus":1.0000000000000007},{"rt":956,"stimulus":"\n                    <p><b>Action: <em>harvest</em></b></p>\n                    <p>This is the bee that you just saw.</p>\n                    <img src=\"bees-with-color/bee-A2DF.svg\" width=\"200\">\n                    <p><span class=\"greenText\"><b>Successful harvest!</b></span><br>Your pay has increased by $0.02. Your bonus pay is now $0.80.</p>\n            ","response":0,"trial_type":"html-button-response","trial_index":132,"time_elapsed":784773,"internal_node_id":"0.0-4.0-1.62","subject_id":"612fc78547802a3f177e0d53","study_id":"60edd13110225f80f9f3709b","session_id":"6196c9222dd7c4d3346ec4a6","condition":"contingent","relevant_dimensions":["antennae","legs"],"bee_group":{"antennae":"A","wings":"X","pattern":"X","legs":"M"},"bonus":1.0000000000000007},{"rt":2764.39999999851,"stimulus":"bees-with-color/bee-A2SM.svg","response":1,"trial_type":"image-button-response","trial_index":133,"time_elapsed":787539,"internal_node_id":"0.0-4.0-0.63","subject_id":"612fc78547802a3f177e0d53","study_id":"60edd13110225f80f9f3709b","session_id":"6196c9222dd7c4d3346ec4a6","condition":"contingent","relevant_dimensions":["antennae","legs"],"bee_group":{"antennae":"A","wings":"X","pattern":"X","legs":"M"},"action":"avoid","summary":"good-avoid","bonus":1.0000000000000007},{"rt":807.7000000029802,"stimulus":"\n                    <p><b>Action: <em>avoid</em></b></p>\n                    <p>This is the bee that you just saw.</p>\n                    <img src=\"bees-with-color/bee-A2SM.svg\" width=\"200\">\n                    <p><br>Your bonus pay is unchanged, and remains at $0.80.</p>\n            ","response":0,"trial_type":"html-button-response","trial_index":134,"time_elapsed":788348,"internal_node_id":"0.0-4.0-1.63","subject_id":"612fc78547802a3f177e0d53","study_id":"60edd13110225f80f9f3709b","session_id":"6196c9222dd7c4d3346ec4a6","condition":"contingent","relevant_dimensions":["antennae","legs"],"bee_group":{"antennae":"A","wings":"X","pattern":"X","legs":"M"},"bonus":1.0000000000000007},{"rt":14975.89999999851,"stimulus":"You have completed the first part of this experiment.<br><br>You will now begin a shorter second part, in which you will receive no feedback.<br>The same rules regarding bonus pay apply.<br><br>Press any key to begin.","response":" ","trial_type":"html-keyboard-response","trial_index":135,"time_elapsed":803336,"internal_node_id":"0.0-5.0","subject_id":"612fc78547802a3f177e0d53","study_id":"60edd13110225f80f9f3709b","session_id":"6196c9222dd7c4d3346ec4a6","condition":"contingent","relevant_dimensions":["antennae","legs"],"bee_group":{"antennae":"A","wings":"X","pattern":"X","legs":"M"},"bonus":1.0000000000000007},{"rt":2445.89999999851,"stimulus":"bees-with-color/bee-A1DM.svg","response":1,"trial_type":"image-button-response","trial_index":136,"time_elapsed":805802,"internal_node_id":"0.0-6.0-0.0","subject_id":"612fc78547802a3f177e0d53","study_id":"60edd13110225f80f9f3709b","session_id":"6196c9222dd7c4d3346ec4a6","condition":"contingent","relevant_dimensions":["antennae","legs"],"bee_group":{"antennae":"A","wings":"X","pattern":"X","legs":"M"},"bonus":1.0000000000000007},{"rt":1264.3999999985099,"stimulus":"bees-with-color/bee-A2SF.svg","response":0,"trial_type":"image-button-response","trial_index":137,"time_elapsed":807070,"internal_node_id":"0.0-6.0-0.1","subject_id":"612fc78547802a3f177e0d53","study_id":"60edd13110225f80f9f3709b","session_id":"6196c9222dd7c4d3346ec4a6","condition":"contingent","relevant_dimensions":["antennae","legs"],"bee_group":{"antennae":"A","wings":"X","pattern":"X","legs":"M"},"bonus":1.0000000000000007},{"rt":2678.5,"stimulus":"bees-with-color/bee-B2DM.svg","response":1,"trial_type":"image-button-response","trial_index":138,"time_elapsed":809752,"internal_node_id":"0.0-6.0-0.2","subject_id":"612fc78547802a3f177e0d53","study_id":"60edd13110225f80f9f3709b","session_id":"6196c9222dd7c4d3346ec4a6","condition":"contingent","relevant_dimensions":["antennae","legs"],"bee_group":{"antennae":"A","wings":"X","pattern":"X","legs":"M"},"bonus":1.0000000000000007},{"rt":999.8000000007451,"stimulus":"bees-with-color/bee-B2SF.svg","response":0,"trial_type":"image-button-response","trial_index":139,"time_elapsed":810755,"internal_node_id":"0.0-6.0-0.3","subject_id":"612fc78547802a3f177e0d53","study_id":"60edd13110225f80f9f3709b","session_id":"6196c9222dd7c4d3346ec4a6","condition":"contingent","relevant_dimensions":["antennae","legs"],"bee_group":{"antennae":"A","wings":"X","pattern":"X","legs":"M"},"bonus":1.0000000000000007},{"rt":1195.0999999977648,"stimulus":"bees-with-color/bee-A1SM.svg","response":1,"trial_type":"image-button-response","trial_index":140,"time_elapsed":811953,"internal_node_id":"0.0-6.0-0.4","subject_id":"612fc78547802a3f177e0d53","study_id":"60edd13110225f80f9f3709b","session_id":"6196c9222dd7c4d3346ec4a6","condition":"contingent","relevant_dimensions":["antennae","legs"],"bee_group":{"antennae":"A","wings":"X","pattern":"X","legs":"M"},"bonus":1.0000000000000007},{"rt":1070.800000000745,"stimulus":"bees-with-color/bee-B1SM.svg","response":1,"trial_type":"image-button-response","trial_index":141,"time_elapsed":813027,"internal_node_id":"0.0-6.0-0.5","subject_id":"612fc78547802a3f177e0d53","study_id":"60edd13110225f80f9f3709b","session_id":"6196c9222dd7c4d3346ec4a6","condition":"contingent","relevant_dimensions":["antennae","legs"],"bee_group":{"antennae":"A","wings":"X","pattern":"X","legs":"M"},"bonus":1.0000000000000007},{"rt":1172.0999999977648,"stimulus":"bees-with-color/bee-B1DM.svg","response":1,"trial_type":"image-button-response","trial_index":142,"time_elapsed":814202,"internal_node_id":"0.0-6.0-0.6","subject_id":"612fc78547802a3f177e0d53","study_id":"60edd13110225f80f9f3709b","session_id":"6196c9222dd7c4d3346ec4a6","condition":"contingent","relevant_dimensions":["antennae","legs"],"bee_group":{"antennae":"A","wings":"X","pattern":"X","legs":"M"},"bonus":1.0000000000000007},{"rt":934.7000000029802,"stimulus":"bees-with-color/bee-A1SF.svg","response":0,"trial_type":"image-button-response","trial_index":143,"time_elapsed":815140,"internal_node_id":"0.0-6.0-0.7","subject_id":"612fc78547802a3f177e0d53","study_id":"60edd13110225f80f9f3709b","session_id":"6196c9222dd7c4d3346ec4a6","condition":"contingent","relevant_dimensions":["antennae","legs"],"bee_group":{"antennae":"A","wings":"X","pattern":"X","legs":"M"},"bonus":1.0000000000000007},{"rt":2671.10000000149,"stimulus":"bees-with-color/bee-B2DF.svg","response":0,"trial_type":"image-button-response","trial_index":144,"time_elapsed":817814,"internal_node_id":"0.0-6.0-0.8","subject_id":"612fc78547802a3f177e0d53","study_id":"60edd13110225f80f9f3709b","session_id":"6196c9222dd7c4d3346ec4a6","condition":"contingent","relevant_dimensions":["antennae","legs"],"bee_group":{"antennae":"A","wings":"X","pattern":"X","legs":"M"},"bonus":1.0000000000000007},{"rt":2427.199999999255,"stimulus":"bees-with-color/bee-A2DF.svg","response":1,"trial_type":"image-button-response","trial_index":145,"time_elapsed":820244,"internal_node_id":"0.0-6.0-0.9","subject_id":"612fc78547802a3f177e0d53","study_id":"60edd13110225f80f9f3709b","session_id":"6196c9222dd7c4d3346ec4a6","condition":"contingent","relevant_dimensions":["antennae","legs"],"bee_group":{"antennae":"A","wings":"X","pattern":"X","legs":"M"},"bonus":1.0000000000000007},{"rt":1565.3999999985099,"stimulus":"bees-with-color/bee-A2DM.svg","response":1,"trial_type":"image-button-response","trial_index":146,"time_elapsed":821811,"internal_node_id":"0.0-6.0-0.10","subject_id":"612fc78547802a3f177e0d53","study_id":"60edd13110225f80f9f3709b","session_id":"6196c9222dd7c4d3346ec4a6","condition":"contingent","relevant_dimensions":["antennae","legs"],"bee_group":{"antennae":"A","wings":"X","pattern":"X","legs":"M"},"bonus":1.0000000000000007},{"rt":2075,"stimulus":"bees-with-color/bee-B1DF.svg","response":0,"trial_type":"image-button-response","trial_index":147,"time_elapsed":823889,"internal_node_id":"0.0-6.0-0.11","subject_id":"612fc78547802a3f177e0d53","study_id":"60edd13110225f80f9f3709b","session_id":"6196c9222dd7c4d3346ec4a6","condition":"contingent","relevant_dimensions":["antennae","legs"],"bee_group":{"antennae":"A","wings":"X","pattern":"X","legs":"M"},"bonus":1.0000000000000007},{"rt":1000.1999999992549,"stimulus":"bees-with-color/bee-B1SF.svg","response":0,"trial_type":"image-button-response","trial_index":148,"time_elapsed":824891,"internal_node_id":"0.0-6.0-0.12","subject_id":"612fc78547802a3f177e0d53","study_id":"60edd13110225f80f9f3709b","session_id":"6196c9222dd7c4d3346ec4a6","condition":"contingent","relevant_dimensions":["antennae","legs"],"bee_group":{"antennae":"A","wings":"X","pattern":"X","legs":"M"},"bonus":1.0000000000000007},{"rt":1695.3999999985099,"stimulus":"bees-with-color/bee-A2SM.svg","response":1,"trial_type":"image-button-response","trial_index":149,"time_elapsed":826589,"internal_node_id":"0.0-6.0-0.13","subject_id":"612fc78547802a3f177e0d53","study_id":"60edd13110225f80f9f3709b","session_id":"6196c9222dd7c4d3346ec4a6","condition":"contingent","relevant_dimensions":["antennae","legs"],"bee_group":{"antennae":"A","wings":"X","pattern":"X","legs":"M"},"bonus":1.0000000000000007},{"rt":2802.199999999255,"stimulus":"bees-with-color/bee-A1DF.svg","response":1,"trial_type":"image-button-response","trial_index":150,"time_elapsed":829395,"internal_node_id":"0.0-6.0-0.14","subject_id":"612fc78547802a3f177e0d53","study_id":"60edd13110225f80f9f3709b","session_id":"6196c9222dd7c4d3346ec4a6","condition":"contingent","relevant_dimensions":["antennae","legs"],"bee_group":{"antennae":"A","wings":"X","pattern":"X","legs":"M"},"bonus":1.0000000000000007},{"rt":1907.300000000745,"stimulus":"bees-with-color/bee-B2SM.svg","response":1,"trial_type":"image-button-response","trial_index":151,"time_elapsed":831305,"internal_node_id":"0.0-6.0-0.15","subject_id":"612fc78547802a3f177e0d53","study_id":"60edd13110225f80f9f3709b","session_id":"6196c9222dd7c4d3346ec4a6","condition":"contingent","relevant_dimensions":["antennae","legs"],"bee_group":{"antennae":"A","wings":"X","pattern":"X","legs":"M"},"bonus":1.0000000000000007},{"rt":1370.5,"stimulus":"bees-with-color/bee-B1DF.svg","response":0,"trial_type":"image-button-response","trial_index":152,"time_elapsed":832678,"internal_node_id":"0.0-6.0-0.16","subject_id":"612fc78547802a3f177e0d53","study_id":"60edd13110225f80f9f3709b","session_id":"6196c9222dd7c4d3346ec4a6","condition":"contingent","relevant_dimensions":["antennae","legs"],"bee_group":{"antennae":"A","wings":"X","pattern":"X","legs":"M"},"bonus":1.0000000000000007},{"rt":1113.300000000745,"stimulus":"bees-with-color/bee-B2SF.svg","response":0,"trial_type":"image-button-response","trial_index":153,"time_elapsed":833794,"internal_node_id":"0.0-6.0-0.17","subject_id":"612fc78547802a3f177e0d53","study_id":"60edd13110225f80f9f3709b","session_id":"6196c9222dd7c4d3346ec4a6","condition":"contingent","relevant_dimensions":["antennae","legs"],"bee_group":{"antennae":"A","wings":"X","pattern":"X","legs":"M"},"bonus":1.0000000000000007},{"rt":1266.300000000745,"stimulus":"bees-with-color/bee-A2SF.svg","response":1,"trial_type":"image-button-response","trial_index":154,"time_elapsed":835063,"internal_node_id":"0.0-6.0-0.18","subject_id":"612fc78547802a3f177e0d53","study_id":"60edd13110225f80f9f3709b","session_id":"6196c9222dd7c4d3346ec4a6","condition":"contingent","relevant_dimensions":["antennae","legs"],"bee_group":{"antennae":"A","wings":"X","pattern":"X","legs":"M"},"bonus":1.0000000000000007},{"rt":4306.699999999255,"stimulus":"bees-with-color/bee-A1SM.svg","response":1,"trial_type":"image-button-response","trial_index":155,"time_elapsed":839373,"internal_node_id":"0.0-6.0-0.19","subject_id":"612fc78547802a3f177e0d53","study_id":"60edd13110225f80f9f3709b","session_id":"6196c9222dd7c4d3346ec4a6","condition":"contingent","relevant_dimensions":["antennae","legs"],"bee_group":{"antennae":"A","wings":"X","pattern":"X","legs":"M"},"bonus":1.0000000000000007},{"rt":1228.699999999255,"stimulus":"bees-with-color/bee-A2SM.svg","response":1,"trial_type":"image-button-response","trial_index":156,"time_elapsed":840604,"internal_node_id":"0.0-6.0-0.20","subject_id":"612fc78547802a3f177e0d53","study_id":"60edd13110225f80f9f3709b","session_id":"6196c9222dd7c4d3346ec4a6","condition":"contingent","relevant_dimensions":["antennae","legs"],"bee_group":{"antennae":"A","wings":"X","pattern":"X","legs":"M"},"bonus":1.0000000000000007},{"rt":1271.6000000014901,"stimulus":"bees-with-color/bee-B1SM.svg","response":1,"trial_type":"image-button-response","trial_index":157,"time_elapsed":841878,"internal_node_id":"0.0-6.0-0.21","subject_id":"612fc78547802a3f177e0d53","study_id":"60edd13110225f80f9f3709b","session_id":"6196c9222dd7c4d3346ec4a6","condition":"contingent","relevant_dimensions":["antennae","legs"],"bee_group":{"antennae":"A","wings":"X","pattern":"X","legs":"M"},"bonus":1.0000000000000007},{"rt":1310.9000000022352,"stimulus":"bees-with-color/bee-B1DM.svg","response":1,"trial_type":"image-button-response","trial_index":158,"time_elapsed":843191,"internal_node_id":"0.0-6.0-0.22","subject_id":"612fc78547802a3f177e0d53","study_id":"60edd13110225f80f9f3709b","session_id":"6196c9222dd7c4d3346ec4a6","condition":"contingent","relevant_dimensions":["antennae","legs"],"bee_group":{"antennae":"A","wings":"X","pattern":"X","legs":"M"},"bonus":1.0000000000000007},{"rt":1279.5999999977648,"stimulus":"bees-with-color/bee-B2DF.svg","response":0,"trial_type":"image-button-response","trial_index":159,"time_elapsed":844474,"internal_node_id":"0.0-6.0-0.23","subject_id":"612fc78547802a3f177e0d53","study_id":"60edd13110225f80f9f3709b","session_id":"6196c9222dd7c4d3346ec4a6","condition":"contingent","relevant_dimensions":["antennae","legs"],"bee_group":{"antennae":"A","wings":"X","pattern":"X","legs":"M"},"bonus":1.0000000000000007},{"rt":1320.0999999977648,"stimulus":"bees-with-color/bee-A1SF.svg","response":1,"trial_type":"image-button-response","trial_index":160,"time_elapsed":845796,"internal_node_id":"0.0-6.0-0.24","subject_id":"612fc78547802a3f177e0d53","study_id":"60edd13110225f80f9f3709b","session_id":"6196c9222dd7c4d3346ec4a6","condition":"contingent","relevant_dimensions":["antennae","legs"],"bee_group":{"antennae":"A","wings":"X","pattern":"X","legs":"M"},"bonus":1.0000000000000007},{"rt":980.3000000007451,"stimulus":"bees-with-color/bee-B1SF.svg","response":0,"trial_type":"image-button-response","trial_index":161,"time_elapsed":846782,"internal_node_id":"0.0-6.0-0.25","subject_id":"612fc78547802a3f177e0d53","study_id":"60edd13110225f80f9f3709b","session_id":"6196c9222dd7c4d3346ec4a6","condition":"contingent","relevant_dimensions":["antennae","legs"],"bee_group":{"antennae":"A","wings":"X","pattern":"X","legs":"M"},"bonus":1.0000000000000007},{"rt":1450,"stimulus":"bees-with-color/bee-A1DM.svg","response":1,"trial_type":"image-button-response","trial_index":162,"time_elapsed":848256,"internal_node_id":"0.0-6.0-0.26","subject_id":"612fc78547802a3f177e0d53","study_id":"60edd13110225f80f9f3709b","session_id":"6196c9222dd7c4d3346ec4a6","condition":"contingent","relevant_dimensions":["antennae","legs"],"bee_group":{"antennae":"A","wings":"X","pattern":"X","legs":"M"},"bonus":1.0000000000000007},{"rt":1572.199999999255,"stimulus":"bees-with-color/bee-B2DM.svg","response":1,"trial_type":"image-button-response","trial_index":163,"time_elapsed":849831,"internal_node_id":"0.0-6.0-0.27","subject_id":"612fc78547802a3f177e0d53","study_id":"60edd13110225f80f9f3709b","session_id":"6196c9222dd7c4d3346ec4a6","condition":"contingent","relevant_dimensions":["antennae","legs"],"bee_group":{"antennae":"A","wings":"X","pattern":"X","legs":"M"},"bonus":1.0000000000000007},{"rt":1593.8999999985099,"stimulus":"bees-with-color/bee-A2DF.svg","response":1,"trial_type":"image-button-response","trial_index":164,"time_elapsed":851427,"internal_node_id":"0.0-6.0-0.28","subject_id":"612fc78547802a3f177e0d53","study_id":"60edd13110225f80f9f3709b","session_id":"6196c9222dd7c4d3346ec4a6","condition":"contingent","relevant_dimensions":["antennae","legs"],"b