[{"success":true,"trial_type":"fullscreen","trial_index":0,"time_elapsed":26171,"internal_node_id":"0.0-0.0","subject_id":"5f5503435d41a489068ff50b","study_id":"60edd13110225f80f9f3709b","session_id":"6196d3ec78490d30e8288129","condition":"contingent","relevant_dimensions":["pattern","legs"],"bee_group":{"antennae":"X","wings":"X","pattern":"D","legs":"F"},"bonus":1.1800000000000006},{"success":true,"timeout":false,"failed_images":[],"failed_audio":[],"failed_video":[],"trial_type":"preload","trial_index":1,"time_elapsed":27766,"internal_node_id":"0.0-1.0","subject_id":"5f5503435d41a489068ff50b","study_id":"60edd13110225f80f9f3709b","session_id":"6196d3ec78490d30e8288129","condition":"contingent","relevant_dimensions":["pattern","legs"],"bee_group":{"antennae":"X","wings":"X","pattern":"D","legs":"F"},"bonus":1.1800000000000006},{"rt":2280.60000000149,"stimulus":"Welcome! Press any key to begin.","response":" ","trial_type":"html-keyboard-response","trial_index":2,"time_elapsed":30048,"internal_node_id":"0.0-2.0","subject_id":"5f5503435d41a489068ff50b","study_id":"60edd13110225f80f9f3709b","session_id":"6196d3ec78490d30e8288129","condition":"contingent","relevant_dimensions":["pattern","legs"],"bee_group":{"antennae":"X","wings":"X","pattern":"D","legs":"F"},"bonus":1.1800000000000006},{"view_history":[{"page_index":0,"viewing_time":1758.3000000044703},{"page_index":1,"viewing_time":5121.0999999940395},{"page_index":2,"viewing_time":7380},{"page_index":3,"viewing_time":8773.90000000596},{"page_index":4,"viewing_time":4421.89999999851},{"page_index":5,"viewing_time":3237.10000000149},{"page_index":6,"viewing_time":2871.39999999851},{"page_index":7,"viewing_time":3126.39999999851},{"page_index":8,"viewing_time":1296},{"page_index":7,"viewing_time":9265},{"page_index":8,"viewing_time":2239.2000000029802},{"page_index":9,"viewing_time":1525.7999999970198},{"page_index":10,"viewing_time":1883.2999999970198},{"page_index":11,"viewing_time":4781.70000000298},{"page_index":12,"viewing_time":5863},{"page_index":13,"viewing_time":915.2000000029802},{"page_index":14,"viewing_time":1766.1999999955297}],"rt":66226.10000000149,"trial_type":"instructions","trial_index":3,"time_elapsed":96274,"internal_node_id":"0.0-3.0-0.0","subject_id":"5f5503435d41a489068ff50b","study_id":"60edd13110225f80f9f3709b","session_id":"6196d3ec78490d30e8288129","condition":"contingent","relevant_dimensions":["pattern","legs"],"bee_group":{"antennae":"X","wings":"X","pattern":"D","legs":"F"},"bonus":1.1800000000000006},{"rt":13794.39999999851,"response":{"Q0":["Two or six legs","Stripes or spots on body","Single or double wings","Antennae or no antennae"]},"question_order":[0],"trial_type":"survey-multi-select","trial_index":4,"time_elapsed":110075,"internal_node_id":"0.0-3.0-1.0","subject_id":"5f5503435d41a489068ff50b","study_id":"60edd13110225f80f9f3709b","session_id":"6196d3ec78490d30e8288129","condition":"contingent","relevant_dimensions":["pattern","legs"],"bee_group":{"antennae":"X","wings":"X","pattern":"D","legs":"F"},"correct":true,"bonus":1.1800000000000006},{"rt":17653.10000000149,"response":{"Q1":"No.","Q2":"Based on the four features of the bee.","Q3":"You do not learn if it was friendly or dangerous, and do not alter your bonus."},"question_order":[0,1,2],"trial_type":"survey-multi-choice","trial_index":5,"time_elapsed":127730,"internal_node_id":"0.0-3.0-2.0","subject_id":"5f5503435d41a489068ff50b","study_id":"60edd13110225f80f9f3709b","session_id":"6196d3ec78490d30e8288129","condition":"contingent","relevant_dimensions":["pattern","legs"],"bee_group":{"antennae":"X","wings":"X","pattern":"D","legs":"F"},"correct":true,"bonus":1.1800000000000006},{"rt":1188.8000000044703,"stimulus":"<p>Congrats, you got everything right<br>When you're ready, click the button below to continue to the experiment.</p>","response":0,"trial_type":"html-button-response","trial_index":6,"time_elapsed":128920,"internal_node_id":"0.0-3.0-3.0","subject_id":"5f5503435d41a489068ff50b","study_id":"60edd13110225f80f9f3709b","session_id":"6196d3ec78490d30e8288129","condition":"contingent","relevant_dimensions":["pattern","legs"],"bee_group":{"antennae":"X","wings":"X","pattern":"D","legs":"F"},"bonus":1.1800000000000006},{"rt":2721,"stimulus":"bees-with-color/bee-B1SF.svg","response":0,"trial_type":"image-button-response","trial_index":7,"time_elapsed":131643,"internal_node_id":"0.0-4.0-0.0","subject_id":"5f5503435d41a489068ff50b","study_id":"60edd13110225f80f9f3709b","session_id":"6196d3ec78490d30e8288129","condition":"contingent","relevant_dimensions":["pattern","legs"],"bee_group":{"antennae":"X","wings":"X","pattern":"D","legs":"F"},"action":"harvest","summary":"good-harvest","bonus":1.1800000000000006},{"rt":5253,"stimulus":"\n                    <p><b>Action: <em>harvest</em></b></p>\n                    <p>This is the bee that you just saw.</p>\n                    <img src=\"bees-with-color/bee-B1SF.svg\" width=\"200\">\n                    <p><span class=\"greenText\"><b>Successful harvest!</b></span><br>Your pay has increased by $0.02. Your bonus pay is now $0.56.</p>\n            ","response":0,"trial_type":"html-button-response","trial_index":8,"time_elapsed":136898,"internal_node_id":"0.0-4.0-1.0","subject_id":"5f5503435d41a489068ff50b","study_id":"60edd13110225f80f9f3709b","session_id":"6196d3ec78490d30e8288129","condition":"contingent","relevant_dimensions":["pattern","legs"],"bee_group":{"antennae":"X","wings":"X","pattern":"D","legs":"F"},"bonus":1.1800000000000006},{"rt":1116,"stimulus":"bees-with-color/bee-B2DF.svg","response":0,"trial_type":"image-button-response","trial_index":9,"time_elapsed":138016,"internal_node_id":"0.0-4.0-0.1","subject_id":"5f5503435d41a489068ff50b","study_id":"60edd13110225f80f9f3709b","session_id":"6196d3ec78490d30e8288129","condition":"contingent","relevant_dimensions":["pattern","legs"],"bee_group":{"antennae":"X","wings":"X","pattern":"D","legs":"F"},"action":"harvest","summary":"bad-harvest","bonus":1.1800000000000006},{"rt":2751.3000000044703,"stimulus":"\n                    <p><b>Action: <em>harvest</em></b></p>\n                    <p>This is the bee that you just saw.</p>\n                    <img src=\"bees-with-color/bee-B2DF.svg\" width=\"200\">\n                    <p><span class=\"redText\">Bad choice, the bee was angry.</span><br><b>You have been stung!</b><br>Your pay has been decreased by $0.10. Your bonus pay is now $0.46.</p>\n            ","response":0,"trial_type":"html-button-response","trial_index":10,"time_elapsed":140769,"internal_node_id":"0.0-4.0-1.1","subject_id":"5f5503435d41a489068ff50b","study_id":"60edd13110225f80f9f3709b","session_id":"6196d3ec78490d30e8288129","condition":"contingent","relevant_dimensions":["pattern","legs"],"bee_group":{"antennae":"X","wings":"X","pattern":"D","legs":"F"},"bonus":1.1800000000000006},{"rt":1886.1000000014901,"stimulus":"bees-with-color/bee-B2SF.svg","response":0,"trial_type":"image-button-response","trial_index":11,"time_elapsed":142657,"internal_node_id":"0.0-4.0-0.2","subject_id":"5f5503435d41a489068ff50b","study_id":"60edd13110225f80f9f3709b","session_id":"6196d3ec78490d30e8288129","condition":"contingent","relevant_dimensions":["pattern","legs"],"bee_group":{"antennae":"X","wings":"X","pattern":"D","legs":"F"},"action":"harvest","summary":"good-harvest","bonus":1.1800000000000006},{"rt":2075.2000000029802,"stimulus":"\n                    <p><b>Action: <em>harvest</em></b></p>\n                    <p>This is the bee that you just saw.</p>\n                    <img src=\"bees-with-color/bee-B2SF.svg\" width=\"200\">\n                    <p><span class=\"greenText\"><b>Successful harvest!</b></span><br>Your pay has increased by $0.02. Your bonus pay is now $0.48.</p>\n            ","response":0,"trial_type":"html-button-response","trial_index":12,"time_elapsed":144734,"internal_node_id":"0.0-4.0-1.2","subject_id":"5f5503435d41a489068ff50b","study_id":"60edd13110225f80f9f3709b","session_id":"6196d3ec78490d30e8288129","condition":"contingent","relevant_dimensions":["pattern","legs"],"bee_group":{"antennae":"X","wings":"X","pattern":"D","legs":"F"},"bonus":1.1800000000000006},{"rt":1488.7999999970198,"stimulus":"bees-with-color/bee-B2DM.svg","response":1,"trial_type":"image-button-response","trial_index":13,"time_elapsed":146225,"internal_node_id":"0.0-4.0-0.3","subject_id":"5f5503435d41a489068ff50b","study_id":"60edd13110225f80f9f3709b","session_id":"6196d3ec78490d30e8288129","condition":"contingent","relevant_dimensions":["pattern","legs"],"bee_group":{"antennae":"X","wings":"X","pattern":"D","legs":"F"},"action":"avoid","summary":"bad-avoid","bonus":1.1800000000000006},{"rt":1054.1000000014901,"stimulus":"\n                    <p><b>Action: <em>avoid</em></b></p>\n                    <p>This is the bee that you just saw.</p>\n                    <img src=\"bees-with-color/bee-B2DM.svg\" width=\"200\">\n                    <p><br>Your bonus pay is unchanged, and remains at $0.48.</p>\n            ","response":0,"trial_type":"html-button-response","trial_index":14,"time_elapsed":147280,"internal_node_id":"0.0-4.0-1.3","subject_id":"5f5503435d41a489068ff50b","study_id":"60edd13110225f80f9f3709b","session_id":"6196d3ec78490d30e8288129","condition":"contingent","relevant_dimensions":["pattern","legs"],"bee_group":{"antennae":"X","wings":"X","pattern":"D","legs":"F"},"bonus":1.1800000000000006},{"rt":2457.3000000044703,"stimulus":"bees-with-color/bee-A2SF.svg","response":0,"trial_type":"image-button-response","trial_index":15,"time_elapsed":149739,"internal_node_id":"0.0-4.0-0.4","subject_id":"5f5503435d41a489068ff50b","study_id":"60edd13110225f80f9f3709b","session_id":"6196d3ec78490d30e8288129","condition":"contingent","relevant_dimensions":["pattern","legs"],"bee_group":{"antennae":"X","wings":"X","pattern":"D","legs":"F"},"action":"harvest","summary":"good-harvest","bonus":1.1800000000000006},{"rt":1429.2999999970198,"stimulus":"\n                    <p><b>Action: <em>harvest</em></b></p>\n                    <p>This is the bee that you just saw.</p>\n                    <img src=\"bees-with-color/bee-A2SF.svg\" width=\"200\">\n                    <p><span class=\"greenText\"><b>Successful harvest!</b></span><br>Your pay has increased by $0.02. Your bonus pay is now $0.50.</p>\n            ","response":0,"trial_type":"html-button-response","trial_index":16,"time_elapsed":151170,"internal_node_id":"0.0-4.0-1.4","subject_id":"5f5503435d41a489068ff50b","study_id":"60edd13110225f80f9f3709b","session_id":"6196d3ec78490d30e8288129","condition":"contingent","relevant_dimensions":["pattern","legs"],"bee_group":{"antennae":"X","wings":"X","pattern":"D","legs":"F"},"bonus":1.1800000000000006},{"rt":2300.6999999955297,"stimulus":"bees-with-color/bee-B2SM.svg","response":0,"trial_type":"image-button-response","trial_index":17,"time_elapsed":153472,"internal_node_id":"0.0-4.0-0.5","subject_id":"5f5503435d41a489068ff50b","study_id":"60edd13110225f80f9f3709b","session_id":"6196d3ec78490d30e8288129","condition":"contingent","relevant_dimensions":["pattern","legs"],"bee_group":{"antennae":"X","wings":"X","pattern":"D","legs":"F"},"action":"harvest","summary":"good-harvest","bonus":1.1800000000000006},{"rt":985.6000000014901,"stimulus":"\n                    <p><b>Action: <em>harvest</em></b></p>\n                    <p>This is the bee that you just saw.</p>\n                    <img src=\"bees-with-color/bee-B2SM.svg\" width=\"200\">\n                    <p><span class=\"greenText\"><b>Successful harvest!</b></span><br>Your pay has increased by $0.02. Your bonus pay is now $0.52.</p>\n            ","response":0,"trial_type":"html-button-response","trial_index":18,"time_elapsed":154459,"internal_node_id":"0.0-4.0-1.5","subject_id":"5f5503435d41a489068ff50b","study_id":"60edd13110225f80f9f3709b","session_id":"6196d3ec78490d30e8288129","condition":"contingent","relevant_dimensions":["pattern","legs"],"bee_group":{"antennae":"X","wings":"X","pattern":"D","legs":"F"},"bonus":1.1800000000000006},{"rt":1119.4000000059605,"stimulus":"bees-with-color/bee-B1DF.svg","response":1,"trial_type":"image-button-response","trial_index":19,"time_elapsed":155580,"internal_node_id":"0.0-4.0-0.6","subject_id":"5f5503435d41a489068ff50b","study_id":"60edd13110225f80f9f3709b","session_id":"6196d3ec78490d30e8288129","condition":"contingent","relevant_dimensions":["pattern","legs"],"bee_group":{"antennae":"X","wings":"X","pattern":"D","legs":"F"},"action":"avoid","summary":"good-avoid","bonus":1.1800000000000006},{"rt":1011.6000000014901,"stimulus":"\n                    <p><b>Action: <em>avoid</em></b></p>\n                    <p>This is the bee that you just saw.</p>\n                    <img src=\"bees-with-color/bee-B1DF.svg\" width=\"200\">\n                    <p><br>Your bonus pay is unchanged, and remains at $0.52.</p>\n            ","response":0,"trial_type":"html-button-response","trial_index":20,"time_elapsed":156593,"internal_node_id":"0.0-4.0-1.6","subject_id":"5f5503435d41a489068ff50b","study_id":"60edd13110225f80f9f3709b","session_id":"6196d3ec78490d30e8288129","condition":"contingent","relevant_dimensions":["pattern","legs"],"bee_group":{"antennae":"X","wings":"X","pattern":"D","legs":"F"},"bonus":1.1800000000000006},{"rt":1992.7000000029802,"stimulus":"bees-with-color/bee-A1SF.svg","response":1,"trial_type":"image-button-response","trial_index":21,"time_elapsed":158587,"internal_node_id":"0.0-4.0-0.7","subject_id":"5f5503435d41a489068ff50b","study_id":"60edd13110225f80f9f3709b","session_id":"6196d3ec78490d30e8288129","condition":"contingent","relevant_dimensions":["pattern","legs"],"bee_group":{"antennae":"X","wings":"X","pattern":"D","legs":"F"},"action":"avoid","summary":"bad-avoid","bonus":1.1800000000000006},{"rt":493.5,"stimulus":"\n                    <p><b>Action: <em>avoid</em></b></p>\n                    <p>This is the bee that you just saw.</p>\n                    <img src=\"bees-with-color/bee-A1SF.svg\" width=\"200\">\n                    <p><br>Your bonus pay is unchanged, and remains at $0.52.</p>\n            ","response":0,"trial_type":"html-button-response","trial_index":22,"time_elapsed":159082,"internal_node_id":"0.0-4.0-1.7","subject_id":"5f5503435d41a489068ff50b","study_id":"60edd13110225f80f9f3709b","session_id":"6196d3ec78490d30e8288129","condition":"contingent","relevant_dimensions":["pattern","legs"],"bee_group":{"antennae":"X","wings":"X","pattern":"D","legs":"F"},"bonus":1.1800000000000006},{"rt":1432.3000000044703,"stimulus":"bees-with-color/bee-A1DF.svg","response":1,"trial_type":"image-button-response","trial_index":23,"time_elapsed":160516,"internal_node_id":"0.0-4.0-0.8","subject_id":"5f5503435d41a489068ff50b","study_id":"60edd13110225f80f9f3709b","session_id":"6196d3ec78490d30e8288129","condition":"contingent","relevant_dimensions":["pattern","legs"],"bee_group":{"antennae":"X","wings":"X","pattern":"D","legs":"F"},"action":"avoid","summary":"good-avoid","bonus":1.1800000000000006},{"rt":454.70000000298023,"stimulus":"\n                    <p><b>Action: <em>avoid</em></b></p>\n                    <p>This is the bee that you just saw.</p>\n                    <img src=\"bees-with-color/bee-A1DF.svg\" width=\"200\">\n                    <p><br>Your bonus pay is unchanged, and remains at $0.52.</p>\n            ","response":0,"trial_type":"html-button-response","trial_index":24,"time_elapsed":160972,"internal_node_id":"0.0-4.0-1.8","subject_id":"5f5503435d41a489068ff50b","study_id":"60edd13110225f80f9f3709b","session_id":"6196d3ec78490d30e8288129","condition":"contingent","relevant_dimensions":["pattern","legs"],"bee_group":{"antennae":"X","wings":"X","pattern":"D","legs":"F"},"bonus":1.1800000000000006},{"rt":1495.3000000044703,"stimulus":"bees-with-color/bee-A2SM.svg","response":1,"trial_type":"image-button-response","trial_index":25,"time_elapsed":162469,"internal_node_id":"0.0-4.0-0.9","subject_id":"5f5503435d41a489068ff50b","study_id":"60edd13110225f80f9f3709b","session_id":"6196d3ec78490d30e8288129","condition":"contingent","relevant_dimensions":["pattern","legs"],"bee_group":{"antennae":"X","wings":"X","pattern":"D","legs":"F"},"action":"avoid","summary":"bad-avoid","bonus":1.1800000000000006},{"rt":593.5,"stimulus":"\n                    <p><b>Action: <em>avoid</em></b></p>\n                    <p>This is the bee that you just saw.</p>\n                    <img src=\"bees-with-color/bee-A2SM.svg\" width=\"200\">\n                    <p><br>Your bonus pay is unchanged, and remains at $0.52.</p>\n            ","response":0,"trial_type":"html-button-response","trial_index":26,"time_elapsed":163064,"internal_node_id":"0.0-4.0-1.9","subject_id":"5f5503435d41a489068ff50b","study_id":"60edd13110225f80f9f3709b","session_id":"6196d3ec78490d30e8288129","condition":"contingent","relevant_dimensions":["pattern","legs"],"bee_group":{"antennae":"X","wings":"X","pattern":"D","legs":"F"},"bonus":1.1800000000000006},{"rt":1504.6000000014901,"stimulus":"bees-with-color/bee-B1SM.svg","response":1,"trial_type":"image-button-response","trial_index":27,"time_elapsed":164570,"internal_node_id":"0.0-4.0-0.10","subject_id":"5f5503435d41a489068ff50b","study_id":"60edd13110225f80f9f3709b","session_id":"6196d3ec78490d30e8288129","condition":"contingent","relevant_dimensions":["pattern","legs"],"bee_group":{"antennae":"X","wings":"X","pattern":"D","legs":"F"},"action":"avoid","summary":"bad-avoid","bonus":1.1800000000000006},{"rt":672.3000000044703,"stimulus":"\n                    <p><b>Action: <em>avoid</em></b></p>\n                    <p>This is the bee that you just saw.</p>\n                    <img src=\"bees-with-color/bee-B1SM.svg\" width=\"200\">\n                    <p><br>Your bonus pay is unchanged, and remains at $0.52.</p>\n            ","response":0,"trial_type":"html-button-response","trial_index":28,"time_elapsed":165244,"internal_node_id":"0.0-4.0-1.10","subject_id":"5f5503435d41a489068ff50b","study_id":"60edd13110225f80f9f3709b","session_id":"6196d3ec78490d30e8288129","condition":"contingent","relevant_dimensions":["pattern","legs"],"bee_group":{"antennae":"X","wings":"X","pattern":"D","legs":"F"},"bonus":1.1800000000000006},{"rt":1312.6000000014901,"stimulus":"bees-with-color/bee-A2DF.svg","response":1,"trial_type":"image-button-response","trial_index":29,"time_elapsed":166558,"internal_node_id":"0.0-4.0-0.11","subject_id":"5f5503435d41a489068ff50b","study_id":"60edd13110225f80f9f3709b","session_id":"6196d3ec78490d30e8288129","condition":"contingent","relevant_dimensions":["pattern","legs"],"bee_group":{"antennae":"X","wings":"X","pattern":"D","legs":"F"},"action":"avoid","summary":"good-avoid","bonus":1.1800000000000006},{"rt":408.29999999701977,"stimulus":"\n                    <p><b>Action: <em>avoid</em></b></p>\n                    <p>This is the bee that you just saw.</p>\n                    <img src=\"bees-with-color/bee-A2DF.svg\" width=\"200\">\n                    <p><br>Your bonus pay is unchanged, and remains at $0.52.</p>\n            ","response":0,"trial_type":"html-button-response","trial_index":30,"time_elapsed":166968,"internal_node_id":"0.0-4.0-1.11","subject_id":"5f5503435d41a489068ff50b","study_id":"60edd13110225f80f9f3709b","session_id":"6196d3ec78490d30e8288129","condition":"contingent","relevant_dimensions":["pattern","legs"],"bee_group":{"antennae":"X","wings":"X","pattern":"D","legs":"F"},"bonus":1.1800000000000006},{"rt":993.2000000029802,"stimulus":"bees-with-color/bee-A2DM.svg","response":0,"trial_type":"image-button-response","trial_index":31,"time_elapsed":167962,"internal_node_id":"0.0-4.0-0.12","subject_id":"5f5503435d41a489068ff50b","study_id":"60edd13110225f80f9f3709b","session_id":"6196d3ec78490d30e8288129","condition":"contingent","relevant_dimensions":["pattern","legs"],"bee_group":{"antennae":"X","wings":"X","pattern":"D","legs":"F"},"action":"harvest","summary":"good-harvest","bonus":1.1800000000000006},{"rt":727.5,"stimulus":"\n                    <p><b>Action: <em>harvest</em></b></p>\n                    <p>This is the bee that you just saw.</p>\n                    <img src=\"bees-with-color/bee-A2DM.svg\" width=\"200\">\n                    <p><span class=\"greenText\"><b>Successful harvest!</b></span><br>Your pay has increased by $0.02. Your bonus pay is now $0.54.</p>\n            ","response":0,"trial_type":"html-button-response","trial_index":32,"time_elapsed":168691,"internal_node_id":"0.0-4.0-1.12","subject_id":"5f5503435d41a489068ff50b","study_id":"60edd13110225f80f9f3709b","session_id":"6196d3ec78490d30e8288129","condition":"contingent","relevant_dimensions":["pattern","legs"],"bee_group":{"antennae":"X","wings":"X","pattern":"D","legs":"F"},"bonus":1.1800000000000006},{"rt":1354.7000000029802,"stimulus":"bees-with-color/bee-B1DM.svg","response":1,"trial_type":"image-button-response","trial_index":33,"time_elapsed":170047,"internal_node_id":"0.0-4.0-0.13","subject_id":"5f5503435d41a489068ff50b","study_id":"60edd13110225f80f9f3709b","session_id":"6196d3ec78490d30e8288129","condition":"contingent","relevant_dimensions":["pattern","legs"],"bee_group":{"antennae":"X","wings":"X","pattern":"D","legs":"F"},"action":"avoid","summary":"bad-avoid","bonus":1.1800000000000006},{"rt":777.8000000044703,"stimulus":"\n                    <p><b>Action: <em>avoid</em></b></p>\n                    <p>This is the bee that you just saw.</p>\n                    <img src=\"bees-with-color/bee-B1DM.svg\" width=\"200\">\n                    <p><br>Your bonus pay is unchanged, and remains at $0.54.</p>\n            ","response":0,"trial_type":"html-button-response","trial_index":34,"time_elapsed":170826,"internal_node_id":"0.0-4.0-1.13","subject_id":"5f5503435d41a489068ff50b","study_id":"60edd13110225f80f9f3709b","session_id":"6196d3ec78490d30e8288129","condition":"contingent","relevant_dimensions":["pattern","legs"],"bee_group":{"antennae":"X","wings":"X","pattern":"D","legs":"F"},"bonus":1.1800000000000006},{"rt":1753,"stimulus":"bees-with-color/bee-A1DM.svg","response":0,"trial_type":"image-button-response","trial_index":35,"time_elapsed":172580,"internal_node_id":"0.0-4.0-0.14","subject_id":"5f5503435d41a489068ff50b","study_id":"60edd13110225f80f9f3709b","session_id":"6196d3ec78490d30e8288129","condition":"contingent","relevant_dimensions":["pattern","legs"],"bee_group":{"antennae":"X","wings":"X","pattern":"D","legs":"F"},"action":"harvest","summary":"good-harvest","bonus":1.1800000000000006},{"rt":653.7000000029802,"stimulus":"\n                    <p><b>Action: <em>harvest</em></b></p>\n                    <p>This is the bee that you just saw.</p>\n                    <img src=\"bees-with-color/bee-A1DM.svg\" width=\"200\">\n                    <p><span class=\"greenText\"><b>Successful harvest!</b></span><br>Your pay has increased by $0.02. Your bonus pay is now $0.56.</p>\n            ","response":0,"trial_type":"html-button-response","trial_index":36,"time_elapsed":173235,"internal_node_id":"0.0-4.0-1.14","subject_id":"5f5503435d41a489068ff50b","study_id":"60edd13110225f80f9f3709b","session_id":"6196d3ec78490d30e8288129","condition":"contingent","relevant_dimensions":["pattern","legs"],"bee_group":{"antennae":"X","wings":"X","pattern":"D","legs":"F"},"bonus":1.1800000000000006},{"rt":1336.6000000014901,"stimulus":"bees-with-color/bee-A1SM.svg","response":0,"trial_type":"image-button-response","trial_index":37,"time_elapsed":174573,"internal_node_id":"0.0-4.0-0.15","subject_id":"5f5503435d41a489068ff50b","study_id":"60edd13110225f80f9f3709b","session_id":"6196d3ec78490d30e8288129","condition":"contingent","relevant_dimensions":["pattern","legs"],"bee_group":{"antennae":"X","wings":"X","pattern":"D","legs":"F"},"action":"harvest","summary":"good-harvest","bonus":1.1800000000000006},{"rt":557.7000000029802,"stimulus":"\n                    <p><b>Action: <em>harvest</em></b></p>\n                    <p>This is the bee that you just saw.</p>\n                    <img src=\"bees-with-color/bee-A1SM.svg\" width=\"200\">\n                    <p><span class=\"greenText\"><b>Successful harvest!</b></span><br>Your pay has increased by $0.02. Your bonus pay is now $0.58.</p>\n            ","response":0,"trial_type":"html-button-response","trial_index":38,"time_elapsed":175132,"internal_node_id":"0.0-4.0-1.15","subject_id":"5f5503435d41a489068ff50b","study_id":"60edd13110225f80f9f3709b","session_id":"6196d3ec78490d30e8288129","condition":"contingent","relevant_dimensions":["pattern","legs"],"bee_group":{"antennae":"X","wings":"X","pattern":"D","legs":"F"},"bonus":1.1800000000000006},{"rt":1127.8000000044703,"stimulus":"bees-with-color/bee-A2DF.svg","response":1,"trial_type":"image-button-response","trial_index":39,"time_elapsed":176261,"internal_node_id":"0.0-4.0-0.16","subject_id":"5f5503435d41a489068ff50b","study_id":"60edd13110225f80f9f3709b","session_id":"6196d3ec78490d30e8288129","condition":"contingent","relevant_dimensions":["pattern","legs"],"bee_group":{"antennae":"X","wings":"X","pattern":"D","legs":"F"},"action":"avoid","summary":"good-avoid","bonus":1.1800000000000006},{"rt":493.6000000014901,"stimulus":"\n                    <p><b>Action: <em>avoid</em></b></p>\n                    <p>This is the bee that you just saw.</p>\n                    <img src=\"bees-with-color/bee-A2DF.svg\" width=\"200\">\n                    <p><br>Your bonus pay is unchanged, and remains at $0.58.</p>\n            ","response":0,"trial_type":"html-button-response","trial_index":40,"time_elapsed":176756,"internal_node_id":"0.0-4.0-1.16","subject_id":"5f5503435d41a489068ff50b","study_id":"60edd13110225f80f9f3709b","session_id":"6196d3ec78490d30e8288129","condition":"contingent","relevant_dimensions":["pattern","legs"],"bee_group":{"antennae":"X","wings":"X","pattern":"D","legs":"F"},"bonus":1.1800000000000006},{"rt":1212.1999999955297,"stimulus":"bees-with-color/bee-B2SF.svg","response":0,"trial_type":"image-button-response","trial_index":41,"time_elapsed":177969,"internal_node_id":"0.0-4.0-0.17","subject_id":"5f5503435d41a489068ff50b","study_id":"60edd13110225f80f9f3709b","session_id":"6196d3ec78490d30e8288129","condition":"contingent","relevant_dimensions":["pattern","legs"],"bee_group":{"antennae":"X","wings":"X","pattern":"D","legs":"F"},"action":"harvest","summary":"good-harvest","bonus":1.1800000000000006},{"rt":494.6000000014901,"stimulus":"\n                    <p><b>Action: <em>harvest</em></b></p>\n                    <p>This is the bee that you just saw.</p>\n                    <img src=\"bees-with-color/bee-B2SF.svg\" width=\"200\">\n                    <p><span class=\"greenText\"><b>Successful harvest!</b></span><br>Your pay has increased by $0.02. Your bonus pay is now $0.60.</p>\n            ","response":0,"trial_type":"html-button-response","trial_index":42,"time_elapsed":178465,"internal_node_id":"0.0-4.0-1.17","subject_id":"5f5503435d41a489068ff50b","study_id":"60edd13110225f80f9f3709b","session_id":"6196d3ec78490d30e8288129","condition":"contingent","relevant_dimensions":["pattern","legs"],"bee_group":{"antennae":"X","wings":"X","pattern":"D","legs":"F"},"bonus":1.1800000000000006},{"rt":1072.4000000059605,"stimulus":"bees-with-color/bee-B2SM.svg","response":1,"trial_type":"image-button-response","trial_index":43,"time_elapsed":179539,"internal_node_id":"0.0-4.0-0.18","subject_id":"5f5503435d41a489068ff50b","study_id":"60edd13110225f80f9f3709b","session_id":"6196d3ec78490d30e8288129","condition":"contingent","relevant_dimensions":["pattern","legs"],"bee_group":{"antennae":"X","wings":"X","pattern":"D","legs":"F"},"action":"avoid","summary":"bad-avoid","bonus":1.1800000000000006},{"rt":420.3999999985099,"stimulus":"\n                    <p><b>Action: <em>avoid</em></b></p>\n                    <p>This is the bee that you just saw.</p>\n                    <img src=\"bees-with-color/bee-B2SM.svg\" width=\"200\">\n                    <p><br>Your bonus pay is unchanged, and remains at $0.60.</p>\n            ","response":0,"trial_type":"html-button-response","trial_index":44,"time_elapsed":179961,"internal_node_id":"0.0-4.0-1.18","subject_id":"5f5503435d41a489068ff50b","study_id":"60edd13110225f80f9f3709b","session_id":"6196d3ec78490d30e8288129","condition":"contingent","relevant_dimensions":["pattern","legs"],"bee_group":{"antennae":"X","wings":"X","pattern":"D","legs":"F"},"bonus":1.1800000000000006},{"rt":1251.8000000044703,"stimulus":"bees-with-color/bee-A2DM.svg","response":0,"trial_type":"image-button-response","trial_index":45,"time_elapsed":181214,"internal_node_id":"0.0-4.0-0.19","subject_id":"5f5503435d41a489068ff50b","study_id":"60edd13110225f80f9f3709b","session_id":"6196d3ec78490d30e8288129","condition":"contingent","relevant_dimensions":["pattern","legs"],"bee_group":{"antennae":"X","wings":"X","pattern":"D","legs":"F"},"action":"harvest","summary":"good-harvest","bonus":1.1800000000000006},{"rt":528.6000000014901,"stimulus":"\n                    <p><b>Action: <em>harvest</em></b></p>\n                    <p>This is the bee that you just saw.</p>\n                    <img src=\"bees-with-color/bee-A2DM.svg\" width=\"200\">\n                    <p><span class=\"greenText\"><b>Successful harvest!</b></span><br>Your pay has increased by $0.02. Your bonus pay is now $0.62.</p>\n            ","response":0,"trial_type":"html-button-response","trial_index":46,"time_elapsed":181744,"internal_node_id":"0.0-4.0-1.19","subject_id":"5f5503435d41a489068ff50b","study_id":"60edd13110225f80f9f3709b","session_id":"6196d3ec78490d30e8288129","condition":"contingent","relevant_dimensions":["pattern","legs"],"bee_group":{"antennae":"X","wings":"X","pattern":"D","legs":"F"},"bonus":1.1800000000000006},{"rt":998.9000000059605,"stimulus":"bees-with-color/bee-B1SF.svg","response":1,"trial_type":"image-button-response","trial_index":47,"time_elapsed":182744,"internal_node_id":"0.0-4.0-0.20","subject_id":"5f5503435d41a489068ff50b","study_id":"60edd13110225f80f9f3709b","session_id":"6196d3ec78490d30e8288129","condition":"contingent","relevant_dimensions":["pattern","legs"],"bee_group":{"antennae":"X","wings":"X","pattern":"D","legs":"F"},"action":"avoid","summary":"bad-avoid","bonus":1.1800000000000006},{"rt":419.3999999985099,"stimulus":"\n                    <p><b>Action: <em>avoid</em></b></p>\n                    <p>This is the bee that you just saw.</p>\n                    <img src=\"bees-with-color/bee-B1SF.svg\" width=\"200\">\n                    <p><br>Your bonus pay is unchanged, and remains at $0.62.</p>\n            ","response":0,"trial_type":"html-button-response","trial_index":48,"time_elapsed":183165,"internal_node_id":"0.0-4.0-1.20","subject_id":"5f5503435d41a489068ff50b","study_id":"60edd13110225f80f9f3709b","session_id":"6196d3ec78490d30e8288129","condition":"contingent","relevant_dimensions":["pattern","legs"],"bee_group":{"antennae":"X","wings":"X","pattern":"D","legs":"F"},"bonus":1.1800000000000006},{"rt":1120.6000000014901,"stimulus":"bees-with-color/bee-B2DM.svg","response":0,"trial_type":"image-button-response","trial_index":49,"time_elapsed":184287,"internal_node_id":"0.0-4.0-0.21","subject_id":"5f5503435d41a489068ff50b","study_id":"60edd13110225f80f9f3709b","session_id":"6196d3ec78490d30e8288129","condition":"contingent","relevant_dimensions":["pattern","legs"],"bee_group":{"antennae":"X","wings":"X","pattern":"D","legs":"F"},"action":"harvest","summary":"good-harvest","bonus":1.1800000000000006},{"rt":473.6000000014901,"stimulus":"\n                    <p><b>Action: <em>harvest</em></b></p>\n                    <p>This is the bee that you just saw.</p>\n                    <img src=\"bees-with-color/bee-B2DM.svg\" width=\"200\">\n                    <p><span class=\"greenText\"><b>Successful harvest!</b></span><br>Your pay has increased by $0.02. Your bonus pay is now $0.64.</p>\n            ","response":0,"trial_type":"html-button-response","trial_index":50,"time_elapsed":184762,"internal_node_id":"0.0-4.0-1.21","subject_id":"5f5503435d41a489068ff50b","study_id":"60edd13110225f80f9f3709b","session_id":"6196d3ec78490d30e8288129","condition":"contingent","relevant_dimensions":["pattern","legs"],"bee_group":{"antennae":"X","wings":"X","pattern":"D","legs":"F"},"bonus":1.1800000000000006},{"rt":1139.7999999970198,"stimulus":"bees-with-color/bee-A2SM.svg","response":0,"trial_type":"image-button-response","trial_index":51,"time_elapsed":185903,"internal_node_id":"0.0-4.0-0.22","subject_id":"5f5503435d41a489068ff50b","study_id":"60edd13110225f80f9f3709b","session_id":"6196d3ec78490d30e8288129","condition":"contingent","relevant_dimensions":["pattern","legs"],"bee_group":{"antennae":"X","wings":"X","pattern":"D","legs":"F"},"action":"harvest","summary":"good-harvest","bonus":1.1800000000000006},{"rt":472,"stimulus":"\n                    <p><b>Action: <em>harvest</em></b></p>\n                    <p>This is the bee that you just saw.</p>\n                    <img src=\"bees-with-color/bee-A2SM.svg\" width=\"200\">\n                    <p><span class=\"greenText\"><b>Successful harvest!</b></span><br>Your pay has increased by $0.02. Your bonus pay is now $0.66.</p>\n            ","response":0,"trial_type":"html-button-response","trial_index":52,"time_elapsed":186377,"internal_node_id":"0.0-4.0-1.22","subject_id":"5f5503435d41a489068ff50b","study_id":"60edd13110225f80f9f3709b","session_id":"6196d3ec78490d30e8288129","condition":"contingent","relevant_dimensions":["pattern","legs"],"bee_group":{"antennae":"X","wings":"X","pattern":"D","legs":"F"},"bonus":1.1800000000000006},{"rt":874,"stimulus":"bees-with-color/bee-B2DF.svg","response":1,"trial_type":"image-button-response","trial_index":53,"time_elapsed":187252,"internal_node_id":"0.0-4.0-0.23","subject_id":"5f5503435d41a489068ff50b","study_id":"60edd13110225f80f9f3709b","session_id":"6196d3ec78490d30e8288129","condition":"contingent","relevant_dimensions":["pattern","legs"],"bee_group":{"antennae":"X","wings":"X","pattern":"D","legs":"F"},"action":"avoid","summary":"good-avoid","bonus":1.1800000000000006},{"rt":414.6000000014901,"stimulus":"\n                    <p><b>Action: <em>avoid</em></b></p>\n                    <p>This is the bee that you just saw.</p>\n                    <img src=\"bees-with-color/bee-B2DF.svg\" width=\"200\">\n                    <p><br>Your bonus pay is unchanged, and remains at $0.66.</p>\n            ","response":0,"trial_type":"html-button-response","trial_index":54,"time_elapsed":187668,"internal_node_id":"0.0-4.0-1.23","subject_id":"5f5503435d41a489068ff50b","study_id":"60edd13110225f80f9f3709b","session_id":"6196d3ec78490d30e8288129","condition":"contingent","relevant_dimensions":["pattern","legs"],"bee_group":{"antennae":"X","wings":"X","pattern":"D","legs":"F"},"bonus":1.1800000000000006},{"rt":1544.8999999985099,"stimulus":"bees-with-color/bee-A1SF.svg","response":1,"trial_type":"image-button-response","trial_index":55,"time_elapsed":189214,"internal_node_id":"0.0-4.0-0.24","subject_id":"5f5503435d41a489068ff50b","study_id":"60edd13110225f80f9f3709b","session_id":"6196d3ec78490d30e8288129","condition":"contingent","relevant_dimensions":["pattern","legs"],"bee_group":{"antennae":"X","wings":"X","pattern":"D","legs":"F"},"action":"avoid","summary":"bad-avoid","bonus":1.1800000000000006},{"rt":375.80000000447035,"stimulus":"\n                    <p><b>Action: <em>avoid</em></b></p>\n                    <p>This is the bee that you just saw.</p>\n                    <img src=\"bees-with-color/bee-A1SF.svg\" width=\"200\">\n                    <p><br>Your bonus pay is unchanged, and remains at $0.66.</p>\n            ","response":0,"trial_type":"html-button-response","trial_index":56,"time_elapsed":189591,"internal_node_id":"0.0-4.0-1.24","subject_id":"5f5503435d41a489068ff50b","study_id":"60edd13110225f80f9f3709b","session_id":"6196d3ec78490d30e8288129","condition":"contingent","relevant_dimensions":["pattern","legs"],"bee_group":{"antennae":"X","wings":"X","pattern":"D","legs":"F"},"bonus":1.1800000000000006},{"rt":2991.8000000044703,"stimulus":"bees-with-color/bee-A1DM.svg","response":0,"trial_type":"image-button-response","trial_index":57,"time_elapsed":192584,"internal_node_id":"0.0-4.0-0.25","subject_id":"5f5503435d41a489068ff50b","study_id":"60edd13110225f80f9f3709b","session_id":"6196d3ec78490d30e8288129","condition":"contingent","relevant_dimensions":["pattern","legs"],"bee_group":{"antennae":"X","wings":"X","pattern":"D","legs":"F"},"action":"harvest","summary":"good-harvest","bonus":1.1800000000000006},{"rt":916.7999999970198,"stimulus":"\n                    <p><b>Action: <em>harvest</em></b></p>\n                    <p>This is the bee that you just saw.</p>\n                    <img src=\"bees-with-color/bee-A1DM.svg\" width=\"200\">\n                    <p><span class=\"greenText\"><b>Successful harvest!</b></span><br>Your pay has increased by $0.02. Your bonus pay is now $0.68.</p>\n            ","response":0,"trial_type":"html-button-response","trial_index":58,"time_elapsed":193502,"internal_node_id":"0.0-4.0-1.25","subject_id":"5f5503435d41a489068ff50b","study_id":"60edd13110225f80f9f3709b","session_id":"6196d3ec78490d30e8288129","condition":"contingent","relevant_dimensions":["pattern","legs"],"bee_group":{"antennae":"X","wings":"X","pattern":"D","legs":"F"},"bonus":1.1800000000000006},{"rt":1493.6000000014901,"stimulus":"bees-with-color/bee-B1DF.svg","response":1,"trial_type":"image-button-response","trial_index":59,"time_elapsed":194997,"internal_node_id":"0.0-4.0-0.26","subject_id":"5f5503435d41a489068ff50b","study_id":"60edd13110225f80f9f3709b","session_id":"6196d3ec78490d30e8288129","condition":"contingent","relevant_dimensions":["pattern","legs"],"bee_group":{"antennae":"X","wings":"X","pattern":"D","legs":"F"},"action":"avoid","summary":"good-avoid","bonus":1.1800000000000006},{"rt":590.5,"stimulus":"\n                    <p><b>Action: <em>avoid</em></b></p>\n                    <p>This is the bee that you just saw.</p>\n                    <img src=\"bees-with-color/bee-B1DF.svg\" width=\"200\">\n                    <p><br>Your bonus pay is unchanged, and remains at $0.68.</p>\n            ","response":0,"trial_type":"html-button-response","trial_index":60,"time_elapsed":195589,"internal_node_id":"0.0-4.0-1.26","subject_id":"5f5503435d41a489068ff50b","study_id":"60edd13110225f80f9f3709b","session_id":"6196d3ec78490d30e8288129","condition":"contingent","relevant_dimensions":["pattern","legs"],"bee_group":{"antennae":"X","wings":"X","pattern":"D","legs":"F"},"bonus":1.1800000000000006},{"rt":1875,"stimulus":"bees-with-color/bee-A1SM.svg","response":0,"trial_type":"image-button-response","trial_index":61,"time_elapsed":197465,"internal_node_id":"0.0-4.0-0.27","subject_id":"5f5503435d41a489068ff50b","study_id":"60edd13110225f80f9f3709b","session_id":"6196d3ec78490d30e8288129","condition":"contingent","relevant_dimensions":["pattern","legs"],"bee_group":{"antennae":"X","wings":"X","pattern":"D","legs":"F"},"action":"harvest","summary":"good-harvest","bonus":1.1800000000000006},{"rt":498.40000000596046,"stimulus":"\n                    <p><b>Action: <em>harvest</em></b></p>\n                    <p>This is the bee that you just saw.</p>\n                    <img src=\"bees-with-color/bee-A1SM.svg\" width=\"200\">\n                    <p><span class=\"greenText\"><b>Successful harvest!</b></span><br>Your pay has increased by $0.02. Your bonus pay is now $0.70.</p>\n            ","response":0,"trial_type":"html-button-response","trial_index":62,"time_elapsed":197965,"internal_node_id":"0.0-4.0-1.27","subject_id":"5f5503435d41a489068ff50b","study_id":"60edd13110225f80f9f3709b","session_id":"6196d3ec78490d30e8288129","condition":"contingent","relevant_dimensions":["pattern","legs"],"bee_group":{"antennae":"X","wings":"X","pattern":"D","legs":"F"},"bonus":1.1800000000000006},{"rt":1055.7000000029802,"stimulus":"bees-with-color/bee-B1DM.svg","response":1,"trial_type":"image-button-response","trial_index":63,"time_elapsed":199022,"internal_node_id":"0.0-4.0-0.28","subject_id":"5f5503435d41a489068ff50b","study_id":"60edd13110225f80f9f3709b","session_id":"6196d3ec78490d30e8288129","condition":"contingent","relevant_dimensions":["pattern","legs"],"bee_group":{"antennae":"X","wings":"X","pattern":"D","legs":"F"},"action":"avoid","summary":"bad-avoid","bonus":1.1800000000000006},{"rt":425.6000000014901,"stimulus":"\n                    <p><b>Action: <em>avoid</em></b></p>\n                    <p>This is the bee that you just saw.</p>\n                    <img src=\"bees-with-color/bee-B1DM.svg\" width=\"200\">\n                    <p><br>Your bonus pay is unchanged, and remains at $0.70.</p>\n            ","response":0,"trial_type":"html-button-response","trial_index":64,"time_elapsed":199449,"internal_node_id":"0.0-4.0-1.28","subject_id":"5f5503435d41a489068ff50b","study_id":"60edd13110225f80f9f3709b","session_id":"6196d3ec78490d30e8288129","condition":"contingent","relevant_dimensions":["pattern","legs"],"bee_group":{"antennae":"X","wings":"X","pattern":"D","legs":"F"},"bonus":1.1800000000000006},{"rt":1171.8999999985099,"stimulus":"bees-with-color/bee-A1DF.svg","response":1,"trial_type":"image-button-response","trial_index":65,"time_elapsed":200622,"internal_node_id":"0.0-4.0-0.29","subject_id":"5f5503435d41a489068ff50b","study_id":"60edd13110225f80f9f3709b","session_id":"6196d3ec78490d30e8288129","condition":"contingent","relevant_dimensions":["pattern","legs"],"bee_group":{"antennae":"X","wings":"X","pattern":"D","legs":"F"},"action":"avoid","summary":"good-avoid","bonus":1.1800000000000006},{"rt":372.79999999701977,"stimulus":"\n                    <p><b>Action: <em>avoid</em></b></p>\n                    <p>This is the bee that you just saw.</p>\n                    <img src=\"bees-with-color/bee-A1DF.svg\" width=\"200\">\n                    <p><br>Your bonus pay is unchanged, and remains at $0.70.</p>\n            ","response":0,"trial_type":"html-button-response","trial_index":66,"time_elapsed":200996,"internal_node_id":"0.0-4.0-1.29","subject_id":"5f5503435d41a489068ff50b","study_id":"60edd13110225f80f9f3709b","session_id":"6196d3ec78490d30e8288129","condition":"contingent","relevant_dimensions":["pattern","legs"],"bee_group":{"antennae":"X","wings":"X","pattern":"D","legs":"F"},"bonus":1.1800000000000006},{"rt":1717.5,"stimulus":"bees-with-color/bee-A2SF.svg","response":1,"trial_type":"image-button-response","trial_index":67,"time_elapsed":202715,"internal_node_id":"0.0-4.0-0.30","subject_id":"5f5503435d41a489068ff50b","study_id":"60edd13110225f80f9f3709b","session_id":"6196d3ec78490d30e8288129","condition":"contingent","relevant_dimensions":["pattern","legs"],"bee_group":{"antennae":"X","wings":"X","pattern":"D","legs":"F"},"action":"avoid","summary":"bad-avoid","bonus":1.1800000000000006},{"rt":504.30000000447035,"stimulus":"\n                    <p><b>Action: <em>avoid</em></b></p>\n                    <p>This is the bee that you just saw.</p>\n                    <img src=\"bees-with-color/bee-A2SF.svg\" width=\"200\">\n                    <p><br>Your bonus pay is unchanged, and remains at $0.70.</p>\n            ","response":0,"trial_type":"html-button-response","trial_index":68,"time_elapsed":203221,"internal_node_id":"0.0-4.0-1.30","subject_id":"5f5503435d41a489068ff50b","study_id":"60edd13110225f80f9f3709b","session_id":"6196d3ec78490d30e8288129","condition":"contingent","relevant_dimensions":["pattern","legs"],"bee_group":{"antennae":"X","wings":"X","pattern":"D","legs":"F"},"bonus":1.1800000000000006},{"rt":1573.6000000014901,"stimulus":"bees-with-color/bee-B1SM.svg","response":0,"trial_type":"image-button-response","trial_index":69,"time_elapsed":204796,"internal_node_id":"0.0-4.0-0.31","subject_id":"5f5503435d41a489068ff50b","study_id":"60edd13110225f80f9f3709b","session_id":"6196d3ec78490d30e8288129","condition":"contingent","relevant_dimensions":["pattern","legs"],"bee_group":{"antennae":"X","wings":"X","pattern":"D","legs":"F"},"action":"harvest","summary":"good-harvest","bonus":1.1800000000000006},{"rt":511.70000000298023,"stimulus":"\n                    <p><b>Action: <em>harvest</em></b></p>\n                    <p>This is the bee that you just saw.</p>\n                    <img src=\"bees-with-color/bee-B1SM.svg\" width=\"200\">\n                    <p><span class=\"greenText\"><b>Successful harvest!</b></span><br>Your pay has increased by $0.02. Your bonus pay is now $0.72.</p>\n            ","response":0,"trial_type":"html-button-response","trial_index":70,"time_elapsed":205309,"internal_node_id":"0.0-4.0-1.31","subject_id":"5f5503435d41a489068ff50b","study_id":"60edd13110225f80f9f3709b","session_id":"6196d3ec78490d30e8288129","condition":"contingent","relevant_dimensions":["pattern","legs"],"bee_group":{"antennae":"X","wings":"X","pattern":"D","legs":"F"},"bonus":1.1800000000000006},{"rt":1368.9000000059605,"stimulus":"bees-with-color/bee-A1SM.svg","response":0,"trial_type":"image-button-response","trial_index":71,"time_elapsed":206679,"internal_node_id":"0.0-4.0-0.32","subject_id":"5f5503435d41a489068ff50b","study_id":"60edd13110225f80f9f3709b","session_id":"6196d3ec78490d30e8288129","condition":"contingent","relevant_dimensions":["pattern","legs"],"bee_group":{"antennae":"X","wings":"X","pattern":"D","legs":"F"},"action":"harvest","summary":"good-harvest","bonus":1.1800000000000006},{"rt":957.7000000029802,"stimulus":"\n                    <p><b>Action: <em>harvest</em></b></p>\n                    <p>This is the bee that you just saw.</p>\n                    <img src=\"bees-with-color/bee-A1SM.svg\" width=\"200\">\n                    <p><span class=\"greenText\"><b>Successful harvest!</b></span><br>Your pay has increased by $0.02. Your bonus pay is now $0.74.</p>\n            ","response":0,"trial_type":"html-button-response","trial_index":72,"time_elapsed":207638,"internal_node_id":"0.0-4.0-1.32","subject_id":"5f5503435d41a489068ff50b","study_id":"60edd13110225f80f9f3709b","session_id":"6196d3ec78490d30e8288129","condition":"contingent","relevant_dimensions":["pattern","legs"],"bee_group":{"antennae":"X","wings":"X","pattern":"D","legs":"F"},"bonus":1.1800000000000006},{"rt":1356.8000000044703,"stimulus":"bees-with-color/bee-A1DM.svg","response":1,"trial_type":"image-button-response","trial_index":73,"time_elapsed":208996,"internal_node_id":"0.0-4.0-0.33","subject_id":"5f5503435d41a489068ff50b","study_id":"60edd13110225f80f9f3709b","session_id":"6196d3ec78490d30e8288129","condition":"contingent","relevant_dimensions":["pattern","legs"],"bee_group":{"antennae":"X","wings":"X","pattern":"D","legs":"F"},"action":"avoid","summary":"bad-avoid","bonus":1.1800000000000006},{"rt":434.6000000014901,"stimulus":"\n                    <p><b>Action: <em>avoid</em></b></p>\n                    <p>This is the bee that you just saw.</p>\n                    <img src=\"bees-with-color/bee-A1DM.svg\" width=\"200\">\n                    <p><br>Your bonus pay is unchanged, and remains at $0.74.</p>\n            ","response":0,"trial_type":"html-button-response","trial_index":74,"time_elapsed":209432,"internal_node_id":"0.0-4.0-1.33","subject_id":"5f5503435d41a489068ff50b","study_id":"60edd13110225f80f9f3709b","session_id":"6196d3ec78490d30e8288129","condition":"contingent","relevant_dimensions":["pattern","legs"],"bee_group":{"antennae":"X","wings":"X","pattern":"D","legs":"F"},"bonus":1.1800000000000006},{"rt":2987.7000000029802,"stimulus":"bees-with-color/bee-A1SF.svg","response":1,"trial_type":"image-button-response","trial_index":75,"time_elapsed":212421,"internal_node_id":"0.0-4.0-0.34","subject_id":"5f5503435d41a489068ff50b","study_id":"60edd13110225f80f9f3709b","session_id":"6196d3ec78490d30e8288129","condition":"contingent","relevant_dimensions":["pattern","legs"],"bee_group":{"antennae":"X","wings":"X","pattern":"D","legs":"F"},"action":"avoid","summary":"bad-avoid","bonus":1.1800000000000006},{"rt":718.7000000029802,"stimulus":"\n                    <p><b>Action: <em>avoid</em></b></p>\n                    <p>This is the bee that you just saw.</p>\n                    <img src=\"bees-with-color/bee-A1SF.svg\" width=\"200\">\n                    <p><br>Your bonus pay is unchanged, and remains at $0.74.</p>\n            ","response":0,"trial_type":"html-button-response","trial_index":76,"time_elapsed":213141,"internal_node_id":"0.0-4.0-1.34","subject_id":"5f5503435d41a489068ff50b","study_id":"60edd13110225f80f9f3709b","session_id":"6196d3ec78490d30e8288129","condition":"contingent","relevant_dimensions":["pattern","legs"],"bee_group":{"antennae":"X","wings":"X","pattern":"D","legs":"F"},"bonus":1.1800000000000006},{"rt":1047.5,"stimulus":"bees-with-color/bee-B1DF.svg","response":1,"trial_type":"image-button-response","trial_index":77,"time_elapsed":214190,"internal_node_id":"0.0-4.0-0.35","subject_id":"5f5503435d41a489068ff50b","study_id":"60edd13110225f80f9f3709b","session_id":"6196d3ec78490d30e8288129","condition":"contingent","relevant_dimensions":["pattern","legs"],"bee_group":{"antennae":"X","wings":"X","pattern":"D","legs":"F"},"action":"avoid","summary":"good-avoid","bonus":1.1800000000000006},{"rt":357.6000000014901,"stimulus":"\n                    <p><b>Action: <em>avoid</em></b></p>\n                    <p>This is the bee that you just saw.</p>\n                    <img src=\"bees-with-color/bee-B1DF.svg\" width=\"200\">\n                    <p><br>Your bonus pay is unchanged, and remains at $0.74.</p>\n            ","response":0,"trial_type":"html-button-response","trial_index":78,"time_elapsed":214549,"internal_node_id":"0.0-4.0-1.35","subject_id":"5f5503435d41a489068ff50b","study_id":"60edd13110225f80f9f3709b","session_id":"6196d3ec78490d30e8288129","condition":"contingent","relevant_dimensions":["pattern","legs"],"bee_group":{"antennae":"X","wings":"X","pattern":"D","legs":"F"},"bonus":1.1800000000000006},{"rt":1401.6000000014901,"stimulus":"bees-with-color/bee-B1DM.svg","response":1,"trial_type":"image-button-response","trial_index":79,"time_elapsed":215952,"internal_node_id":"0.0-4.0-0.36","subject_id":"5f5503435d41a489068ff50b","study_id":"60edd13110225f80f9f3709b","session_id":"6196d3ec78490d30e8288129","condition":"contingent","relevant_dimensions":["pattern","legs"],"bee_group":{"antennae":"X","wings":"X","pattern":"D","legs":"F"},"action":"avoid","summary":"bad-avoid","bonus":1.1800000000000006},{"rt":385.6000000014901,"stimulus":"\n                    <p><b>Action: <em>avoid</em></b></p>\n                    <p>This is the bee that you just saw.</p>\n                    <img src=\"bees-with-color/bee-B1DM.svg\" width=\"200\">\n                    <p><br>Your bonus pay is unchanged, and remains at $0.74.</p>\n            ","response":0,"trial_type":"html-button-response","trial_index":80,"time_elapsed":216339,"internal_node_id":"0.0-4.0-1.36","subject_id":"5f5503435d41a489068ff50b","study_id":"60edd13110225f80f9f3709b","session_id":"6196d3ec78490d30e8288129","condition":"contingent","relevant_dimensions":["pattern","legs"],"bee_group":{"antennae":"X","wings":"X","pattern":"D","legs":"F"},"bonus":1.1800000000000006},{"rt":1006.6000000014901,"stimulus":"bees-with-color/bee-A2SF.svg","response":0,"trial_type":"image-button-response","trial_index":81,"time_elapsed":217347,"internal_node_id":"0.0-4.0-0.37","subject_id":"5f5503435d41a489068ff50b","study_id":"60edd13110225f80f9f3709b","session_id":"6196d3ec78490d30e8288129","condition":"contingent","relevant_dimensions":["pattern","legs"],"bee_group":{"antennae":"X","wings":"X","pattern":"D","legs":"F"},"action":"harvest","summary":"good-harvest","bonus":1.1800000000000006},{"rt":485.30000000447035,"stimulus":"\n                    <p><b>Action: <em>harvest</em></b></p>\n                    <p>This is the bee that you just saw.</p>\n                    <img src=\"bees-with-color/bee-A2SF.svg\" width=\"200\">\n                    <p><span class=\"greenText\"><b>Successful harvest!</b></span><br>Your pay has increased by $0.02. Your bonus pay is now $0.76.</p>\n            ","response":0,"trial_type":"html-button-response","trial_index":82,"time_elapsed":217834,"internal_node_id":"0.0-4.0-1.37","subject_id":"5f5503435d41a489068ff50b","study_id":"60edd13110225f80f9f3709b","session_id":"6196d3ec78490d30e8288129","condition":"contingent","relevant_dimensions":["pattern","legs"],"bee_group":{"antennae":"X","wings":"X","pattern":"D","legs":"F"},"bonus":1.1800000000000006},{"rt":1200.6000000014901,"stimulus":"bees-with-color/bee-B1SF.svg","response":0,"trial_type":"image-button-response","trial_index":83,"time_elapsed":219036,"internal_node_id":"0.0-4.0-0.38","subject_id":"5f5503435d41a489068ff50b","study_id":"60edd13110225f80f9f3709b","session_id":"6196d3ec78490d30e8288129","condition":"contingent","relevant_dimensions":["pattern","legs"],"bee_group":{"antennae":"X","wings":"X","pattern":"D","legs":"F"},"action":"harvest","summary":"good-harvest","bonus":1.1800000000000006},{"rt":425.70000000298023,"stimulus":"\n                    <p><b>Action: <em>harvest</em></b></p>\n                    <p>This is the bee that you just saw.</p>\n                    <img src=\"bees-with-color/bee-B1SF.svg\" width=\"200\">\n                    <p><span class=\"greenText\"><b>Successful harvest!</b></span><br>Your pay has increased by $0.02. Your bonus pay is now $0.78.</p>\n            ","response":0,"trial_type":"html-button-response","trial_index":84,"time_elapsed":219463,"internal_node_id":"0.0-4.0-1.38","subject_id":"5f5503435d41a489068ff50b","study_id":"60edd13110225f80f9f3709b","session_id":"6196d3ec78490d30e8288129","condition":"contingent","relevant_dimensions":["pattern","legs"],"bee_group":{"antennae":"X","wings":"X","pattern":"D","legs":"F"},"bonus":1.1800000000000006},{"rt":992.7000000029802,"stimulus":"bees-with-color/bee-A1DF.svg","response":1,"trial_type":"image-button-response","trial_index":85,"time_elapsed":220457,"internal_node_id":"0.0-4.0-0.39","subject_id":"5f5503435d41a489068ff50b","study_id":"60edd13110225f80f9f3709b","session_id":"6196d3ec78490d30e8288129","condition":"contingent","relevant_dimensions":["pattern","legs"],"bee_group":{"antennae":"X","wings":"X","pattern":"D","legs":"F"},"action":"avoid","summary":"good-avoid","bonus":1.1800000000000006},{"rt":331.79999999701977,"stimulus":"\n                    <p><b>Action: <em>avoid</em></b></p>\n                    <p>This is the bee that you just saw.</p>\n                    <img src=\"bees-with-color/bee-A1DF.svg\" width=\"200\">\n                    <p><br>Your bonus pay is unchanged, and remains at $0.78.</p>\n            ","response":0,"trial_type":"html-button-response","trial_index":86,"time_elapsed":220790,"internal_node_id":"0.0-4.0-1.39","subject_id":"5f5503435d41a489068ff50b","study_id":"60edd13110225f80f9f3709b","session_id":"6196d3ec78490d30e8288129","condition":"contingent","relevant_dimensions":["pattern","legs"],"bee_group":{"antennae":"X","wings":"X","pattern":"D","legs":"F"},"bonus":1.1800000000000006},{"rt":3355.8000000044703,"stimulus":"bees-with-color/bee-B2DM.svg","response":1,"trial_type":"image-button-response","trial_index":87,"time_elapsed":224147,"internal_node_id":"0.0-4.0-0.40","subject_id":"5f5503435d41a489068ff50b","study_id":"60edd13110225f80f9f3709b","session_id":"6196d3ec78490d30e8288129","condition":"contingent","relevant_dimensions":["pattern","legs"],"bee_group":{"antennae":"X","wings":"X","pattern":"D","legs":"F"},"action":"avoid","summary":"bad-avoid","bonus":1.1800000000000006},{"rt":957.6000000014901,"stimulus":"\n                    <p><b>Action: <em>avoid</em></b></p>\n                    <p>This is the bee that you just saw.</p>\n                    <img src=\"bees-with-color/bee-B2DM.svg\" width=\"200\">\n                    <p><br>Your bonus pay is unchanged, and remains at $0.78.</p>\n            ","response":0,"trial_type":"html-button-response","trial_index":88,"time_elapsed":225106,"internal_node_id":"0.0-4.0-1.40","subject_id":"5f5503435d41a489068ff50b","study_id":"60edd13110225f80f9f3709b","session_id":"6196d3ec78490d30e8288129","condition":"contingent","relevant_dimensions":["pattern","legs"],"bee_group":{"antennae":"X","wings":"X","pattern":"D","legs":"F"},"bonus":1.1800000000000006},{"rt":1945.6000000014901,"stimulus":"bees-with-color/bee-B2DF.svg","response":1,"trial_type":"image-button-response","trial_index":89,"time_elapsed":227053,"internal_node_id":"0.0-4.0-0.41","subject_id":"5f5503435d41a489068ff50b","study_id":"60edd13110225f80f9f3709b","session_id":"6196d3ec78490d30e8288129","condition":"contingent","relevant_dimensions":["pattern","legs"],"bee_group":{"antennae":"X","wings":"X","pattern":"D","legs":"F"},"action":"avoid","summary":"good-avoid","bonus":1.1800000000000006},{"rt":517.7999999970198,"stimulus":"\n                    <p><b>Action: <em>avoid</em></b></p>\n                    <p>This is the bee that you just saw.</p>\n                    <img src=\"bees-with-color/bee-B2DF.svg\" width=\"200\">\n                    <p><br>Your bonus pay is unchanged, and remains at $0.78.</p>\n            ","response":0,"trial_type":"html-button-response","trial_index":90,"time_elapsed":227572,"internal_node_id":"0.0-4.0-1.41","subject_id":"5f5503435d41a489068ff50b","study_id":"60edd13110225f80f9f3709b","session_id":"6196d3ec78490d30e8288129","condition":"contingent","relevant_dimensions":["pattern","legs"],"bee_group":{"antennae":"X","wings":"X","pattern":"D","legs":"F"},"bonus":1.1800000000000006},{"rt":1062.7000000029802,"stimulus":"bees-with-color/bee-A2SM.svg","response":0,"trial_type":"image-button-response","trial_index":91,"time_elapsed":228636,"internal_node_id":"0.0-4.0-0.42","subject_id":"5f5503435d41a489068ff50b","study_id":"60edd13110225f80f9f3709b","session_id":"6196d3ec78490d30e8288129","condition":"contingent","relevant_dimensions":["pattern","legs"],"bee_group":{"antennae":"X","wings":"X","pattern":"D","legs":"F"},"action":"harvest","summary":"good-harvest","bonus":1.1800000000000006},{"rt":479.5,"stimulus":"\n                    <p><b>Action: <em>harvest</em></b></p>\n                    <p>This is the bee that you just saw.</p>\n                    <img src=\"bees-with-color/bee-A2SM.svg\" width=\"200\">\n                    <p><span class=\"greenText\"><b>Successful harvest!</b></span><br>Your pay has increased by $0.02. Your bonus pay is now $0.80.</p>\n            ","response":0,"trial_type":"html-button-response","trial_index":92,"time_elapsed":229117,"internal_node_id":"0.0-4.0-1.42","subject_id":"5f5503435d41a489068ff50b","study_id":"60edd13110225f80f9f3709b","session_id":"6196d3ec78490d30e8288129","condition":"contingent","relevant_dimensions":["pattern","legs"],"bee_group":{"antennae":"X","wings":"X","pattern":"D","legs":"F"},"bonus":1.1800000000000006},{"rt":1476.3000000044703,"stimulus":"bees-with-color/bee-B2SM.svg","response":0,"trial_type":"image-button-response","trial_index":93,"time_elapsed":230595,"internal_node_id":"0.0-4.0-0.43","subject_id":"5f5503435d41a489068ff50b","study_id":"60edd13110225f80f9f3709b","session_id":"6196d3ec78490d30e8288129","condition":"contingent","relevant_dimensions":["pattern","legs"],"bee_group":{"antennae":"X","wings":"X","pattern":"D","legs":"F"},"action":"harvest","summary":"good-harvest","bonus":1.1800000000000006},{"rt":526.3999999985099,"stimulus":"\n                    <p><b>Action: <em>harvest</em></b></p>\n                    <p>This is the bee that you just saw.</p>\n                    <img src=\"bees-with-color/bee-B2SM.svg\" width=\"200\">\n                    <p><span class=\"greenText\"><b>Successful harvest!</b></span><br>Your pay has increased by $0.02. Your bonus pay is now $0.82.</p>\n            ","response":0,"trial_type":"html-button-response","trial_index":94,"time_elapsed":231122,"internal_node_id":"0.0-4.0-1.43","subject_id":"5f5503435d41a489068ff50b","study_id":"60edd13110225f80f9f3709b","session_id":"6196d3ec78490d30e8288129","condition":"contingent","relevant_dimensions":["pattern","legs"],"bee_group":{"antennae":"X","wings":"X","pattern":"D","legs":"F"},"bonus":1.1800000000000006},{"rt":924.6000000014901,"stimulus":"bees-with-color/bee-B2SF.svg","response":0,"trial_type":"image-button-response","trial_index":95,"time_elapsed":232048,"internal_node_id":"0.0-4.0-0.44","subject_id":"5f5503435d41a489068ff50b","study_id":"60edd13110225f80f9f3709b","session_id":"6196d3ec78490d30e8288129","condition":"contingent","relevant_dimensions":["pattern","legs"],"bee_group":{"antennae":"X","wings":"X","pattern":"D","legs":"F"},"action":"harvest","summary":"good-harvest","bonus":1.1800000000000006},{"rt":523.4000000059605,"stimulus":"\n                    <p><b>Action: <em>harvest</em></b></p>\n                    <p>This is the bee that you just saw.</p>\n                    <img src=\"bees-with-color/bee-B2SF.svg\" width=\"200\">\n                    <p><span class=\"greenText\"><b>Successful harvest!</b></span><br>Your pay has increased by $0.02. Your bonus pay is now $0.84.</p>\n            ","response":0,"trial_type":"html-button-response","trial_index":96,"time_elapsed":232573,"internal_node_id":"0.0-4.0-1.44","subject_id":"5f5503435d41a489068ff50b","study_id":"60edd13110225f80f9f3709b","session_id":"6196d3ec78490d30e8288129","condition":"contingent","relevant_dimensions":["pattern","legs"],"bee_group":{"antennae":"X","wings":"X","pattern":"D","legs":"F"},"bonus":1.1800000000000006},{"rt":863.2000000029802,"stimulus":"bees-with-color/bee-B1SM.svg","response":0,"trial_type":"image-button-response","trial_index":97,"time_elapsed":233438,"internal_node_id":"0.0-4.0-0.45","subject_id":"5f5503435d41a489068ff50b","study_id":"60edd13110225f80f9f3709b","session_id":"6196d3ec78490d30e8288129","condition":"contingent","relevant_dimensions":["pattern","legs"],"bee_group":{"antennae":"X","wings":"X","pattern":"D","legs":"F"},"action":"harvest","summary":"good-harvest","bonus":1.1800000000000006},{"rt":624.1000000014901,"stimulus":"\n                    <p><b>Action: <em>harvest</em></b></p>\n                    <p>This is the bee that you just saw.</p>\n                    <img src=\"bees-with-color/bee-B1SM.svg\" width=\"200\">\n                    <p><span class=\"greenText\"><b>Successful harvest!</b></span><br>Your pay has increased by $0.02. Your bonus pay is now $0.86.</p>\n            ","response":0,"trial_type":"html-button-response","trial_index":98,"time_elapsed":234063,"internal_node_id":"0.0-4.0-1.45","subject_id":"5f5503435d41a489068ff50b","study_id":"60edd13110225f80f9f3709b","session_id":"6196d3ec78490d30e8288129","condition":"contingent","relevant_dimensions":["pattern","legs"],"bee_group":{"antennae":"X","wings":"X","pattern":"D","legs":"F"},"bonus":1.1800000000000006},{"rt":1290.1000000014901,"stimulus":"bees-with-color/bee-A2DM.svg","response":1,"trial_type":"image-button-response","trial_index":99,"time_elapsed":235355,"internal_node_id":"0.0-4.0-0.46","subject_id":"5f5503435d41a489068ff50b","study_id":"60edd13110225f80f9f3709b","session_id":"6196d3ec78490d30e8288129","condition":"contingent","relevant_dimensions":["pattern","legs"],"bee_group":{"antennae":"X","wings":"X","pattern":"D","legs":"F"},"action":"avoid","summary":"bad-avoid","bonus":1.1800000000000006},{"rt":339.1000000014901,"stimulus":"\n                    <p><b>Action: <em>avoid</em></b></p>\n                    <p>This is the bee that you just saw.</p>\n                    <img src=\"bees-with-color/bee-A2DM.svg\" width=\"200\">\n                    <p><br>Your bonus pay is unchanged, and remains at $0.86.</p>\n            ","response":0,"trial_type":"html-button-response","trial_index":100,"time_elapsed":235695,"internal_node_id":"0.0-4.0-1.46","subject_id":"5f5503435d41a489068ff50b","study_id":"60edd13110225f80f9f3709b","session_id":"6196d3ec78490d30e8288129","condition":"contingent","relevant_dimensions":["pattern","legs"],"bee_group":{"antennae":"X","wings":"X","pattern":"D","legs":"F"},"bonus":1.1800000000000006},{"rt":1160.7000000029802,"stimulus":"bees-with-color/bee-A2DF.svg","response":1,"trial_type":"image-button-response","trial_index":101,"time_elapsed":236857,"internal_node_id":"0.0-4.0-0.47","subject_id":"5f5503435d41a489068ff50b","study_id":"60edd13110225f80f9f3709b","session_id":"6196d3ec78490d30e8288129","condition":"contingent","relevant_dimensions":["pattern","legs"],"bee_group":{"antennae":"X","wings":"X","pattern":"D","legs":"F"},"action":"avoid","summary":"good-avoid","bonus":1.1800000000000006},{"rt":334.6000000014901,"stimulus":"\n                    <p><b>Action: <em>avoid</em></b></p>\n                    <p>This is the bee that you just saw.</p>\n                    <img src=\"bees-with-color/bee-A2DF.svg\" width=\"200\">\n                    <p><br>Your bonus pay is unchanged, and remains at $0.86.</p>\n            ","response":0,"trial_type":"html-button-response","trial_index":102,"time_elapsed":237193,"internal_node_id":"0.0-4.0-1.47","subject_id":"5f5503435d41a489068ff50b","study_id":"60edd13110225f80f9f3709b","session_id":"6196d3ec78490d30e8288129","condition":"contingent","relevant_dimensions":["pattern","legs"],"bee_group":{"antennae":"X","wings":"X","pattern":"D","legs":"F"},"bonus":1.1800000000000006},{"rt":1325.6999999955297,"stimulus":"bees-with-color/bee-A1SF.svg","response":0,"trial_type":"image-button-response","trial_index":103,"time_elapsed":238520,"internal_node_id":"0.0-4.0-0.48","subject_id":"5f5503435d41a489068ff50b","study_id":"60edd13110225f80f9f3709b","session_id":"6196d3ec78490d30e8288129","condition":"contingent","relevant_dimensions":["pattern","legs"],"bee_group":{"antennae":"X","wings":"X","pattern":"D","legs":"F"},"action":"harvest","summary":"good-harvest","bonus":1.1800000000000006},{"rt":484.5,"stimulus":"\n                    <p><b>Action: <em>harvest</em></b></p>\n                    <p>This is the bee that you just saw.</p>\n                    <img src=\"bees-with-color/bee-A1SF.svg\" width=\"200\">\n                    <p><span class=\"greenText\"><b>Successful harvest!</b></span><br>Your pay has increased by $0.02. Your bonus pay is now $0.88.</p>\n            ","response":0,"trial_type":"html-button-response","trial_index":104,"time_elapsed":239006,"internal_node_id":"0.0-4.0-1.48","subject_id":"5f5503435d41a489068ff50b","study_id":"60edd13110225f80f9f3709b","session_id":"6196d3ec78490d30e8288129","condition":"contingent","relevant_dimensions":["pattern","legs"],"bee_group":{"antennae":"X","wings":"X","pattern":"D","legs":"F"},"bonus":1.1800000000000006},{"rt":1024.7000000029802,"stimulus":"bees-with-color/bee-B2SM.svg","response":0,"trial_type":"image-button-response","trial_index":105,"time_elapsed":240032,"internal_node_id":"0.0-4.0-0.49","subject_id":"5f5503435d41a489068ff50b","study_id":"60edd13110225f80f9f3709b","session_id":"6196d3ec78490d30e8288129","condition":"contingent","relevant_dimensions":["pattern","legs"],"bee_group":{"antennae":"X","wings":"X","pattern":"D","legs":"F"},"action":"harvest","summary":"good-harvest","bonus":1.1800000000000006},{"rt":442,"stimulus":"\n                    <p><b>Action: <em>harvest</em></b></p>\n                    <p>This is the bee that you just saw.</p>\n                    <img src=\"bees-with-color/bee-B2SM.svg\" width=\"200\">\n                    <p><span class=\"greenText\"><b>Successful harvest!</b></span><br>Your pay has increased by $0.02. Your bonus pay is now $0.90.</p>\n            ","response":0,"trial_type":"html-button-response","trial_index":106,"time_elapsed":240475,"internal_node_id":"0.0-4.0-1.49","subject_id":"5f5503435d41a489068ff50b","study_id":"60edd13110225f80f9f3709b","session_id":"6196d3ec78490d30e8288129","condition":"contingent","relevant_dimensions":["pattern","legs"],"bee_group":{"antennae":"X","wings":"X","pattern":"D","legs":"F"},"bonus":1.1800000000000006},{"rt":847.8000000044703,"stimulus":"bees-with-color/bee-A2DF.svg","response":1,"trial_type":"image-button-response","trial_index":107,"time_elapsed":241324,"internal_node_id":"0.0-4.0-0.50","subject_id":"5f5503435d41a489068ff50b","study_id":"60edd13110225f80f9f3709b","session_id":"6196d3ec78490d30e8288129","condition":"contingent","relevant_dimensions":["pattern","legs"],"bee_group":{"antennae":"X","wings":"X","pattern":"D","legs":"F"},"action":"avoid","summary":"good-avoid","bonus":1.1800000000000006},{"rt":476.6000000014901,"stimulus":"\n                    <p><b>Action: <em>avoid</em></b></p>\n                    <p>This is the bee that you just saw.</p>\n                    <img src=\"bees-with-color/bee-A2DF.svg\" width=\"200\">\n                    <p><br>Your bonus pay is unchanged, and remains at $0.90.</p>\n            ","response":0,"trial_type":"html-button-response","trial_index":108,"time_elapsed":241802,"internal_node_id":"0.0-4.0-1.50","subject_id":"5f5503435d41a489068ff50b","study_id":"60edd13110225f80f9f3709b","session_id":"6196d3ec78490d30e8288129","condition":"contingent","relevant_dimensions":["pattern","legs"],"bee_group":{"antennae":"X","wings":"X","pattern":"D","legs":"F"},"bonus":1.1800000000000006},{"rt":1356.1999999955297,"stimulus":"bees-with-color/bee-A1DF.svg","response":1,"trial_type":"image-button-response","trial_index":109,"time_elapsed":243159,"internal_node_id":"0.0-4.0-0.51","subject_id":"5f5503435d41a489068ff50b","study_id":"60edd13110225f80f9f3709b","session_id":"6196d3ec78490d30e8288129","condition":"contingent","relevant_dimensions":["pattern","legs"],"bee_group":{"antennae":"X","wings":"X","pattern":"D","legs":"F"},"action":"avoid","summary":"good-avoid","bonus":1.1800000000000006},{"rt":353.59999999403954,"stimulus":"\n                    <p><b>Action: <em>avoid</em></b></p>\n                    <p>This is the bee that you just saw.</p>\n                    <img src=\"bees-with-color/bee-A1DF.svg\" width=\"200\">\n                    <p><br>Your bonus pay is unchanged, and remains at $0.90.</p>\n            ","response":0,"trial_type":"html-button-response","trial_index":110,"time_elapsed":243514,"internal_node_id":"0.0-4.0-1.51","subject_id":"5f5503435d41a489068ff50b","study_id":"60edd13110225f80f9f3709b","session_id":"6196d3ec78490d30e8288129","condition":"contingent","relevant_dimensions":["pattern","legs"],"bee_group":{"antennae":"X","wings":"X","pattern":"D","legs":"F"},"bonus":1.1800000000000006},{"rt":2173.10000000149,"stimulus":"bees-with-color/bee-B1DM.svg","response":0,"trial_type":"image-button-response","trial_index":111,"time_elapsed":245689,"internal_node_id":"0.0-4.0-0.52","subject_id":"5f5503435d41a489068ff50b","study_id":"60edd13110225f80f9f3709b","session_id":"6196d3ec78490d30e8288129","condition":"contingent","relevant_dimensions":["pattern","legs"],"bee_group":{"antennae":"X","wings":"X","pattern":"D","legs":"F"},"action":"harvest","summary":"good-harvest","bonus":1.1800000000000006},{"rt":526.5,"stimulus":"\n                    <p><b>Action: <em>harvest</em></b></p>\n                    <p>This is the bee that you just saw.</p>\n                    <img src=\"bees-with-color/bee-B1DM.svg\" width=\"200\">\n                    <p><span class=\"greenText\"><b>Successful harvest!</b></span><br>Your pay has increased by $0.02. Your bonus pay is now $0.92.</p>\n            ","response":0,"trial_type":"html-button-response","trial_index":112,"time_elapsed":246216,"internal_node_id":"0.0-4.0-1.52","subject_id":"5f5503435d41a489068ff50b","study_id":"60edd13110225f80f9f3709b","session_id":"6196d3ec78490d30e8288129","condition":"contingent","relevant_dimensions":["pattern","legs"],"bee_group":{"antennae":"X","wings":"X","pattern":"D","legs":"F"},"bonus":1.1800000000000006},{"rt":927.7999999970198,"stimulus":"bees-with-color/bee-B2SF.svg","response":0,"trial_type":"image-button-response","trial_index":113,"time_elapsed":247145,"internal_node_id":"0.0-4.0-0.53","subject_id":"5f5503435d41a489068ff50b","study_id":"60edd13110225f80f9f3709b","session_id":"6196d3ec78490d30e8288129","condition":"contingent","relevant_dimensions":["pattern","legs"],"bee_group":{"antennae":"X","wings":"X","pattern":"D","legs":"F"},"action":"harvest","summary":"good-harvest","bonus":1.1800000000000006},{"rt":755.3999999985099,"stimulus":"\n                    <p><b>Action: <em>harvest</em></b></p>\n                    <p>This is the bee that you just saw.</p>\n                    <img src=\"bees-with-color/bee-B2SF.svg\" width=\"200\">\n                    <p><span class=\"greenText\"><b>Successful harvest!</b></span><br>Your pay has increased by $0.02. Your bonus pay is now $0.94.</p>\n            ","response":0,"trial_type":"html-button-response","trial_index":114,"time_elapsed":247902,"internal_node_id":"0.0-4.0-1.53","subject_id":"5f5503435d41a489068ff50b","study_id":"60edd13110225f80f9f3709b","session_id":"6196d3ec78490d30e8288129","condition":"contingent","relevant_dimensions":["pattern","legs"],"bee_group":{"antennae":"X","wings":"X","pattern":"D","legs":"F"},"bonus":1.1800000000000006},{"rt":926.7999999970198,"stimulus":"bees-with-color/bee-A2SF.svg","response":0,"trial_type":"image-button-response","trial_index":115,"time_elapsed":248830,"internal_node_id":"0.0-4.0-0.54","subject_id":"5f5503435d41a489068ff50b","study_id":"60edd13110225f80f9f3709b","session_id":"6196d3ec78490d30e8288129","condition":"contingent","relevant_dimensions":["pattern","legs"],"bee_group":{"antennae":"X","wings":"X","pattern":"D","legs":"F"},"action":"harvest","summary":"good-harvest","bonus":1.1800000000000006},{"rt":507.30000000447035,"stimulus":"\n                    <p><b>Action: <em>harvest</em></b></p>\n                    <p>This is the bee that you just saw.</p>\n                    <img src=\"bees-with-color/bee-A2SF.svg\" width=\"200\">\n                    <p><span class=\"greenText\"><b>Successful harvest!</b></span><br>Your pay has increased by $0.02. Your bonus pay is now $0.96.</p>\n            ","response":0,"trial_type":"html-button-response","trial_index":116,"time_elapsed":249339,"internal_node_id":"0.0-4.0-1.54","subject_id":"5f5503435d41a489068ff50b","study_id":"60edd13110225f80f9f3709b","session_id":"6196d3ec78490d30e8288129","condition":"contingent","relevant_dimensions":["pattern","legs"],"bee_group":{"antennae":"X","wings":"X","pattern":"D","legs":"F"},"bonus":1.1800000000000006},{"rt":1370.6999999955297,"stimulus":"bees-with-color/bee-B1SF.svg","response":1,"trial_type":"image-button-response","trial_index":117,"time_elapsed":250711,"internal_node_id":"0.0-4.0-0.55","subject_id":"5f5503435d41a489068ff50b","study_id":"60edd13110225f80f9f3709b","session_id":"6196d3ec78490d30e8288129","condition":"contingent","relevant_dimensions":["pattern","legs"],"bee_group":{"antennae":"X","wings":"X","pattern":"D","legs":"F"},"action":"avoid","summary":"bad-avoid","bonus":1.1800000000000006},{"rt":354.70000000298023,"stimulus":"\n                    <p><b>Action: <em>avoid</em></b></p>\n                    <p>This is the bee that you just saw.</p>\n                    <img src=\"bees-with-color/bee-B1SF.svg\" width=\"200\">\n                    <p><br>Your bonus pay is unchanged, and remains at $0.96.</p>\n            ","response":0,"trial_type":"html-button-response","trial_index":118,"time_elapsed":251067,"internal_node_id":"0.0-4.0-1.55","subject_id":"5f5503435d41a489068ff50b","study_id":"60edd13110225f80f9f3709b","session_id":"6196d3ec78490d30e8288129","condition":"contingent","relevant_dimensions":["pattern","legs"],"bee_group":{"antennae":"X","wings":"X","pattern":"D","legs":"F"},"bonus":1.1800000000000006},{"rt":1554.7000000029802,"stimulus":"bees-with-color/bee-A2DM.svg","response":0,"trial_type":"image-button-response","trial_index":119,"time_elapsed":252624,"internal_node_id":"0.0-4.0-0.56","subject_id":"5f5503435d41a489068ff50b","study_id":"60edd13110225f80f9f3709b","session_id":"6196d3ec78490d30e8288129","condition":"contingent","relevant_dimensions":["pattern","legs"],"bee_group":{"antennae":"X","wings":"X","pattern":"D","legs":"F"},"action":"harvest","summary":"good-harvest","bonus":1.1800000000000006},{"rt":515.2999999970198,"stimulus":"\n                    <p><b>Action: <em>harvest</em></b></p>\n                    <p>This is the bee that you just saw.</p>\n                    <img src=\"bees-with-color/bee-A2DM.svg\" width=\"200\">\n                    <p><span class=\"greenText\"><b>Successful harvest!</b></span><br>Your pay has increased by $0.02. Your bonus pay is now $0.98.</p>\n            ","response":0,"trial_type":"html-button-response","trial_index":120,"time_elapsed":253140,"internal_node_id":"0.0-4.0-1.56","subject_id":"5f5503435d41a489068ff50b","study_id":"60edd13110225f80f9f3709b","session_id":"6196d3ec78490d30e8288129","condition":"contingent","relevant_dimensions":["pattern","legs"],"bee_group":{"antennae":"X","wings":"X","pattern":"D","legs":"F"},"bonus":1.1800000000000006},{"rt":941.5,"stimulus":"bees-with-color/bee-B2DM.svg","response":0,"trial_type":"image-button-response","trial_index":121,"time_elapsed":254083,"internal_node_id":"0.0-4.0-0.57","subject_id":"5f5503435d41a489068ff50b","study_id":"60edd13110225f80f9f3709b","session_id":"6196d3ec78490d30e8288129","condition":"contingent","relevant_dimensions":["pattern","legs"],"bee_group":{"antennae":"X","wings":"X","pattern":"D","legs":"F"},"action":"harvest","summary":"good-harvest","bonus":1.1800000000000006},{"rt":1050.7999999970198,"stimulus":"\n                    <p><b>Action: <em>harvest</em></b></p>\n                    <p>This is the bee that you just saw.</p>\n                    <img src=\"bees-with-color/bee-B2DM.svg\" width=\"200\">\n                    <p><span class=\"greenText\"><b>Successful harvest!</b></span><br>Your pay has increased by $0.02. Your bonus pay is now $1.00.</p>\n            ","response":0,"trial_type":"html-button-response","trial_index":122,"time_elapsed":255135,"internal_node_id":"0.0-4.0-1.57","subject_id":"5f5503435d41a489068ff50b","study_id":"60edd13110225f80f9f3709b","session_id":"6196d3ec78490d30e8288129","condition":"contingent","relevant_dimensions":["pattern","legs"],"bee_group":{"antennae":"X","wings":"X","pattern":"D","legs":"F"},"bonus":1.1800000000000006},{"rt":1106,"stimulus":"bees-with-color/bee-A2SM.svg","response":0,"trial_type":"image-button-response","trial_index":123,"time_elapsed":256242,"internal_node_id":"0.0-4.0-0.58","subject_id":"5f5503435d41a489068ff50b","study_id":"60edd13110225f80f9f3709b","session_id":"6196d3ec78490d30e8288129","condition":"contingent","relevant_dimensions":["pattern","legs"],"bee_group":{"antennae":"X","wings":"X","pattern":"D","legs":"F"},"action":"harvest","summary":"good-harvest","bonus":1.1800000000000006},{"rt":458.5,"stimulus":"\n                    <p><b>Action: <em>harvest</em></b></p>\n                    <p>This is the bee that you just saw.</p>\n                    <img src=\"bees-with-color/bee-A2SM.svg\" width=\"200\">\n                    <p><span class=\"greenText\"><b>Successful harvest!</b></span><br>Your pay has increased by $0.02. Your bonus pay is now $1.02.</p>\n            ","response":0,"trial_type":"html-button-response","trial_index":124,"time_elapsed":256702,"internal_node_id":"0.0-4.0-1.58","subject_id":"5f5503435d41a489068ff50b","study_id":"60edd13110225f80f9f3709b","session_id":"6196d3ec78490d30e8288129","condition":"contingent","relevant_dimensions":["pattern","legs"],"bee_group":{"antennae":"X","wings":"X","pattern":"D","legs":"F"},"bonus":1.1800000000000006},{"rt":1850.8999999985099,"stimulus":"bees-with-color/bee-A1DM.svg","response":0,"trial_type":"image-button-response","trial_index":125,"time_elapsed":258554,"internal_node_id":"0.0-4.0-0.59","subject_id":"5f5503435d41a489068ff50b","study_id":"60edd13110225f80f9f3709b","session_id":"6196d3ec78490d30e8288129","condition":"contingent","relevant_dimensions":["pattern","legs"],"bee_group":{"antennae":"X","wings":"X","pattern":"D","legs":"F"},"action":"harvest","summary":"good-harvest","bonus":1.1800000000000006},{"rt":513.7000000029802,"stimulus":"\n                    <p><b>Action: <em>harvest</em></b></p>\n                    <p>This is the bee that you just saw.</p>\n                    <img src=\"bees-with-color/bee-A1DM.svg\" width=\"200\">\n                    <p><span class=\"greenText\"><b>Successful harvest!</b></span><br>Your pay has increased by $0.02. Your bonus pay is now $1.04.</p>\n            ","response":0,"trial_type":"html-button-response","trial_index":126,"time_elapsed":259069,"internal_node_id":"0.0-4.0-1.59","subject_id":"5f5503435d41a489068ff50b","study_id":"60edd13110225f80f9f3709b","session_id":"6196d3ec78490d30e8288129","condition":"contingent","relevant_dimensions":["pattern","legs"],"bee_group":{"antennae":"X","wings":"X","pattern":"D","legs":"F"},"bonus":1.1800000000000006},{"rt":1231.8999999985099,"stimulus":"bees-with-color/bee-A1SM.svg","response":0,"trial_type":"image-button-response","trial_index":127,"time_elapsed":260302,"internal_node_id":"0.0-4.0-0.60","subject_id":"5f5503435d41a489068ff50b","study_id":"60edd13110225f80f9f3709b","session_id":"6196d3ec78490d30e8288129","condition":"contingent","relevant_dimensions":["pattern","legs"],"bee_group":{"antennae":"X","wings":"X","pattern":"D","legs":"F"},"action":"harvest","summary":"good-harvest","bonus":1.1800000000000006},{"rt":546.7000000029802,"stimulus":"\n                    <p><b>Action: <em>harvest</em></b></p>\n                    <p>This is the bee that you just saw.</p>\n                    <img src=\"bees-with-color/bee-A1SM.svg\" width=\"200\">\n                    <p><span class=\"greenText\"><b>Successful harvest!</b></span><br>Your pay has increased by $0.02. Your bonus pay is now $1.06.</p>\n            ","response":0,"trial_type":"html-button-response","trial_index":128,"time_elapsed":260850,"internal_node_id":"0.0-4.0-1.60","subject_id":"5f5503435d41a489068ff50b","study_id":"60edd13110225f80f9f3709b","session_id":"6196d3ec78490d30e8288129","condition":"contingent","relevant_dimensions":["pattern","legs"],"bee_group":{"antennae":"X","wings":"X","pattern":"D","legs":"F"},"bonus":1.1800000000000006},{"rt":841,"stimulus":"bees-with-color/bee-B1DF.svg","response":1,"trial_type":"image-button-response","trial_index":129,"time_elapsed":261692,"internal_node_id":"0.0-4.0-0.61","subject_id":"5f5503435d41a489068ff50b","study_id":"60edd13110225f80f9f3709b","session_id":"6196d3ec78490d30e8288129","condition":"contingent","relevant_dimensions":["pattern","legs"],"bee_group":{"antennae":"X","wings":"X","pattern":"D","legs":"F"},"action":"avoid","summary":"good-avoid","bonus":1.1800000000000006},{"rt":382.69999999552965,"stimulus":"\n                    <p><b>Action: <em>avoid</em></b></p>\n                    <p>This is the bee that you just saw.</p>\n                    <img src=\"bees-with-color/bee-B1DF.svg\" width=\"200\">\n                    <p><br>Your bonus pay is unchanged, and remains at $1.06.</p>\n            ","response":0,"trial_type":"html-button-response","trial_index":130,"time_elapsed":262076,"internal_node_id":"0.0-4.0-1.61","subject_id":"5f5503435d41a489068ff50b","study_id":"60edd13110225f80f9f3709b","session_id":"6196d3ec78490d30e8288129","condition":"contingent","relevant_dimensions":["pattern","legs"],"bee_group":{"antennae":"X","wings":"X","pattern":"D","legs":"F"},"bonus":1.1800000000000006},{"rt":1036.7999999970198,"stimulus":"bees-with-color/bee-B2DF.svg","response":1,"trial_type":"image-button-response","trial_index":131,"time_elapsed":263115,"internal_node_id":"0.0-4.0-0.62","subject_id":"5f5503435d41a489068ff50b","study_id":"60edd13110225f80f9f3709b","session_id":"6196d3ec78490d30e8288129","condition":"contingent","relevant_dimensions":["pattern","legs"],"bee_group":{"antennae":"X","wings":"X","pattern":"D","legs":"F"},"action":"avoid","summary":"good-avoid","bonus":1.1800000000000006},{"rt":339.1000000014901,"stimulus":"\n                    <p><b>Action: <em>avoid</em></b></p>\n                    <p>This is the bee that you just saw.</p>\n                    <img src=\"bees-with-color/bee-B2DF.svg\" width=\"200\">\n                    <p><br>Your bonus pay is unchanged, and remains at $1.06.</p>\n            ","response":0,"trial_type":"html-button-response","trial_index":132,"time_elapsed":263455,"internal_node_id":"0.0-4.0-1.62","subject_id":"5f5503435d41a489068ff50b","study_id":"60edd13110225f80f9f3709b","session_id":"6196d3ec78490d30e8288129","condition":"contingent","relevant_dimensions":["pattern","legs"],"bee_group":{"antennae":"X","wings":"X","pattern":"D","legs":"F"},"bonus":1.1800000000000006},{"rt":791.8999999985099,"stimulus":"bees-with-color/bee-B1SM.svg","response":0,"trial_type":"image-button-response","trial_index":133,"time_elapsed":264248,"internal_node_id":"0.0-4.0-0.63","subject_id":"5f5503435d41a489068ff50b","study_id":"60edd13110225f80f9f3709b","session_id":"6196d3ec78490d30e8288129","condition":"contingent","relevant_dimensions":["pattern","legs"],"bee_group":{"antennae":"X","wings":"X","pattern":"D","legs":"F"},"action":"harvest","summary":"good-harvest","bonus":1.1800000000000006},{"rt":410.5,"stimulus":"\n                    <p><b>Action: <em>harvest</em></b></p>\n                    <p>This is the bee that you just saw.</p>\n                    <img src=\"bees-with-color/bee-B1SM.svg\" width=\"200\">\n                    <p><span class=\"greenText\"><b>Successful harvest!</b></span><br>Your pay has increased by $0.02. Your bonus pay is now $1.08.</p>\n            ","response":0,"trial_type":"html-button-response","trial_index":134,"time_elapsed":264660,"internal_node_id":"0.0-4.0-1.63","subject_id":"5f5503435d41a489068ff50b","study_id":"60edd13110225f80f9f3709b","session_id":"6196d3ec78490d30e8288129","condition":"contingent","relevant_dimensions":["pattern","legs"],"bee_group":{"antennae":"X","wings":"X","pattern":"D","legs":"F"},"bonus":1.1800000000000006},{"rt":4420.5,"stimulus":"You have completed the first part of this experiment.<br><br>You will now begin a shorter second part, in which you will receive no feedback.<br>The same rules regarding bonus pay apply.<br><br>Press any key to begin.","response":" ","trial_type":"html-keyboard-response","trial_index":135,"time_elapsed":269082,"internal_node_id":"0.0-5.0","subject_id":"5f5503435d41a489068ff50b","study_id":"60edd13110225f80f9f3709b","session_id":"6196d3ec78490d30e8288129","condition":"contingent","relevant_dimensions":["pattern","legs"],"bee_group":{"antennae":"X","wings":"X","pattern":"D","legs":"F"},"bonus":1.1800000000000006},{"rt":4028.89999999851,"stimulus":"bees-with-color/bee-A1SM.svg","response":0,"trial_type":"image-button-response","trial_index":136,"time_elapsed":273117,"internal_node_id":"0.0-6.0-0.0","subject_id":"5f5503435d41a489068ff50b","study_id":"60edd13110225f80f9f3709b","session_id":"6196d3ec78490d30e8288129","condition":"contingent","relevant_dimensions":["pattern","legs"],"bee_group":{"antennae":"X","wings":"X","pattern":"D","legs":"F"},"bonus":1.1800000000000006},{"rt":2017.8999999985099,"stimulus":"bees-with-color/bee-A1DM.svg","response":1,"trial_type":"image-button-response","trial_index":137,"time_elapsed":275137,"internal_node_id":"0.0-6.0-0.1","subject_id":"5f5503435d41a489068ff50b","study_id":"60edd13110225f80f9f3709b","session_id":"6196d3ec78490d30e8288129","condition":"contingent","relevant_dimensions":["pattern","legs"],"bee_group":{"antennae":"X","wings":"X","pattern":"D","legs":"F"},"bonus":1.1800000000000006},{"rt":776.5,"stimulus":"bees-with-color/bee-B2DM.svg","response":1,"trial_type":"image-button-response","trial_index":138,"time_elapsed":275916,"internal_node_id":"0.0-6.0-0.2","subject_id":"5f5503435d41a489068ff50b","study_id":"60edd13110225f80f9f3709b","session_id":"6196d3ec78490d30e8288129","condition":"contingent","relevant_dimensions":["pattern","legs"],"bee_group":{"antennae":"X","wings":"X","pattern":"D","legs":"F"},"bonus":1.1800000000000006},{"rt":829.6999999955297,"stimulus":"bees-with-color/bee-B2DF.svg","response":1,"trial_type":"image-button-response","trial_index":139,"time_elapsed":276747,"internal_node_id":"0.0-6.0-0.3","subject_id":"5f5503435d41a489068ff50b","study_id":"60edd13110225f80f9f3709b","session_id":"6196d3ec78490d30e8288129","condition":"contingent","relevant_dimensions":["pattern","legs"],"bee_group":{"antennae":"X","wings":"X","pattern":"D","legs":"F"},"bonus":1.1800000000000006},{"rt":927.1000000014901,"stimulus":"bees-with-color/bee-B2SM.svg","response":0,"trial_type":"image-button-response","trial_index":140,"time_elapsed":277676,"internal_node_id":"0.0-6.0-0.4","subject_id":"5f5503435d41a489068ff50b","study_id":"60edd13110225f80f9f3709b","session_id":"6196d3ec78490d30e8288129","condition":"contingent","relevant_dimensions":["pattern","legs"],"bee_group":{"antennae":"X","wings":"X","pattern":"D","legs":"F"},"bonus":1.1800000000000006},{"rt":1565.8999999985099,"stimulus":"bees-with-color/bee-B2SF.svg","response":1,"trial_type":"image-button-response","trial_index":141,"time_elapsed":279244,"internal_node_id":"0.0-6.0-0.5","subject_id":"5f5503435d41a489068ff50b","study_id":"60edd13110225f80f9f3709b","session_id":"6196d3ec78490d30e8288129","condition":"contingent","relevant_dimensions":["pattern","legs"],"bee_group":{"antennae":"X","wings":"X","pattern":"D","legs":"F"},"bonus":1.1800000000000006},{"rt":975.3999999985099,"stimulus":"bees-with-color/bee-A1DF.svg","response":1,"trial_type":"image-button-response","trial_index":142,"time_elapsed":280221,"internal_node_id":"0.0-6.0-0.6","subject_id":"5f5503435d41a489068ff50b","study_id":"60edd13110225f80f9f3709b","session_id":"6196d3ec78490d30e8288129","condition":"contingent","relevant_dimensions":["pattern","legs"],"bee_group":{"antennae":"X","wings":"X","pattern":"D","legs":"F"},"bonus":1.1800000000000006},{"rt":935.3999999985099,"stimulus":"bees-with-color/bee-B1SF.svg","response":0,"trial_type":"image-button-response","trial_index":143,"time_elapsed":281158,"internal_node_id":"0.0-6.0-0.7","subject_id":"5f5503435d41a489068ff50b","study_id":"60edd13110225f80f9f3709b","session_id":"6196d3ec78490d30e8288129","condition":"contingent","relevant_dimensions":["pattern","legs"],"bee_group":{"antennae":"X","wings":"X","pattern":"D","legs":"F"},"bonus":1.1800000000000006},{"rt":1031.7999999970198,"stimulus":"bees-with-color/bee-A1SF.svg","response":1,"trial_type":"image-button-response","trial_index":144,"time_elapsed":282192,"internal_node_id":"0.0-6.0-0.8","subject_id":"5f5503435d41a489068ff50b","study_id":"60edd13110225f80f9f3709b","session_id":"6196d3ec78490d30e8288129","condition":"contingent","relevant_dimensions":["pattern","legs"],"bee_group":{"antennae":"X","wings":"X","pattern":"D","legs":"F"},"bonus":1.1800000000000006},{"rt":1606.0999999940395,"stimulus":"bees-with-color/bee-A2SM.svg","response":1,"trial_type":"image-button-response","trial_index":145,"time_elapsed":283800,"internal_node_id":"0.0-6.0-0.9","subject_id":"5f5503435d41a489068ff50b","study_id":"60edd13110225f80f9f3709b","session_id":"6196d3ec78490d30e8288129","condition":"contingent","relevant_dimensions":["pattern","legs"],"bee_group":{"antennae":"X","wings":"X","pattern":"D","legs":"F"},"bonus":1.1800000000000006},{"rt":786.1999999955297,"stimulus":"bees-with-color/bee-A2DF.svg","response":1,"trial_type":"image-button-response","trial_index":146,"time_elapsed":284588,"internal_node_id":"0.0-6.0-0.10","subject_id":"5f5503435d41a489068ff50b","study_id":"60edd13110225f80f9f3709b","session_id":"6196d3ec78490d30e8288129","condition":"contingent","relevant_dimensions":["pattern","legs"],"bee_group":{"antennae":"X","wings":"X","pattern":"D","legs":"F"},"bonus":1.1800000000000006},{"rt":925.0999999940395,"stimulus":"bees-with-color/bee-B1DF.svg","response":1,"trial_type":"image-button-response","trial_index":147,"time_elapsed":285515,"internal_node_id":"0.0-6.0-0.11","subject_id":"5f5503435d41a489068ff50b","study_id":"60edd13110225f80f9f3709b","session_id":"6196d3ec78490d30e8288129","condition":"contingent","relevant_dimensions":["pattern","legs"],"bee_group":{"antennae":"X","wings":"X","pattern":"D","legs":"F"},"bonus":1.1800000000000006},{"rt":1510.6000000014901,"stimulus":"bees-with-color/bee-A2SF.svg","response":1,"trial_type":"image-button-response","trial_index":148,"time_elapsed":287027,"internal_node_id":"0.0-6.0-0.12","subject_id":"5f5503435d41a489068ff50b","study_id":"60edd13110225f80f9f3709b","session_id":"6196d3ec78490d30e8288129","condition":"contingent","relevant_dimensions":["pattern","legs"],"bee_group":{"antennae":"X","wings":"X","pattern":"D","legs":"F"},"bonus":1.1800000000000006},{"rt":852.3999999985099,"stimulus":"bees-with-color/bee-B1SM.svg","response":1,"trial_type":"image-button-response","trial_index":149,"time_elapsed":287881,"internal_node_id":"0.0-6.0-0.13","subject_id":"5f5503435d41a489068ff50b","study_id":"60edd13110225f80f9f3709b","session_id":"6196d3ec78490d30e8288129","condition":"contingent","relevant_dimensions":["pattern","legs"],"bee_group":{"antennae":"X","wings":"X","pattern":"D","legs":"F"},"bonus":1.1800000000000006},{"rt":740.1999999955297,"stimulus":"bees-with-color/bee-A2DM.svg","response":1,"trial_type":"image-button-response","trial_index":150,"time_elapsed":288624,"internal_node_id":"0.0-6.0-0.14","subject_id":"5f5503435d41a489068ff50b","study_id":"60edd13110225f80f9f3709b","session_id":"6196d3ec78490d30e8288129","condition":"contingent","relevant_dimensions":["pattern","legs"],"bee_group":{"antennae":"X","wings":"X","pattern":"D","legs":"F"},"bonus":1.1800000000000006},{"rt":959.1999999955297,"stimulus":"bees-with-color/bee-B1DM.svg","response":1,"trial_type":"image-button-response","trial_index":151,"time_elapsed":289584,"internal_node_id":"0.0-6.0-0.15","subject_id":"5f5503435d41a489068ff50b","study_id":"60edd13110225f80f9f3709b","session_id":"6196d3ec78490d30e8288129","condition":"contingent","relevant_dimensions":["pattern","legs"],"bee_group":{"antennae":"X","wings":"X","pattern":"D","legs":"F"},"bonus":1.1800000000000006},{"rt":592.3999999985099,"stimulus":"bees-with-color/bee-B1DF.svg","response":1,"trial_type":"image-button-response","trial_index":152,"time_elapsed":290178,"internal_node_id":"0.0-6.0-0.16","subject_id":"5f5503435d41a489068ff50b","study_id":"60edd13110225f80f9f3709b","session_id":"6196d3ec78490d30e8288129","condition":"contingent","relevant_dimensions":["pattern","legs"],"bee_group":{"antennae":"X","wings":"X","pattern":"D","legs":"F"},"bonus":1.1800000000000006},{"rt":1839.2999999970198,"stimulus":"bees-with-color/bee-A2DM.svg","response":1,"trial_type":"image-button-response","trial_index":153,"time_elapsed":292020,"internal_node_id":"0.0-6.0-0.17","subject_id":"5f5503435d41a489068ff50b","study_id":"60edd13110225f80f9f3709b","session_id":"6196d3ec78490d30e8288129","condition":"contingent","relevant_dimensions":["pattern","legs"],"bee_group":{"antennae":"X","wings":"X","pattern":"D","legs":"F"},"bonus":1.1800000000000006},{"rt":942.6000000014901,"stimulus":"bees-with-color/bee-A2SF.svg","response":0,"trial_type":"image-button-response","trial_index":154,"time_elapsed":292964,"internal_node_id":"0.0-6.0-0.18","subject_id":"5f5503435d41a489068ff50b","study_id":"60edd13110225f80f9f3709b","session_id":"6196d3ec78490d30e8288129","condition":"contingent","relevant_dimensions":["pattern","legs"],"bee_group":{"antennae":"X","wings":"X","pattern":"D","legs":"F"},"bonus":1.1800000000000006},{"rt":989.7999999970198,"stimulus":"bees-with-color/bee-B1DM.svg","response":1,"trial_type":"image-button-response","trial_index":155,"time_elapsed":293956,"internal_node_id":"0.0-6.0-0.19","subject_id":"5f5503435d41a489068ff50b","study_id":"60edd13110225f80f9f3709b","session_id":"6196d3ec78490d30e8288129","condition":"contingent","relevant_dimensions":["pattern","legs"],"bee_group":{"antennae":"X","wings":"X","pattern":"D","legs":"F"},"bonus":1.1800000000000006},{"rt":1045.8000000044703,"stimulus":"bees-with-color/bee-B1SF.svg","response":1,"trial_type":"image-button-response","trial_index":156,"time_elapsed":295003,"internal_node_id":"0.0-6.0-0.20","subject_id":"5f5503435d41a489068ff50b","study_id":"60edd13110225f80f9f3709b","session_id":"6196d3ec78490d30e8288129","condition":"contingent","relevant_dimensions":["pattern","legs"],"bee_group":{"antennae":"X","wings":"X","pattern":"D","legs":"F"},"bonus":1.1800000000000006},{"rt":1173.3999999985099,"stimulus":"bees-with-color/bee-A1SM.svg","response":0,"trial_type":"image-button-response","trial_index":157,"time_elapsed":296178,"internal_node_id":"0.0-6.0-0.21","subject_id":"5f5503435d41a489068ff50b","study_id":"60edd13110225f80f9f3709b","session_id":"6196d3ec78490d30e8288129","condition":"contingent","relevant_dimensions":["pattern","legs"],"bee_group":{"antennae":"X","wings":"X","pattern":"D","legs":"F"},"bonus":1.1800000000000006},{"rt":615.5,"stimulus":"bees-with-color/bee-A2DF.svg","response":1,"trial_type":"image-button-response","trial_index":158,"time_elapsed":296796,"internal_node_id":"0.0-6.0-0.22","subject_id":"5f5503435d41a489068ff50b","study_id":"60edd13110225f80f9f3709b","session_id":"6196d3ec78490d30e8288129","condition":"contingent","relevant_dimensions":["pattern","legs"],"bee_group":{"antennae":"X","wings":"X","pattern":"D","legs":"F"},"bonus":1.1800000000000006},{"rt":663.3999999985099,"stimulus":"bees-with-color/bee-A1SF.svg","response":1,"trial_type":"image-button-response","trial_index":159,"time_elapsed":297460,"internal_node_id":"0.0-6.0-0.23","subject_id":"5f5503435d41a489068ff50b","study_id":"60edd13110225f80f9f3709b","session_id":"6196d3ec78490d30e8288129","condition":"contingent","relevant_dimensions":["pattern","legs"],"bee_group":{"antennae":"X","wings":"X","pattern":"D","legs":"F"},"bonus":1.1800000000000006},{"rt":921.2999999970198,"stimulus":"bees-with-color/bee-B2SF.svg","response":1,"trial_type":"image-button-response","trial_index":160,"time_elapsed":298383,"internal_node_id":"0.0-6.0-0.24","subject_id":"5f5503435d41a489068ff50b","study_id":"60edd13110225f80f9f3709b","session_id":"6196d3ec78490d30e8288129","condition":"contingent","relevant_dimensions":["pattern","legs"],"bee_group":{"antennae":"X","wings":"X","pattern":"D","legs":"F"},"bonus":1.1800000000000006},{"rt":611.6000000014901,"stimulus":"bees-with-color/bee-B2DF.svg","response":1,"trial_type":"image-button-response","trial_index":161,"time_elapsed":298996,"internal_node_id":"0.0-6.0-0.25","subject_id":"5f5503435d41a489068ff50b","study_id":"60edd13110225f80f9f3709b","session_id":"6196d3ec78490d30e8288129","condition":"contingent","relevant_dimensions":["pattern","legs"],"bee_group":{"antennae":"X","wings":"X","pattern":"D","legs":"F"},"bonus":1.1800000000000006},{"rt":2211.39999999851,"stimulus":"bees-with-color/bee-A1DM.svg","response":1,"trial_type":"image-button-response","trial_index":162,"time_elapsed":301209,"internal_node_id":"0.0-6.0-0.26","subject_id":"5f5503435d41a489068ff50b","study_id":"60edd13110225f80f9f3709b","session_id":"6196d3ec78490d30e8288129","condition":"contingent","relevant_dimensions":["pattern","legs"],"bee_group":{"antennae":"X","wings":"X","pattern":"D","legs":"F"},"bonus":1.1800000000000006},{"rt":630.3999999985099,"stimulus":"bees-with-color/bee-A1DF.svg","response":1,"trial_type":"image-button-response","trial_index":163,"time_elapsed":301841,"internal_node_id":"0.0-6.0-0.27","subject_id":"5f5503435d41a489068ff50b","study_id":"60edd13110225f80f9f3709b","session_id":"6196d3ec78490d30e8288129","condition":"contingent","relevant_dimensions":["pattern","legs"],"bee_group":{"antennae":"X","wings":"X","pattern":"D","legs":"F"},"bonus":1.1800000000000006},{"rt":414.80000000447035,"stimulus":"bees-with-color/bee-B1SM.svg","response":1,"trial_type":"image-button-response","trial_index":164,"time_elapsed":302257,"internal_node_id":"0.0-6.0-0.28","subject_id":"5f5503435d41a489068ff50b","study_id":"60edd13110225f80f9f3709b","session_id":"