[{"success":true,"trial_type":"fullscreen","trial_index":0,"time_elapsed":58742,"internal_node_id":"0.0-0.0","subject_id":"5e67b6874b800e053bb8caf8","study_id":"6197b3f67c2b5cd3b6d9596a","session_id":"619be78a9905952038ee9023","condition":"full-information","relevant_dimensions":["antennae","wings"],"bee_group":{"antennae":"A","wings":"2","pattern":"X","legs":"X"},"bonus":0.8600000000000009},{"success":true,"timeout":false,"failed_images":[],"failed_audio":[],"failed_video":[],"trial_type":"preload","trial_index":1,"time_elapsed":60311,"internal_node_id":"0.0-1.0","subject_id":"5e67b6874b800e053bb8caf8","study_id":"6197b3f67c2b5cd3b6d9596a","session_id":"619be78a9905952038ee9023","condition":"full-information","relevant_dimensions":["antennae","wings"],"bee_group":{"antennae":"A","wings":"2","pattern":"X","legs":"X"},"bonus":0.8600000000000009},{"rt":1406.2000000476837,"stimulus":"Welcome! Press any key to begin.","response":" ","trial_type":"html-keyboard-response","trial_index":2,"time_elapsed":61718,"internal_node_id":"0.0-2.0","subject_id":"5e67b6874b800e053bb8caf8","study_id":"6197b3f67c2b5cd3b6d9596a","session_id":"619be78a9905952038ee9023","condition":"full-information","relevant_dimensions":["antennae","wings"],"bee_group":{"antennae":"A","wings":"2","pattern":"X","legs":"X"},"bonus":0.8600000000000009},{"view_history":[{"page_index":0,"viewing_time":3367.800000011921},{"page_index":1,"viewing_time":10680.199999988079},{"page_index":2,"viewing_time":10710.199999988079},{"page_index":3,"viewing_time":17520.30000001192},{"page_index":4,"viewing_time":5865.099999964237},{"page_index":5,"viewing_time":6105.200000047684},{"page_index":6,"viewing_time":12630.199999988079},{"page_index":7,"viewing_time":5535.199999988079},{"page_index":8,"viewing_time":4950},{"page_index":9,"viewing_time":3982.600000023842},{"page_index":10,"viewing_time":4192.799999952316},{"page_index":11,"viewing_time":9240.100000023842},{"page_index":12,"viewing_time":3967.5},{"page_index":13,"viewing_time":952.5},{"page_index":14,"viewing_time":1154.8999999761581}],"rt":100855.09999996424,"trial_type":"instructions","trial_index":3,"time_elapsed":162574,"internal_node_id":"0.0-3.0-0.0","subject_id":"5e67b6874b800e053bb8caf8","study_id":"6197b3f67c2b5cd3b6d9596a","session_id":"619be78a9905952038ee9023","condition":"full-information","relevant_dimensions":["antennae","wings"],"bee_group":{"antennae":"A","wings":"2","pattern":"X","legs":"X"},"bonus":0.8600000000000009},{"rt":10022.300000011921,"response":{"Q0":["Two or six legs","Stripes or spots on body","Single or double wings","Antennae or no antennae"]},"question_order":[0],"trial_type":"survey-multi-select","trial_index":4,"time_elapsed":172603,"internal_node_id":"0.0-3.0-1.0","subject_id":"5e67b6874b800e053bb8caf8","study_id":"6197b3f67c2b5cd3b6d9596a","session_id":"619be78a9905952038ee9023","condition":"full-information","relevant_dimensions":["antennae","wings"],"bee_group":{"antennae":"A","wings":"2","pattern":"X","legs":"X"},"correct":true,"bonus":0.8600000000000009},{"rt":35929.5,"response":{"Q1":"No.","Q2":"Based on the four features of the bee.","Q3":"You learn if it was friendly or dangerous, but do not alter your bonus."},"question_order":[0,1,2],"trial_type":"survey-multi-choice","trial_index":5,"time_elapsed":208536,"internal_node_id":"0.0-3.0-2.0","subject_id":"5e67b6874b800e053bb8caf8","study_id":"6197b3f67c2b5cd3b6d9596a","session_id":"619be78a9905952038ee9023","condition":"full-information","relevant_dimensions":["antennae","wings"],"bee_group":{"antennae":"A","wings":"2","pattern":"X","legs":"X"},"correct":true,"bonus":0.8600000000000009},{"rt":2134.699999988079,"stimulus":"<p>Congrats, you got everything right<br>When you're ready, click the button below to continue to the experiment.</p>","response":0,"trial_type":"html-button-response","trial_index":6,"time_elapsed":210674,"internal_node_id":"0.0-3.0-3.0","subject_id":"5e67b6874b800e053bb8caf8","study_id":"6197b3f67c2b5cd3b6d9596a","session_id":"619be78a9905952038ee9023","condition":"full-information","relevant_dimensions":["antennae","wings"],"bee_group":{"antennae":"A","wings":"2","pattern":"X","legs":"X"},"bonus":0.8600000000000009},{"rt":4203,"stimulus":"bees-with-color/bee-B1SM.svg","response":1,"trial_type":"image-button-response","trial_index":7,"time_elapsed":214881,"internal_node_id":"0.0-4.0-0.0","subject_id":"5e67b6874b800e053bb8caf8","study_id":"6197b3f67c2b5cd3b6d9596a","session_id":"619be78a9905952038ee9023","condition":"full-information","relevant_dimensions":["antennae","wings"],"bee_group":{"antennae":"A","wings":"2","pattern":"X","legs":"X"},"action":"avoid","summary":"bad-avoid","bonus":0.8600000000000009},{"rt":3970.5,"stimulus":"\n                    <p><b>Action: <em>avoid</em></b></p>\n                    <p>This is the bee that you just saw.</p>\n                    <img src=\"bees-with-color/bee-B1SM.svg\" width=\"200\">\n                    <p><span class=\"redText\">Bad choice,</span> the bee was friendly.<br>Your bonus pay is unchanged, and remains at $0.54.</p>\n            ","response":0,"trial_type":"html-button-response","trial_index":8,"time_elapsed":218856,"internal_node_id":"0.0-4.0-1.0","subject_id":"5e67b6874b800e053bb8caf8","study_id":"6197b3f67c2b5cd3b6d9596a","session_id":"619be78a9905952038ee9023","condition":"full-information","relevant_dimensions":["antennae","wings"],"bee_group":{"antennae":"A","wings":"2","pattern":"X","legs":"X"},"bonus":0.8600000000000009},{"rt":2141.199999988079,"stimulus":"bees-with-color/bee-A1DF.svg","response":1,"trial_type":"image-button-response","trial_index":9,"time_elapsed":221001,"internal_node_id":"0.0-4.0-0.1","subject_id":"5e67b6874b800e053bb8caf8","study_id":"6197b3f67c2b5cd3b6d9596a","session_id":"619be78a9905952038ee9023","condition":"full-information","relevant_dimensions":["antennae","wings"],"bee_group":{"antennae":"A","wings":"2","pattern":"X","legs":"X"},"action":"avoid","summary":"bad-avoid","bonus":0.8600000000000009},{"rt":3559.199999988079,"stimulus":"\n                    <p><b>Action: <em>avoid</em></b></p>\n                    <p>This is the bee that you just saw.</p>\n                    <img src=\"bees-with-color/bee-A1DF.svg\" width=\"200\">\n                    <p><span class=\"redText\">Bad choice,</span> the bee was friendly.<br>Your bonus pay is unchanged, and remains at $0.54.</p>\n            ","response":0,"trial_type":"html-button-response","trial_index":10,"time_elapsed":224564,"internal_node_id":"0.0-4.0-1.1","subject_id":"5e67b6874b800e053bb8caf8","study_id":"6197b3f67c2b5cd3b6d9596a","session_id":"619be78a9905952038ee9023","condition":"full-information","relevant_dimensions":["antennae","wings"],"bee_group":{"antennae":"A","wings":"2","pattern":"X","legs":"X"},"bonus":0.8600000000000009},{"rt":1826.699999988079,"stimulus":"bees-with-color/bee-A2SM.svg","response":1,"trial_type":"image-button-response","trial_index":11,"time_elapsed":226394,"internal_node_id":"0.0-4.0-0.2","subject_id":"5e67b6874b800e053bb8caf8","study_id":"6197b3f67c2b5cd3b6d9596a","session_id":"619be78a9905952038ee9023","condition":"full-information","relevant_dimensions":["antennae","wings"],"bee_group":{"antennae":"A","wings":"2","pattern":"X","legs":"X"},"action":"avoid","summary":"good-avoid","bonus":0.8600000000000009},{"rt":3777.600000023842,"stimulus":"\n                    <p><b>Action: <em>avoid</em></b></p>\n                    <p>This is the bee that you just saw.</p>\n                    <img src=\"bees-with-color/bee-A2SM.svg\" width=\"200\">\n                    <p><span class=\"greenText\">Good choice!</span>  This bee would have stung you.<br>Your bonus pay is unchanged, and remains at $0.54.</p>\n            ","response":0,"trial_type":"html-button-response","trial_index":12,"time_elapsed":230174,"internal_node_id":"0.0-4.0-1.2","subject_id":"5e67b6874b800e053bb8caf8","study_id":"6197b3f67c2b5cd3b6d9596a","session_id":"619be78a9905952038ee9023","condition":"full-information","relevant_dimensions":["antennae","wings"],"bee_group":{"antennae":"A","wings":"2","pattern":"X","legs":"X"},"bonus":0.8600000000000009},{"rt":1444.800000011921,"stimulus":"bees-with-color/bee-A2SF.svg","response":1,"trial_type":"image-button-response","trial_index":13,"time_elapsed":231621,"internal_node_id":"0.0-4.0-0.3","subject_id":"5e67b6874b800e053bb8caf8","study_id":"6197b3f67c2b5cd3b6d9596a","session_id":"619be78a9905952038ee9023","condition":"full-information","relevant_dimensions":["antennae","wings"],"bee_group":{"antennae":"A","wings":"2","pattern":"X","legs":"X"},"action":"avoid","summary":"good-avoid","bonus":0.8600000000000009},{"rt":2382.399999976158,"stimulus":"\n                    <p><b>Action: <em>avoid</em></b></p>\n                    <p>This is the bee that you just saw.</p>\n                    <img src=\"bees-with-color/bee-A2SF.svg\" width=\"200\">\n                    <p><span class=\"greenText\">Good choice!</span>  This bee would have stung you.<br>Your bonus pay is unchanged, and remains at $0.54.</p>\n            ","response":0,"trial_type":"html-button-response","trial_index":14,"time_elapsed":234006,"internal_node_id":"0.0-4.0-1.3","subject_id":"5e67b6874b800e053bb8caf8","study_id":"6197b3f67c2b5cd3b6d9596a","session_id":"619be78a9905952038ee9023","condition":"full-information","relevant_dimensions":["antennae","wings"],"bee_group":{"antennae":"A","wings":"2","pattern":"X","legs":"X"},"bonus":0.8600000000000009},{"rt":1774.4000000357628,"stimulus":"bees-with-color/bee-B2SM.svg","response":1,"trial_type":"image-button-response","trial_index":15,"time_elapsed":235784,"internal_node_id":"0.0-4.0-0.4","subject_id":"5e67b6874b800e053bb8caf8","study_id":"6197b3f67c2b5cd3b6d9596a","session_id":"619be78a9905952038ee9023","condition":"full-information","relevant_dimensions":["antennae","wings"],"bee_group":{"antennae":"A","wings":"2","pattern":"X","legs":"X"},"action":"avoid","summary":"bad-avoid","bonus":0.8600000000000009},{"rt":3553.100000023842,"stimulus":"\n                    <p><b>Action: <em>avoid</em></b></p>\n                    <p>This is the bee that you just saw.</p>\n                    <img src=\"bees-with-color/bee-B2SM.svg\" width=\"200\">\n                    <p><span class=\"redText\">Bad choice,</span> the bee was friendly.<br>Your bonus pay is unchanged, and remains at $0.54.</p>\n            ","response":0,"trial_type":"html-button-response","trial_index":16,"time_elapsed":239340,"internal_node_id":"0.0-4.0-1.4","subject_id":"5e67b6874b800e053bb8caf8","study_id":"6197b3f67c2b5cd3b6d9596a","session_id":"619be78a9905952038ee9023","condition":"full-information","relevant_dimensions":["antennae","wings"],"bee_group":{"antennae":"A","wings":"2","pattern":"X","legs":"X"},"bonus":0.8600000000000009},{"rt":1474.199999988079,"stimulus":"bees-with-color/bee-B2DF.svg","response":1,"trial_type":"image-button-response","trial_index":17,"time_elapsed":240816,"internal_node_id":"0.0-4.0-0.5","subject_id":"5e67b6874b800e053bb8caf8","study_id":"6197b3f67c2b5cd3b6d9596a","session_id":"619be78a9905952038ee9023","condition":"full-information","relevant_dimensions":["antennae","wings"],"bee_group":{"antennae":"A","wings":"2","pattern":"X","legs":"X"},"action":"avoid","summary":"bad-avoid","bonus":0.8600000000000009},{"rt":5660.700000047684,"stimulus":"\n                    <p><b>Action: <em>avoid</em></b></p>\n                    <p>This is the bee that you just saw.</p>\n                    <img src=\"bees-with-color/bee-B2DF.svg\" width=\"200\">\n                    <p><span class=\"redText\">Bad choice,</span> the bee was friendly.<br>Your bonus pay is unchanged, and remains at $0.54.</p>\n            ","response":0,"trial_type":"html-button-response","trial_index":18,"time_elapsed":246479,"internal_node_id":"0.0-4.0-1.5","subject_id":"5e67b6874b800e053bb8caf8","study_id":"6197b3f67c2b5cd3b6d9596a","session_id":"619be78a9905952038ee9023","condition":"full-information","relevant_dimensions":["antennae","wings"],"bee_group":{"antennae":"A","wings":"2","pattern":"X","legs":"X"},"bonus":0.8600000000000009},{"rt":1339.199999988079,"stimulus":"bees-with-color/bee-B2DM.svg","response":0,"trial_type":"image-button-response","trial_index":19,"time_elapsed":247822,"internal_node_id":"0.0-4.0-0.6","subject_id":"5e67b6874b800e053bb8caf8","study_id":"6197b3f67c2b5cd3b6d9596a","session_id":"619be78a9905952038ee9023","condition":"full-information","relevant_dimensions":["antennae","wings"],"bee_group":{"antennae":"A","wings":"2","pattern":"X","legs":"X"},"action":"harvest","summary":"good-harvest","bonus":0.8600000000000009},{"rt":3313.100000023842,"stimulus":"\n                    <p><b>Action: <em>harvest</em></b></p>\n                    <p>This is the bee that you just saw.</p>\n                    <img src=\"bees-with-color/bee-B2DM.svg\" width=\"200\">\n                    <p><span class=\"greenText\"><b>Successful harvest!</b></span><br>Your pay has increased by $0.02. Your bonus pay is now $0.56.</p>\n            ","response":0,"trial_type":"html-button-response","trial_index":20,"time_elapsed":251137,"internal_node_id":"0.0-4.0-1.6","subject_id":"5e67b6874b800e053bb8caf8","study_id":"6197b3f67c2b5cd3b6d9596a","session_id":"619be78a9905952038ee9023","condition":"full-information","relevant_dimensions":["antennae","wings"],"bee_group":{"antennae":"A","wings":"2","pattern":"X","legs":"X"},"bonus":0.8600000000000009},{"rt":1654.3999999761581,"stimulus":"bees-with-color/bee-B1DM.svg","response":0,"trial_type":"image-button-response","trial_index":21,"time_elapsed":252794,"internal_node_id":"0.0-4.0-0.7","subject_id":"5e67b6874b800e053bb8caf8","study_id":"6197b3f67c2b5cd3b6d9596a","session_id":"619be78a9905952038ee9023","condition":"full-information","relevant_dimensions":["antennae","wings"],"bee_group":{"antennae":"A","wings":"2","pattern":"X","legs":"X"},"action":"harvest","summary":"good-harvest","bonus":0.8600000000000009},{"rt":2233.199999988079,"stimulus":"\n                    <p><b>Action: <em>harvest</em></b></p>\n                    <p>This is the bee that you just saw.</p>\n                    <img src=\"bees-with-color/bee-B1DM.svg\" width=\"200\">\n                    <p><span class=\"greenText\"><b>Successful harvest!</b></span><br>Your pay has increased by $0.02. Your bonus pay is now $0.58.</p>\n            ","response":0,"trial_type":"html-button-response","trial_index":22,"time_elapsed":255029,"internal_node_id":"0.0-4.0-1.7","subject_id":"5e67b6874b800e053bb8caf8","study_id":"6197b3f67c2b5cd3b6d9596a","session_id":"619be78a9905952038ee9023","condition":"full-information","relevant_dimensions":["antennae","wings"],"bee_group":{"antennae":"A","wings":"2","pattern":"X","legs":"X"},"bonus":0.8600000000000009},{"rt":2096.800000011921,"stimulus":"bees-with-color/bee-A1DM.svg","response":0,"trial_type":"image-button-response","trial_index":23,"time_elapsed":257129,"internal_node_id":"0.0-4.0-0.8","subject_id":"5e67b6874b800e053bb8caf8","study_id":"6197b3f67c2b5cd3b6d9596a","session_id":"619be78a9905952038ee9023","condition":"full-information","relevant_dimensions":["antennae","wings"],"bee_group":{"antennae":"A","wings":"2","pattern":"X","legs":"X"},"action":"harvest","summary":"good-harvest","bonus":0.8600000000000009},{"rt":2008,"stimulus":"\n                    <p><b>Action: <em>harvest</em></b></p>\n                    <p>This is the bee that you just saw.</p>\n                    <img src=\"bees-with-color/bee-A1DM.svg\" width=\"200\">\n                    <p><span class=\"greenText\"><b>Successful harvest!</b></span><br>Your pay has increased by $0.02. Your bonus pay is now $0.60.</p>\n            ","response":0,"trial_type":"html-button-response","trial_index":24,"time_elapsed":259139,"internal_node_id":"0.0-4.0-1.8","subject_id":"5e67b6874b800e053bb8caf8","study_id":"6197b3f67c2b5cd3b6d9596a","session_id":"619be78a9905952038ee9023","condition":"full-information","relevant_dimensions":["antennae","wings"],"bee_group":{"antennae":"A","wings":"2","pattern":"X","legs":"X"},"bonus":0.8600000000000009},{"rt":1249.8999999761581,"stimulus":"bees-with-color/bee-B1SF.svg","response":1,"trial_type":"image-button-response","trial_index":25,"time_elapsed":260392,"internal_node_id":"0.0-4.0-0.9","subject_id":"5e67b6874b800e053bb8caf8","study_id":"6197b3f67c2b5cd3b6d9596a","session_id":"619be78a9905952038ee9023","condition":"full-information","relevant_dimensions":["antennae","wings"],"bee_group":{"antennae":"A","wings":"2","pattern":"X","legs":"X"},"action":"avoid","summary":"bad-avoid","bonus":0.8600000000000009},{"rt":4205.199999988079,"stimulus":"\n                    <p><b>Action: <em>avoid</em></b></p>\n                    <p>This is the bee that you just saw.</p>\n                    <img src=\"bees-with-color/bee-B1SF.svg\" width=\"200\">\n                    <p><span class=\"redText\">Bad choice,</span> the bee was friendly.<br>Your bonus pay is unchanged, and remains at $0.60.</p>\n            ","response":0,"trial_type":"html-button-response","trial_index":26,"time_elapsed":264599,"internal_node_id":"0.0-4.0-1.9","subject_id":"5e67b6874b800e053bb8caf8","study_id":"6197b3f67c2b5cd3b6d9596a","session_id":"619be78a9905952038ee9023","condition":"full-information","relevant_dimensions":["antennae","wings"],"bee_group":{"antennae":"A","wings":"2","pattern":"X","legs":"X"},"bonus":0.8600000000000009},{"rt":2375.300000011921,"stimulus":"bees-with-color/bee-A2DM.svg","response":0,"trial_type":"image-button-response","trial_index":27,"time_elapsed":266977,"internal_node_id":"0.0-4.0-0.10","subject_id":"5e67b6874b800e053bb8caf8","study_id":"6197b3f67c2b5cd3b6d9596a","session_id":"619be78a9905952038ee9023","condition":"full-information","relevant_dimensions":["antennae","wings"],"bee_group":{"antennae":"A","wings":"2","pattern":"X","legs":"X"},"action":"harvest","summary":"bad-harvest","bonus":0.8600000000000009},{"rt":3027.899999976158,"stimulus":"\n                    <p><b>Action: <em>harvest</em></b></p>\n                    <p>This is the bee that you just saw.</p>\n                    <img src=\"bees-with-color/bee-A2DM.svg\" width=\"200\">\n                    <p><span class=\"redText\">Bad choice, the bee was angry.</span><br><b>You have been stung!</b><br>Your pay has been decreased by $0.10. Your bonus pay is now $0.50.</p>\n            ","response":0,"trial_type":"html-button-response","trial_index":28,"time_elapsed":270007,"internal_node_id":"0.0-4.0-1.10","subject_id":"5e67b6874b800e053bb8caf8","study_id":"6197b3f67c2b5cd3b6d9596a","session_id":"619be78a9905952038ee9023","condition":"full-information","relevant_dimensions":["antennae","wings"],"bee_group":{"antennae":"A","wings":"2","pattern":"X","legs":"X"},"bonus":0.8600000000000009},{"rt":1497.5,"stimulus":"bees-with-color/bee-A1SF.svg","response":0,"trial_type":"image-button-response","trial_index":29,"time_elapsed":271507,"internal_node_id":"0.0-4.0-0.11","subject_id":"5e67b6874b800e053bb8caf8","study_id":"6197b3f67c2b5cd3b6d9596a","session_id":"619be78a9905952038ee9023","condition":"full-information","relevant_dimensions":["antennae","wings"],"bee_group":{"antennae":"A","wings":"2","pattern":"X","legs":"X"},"action":"harvest","summary":"good-harvest","bonus":0.8600000000000009},{"rt":9050.699999988079,"stimulus":"\n                    <p><b>Action: <em>harvest</em></b></p>\n                    <p>This is the bee that you just saw.</p>\n                    <img src=\"bees-with-color/bee-A1SF.svg\" width=\"200\">\n                    <p><span class=\"greenText\"><b>Successful harvest!</b></span><br>Your pay has increased by $0.02. Your bonus pay is now $0.52.</p>\n            ","response":0,"trial_type":"html-button-response","trial_index":30,"time_elapsed":280560,"internal_node_id":"0.0-4.0-1.11","subject_id":"5e67b6874b800e053bb8caf8","study_id":"6197b3f67c2b5cd3b6d9596a","session_id":"619be78a9905952038ee9023","condition":"full-information","relevant_dimensions":["antennae","wings"],"bee_group":{"antennae":"A","wings":"2","pattern":"X","legs":"X"},"bonus":0.8600000000000009},{"rt":2284.800000011921,"stimulus":"bees-with-color/bee-A2DF.svg","response":1,"trial_type":"image-button-response","trial_index":31,"time_elapsed":282847,"internal_node_id":"0.0-4.0-0.12","subject_id":"5e67b6874b800e053bb8caf8","study_id":"6197b3f67c2b5cd3b6d9596a","session_id":"619be78a9905952038ee9023","condition":"full-information","relevant_dimensions":["antennae","wings"],"bee_group":{"antennae":"A","wings":"2","pattern":"X","legs":"X"},"action":"avoid","summary":"good-avoid","bonus":0.8600000000000009},{"rt":3980.800000011921,"stimulus":"\n                    <p><b>Action: <em>avoid</em></b></p>\n                    <p>This is the bee that you just saw.</p>\n                    <img src=\"bees-with-color/bee-A2DF.svg\" width=\"200\">\n                    <p><span class=\"greenText\">Good choice!</span>  This bee would have stung you.<br>Your bonus pay is unchanged, and remains at $0.52.</p>\n            ","response":0,"trial_type":"html-button-response","trial_index":32,"time_elapsed":286830,"internal_node_id":"0.0-4.0-1.12","subject_id":"5e67b6874b800e053bb8caf8","study_id":"6197b3f67c2b5cd3b6d9596a","session_id":"619be78a9905952038ee9023","condition":"full-information","relevant_dimensions":["antennae","wings"],"bee_group":{"antennae":"A","wings":"2","pattern":"X","legs":"X"},"bonus":0.8600000000000009},{"rt":1429.5,"stimulus":"bees-with-color/bee-A1SM.svg","response":0,"trial_type":"image-button-response","trial_index":33,"time_elapsed":288262,"internal_node_id":"0.0-4.0-0.13","subject_id":"5e67b6874b800e053bb8caf8","study_id":"6197b3f67c2b5cd3b6d9596a","session_id":"619be78a9905952038ee9023","condition":"full-information","relevant_dimensions":["antennae","wings"],"bee_group":{"antennae":"A","wings":"2","pattern":"X","legs":"X"},"action":"harvest","summary":"good-harvest","bonus":0.8600000000000009},{"rt":2757.7000000476837,"stimulus":"\n                    <p><b>Action: <em>harvest</em></b></p>\n                    <p>This is the bee that you just saw.</p>\n                    <img src=\"bees-with-color/bee-A1SM.svg\" width=\"200\">\n                    <p><span class=\"greenText\"><b>Successful harvest!</b></span><br>Your pay has increased by $0.02. Your bonus pay is now $0.54.</p>\n            ","response":0,"trial_type":"html-button-response","trial_index":34,"time_elapsed":291023,"internal_node_id":"0.0-4.0-1.13","subject_id":"5e67b6874b800e053bb8caf8","study_id":"6197b3f67c2b5cd3b6d9596a","session_id":"619be78a9905952038ee9023","condition":"full-information","relevant_dimensions":["antennae","wings"],"bee_group":{"antennae":"A","wings":"2","pattern":"X","legs":"X"},"bonus":0.8600000000000009},{"rt":2119.899999976158,"stimulus":"bees-with-color/bee-B1DF.svg","response":0,"trial_type":"image-button-response","trial_index":35,"time_elapsed":293145,"internal_node_id":"0.0-4.0-0.14","subject_id":"5e67b6874b800e053bb8caf8","study_id":"6197b3f67c2b5cd3b6d9596a","session_id":"619be78a9905952038ee9023","condition":"full-information","relevant_dimensions":["antennae","wings"],"bee_group":{"antennae":"A","wings":"2","pattern":"X","legs":"X"},"action":"harvest","summary":"good-harvest","bonus":0.8600000000000009},{"rt":3703,"stimulus":"\n                    <p><b>Action: <em>harvest</em></b></p>\n                    <p>This is the bee that you just saw.</p>\n                    <img src=\"bees-with-color/bee-B1DF.svg\" width=\"200\">\n                    <p><span class=\"greenText\"><b>Successful harvest!</b></span><br>Your pay has increased by $0.02. Your bonus pay is now $0.56.</p>\n            ","response":0,"trial_type":"html-button-response","trial_index":36,"time_elapsed":296850,"internal_node_id":"0.0-4.0-1.14","subject_id":"5e67b6874b800e053bb8caf8","study_id":"6197b3f67c2b5cd3b6d9596a","session_id":"619be78a9905952038ee9023","condition":"full-information","relevant_dimensions":["antennae","wings"],"bee_group":{"antennae":"A","wings":"2","pattern":"X","legs":"X"},"bonus":0.8600000000000009},{"rt":1324.8999999761581,"stimulus":"bees-with-color/bee-B2SF.svg","response":1,"trial_type":"image-button-response","trial_index":37,"time_elapsed":298177,"internal_node_id":"0.0-4.0-0.15","subject_id":"5e67b6874b800e053bb8caf8","study_id":"6197b3f67c2b5cd3b6d9596a","session_id":"619be78a9905952038ee9023","condition":"full-information","relevant_dimensions":["antennae","wings"],"bee_group":{"antennae":"A","wings":"2","pattern":"X","legs":"X"},"action":"avoid","summary":"bad-avoid","bonus":0.8600000000000009},{"rt":8990.600000023842,"stimulus":"\n                    <p><b>Action: <em>avoid</em></b></p>\n                    <p>This is the bee that you just saw.</p>\n                    <img src=\"bees-with-color/bee-B2SF.svg\" width=\"200\">\n                    <p><span class=\"redText\">Bad choice,</span> the bee was friendly.<br>Your bonus pay is unchanged, and remains at $0.56.</p>\n            ","response":0,"trial_type":"html-button-response","trial_index":38,"time_elapsed":307170,"internal_node_id":"0.0-4.0-1.15","subject_id":"5e67b6874b800e053bb8caf8","study_id":"6197b3f67c2b5cd3b6d9596a","session_id":"619be78a9905952038ee9023","condition":"full-information","relevant_dimensions":["antennae","wings"],"bee_group":{"antennae":"A","wings":"2","pattern":"X","legs":"X"},"bonus":0.8600000000000009},{"rt":1309.6000000238419,"stimulus":"bees-with-color/bee-A1SF.svg","response":0,"trial_type":"image-button-response","trial_index":39,"time_elapsed":308483,"internal_node_id":"0.0-4.0-0.16","subject_id":"5e67b6874b800e053bb8caf8","study_id":"6197b3f67c2b5cd3b6d9596a","session_id":"619be78a9905952038ee9023","condition":"full-information","relevant_dimensions":["antennae","wings"],"bee_group":{"antennae":"A","wings":"2","pattern":"X","legs":"X"},"action":"harvest","summary":"good-harvest","bonus":0.8600000000000009},{"rt":2142.899999976158,"stimulus":"\n                    <p><b>Action: <em>harvest</em></b></p>\n                    <p>This is the bee that you just saw.</p>\n                    <img src=\"bees-with-color/bee-A1SF.svg\" width=\"200\">\n                    <p><span class=\"greenText\"><b>Successful harvest!</b></span><br>Your pay has increased by $0.02. Your bonus pay is now $0.58.</p>\n            ","response":0,"trial_type":"html-button-response","trial_index":40,"time_elapsed":310628,"internal_node_id":"0.0-4.0-1.16","subject_id":"5e67b6874b800e053bb8caf8","study_id":"6197b3f67c2b5cd3b6d9596a","session_id":"619be78a9905952038ee9023","condition":"full-information","relevant_dimensions":["antennae","wings"],"bee_group":{"antennae":"A","wings":"2","pattern":"X","legs":"X"},"bonus":0.8600000000000009},{"rt":1310.5,"stimulus":"bees-with-color/bee-B1DF.svg","response":0,"trial_type":"image-button-response","trial_index":41,"time_elapsed":311940,"internal_node_id":"0.0-4.0-0.17","subject_id":"5e67b6874b800e053bb8caf8","study_id":"6197b3f67c2b5cd3b6d9596a","session_id":"619be78a9905952038ee9023","condition":"full-information","relevant_dimensions":["antennae","wings"],"bee_group":{"antennae":"A","wings":"2","pattern":"X","legs":"X"},"action":"harvest","summary":"good-harvest","bonus":0.8600000000000009},{"rt":1040.2000000476837,"stimulus":"\n                    <p><b>Action: <em>harvest</em></b></p>\n                    <p>This is the bee that you just saw.</p>\n                    <img src=\"bees-with-color/bee-B1DF.svg\" width=\"200\">\n                    <p><span class=\"greenText\"><b>Successful harvest!</b></span><br>Your pay has increased by $0.02. Your bonus pay is now $0.60.</p>\n            ","response":0,"trial_type":"html-button-response","trial_index":42,"time_elapsed":312983,"internal_node_id":"0.0-4.0-1.17","subject_id":"5e67b6874b800e053bb8caf8","study_id":"6197b3f67c2b5cd3b6d9596a","session_id":"619be78a9905952038ee9023","condition":"full-information","relevant_dimensions":["antennae","wings"],"bee_group":{"antennae":"A","wings":"2","pattern":"X","legs":"X"},"bonus":0.8600000000000009},{"rt":2112.5,"stimulus":"bees-with-color/bee-B2SF.svg","response":0,"trial_type":"image-button-response","trial_index":43,"time_elapsed":315098,"internal_node_id":"0.0-4.0-0.18","subject_id":"5e67b6874b800e053bb8caf8","study_id":"6197b3f67c2b5cd3b6d9596a","session_id":"619be78a9905952038ee9023","condition":"full-information","relevant_dimensions":["antennae","wings"],"bee_group":{"antennae":"A","wings":"2","pattern":"X","legs":"X"},"action":"harvest","summary":"good-harvest","bonus":0.8600000000000009},{"rt":755,"stimulus":"\n                    <p><b>Action: <em>harvest</em></b></p>\n                    <p>This is the bee that you just saw.</p>\n                    <img src=\"bees-with-color/bee-B2SF.svg\" width=\"200\">\n                    <p><span class=\"greenText\"><b>Successful harvest!</b></span><br>Your pay has increased by $0.02. Your bonus pay is now $0.62.</p>\n            ","response":0,"trial_type":"html-button-response","trial_index":44,"time_elapsed":315855,"internal_node_id":"0.0-4.0-1.18","subject_id":"5e67b6874b800e053bb8caf8","study_id":"6197b3f67c2b5cd3b6d9596a","session_id":"619be78a9905952038ee9023","condition":"full-information","relevant_dimensions":["antennae","wings"],"bee_group":{"antennae":"A","wings":"2","pattern":"X","legs":"X"},"bonus":0.8600000000000009},{"rt":1677.5,"stimulus":"bees-with-color/bee-A2DF.svg","response":1,"trial_type":"image-button-response","trial_index":45,"time_elapsed":317536,"internal_node_id":"0.0-4.0-0.19","subject_id":"5e67b6874b800e053bb8caf8","study_id":"6197b3f67c2b5cd3b6d9596a","session_id":"619be78a9905952038ee9023","condition":"full-information","relevant_dimensions":["antennae","wings"],"bee_group":{"antennae":"A","wings":"2","pattern":"X","legs":"X"},"action":"avoid","summary":"good-avoid","bonus":0.8600000000000009},{"rt":1586.8999999761581,"stimulus":"\n                    <p><b>Action: <em>avoid</em></b></p>\n                    <p>This is the bee that you just saw.</p>\n                    <img src=\"bees-with-color/bee-A2DF.svg\" width=\"200\">\n                    <p><span class=\"greenText\">Good choice!</span>  This bee would have stung you.<br>Your bonus pay is unchanged, and remains at $0.62.</p>\n            ","response":0,"trial_type":"html-button-response","trial_index":46,"time_elapsed":319125,"internal_node_id":"0.0-4.0-1.19","subject_id":"5e67b6874b800e053bb8caf8","study_id":"6197b3f67c2b5cd3b6d9596a","session_id":"619be78a9905952038ee9023","condition":"full-information","relevant_dimensions":["antennae","wings"],"bee_group":{"antennae":"A","wings":"2","pattern":"X","legs":"X"},"bonus":0.8600000000000009},{"rt":3020.800000011921,"stimulus":"bees-with-color/bee-B2DM.svg","response":1,"trial_type":"image-button-response","trial_index":47,"time_elapsed":322148,"internal_node_id":"0.0-4.0-0.20","subject_id":"5e67b6874b800e053bb8caf8","study_id":"6197b3f67c2b5cd3b6d9596a","session_id":"619be78a9905952038ee9023","condition":"full-information","relevant_dimensions":["antennae","wings"],"bee_group":{"antennae":"A","wings":"2","pattern":"X","legs":"X"},"action":"avoid","summary":"bad-avoid","bonus":0.8600000000000009},{"rt":2982.5,"stimulus":"\n                    <p><b>Action: <em>avoid</em></b></p>\n                    <p>This is the bee that you just saw.</p>\n                    <img src=\"bees-with-color/bee-B2DM.svg\" width=\"200\">\n                    <p><span class=\"redText\">Bad choice,</span> the bee was friendly.<br>Your bonus pay is unchanged, and remains at $0.62.</p>\n            ","response":0,"trial_type":"html-button-response","trial_index":48,"time_elapsed":325133,"internal_node_id":"0.0-4.0-1.20","subject_id":"5e67b6874b800e053bb8caf8","study_id":"6197b3f67c2b5cd3b6d9596a","session_id":"619be78a9905952038ee9023","condition":"full-information","relevant_dimensions":["antennae","wings"],"bee_group":{"antennae":"A","wings":"2","pattern":"X","legs":"X"},"bonus":0.8600000000000009},{"rt":1332.5999999642372,"stimulus":"bees-with-color/bee-B1SM.svg","response":0,"trial_type":"image-button-response","trial_index":49,"time_elapsed":326468,"internal_node_id":"0.0-4.0-0.21","subject_id":"5e67b6874b800e053bb8caf8","study_id":"6197b3f67c2b5cd3b6d9596a","session_id":"619be78a9905952038ee9023","condition":"full-information","relevant_dimensions":["antennae","wings"],"bee_group":{"antennae":"A","wings":"2","pattern":"X","legs":"X"},"action":"harvest","summary":"good-harvest","bonus":0.8600000000000009},{"rt":2990.899999976158,"stimulus":"\n                    <p><b>Action: <em>harvest</em></b></p>\n                    <p>This is the bee that you just saw.</p>\n                    <img src=\"bees-with-color/bee-B1SM.svg\" width=\"200\">\n                    <p><span class=\"greenText\"><b>Successful harvest!</b></span><br>Your pay has increased by $0.02. Your bonus pay is now $0.64.</p>\n            ","response":0,"trial_type":"html-button-response","trial_index":50,"time_elapsed":329460,"internal_node_id":"0.0-4.0-1.21","subject_id":"5e67b6874b800e053bb8caf8","study_id":"6197b3f67c2b5cd3b6d9596a","session_id":"619be78a9905952038ee9023","condition":"full-information","relevant_dimensions":["antennae","wings"],"bee_group":{"antennae":"A","wings":"2","pattern":"X","legs":"X"},"bonus":0.8600000000000009},{"rt":2180.300000011921,"stimulus":"bees-with-color/bee-A2SF.svg","response":1,"trial_type":"image-button-response","trial_index":51,"time_elapsed":331643,"internal_node_id":"0.0-4.0-0.22","subject_id":"5e67b6874b800e053bb8caf8","study_id":"6197b3f67c2b5cd3b6d9596a","session_id":"619be78a9905952038ee9023","condition":"full-information","relevant_dimensions":["antennae","wings"],"bee_group":{"antennae":"A","wings":"2","pattern":"X","legs":"X"},"action":"avoid","summary":"good-avoid","bonus":0.8600000000000009},{"rt":2698.399999976158,"stimulus":"\n                    <p><b>Action: <em>avoid</em></b></p>\n                    <p>This is the bee that you just saw.</p>\n                    <img src=\"bees-with-color/bee-A2SF.svg\" width=\"200\">\n                    <p><span class=\"greenText\">Good choice!</span>  This bee would have stung you.<br>Your bonus pay is unchanged, and remains at $0.64.</p>\n            ","response":0,"trial_type":"html-button-response","trial_index":52,"time_elapsed":334343,"internal_node_id":"0.0-4.0-1.22","subject_id":"5e67b6874b800e053bb8caf8","study_id":"6197b3f67c2b5cd3b6d9596a","session_id":"619be78a9905952038ee9023","condition":"full-information","relevant_dimensions":["antennae","wings"],"bee_group":{"antennae":"A","wings":"2","pattern":"X","legs":"X"},"bonus":0.8600000000000009},{"rt":1317.5,"stimulus":"bees-with-color/bee-A1DF.svg","response":0,"trial_type":"image-button-response","trial_index":53,"time_elapsed":335663,"internal_node_id":"0.0-4.0-0.23","subject_id":"5e67b6874b800e053bb8caf8","study_id":"6197b3f67c2b5cd3b6d9596a","session_id":"619be78a9905952038ee9023","condition":"full-information","relevant_dimensions":["antennae","wings"],"bee_group":{"antennae":"A","wings":"2","pattern":"X","legs":"X"},"action":"harvest","summary":"good-harvest","bonus":0.8600000000000009},{"rt":891.1000000238419,"stimulus":"\n                    <p><b>Action: <em>harvest</em></b></p>\n                    <p>This is the bee that you just saw.</p>\n                    <img src=\"bees-with-color/bee-A1DF.svg\" width=\"200\">\n                    <p><span class=\"greenText\"><b>Successful harvest!</b></span><br>Your pay has increased by $0.02. Your bonus pay is now $0.66.</p>\n            ","response":0,"trial_type":"html-button-response","trial_index":54,"time_elapsed":336556,"internal_node_id":"0.0-4.0-1.23","subject_id":"5e67b6874b800e053bb8caf8","study_id":"6197b3f67c2b5cd3b6d9596a","session_id":"619be78a9905952038ee9023","condition":"full-information","relevant_dimensions":["antennae","wings"],"bee_group":{"antennae":"A","wings":"2","pattern":"X","legs":"X"},"bonus":0.8600000000000009},{"rt":2833.5,"stimulus":"bees-with-color/bee-A1DM.svg","response":1,"trial_type":"image-button-response","trial_index":55,"time_elapsed":339391,"internal_node_id":"0.0-4.0-0.24","subject_id":"5e67b6874b800e053bb8caf8","study_id":"6197b3f67c2b5cd3b6d9596a","session_id":"619be78a9905952038ee9023","condition":"full-information","relevant_dimensions":["antennae","wings"],"bee_group":{"antennae":"A","wings":"2","pattern":"X","legs":"X"},"action":"avoid","summary":"bad-avoid","bonus":0.8600000000000009},{"rt":1753.1000000238419,"stimulus":"\n                    <p><b>Action: <em>avoid</em></b></p>\n                    <p>This is the bee that you just saw.</p>\n                    <img src=\"bees-with-color/bee-A1DM.svg\" width=\"200\">\n                    <p><span class=\"redText\">Bad choice,</span> the bee was friendly.<br>Your bonus pay is unchanged, and remains at $0.66.</p>\n            ","response":0,"trial_type":"html-button-response","trial_index":56,"time_elapsed":341146,"internal_node_id":"0.0-4.0-1.24","subject_id":"5e67b6874b800e053bb8caf8","study_id":"6197b3f67c2b5cd3b6d9596a","session_id":"619be78a9905952038ee9023","condition":"full-information","relevant_dimensions":["antennae","wings"],"bee_group":{"antennae":"A","wings":"2","pattern":"X","legs":"X"},"bonus":0.8600000000000009},{"rt":1219.8999999761581,"stimulus":"bees-with-color/bee-B2SM.svg","response":1,"trial_type":"image-button-response","trial_index":57,"time_elapsed":342368,"internal_node_id":"0.0-4.0-0.25","subject_id":"5e67b6874b800e053bb8caf8","study_id":"6197b3f67c2b5cd3b6d9596a","session_id":"619be78a9905952038ee9023","condition":"full-information","relevant_dimensions":["antennae","wings"],"bee_group":{"antennae":"A","wings":"2","pattern":"X","legs":"X"},"action":"avoid","summary":"bad-avoid","bonus":0.8600000000000009},{"rt":1408.300000011921,"stimulus":"\n                    <p><b>Action: <em>avoid</em></b></p>\n                    <p>This is the bee that you just saw.</p>\n                    <img src=\"bees-with-color/bee-B2SM.svg\" width=\"200\">\n                    <p><span class=\"redText\">Bad choice,</span> the bee was friendly.<br>Your bonus pay is unchanged, and remains at $0.66.</p>\n            ","response":0,"trial_type":"html-button-response","trial_index":58,"time_elapsed":343778,"internal_node_id":"0.0-4.0-1.25","subject_id":"5e67b6874b800e053bb8caf8","study_id":"6197b3f67c2b5cd3b6d9596a","session_id":"619be78a9905952038ee9023","condition":"full-information","relevant_dimensions":["antennae","wings"],"bee_group":{"antennae":"A","wings":"2","pattern":"X","legs":"X"},"bonus":0.8600000000000009},{"rt":3132.600000023842,"stimulus":"bees-with-color/bee-A1SM.svg","response":1,"trial_type":"image-button-response","trial_index":59,"time_elapsed":346913,"internal_node_id":"0.0-4.0-0.26","subject_id":"5e67b6874b800e053bb8caf8","study_id":"6197b3f67c2b5cd3b6d9596a","session_id":"619be78a9905952038ee9023","condition":"full-information","relevant_dimensions":["antennae","wings"],"bee_group":{"antennae":"A","wings":"2","pattern":"X","legs":"X"},"action":"avoid","summary":"bad-avoid","bonus":0.8600000000000009},{"rt":1153,"stimulus":"\n                    <p><b>Action: <em>avoid</em></b></p>\n                    <p>This is the bee that you just saw.</p>\n                    <img src=\"bees-with-color/bee-A1SM.svg\" width=\"200\">\n                    <p><span class=\"redText\">Bad choice,</span> the bee was friendly.<br>Your bonus pay is unchanged, and remains at $0.66.</p>\n            ","response":0,"trial_type":"html-button-response","trial_index":60,"time_elapsed":348068,"internal_node_id":"0.0-4.0-1.26","subject_id":"5e67b6874b800e053bb8caf8","study_id":"6197b3f67c2b5cd3b6d9596a","session_id":"619be78a9905952038ee9023","condition":"full-information","relevant_dimensions":["antennae","wings"],"bee_group":{"antennae":"A","wings":"2","pattern":"X","legs":"X"},"bonus":0.8600000000000009},{"rt":1460.6000000238419,"stimulus":"bees-with-color/bee-A2DM.svg","response":1,"trial_type":"image-button-response","trial_index":61,"time_elapsed":349531,"internal_node_id":"0.0-4.0-0.27","subject_id":"5e67b6874b800e053bb8caf8","study_id":"6197b3f67c2b5cd3b6d9596a","session_id":"619be78a9905952038ee9023","condition":"full-information","relevant_dimensions":["antennae","wings"],"bee_group":{"antennae":"A","wings":"2","pattern":"X","legs":"X"},"action":"avoid","summary":"good-avoid","bonus":0.8600000000000009},{"rt":2682.699999988079,"stimulus":"\n                    <p><b>Action: <em>avoid</em></b></p>\n                    <p>This is the bee that you just saw.</p>\n                    <img src=\"bees-with-color/bee-A2DM.svg\" width=\"200\">\n                    <p><span class=\"greenText\">Good choice!</span>  This bee would have stung you.<br>Your bonus pay is unchanged, and remains at $0.66.</p>\n            ","response":0,"trial_type":"html-button-response","trial_index":62,"time_elapsed":352216,"internal_node_id":"0.0-4.0-1.27","subject_id":"5e67b6874b800e053bb8caf8","study_id":"6197b3f67c2b5cd3b6d9596a","session_id":"619be78a9905952038ee9023","condition":"full-information","relevant_dimensions":["antennae","wings"],"bee_group":{"antennae":"A","wings":"2","pattern":"X","legs":"X"},"bonus":0.8600000000000009},{"rt":1767,"stimulus":"bees-with-color/bee-B2DF.svg","response":0,"trial_type":"image-button-response","trial_index":63,"time_elapsed":353986,"internal_node_id":"0.0-4.0-0.28","subject_id":"5e67b6874b800e053bb8caf8","study_id":"6197b3f67c2b5cd3b6d9596a","session_id":"619be78a9905952038ee9023","condition":"full-information","relevant_dimensions":["antennae","wings"],"bee_group":{"antennae":"A","wings":"2","pattern":"X","legs":"X"},"action":"harvest","summary":"good-harvest","bonus":0.8600000000000009},{"rt":3005.5,"stimulus":"\n                    <p><b>Action: <em>harvest</em></b></p>\n                    <p>This is the bee that you just saw.</p>\n                    <img src=\"bees-with-color/bee-B2DF.svg\" width=\"200\">\n                    <p><span class=\"greenText\"><b>Successful harvest!</b></span><br>Your pay has increased by $0.02. Your bonus pay is now $0.68.</p>\n            ","response":0,"trial_type":"html-button-response","trial_index":64,"time_elapsed":356994,"internal_node_id":"0.0-4.0-1.28","subject_id":"5e67b6874b800e053bb8caf8","study_id":"6197b3f67c2b5cd3b6d9596a","session_id":"619be78a9905952038ee9023","condition":"full-information","relevant_dimensions":["antennae","wings"],"bee_group":{"antennae":"A","wings":"2","pattern":"X","legs":"X"},"bonus":0.8600000000000009},{"rt":1729.9000000357628,"stimulus":"bees-with-color/bee-A2SM.svg","response":1,"trial_type":"image-button-response","trial_index":65,"time_elapsed":358726,"internal_node_id":"0.0-4.0-0.29","subject_id":"5e67b6874b800e053bb8caf8","study_id":"6197b3f67c2b5cd3b6d9596a","session_id":"619be78a9905952038ee9023","condition":"full-information","relevant_dimensions":["antennae","wings"],"bee_group":{"antennae":"A","wings":"2","pattern":"X","legs":"X"},"action":"avoid","summary":"good-avoid","bonus":0.8600000000000009},{"rt":1573.300000011921,"stimulus":"\n                    <p><b>Action: <em>avoid</em></b></p>\n                    <p>This is the bee that you just saw.</p>\n                    <img src=\"bees-with-color/bee-A2SM.svg\" width=\"200\">\n                    <p><span class=\"greenText\">Good choice!</span>  This bee would have stung you.<br>Your bonus pay is unchanged, and remains at $0.68.</p>\n            ","response":0,"trial_type":"html-button-response","trial_index":66,"time_elapsed":360301,"internal_node_id":"0.0-4.0-1.29","subject_id":"5e67b6874b800e053bb8caf8","study_id":"6197b3f67c2b5cd3b6d9596a","session_id":"619be78a9905952038ee9023","condition":"full-information","relevant_dimensions":["antennae","wings"],"bee_group":{"antennae":"A","wings":"2","pattern":"X","legs":"X"},"bonus":0.8600000000000009},{"rt":1640,"stimulus":"bees-with-color/bee-B1DM.svg","response":0,"trial_type":"image-button-response","trial_index":67,"time_elapsed":361944,"internal_node_id":"0.0-4.0-0.30","subject_id":"5e67b6874b800e053bb8caf8","study_id":"6197b3f67c2b5cd3b6d9596a","session_id":"619be78a9905952038ee9023","condition":"full-information","relevant_dimensions":["antennae","wings"],"bee_group":{"antennae":"A","wings":"2","pattern":"X","legs":"X"},"action":"harvest","summary":"good-harvest","bonus":0.8600000000000009},{"rt":5556,"stimulus":"\n                    <p><b>Action: <em>harvest</em></b></p>\n                    <p>This is the bee that you just saw.</p>\n                    <img src=\"bees-with-color/bee-B1DM.svg\" width=\"200\">\n                    <p><span class=\"greenText\"><b>Successful harvest!</b></span><br>Your pay has increased by $0.02. Your bonus pay is now $0.70.</p>\n            ","response":0,"trial_type":"html-button-response","trial_index":68,"time_elapsed":367502,"internal_node_id":"0.0-4.0-1.30","subject_id":"5e67b6874b800e053bb8caf8","study_id":"6197b3f67c2b5cd3b6d9596a","session_id":"619be78a9905952038ee9023","condition":"full-information","relevant_dimensions":["antennae","wings"],"bee_group":{"antennae":"A","wings":"2","pattern":"X","legs":"X"},"bonus":0.8600000000000009},{"rt":1421.800000011921,"stimulus":"bees-with-color/bee-B1SF.svg","response":0,"trial_type":"image-button-response","trial_index":69,"time_elapsed":368926,"internal_node_id":"0.0-4.0-0.31","subject_id":"5e67b6874b800e053bb8caf8","study_id":"6197b3f67c2b5cd3b6d9596a","session_id":"619be78a9905952038ee9023","condition":"full-information","relevant_dimensions":["antennae","wings"],"bee_group":{"antennae":"A","wings":"2","pattern":"X","legs":"X"},"action":"harvest","summary":"good-harvest","bonus":0.8600000000000009},{"rt":1010.6000000238419,"stimulus":"\n                    <p><b>Action: <em>harvest</em></b></p>\n                    <p>This is the bee that you just saw.</p>\n                    <img src=\"bees-with-color/bee-B1SF.svg\" width=\"200\">\n                    <p><span class=\"greenText\"><b>Successful harvest!</b></span><br>Your pay has increased by $0.02. Your bonus pay is now $0.72.</p>\n            ","response":0,"trial_type":"html-button-response","trial_index":70,"time_elapsed":369939,"internal_node_id":"0.0-4.0-1.31","subject_id":"5e67b6874b800e053bb8caf8","study_id":"6197b3f67c2b5cd3b6d9596a","session_id":"619be78a9905952038ee9023","condition":"full-information","relevant_dimensions":["antennae","wings"],"bee_group":{"antennae":"A","wings":"2","pattern":"X","legs":"X"},"bonus":0.8600000000000009},{"rt":1775.300000011921,"stimulus":"bees-with-color/bee-B1DM.svg","response":0,"trial_type":"image-button-response","trial_index":71,"time_elapsed":371717,"internal_node_id":"0.0-4.0-0.32","subject_id":"5e67b6874b800e053bb8caf8","study_id":"6197b3f67c2b5cd3b6d9596a","session_id":"619be78a9905952038ee9023","condition":"full-information","relevant_dimensions":["antennae","wings"],"bee_group":{"antennae":"A","wings":"2","pattern":"X","legs":"X"},"action":"harvest","summary":"good-harvest","bonus":0.8600000000000009},{"rt":1385.199999988079,"stimulus":"\n                    <p><b>Action: <em>harvest</em></b></p>\n                    <p>This is the bee that you just saw.</p>\n                    <img src=\"bees-with-color/bee-B1DM.svg\" width=\"200\">\n                    <p><span class=\"greenText\"><b>Successful harvest!</b></span><br>Your pay has increased by $0.02. Your bonus pay is now $0.74.</p>\n            ","response":0,"trial_type":"html-button-response","trial_index":72,"time_elapsed":373104,"internal_node_id":"0.0-4.0-1.32","subject_id":"5e67b6874b800e053bb8caf8","study_id":"6197b3f67c2b5cd3b6d9596a","session_id":"619be78a9905952038ee9023","condition":"full-information","relevant_dimensions":["antennae","wings"],"bee_group":{"antennae":"A","wings":"2","pattern":"X","legs":"X"},"bonus":0.8600000000000009},{"rt":1243,"stimulus":"bees-with-color/bee-A1SM.svg","response":1,"trial_type":"image-button-response","trial_index":73,"time_elapsed":374349,"internal_node_id":"0.0-4.0-0.33","subject_id":"5e67b6874b800e053bb8caf8","study_id":"6197b3f67c2b5cd3b6d9596a","session_id":"619be78a9905952038ee9023","condition":"full-information","relevant_dimensions":["antennae","wings"],"bee_group":{"antennae":"A","wings":"2","pattern":"X","legs":"X"},"action":"avoid","summary":"bad-avoid","bonus":0.8600000000000009},{"rt":2615.399999976158,"stimulus":"\n                    <p><b>Action: <em>avoid</em></b></p>\n                    <p>This is the bee that you just saw.</p>\n                    <img src=\"bees-with-color/bee-A1SM.svg\" width=\"200\">\n                    <p><span class=\"redText\">Bad choice,</span> the bee was friendly.<br>Your bonus pay is unchanged, and remains at $0.74.</p>\n            ","response":0,"trial_type":"html-button-response","trial_index":74,"time_elapsed":376967,"internal_node_id":"0.0-4.0-1.33","subject_id":"5e67b6874b800e053bb8caf8","study_id":"6197b3f67c2b5cd3b6d9596a","session_id":"619be78a9905952038ee9023","condition":"full-information","relevant_dimensions":["antennae","wings"],"bee_group":{"antennae":"A","wings":"2","pattern":"X","legs":"X"},"bonus":0.8600000000000009},{"rt":2254.599999964237,"stimulus":"bees-with-color/bee-A1DM.svg","response":1,"trial_type":"image-button-response","trial_index":75,"time_elapsed":379224,"internal_node_id":"0.0-4.0-0.34","subject_id":"5e67b6874b800e053bb8caf8","study_id":"6197b3f67c2b5cd3b6d9596a","session_id":"619be78a9905952038ee9023","condition":"full-information","relevant_dimensions":["antennae","wings"],"bee_group":{"antennae":"A","wings":"2","pattern":"X","legs":"X"},"action":"avoid","summary":"bad-avoid","bonus":0.8600000000000009},{"rt":815.3000000119209,"stimulus":"\n                    <p><b>Action: <em>avoid</em></b></p>\n                    <p>This is the bee that you just saw.</p>\n                    <img src=\"bees-with-color/bee-A1DM.svg\" width=\"200\">\n                    <p><span class=\"redText\">Bad choice,</span> the bee was friendly.<br>Your bonus pay is unchanged, and remains at $0.74.</p>\n            ","response":0,"trial_type":"html-button-response","trial_index":76,"time_elapsed":380042,"internal_node_id":"0.0-4.0-1.34","subject_id":"5e67b6874b800e053bb8caf8","study_id":"6197b3f67c2b5cd3b6d9596a","session_id":"619be78a9905952038ee9023","condition":"full-information","relevant_dimensions":["antennae","wings"],"bee_group":{"antennae":"A","wings":"2","pattern":"X","legs":"X"},"bonus":0.8600000000000009},{"rt":2180,"stimulus":"bees-with-color/bee-A2DF.svg","response":1,"trial_type":"image-button-response","trial_index":77,"time_elapsed":382224,"internal_node_id":"0.0-4.0-0.35","subject_id":"5e67b6874b800e053bb8caf8","study_id":"6197b3f67c2b5cd3b6d9596a","session_id":"619be78a9905952038ee9023","condition":"full-information","relevant_dimensions":["antennae","wings"],"bee_group":{"antennae":"A","wings":"2","pattern":"X","legs":"X"},"action":"avoid","summary":"good-avoid","bonus":0.8600000000000009},{"rt":1632.5999999642372,"stimulus":"\n                    <p><b>Action: <em>avoid</em></b></p>\n                    <p>This is the bee that you just saw.</p>\n                    <img src=\"bees-with-color/bee-A2DF.svg\" width=\"200\">\n                    <p><span class=\"greenText\">Good choice!</span>  This bee would have stung you.<br>Your bonus pay is unchanged, and remains at $0.74.</p>\n            ","response":0,"trial_type":"html-button-response","trial_index":78,"time_elapsed":383859,"internal_node_id":"0.0-4.0-1.35","subject_id":"5e67b6874b800e053bb8caf8","study_id":"6197b3f67c2b5cd3b6d9596a","session_id":"619be78a9905952038ee9023","condition":"full-information","relevant_dimensions":["antennae","wings"],"bee_group":{"antennae":"A","wings":"2","pattern":"X","legs":"X"},"bonus":0.8600000000000009},{"rt":2494.599999964237,"stimulus":"bees-with-color/bee-A2SM.svg","response":0,"trial_type":"image-button-response","trial_index":79,"time_elapsed":386357,"internal_node_id":"0.0-4.0-0.36","subject_id":"5e67b6874b800e053bb8caf8","study_id":"6197b3f67c2b5cd3b6d9596a","session_id":"619be78a9905952038ee9023","condition":"full-information","relevant_dimensions":["antennae","wings"],"bee_group":{"antennae":"A","wings":"2","pattern":"X","legs":"X"},"action":"harvest","summary":"bad-harvest","bonus":0.8600000000000009},{"rt":2772.699999988079,"stimulus":"\n                    <p><b>Action: <em>harvest</em></b></p>\n                    <p>This is the bee that you just saw.</p>\n                    <img src=\"bees-with-color/bee-A2SM.svg\" width=\"200\">\n                    <p><span class=\"redText\">Bad choice, the bee was angry.</span><br><b>You have been stung!</b><br>Your pay has been decreased by $0.10. Your bonus pay is now $0.64.</p>\n            ","response":0,"trial_type":"html-button-response","trial_index":80,"time_elapsed":389132,"internal_node_id":"0.0-4.0-1.36","subject_id":"5e67b6874b800e053bb8caf8","study_id":"6197b3f67c2b5cd3b6d9596a","session_id":"619be78a9905952038ee9023","condition":"full-information","relevant_dimensions":["antennae","wings"],"bee_group":{"antennae":"A","wings":"2","pattern":"X","legs":"X"},"bonus":0.8600000000000009},{"rt":1429.5,"stimulus":"bees-with-color/bee-A1DF.svg","response":0,"trial_type":"image-button-response","trial_index":81,"time_elapsed":390565,"internal_node_id":"0.0-4.0-0.37","subject_id":"5e67b6874b800e053bb8caf8","study_id":"6197b3f67c2b5cd3b6d9596a","session_id":"619be78a9905952038ee9023","condition":"full-information","relevant_dimensions":["antennae","wings"],"bee_group":{"antennae":"A","wings":"2","pattern":"X","legs":"X"},"action":"harvest","summary":"good-harvest","bonus":0.8600000000000009},{"rt":664.6000000238419,"stimulus":"\n                    <p><b>Action: <em>harvest</em></b></p>\n                    <p>This is the bee that you just saw.</p>\n                    <img src=\"bees-with-color/bee-A1DF.svg\" width=\"200\">\n                    <p><span class=\"greenText\"><b>Successful harvest!</b></span><br>Your pay has increased by $0.02. Your bonus pay is now $0.66.</p>\n            ","response":0,"trial_type":"html-button-response","trial_index":82,"time_elapsed":391232,"internal_node_id":"0.0-4.0-1.37","subject_id":"5e67b6874b800e053bb8caf8","study_id":"6197b3f67c2b5cd3b6d9596a","session_id":"619be78a9905952038ee9023","condition":"full-information","relevant_dimensions":["antennae","wings"],"bee_group":{"antennae":"A","wings":"2","pattern":"X","legs":"X"},"bonus":0.8600000000000009},{"rt":1234.7999999523163,"stimulus":"bees-with-color/bee-A1SF.svg","response":1,"trial_type":"image-button-response","trial_index":83,"time_elapsed":392470,"internal_node_id":"0.0-4.0-0.38","subject_id":"5e67b6874b800e053bb8caf8","study_id":"6197b3f67c2b5cd3b6d9596a","session_id":"619be78a9905952038ee9023","condition":"full-information","relevant_dimensions":["antennae","wings"],"bee_group":{"antennae":"A","wings":"2","pattern":"X","legs":"X"},"action":"avoid","summary":"bad-avoid","bonus":0.8600000000000009},{"rt":2862.600000023842,"stimulus":"\n                    <p><b>Action: <em>avoid</em></b></p>\n                    <p>This is the bee that you just saw.</p>\n                    <img src=\"bees-with-color/bee-A1SF.svg\" width=\"200\">\n                    <p><span class=\"redText\">Bad choice,</span> the bee was friendly.<br>Your bonus pay is unchanged, and remains at $0.66.</p>\n            ","response":0,"trial_type":"html-button-response","trial_index":84,"time_elapsed":395335,"internal_node_id":"0.0-4.0-1.38","subject_id":"5e67b6874b800e053bb8caf8","study_id":"6197b3f67c2b5cd3b6d9596a","session_id":"619be78a9905952038ee9023","condition":"full-information","relevant_dimensions":["antennae","wings"],"bee_group":{"antennae":"A","wings":"2","pattern":"X","legs":"X"},"bonus":0.8600000000000009},{"rt":1504.7000000476837,"stimulus":"bees-with-color/bee-B1DF.svg","response":0,"trial_type":"image-button-response","trial_index":85,"time_elapsed":396842,"internal_node_id":"0.0-4.0-0.39","subject_id":"5e67b6874b800e053bb8caf8","study_id":"6197b3f67c2b5cd3b6d9596a","session_id":"619be78a9905952038ee9023","condition":"full-information","relevant_dimensions":["antennae","wings"],"bee_group":{"antennae":"A","wings":"2","pattern":"X","legs":"X"},"action":"harvest","summary":"good-harvest","bonus":0.8600000000000009},{"rt":747.3000000119209,"stimulus":"\n                    <p><b>Action: <em>harvest</em></b></p>\n                    <p>This is the bee that you just saw.</p>\n                    <img src=\"bees-with-color/bee-B1DF.svg\" width=\"200\">\n                    <p><span class=\"greenText\"><b>Successful harvest!</b></span><br>Your pay has increased by $0.02. Your bonus pay is now $0.68.</p>\n            ","response":0,"trial_type":"html-button-response","trial_index":86,"time_elapsed":397592,"internal_node_id":"0.0-4.0-1.39","subject_id":"5e67b6874b800e053bb8caf8","study_id":"6197b3f67c2b5cd3b6d9596a","session_id":"619be78a9905952038ee9023","condition":"full-information","relevant_dimensions":["antennae","wings"],"bee_group":{"antennae":"A","wings":"2","pattern":"X","legs":"X"},"bonus":0.8600000000000009},{"rt":1205.4000000357628,"stimulus":"bees-with-color/bee-B2DM.svg","response":1,"trial_type":"image-button-response","trial_index":87,"time_elapsed":398799,"internal_node_id":"0.0-4.0-0.40","subject_id":"5e67b6874b800e053bb8caf8","study_id":"6197b3f67c2b5cd3b6d9596a","session_id":"619be78a9905952038ee9023","condition":"full-information","relevant_dimensions":["antennae","wings"],"bee_group":{"antennae":"A","wings":"2","pattern":"X","legs":"X"},"action":"avoid","summary":"bad-avoid","bonus":0.8600000000000009},{"rt":823.2000000476837,"stimulus":"\n                    <p><b>Action: <em>avoid</em></b></p>\n                    <p>This is the bee that you just saw.</p>\n                    <img src=\"bees-with-color/bee-B2DM.svg\" width=\"200\">\n                    <p><span class=\"redText\">Bad choice,</span> the bee was friendly.<br>Your bonus pay is unchanged, and remains at $0.68.</p>\n            ","response":0,"trial_type":"html-button-response","trial_index":88,"time_elapsed":399624,"internal_node_id":"0.0-4.0-1.40","subject_id":"5e67b6874b800e053bb8caf8","study_id":"6197b3f67c2b5cd3b6d9596a","session_id":"619be78a9905952038ee9023","condition":"full-information","relevant_dimensions":["antennae","wings"],"bee_group":{"antennae":"A","wings":"2","pattern":"X","legs":"X"},"bonus":0.8600000000000009},{"rt":2983.400000035763,"stimulus":"bees-with-color/bee-B1SF.svg","response":0,"trial_type":"image-button-response","trial_index":89,"time_elapsed":402609,"internal_node_id":"0.0-4.0-0.41","subject_id":"5e67b6874b800e053bb8caf8","study_id":"6197b3f67c2b5cd3b6d9596a","session_id":"619be78a9905952038ee9023","condition":"full-information","relevant_dimensions":["antennae","wings"],"bee_group":{"antennae":"A","wings":"2","pattern":"X","legs":"X"},"action":"harvest","summary":"good-harvest","bonus":0.8600000000000009},{"rt":845.7000000476837,"stimulus":"\n                    <p><b>Action: <em>harvest</em></b></p>\n                    <p>This is the bee that you just saw.</p>\n                    <img src=\"bees-with-color/bee-B1SF.svg\" width=\"200\">\n                    <p><span class=\"greenText\"><b>Successful harvest!</b></span><br>Your pay has increased by $0.02. Your bonus pay is now $0.70.</p>\n            ","response":0,"trial_type":"html-button-response","trial_index":90,"time_elapsed":403457,"internal_node_id":"0.0-4.0-1.41","subject_id":"5e67b6874b800e053bb8caf8","study_id":"6197b3f67c2b5cd3b6d9596a","session_id":"619be78a9905952038ee9023","condition":"full-information","relevant_dimensions":["antennae","wings"],"bee_group":{"antennae":"A","wings":"2","pattern":"X","legs":"X"},"bonus":0.8600000000000009},{"rt":4723.600000023842,"stimulus":"bees-with-color/bee-B1SM.svg","response":1,"trial_type":"image-button-response","trial_index":91,"time_elapsed":408182,"internal_node_id":"0.0-4.0-0.42","subject_id":"5e67b6874b800e053bb8caf8","study_id":"6197b3f67c2b5cd3b6d9596a","session_id":"619be78a9905952038ee9023","condition":"full-information","relevant_dimensions":["antennae","wings"],"bee_group":{"antennae":"A","wings":"2","pattern":"X","legs":"X"},"action":"avoid","summary":"bad-avoid","bonus":0.8600000000000009},{"rt":800.4000000357628,"stimulus":"\n                    <p><b>Action: <em>avoid</em></b></p>\n                    <p>This is the bee that you just saw.</p>\n                    <img src=\"bees-with-color/bee-B1SM.svg\" width=\"200\">\n                    <p><span class=\"redText\">Bad choice,</span> the bee was friendly.<br>Your bonus pay is unchanged, and remains at $0.70.</p>\n            ","response":0,"trial_type":"html-button-response","trial_index":92,"time_elapsed":408984,"internal_node_id":"0.0-4.0-1.42","subject_id":"5e67b6874b800e053bb8caf8","study_id":"6197b3f67c2b5cd3b6d9596a","session_id":"619be78a9905952038ee9023","condition":"full-information","relevant_dimensions":["antennae","wings"],"bee_group":{"antennae":"A","wings":"2","pattern":"X","legs":"X"},"bonus":0.8600000000000009},{"rt":1145.7000000476837,"stimulus":"bees-with-color/bee-B2DF.svg","response":1,"trial_type":"image-button-response","trial_index":93,"time_elapsed":410132,"internal_node_id":"0.0-4.0-0.43","subject_id":"5e67b6874b800e053bb8caf8","study_id":"6197b3f67c2b5cd3b6d9596a","session_id":"619be78a9905952038ee9023","condition":"full-information","relevant_dimensions":["antennae","wings"],"bee_group":{"antennae":"A","wings":"2","pattern":"X","legs":"X"},"action":"avoid","summary":"bad-avoid","bonus":0.8600000000000009},{"rt":627.9000000357628,"stimulus":"\n                    <p><b>Action: <em>avoid</em></b></p>\n                    <p>This is the bee that you just saw.</p>\n                    <img src=\"bees-with-color/bee-B2DF.svg\" width=\"200\">\n                    <p><span class=\"redText\">Bad choice,</span> the bee was friendly.<br>Your bonus pay is unchanged, and remains at $0.70.</p>\n            ","response":0,"trial_type":"html-button-response","trial_index":94,"time_elapsed":410762,"internal_node_id":"0.0-4.0-1.43","subject_id":"5e67b6874b800e053bb8caf8","study_id":"6197b3f67c2b5cd3b6d9596a","session_id":"619be78a9905952038ee9023","condition":"full-information","relevant_dimensions":["antennae","wings"],"bee_group":{"antennae":"A","wings":"2","pattern":"X","legs":"X"},"bonus":0.8600000000000009},{"rt":2263.399999976158,"stimulus":"bees-with-color/bee-A2DM.svg","response":1,"trial_type":"image-button-response","trial_index":95,"time_elapsed":413027,"internal_node_id":"0.0-4.0-0.44","subject_id":"5e67b6874b800e053bb8caf8","study_id":"6197b3f67c2b5cd3b6d9596a","session_id":"619be78a9905952038ee9023","condition":"full-information","relevant_dimensions":["antennae","wings"],"bee_group":{"antennae":"A","wings":"2","pattern":"X","legs":"X"},"action":"avoid","summary":"good-avoid","bonus":0.8600000000000009},{"rt":792.6999999880791,"stimulus":"\n                    <p><b>Action: <em>avoid</em></b></p>\n                    <p>This is the bee that you just saw.</p>\n                    <img src=\"bees-with-color/bee-A2DM.svg\" width=\"200\">\n                    <p><span class=\"greenText\">Good choice!</span>  This bee would have stung you.<br>Your bonus pay is unchanged, and remains at $0.70.</p>\n            ","response":0,"trial_type":"html-button-response","trial_index":96,"time_elapsed":413822,"internal_node_id":"0.0-4.0-1.44","subject_id":"5e67b6874b800e053bb8caf8","study_id":"6197b3f67c2b5cd3b6d9596a","session_id":"619be78a9905952038ee9023","condition":"full-information","relevant_dimensions":["antennae","wings"],"bee_group":{"antennae":"A","wings":"2","pattern":"X","legs":"X"},"bonus":0.8600000000000009},{"rt":1295.5,"stimulus":"bees-with-color/bee-A2SF.svg","response":0,"trial_type":"image-button-response","trial_index":97,"time_elapsed":415120,"internal_node_id":"0.0-4.0-0.45","subject_id":"5e67b6874b800e053bb8caf8","study_id":"6197b3f67c2b5cd3b6d9596a","session_id":"619be78a9905952038ee9023","condition":"full-information","relevant_dimensions":["antennae","wings"],"bee_group":{"antennae":"A","wings":"2","pattern":"X","legs":"X"},"action":"harvest","summary":"bad-harvest","bonus":0.8600000000000009},{"rt":1123.0999999642372,"stimulus":"\n                    <p><b>Action: <em>harvest</em></b></p>\n                    <p>This is the bee that you just saw.</p>\n                    <img src=\"bees-with-color/bee-A2SF.svg\" width=\"200\">\n                    <p><span class=\"redText\">Bad choice, the bee was angry.</span><br><b>You have been stung!</b><br>Your pay has been decreased by $0.10. Your bonus pay is now $0.60.</p>\n            ","response":0,"trial_type":"html-button-response","trial_index":98,"time_elapsed":416245,"internal_node_id":"0.0-4.0-1.45","subject_id":"5e67b6874b800e053bb8caf8","study_id":"6197b3f67c2b5cd3b6d9596a","session_id":"619be78a9905952038ee9023","condition":"full-information","relevant_dimensions":["antennae","wings"],"bee_group":{"antennae":"A","wings":"2","pattern":"X","legs":"X"},"bonus":0.8600000000000009},{"rt":1746.199999988079,"stimulus":"bees-with-color/bee-B2SF.svg","response":0,"trial_type":"image-button-response","trial_index":99,"time_elapsed":417992,"internal_node_id":"0.0-4.0-0.46","subject_id":"5e67b6874b800e053bb8caf8","study_id":"6197b3f67c2b5cd3b6d9596a","session_id":"619be78a9905952038ee9023","condition":"full-information","relevant_dimensions":["antennae","wings"],"bee_group":{"antennae":"A","wings":"2","pattern":"X","legs":"X"},"action":"harvest","summary":"good-harvest","bonus":0.8600000000000009},{"rt":777.6000000238419,"stimulus":"\n                    <p><b>Action: <em>harvest</em></b></p>\n                    <p>This is the bee that you just saw.</p>\n                    <img src=\"bees-with-color/bee-B2SF.svg\" width=\"200\">\n                    <p><span class=\"greenText\"><b>Successful harvest!</b></span><br>Your pay has increased by $0.02. Your bonus pay is now $0.62.</p>\n            ","response":0,"trial_type":"html-button-response","trial_index":100,"time_elapsed":418772,"internal_node_id":"0.0-4.0-1.46","subject_id":"5e67b6874b800e053bb8caf8","study_id":"6197b3f67c2b5cd3b6d9596a","session_id":"619be78a9905952038ee9023","condition":"full-information","relevant_dimensions":["antennae","wings"],"bee_group":{"antennae":"A","wings":"2","pattern":"X","legs":"X"},"bonus":0.8600000000000009},{"rt":2083.199999988079,"stimulus":"bees-with-color/bee-B2SM.svg","response":0,"trial_type":"image-button-response","trial_index":101,"time_elapsed":420857,"internal_node_id":"0.0-4.0-0.47","subject_id":"5e67b6874b800e053bb8caf8","study_id":"6197b3f67c2b5cd3b6d9596a","session_id":"619be78a9905952038ee9023","condition":"full-information","relevant_dimensions":["antennae","wings"],"bee_group":{"antennae":"A","wings":"2","pattern":"X","legs":"X"},"action":"harvest","summary":"good-harvest","bonus":0.8600000000000009},{"rt":733.1000000238419,"stimulus":"\n                    <p><b>Action: <em>harvest</em></b></p>\n                    <p>This is the bee that you just saw.</p>\n                    <img src=\"bees-with-color/bee-B2SM.svg\" width=\"200\">\n                    <p><span class=\"greenText\"><b>Successful harvest!</b></span><br>Your pay has increased by $0.02. Your bonus pay is now $0.64.</p>\n            ","response":0,"trial_type":"html-button-response","trial_index":102,"time_elapsed":421592,"internal_node_id":"0.0-4.0-1.47","subject_id":"5e67b6874b800e053bb8caf8","study_id":"6197b3f67c2b5cd3b6d9596a","session_id":"619be78a9905952038ee9023","condition":"full-information","relevant_dimensions":["antennae","wings"],"bee_group":{"antennae":"A","wings":"2","pattern":"X","legs":"X"},"bonus":0.8600000000000009},{"rt":1138.300000011921,"stimulus":"bees-with-color/bee-A2DM.svg","response":1,"trial_type":"image-button-response","trial_index":103,"time_elapsed":422732,"internal_node_id":"0.0-4.0-0.48","subject_id":"5e67b6874b800e053bb8caf8","study_id":"6197b3f67c2b5cd3b6d9596a","session_id":"619be78a9905952038ee9023","condition":"full-information","relevant_dimensions":["antennae","wings"],"bee_group":{"antennae":"A","wings":"2","pattern":"X","legs":"X"},"action":"avoid","summary":"good-avoid","bonus":0.8600000000000009},{"rt":808.0999999642372,"stimulus":"\n                    <p><b>Action: <em>avoid</em></b></p>\n                    <p>This is the bee that you just saw.</p>\n                    <img src=\"bees-with-color/bee-A2DM.svg\" width=\"200\">\n                    <p><span class=\"greenText\">Good choice!</span>  This bee would have stung you.<br>Your bonus pay is unchanged, and remains at $0.64.</p>\n            ","response":0,"trial_type":"html-button-response","trial_index":104,"time_elapsed":423542,"internal_node_id":"0.0-4.0-1.48","subject_id":"5e67b6874b800e053bb8caf8","study_id":"6197b3f67c2b5cd3b6d9596a","session_id":"619be78a9905952038ee9023","condition":"full-information","relevant_dimensions":["antennae","wings"],"bee_group":{"antennae":"A","wings":"2","pattern":"X","legs":"X"},"bonus":0.8600000000000009},{"rt":2247.399999976158,"stimulus":"bees-with-color/bee-B2SF.svg","response":1,"trial_type":"image-button-response","trial_index":105,"time_elapsed":425792,"internal_node_id":"0.0-4.0-0.49","subject_id":"5e67b6874b800e053bb8caf8","study_id":"6197b3f67c2b5cd3b6d9596a","session_id":"619be78a9905952038ee9023","condition":"full-information","relevant_dimensions":["antennae","wings"],"bee_group":{"antennae":"A","wings":"2","pattern":"X","legs":"X"},"action":"avoid","summary":"bad-avoid","bonus":0.8600000000000009},{"rt":904.9000000357628,"stimulus":"\n                    <p><b>Action: <em>avoid</em></b></p>\n                    <p>This is the bee that you just saw.</p>\n                    <img src=\"bees-with-color/bee-B2SF.svg\" width=\"200\">\n                    <p><span class=\"redText\">Bad choice,</span> the bee was friendly.<br>Your bonus pay is unchanged, and remains at $0.64.</p>\n            ","response":0,"trial_type":"html-button-response","trial_index":106,"time_elapsed":426699,"internal_node_id":"0.0-4.0-1.49","subject_id":"5e67b6874b800e053bb8caf8","study_id":"6197b3f67c2b5cd3b6d9596a","session_id":"619be78a9905952038ee9023","condition":"full-information","relevant_dimensions":["antennae","wings"],"bee_group":{"antennae":"A","wings":"2","pattern":"X","legs":"X"},"bonus":0.8600000000000009},{"rt":2735.199999988079,"stimulus":"bees-with-color/bee-A1DM.svg","response":1,"trial_type":"image-button-response","trial_index":107,"time_elapsed":429437,"internal_node_id":"0.0-4.0-0.50","subject_id":"5e67b6874b800e053bb8caf8","study_id":"6197b3f67c2b5cd3b6d9596a","session_id":"619be78a9905952038ee9023","condition":"full-information","relevant_dimensions":["antennae","wings"],"bee_group":{"antennae":"A","wings":"2","pattern":"X","legs":"X"},"action":"avoid","summary":"bad-avoid","bonus":0.8600000000000009},{"rt":957.8000000119209,"stimulus":"\n                    <p><b>Action: <em>avoid</em></b></p>\n                    <p>This is the bee that you just saw.</p>\n                    <img src=\"bees-with-color/bee-A1DM.svg\" width=\"200\">\n                    <p><span class=\"redText\">Bad choice,</span> the bee was friendly.<br>Your bonus pay is unchanged, and remains at $0.64.</p>\n            ","response":0,"trial_type":"html-button-response","trial_index":108,"time_elapsed":430397,"internal_node_id":"0.0-4.0-1.50","subject_id":"5e67b6874b800e053bb8caf8","study_id":"6197b3f67c2b5cd3b6d9596a","session_id":"619be78a9905952038ee9023","condition":"full-information","relevant_dimensions":["antennae","wings"],"bee_group":{"antennae":"A","wings":"2","pattern":"X","legs":"X"},"bonus":0.8600000000000009},{"rt":2089.899999976158,"stimulus":"bees-with-color/bee-B2DM.svg","response":1,"trial_type":"image-button-response","trial_index":109,"time_elapsed":432490,"internal_node_id":"0.0-4.0-0.51","subject_id":"5e67b6874b800e053bb8caf8","study_id":"6197b3f67c2b5cd3b6d9596a","session_id":"619be78a9905952038ee9023","condition":"full-information","relevant_dimensions":["antennae","wings"],"bee_group":{"antennae":"A","wings":"2","pattern":"X","legs":"X"},"action":"avoid","summary":"bad-avoid","bonus":0.8600000000000009},{"rt":770.2999999523163,"stimulus":"\n                    <p><b>Action: <em>avoid</em></b></p>\n                    <p>This is the bee that you just saw.</p>\n                    <img src=\"bees-with-color/bee-B2DM.svg\" width=\"200\">\n                    <p><span class=\"redText\">Bad choice,</span> the bee was friendly.<br>Your bonus pay is unchanged, and remains at $0.64.</p>\n            ","response":0,"trial_type":"html-button-response","trial_index":110,"time_elapsed":433262,"internal_node_id":"0.0-4.0-1.51","subject_id":"5e67b6874b800e053bb8caf8","study_id":"6197b3f67c2b5cd3b6d9596a","session_id":"619be78a9905952038ee9023","condition":"full-information","relevant_dimensions":["antennae","wings"],"bee_group":{"antennae":"A","wings":"2","pattern":"X","legs":"X"},"bonus":0.8600000000000009},{"rt":1273,"stimulus":"bees-with-color/bee-B1SF.svg","response":0,"trial_type":"image-button-response","trial_index":111,"time_elapsed":434537,"internal_node_id":"0.0-4.0-0.52","subject_id":"5e67b6874b800e053bb8caf8","study_id":"6197b3f67c2b5cd3b6d9596a","session_id":"619be78a9905952038ee9023","condition":"full-information","relevant_dimensions":["antennae","wings"],"bee_group":{"antennae":"A","wings":"2","pattern":"X","legs":"X"},"action":"harvest","summary":"good-harvest","bonus":0.8600000000000009},{"rt":732.6999999880791,"stimulus":"\n                    <p><b>Action: <em>harvest</em></b></p>\n                    <p>This is the bee that you just saw.</p>\n                    <img src=\"bees-with-color/bee-B1SF.svg\" width=\"200\">\n                    <p><span class=\"greenText\"><b>Successful harvest!</b></span><br>Your pay has increased by $0.02. Your bonus pay is now $0.66.</p>\n            ","response":0,"trial_type":"html-button-response","trial_index":112,"time_elapsed":435272,"internal_node_id":"0.0-4.0-1.52","subject_id":"5e67b6874b800e053bb8caf8","study_id":"6197b3f67c2b5cd3b6d9596a","session_id":"619be78a9905952038ee9023","condition":"full-information","relevant_dimensions":["antennae","wings"],"bee_group":{"antennae":"A","wings":"2","pattern":"X","legs":"X"},"bonus":0.8600000000000009},{"rt":1558.199999988079,"stimulus":"bees-with-color/bee-B1DF.svg","response":1,"trial_type":"image-button-response","trial_index":113,"time_elapsed":436832,"internal_node_id":"0.0-4.0-0.53","subject_id":"5e67b6874b800e053bb8caf8","study_id":"6197b3f67c2b5cd3b6d9596a","session_id":"619be78a9905952038ee9023","condition":"full-information","relevant_dimensions":["antennae","wings"],"bee_group":{"antennae":"A","wings":"2","pattern":"X","legs":"X"},"action":"avoid","summary":"bad-avoid","bonus":0.8600000000000009},{"rt":717.6000000238419,"stimulus":"\n                    <p><b>Action: <em>avoid</em></b></p>\n                    <p>This is the bee that you just saw.</p>\n                    <img src=\"bees-with-color/bee-B1DF.svg\" width=\"200\">\n                    <p><span class=\"redText\">Bad choice,</span> the bee was friendly.<br>Your bonus pay is unchanged, and remains at $0.66.</p>\n            ","response":0,"trial_type":"html-button-response","trial_index":114,"time_elapsed":437552,"internal_node_id":"0.0-4.0-1.53","subject_id":"5e67b6874b800e053bb8caf8","study_id":"6197b3f67c2b5cd3b6d9596a","session_id":"619be78a9905952038ee9023","condition":"full-information","relevant_dimensions":["antennae","wings"],"bee_group":{"antennae":"A","wings":"2","pattern":"X","legs":"X"},"bonus":0.8600000000000009},{"rt":1497.800000011921,"stimulus":"bees-with-color/bee-A1SF.svg","response":1,"trial_type":"image-button-response","trial_index":115,"time_elapsed":439052,"internal_node_id":"0.0-4.0-0.54","subject_id":"5e67b6874b800e053bb8caf8","study_id":"6197b3f67c2b5cd3b6d9596a","session_id":"619be78a9905952038ee9023","condition":"full-information","relevant_dimensions":["antennae","wings"],"bee_group":{"antennae":"A","wings":"2","pattern":"X","legs":"X"},"action":"avoid","summary":"bad-avoid","bonus":0.8600000000000009},{"rt":597.3999999761581,"stimulus":"\n                    <p><b>Action: <em>avoid</em></b></p>\n                    <p>This is the bee that you just saw.</p>\n                    <img src=\"bees-with-color/bee-A1SF.svg\" width=\"200\">\n                    <p><span class=\"redText\">Bad choice,</span> the bee was friendly.<br>Your bonus pay is unchanged, and remains at $0.66.</p>\n            ","response":0,"trial_type":"html-button-response","trial_index":116,"time_elapsed":439652,"internal_node_id":"0.0-4.0-1.54","subject_id":"5e67b6874b800e053bb8caf8","study_id":"6197b3f67c2b5cd3b6d9596a","session_id":"619be78a9905952038ee9023","condition":"full-information","relevant_dimensions":["antennae","wings"],"bee_group":{"antennae":"A","wings":"2","pattern":"X","legs":"X"},"bonus":0.8600000000000009},{"rt":1182.8999999761581,"stimulus":"bees-with-color/bee-A2SM.svg","response":1,"trial_type":"image-button-response","trial_index":117,"time_elapsed":440837,"internal_node_id":"0.0-4.0-0.55","subject_id":"5e67b6874b800e053bb8caf8","study_id":"6197b3f67c2b5cd3b6d9596a","session_id":"619be78a9905952038ee9023","condition":"full-information","relevant_dimensions":["antennae","wings"],"bee_group":{"antennae":"A","wings":"2","pattern":"X","legs":"X"},"action":"avoid","summary":"good-avoid","bonus":0.8600000000000009},{"rt":897.1999999880791,"stimulus":"\n                    <p><b>Action: <em>avoid</em></b></p>\n                    <p>This is the bee that you just saw.</p>\n                    <img src=\"bees-with-color/bee-A2SM.svg\" width=\"200\">\n                    <p><span class=\"greenText\">Good choice!</span>  This bee would have stung you.<br>Your bonus pay is unchanged, and remains at $0.66.</p>\n            ","response":0,"trial_type":"html-button-response","trial_index":118,"time_elapsed":441737,"internal_node_id":"0.0-4.0-1.55","subject_id":"5e67b6874b800e053bb8caf8","study_id":"6197b3f67c2b5cd3b6d9596a","session_id":"619be78a9905952038ee9023","condition":"full-information","relevant_dimensions":["antennae","wings"],"bee_group":{"antennae":"A","wings":"2","pattern":"X","legs":"X"},"bonus":0.8600000000000009},{"rt":1737.0999999642372,"stimulus":"bees-with-color/bee-B2DF.svg","response":1,"trial_type":"image-button-response","trial_index":119,"time_elapsed":443477,"internal_node_id":"0.0-4.0-0.56","subject_id":"5e67b6874b800e053bb8caf8","study_id":"6197b3f67c2b5cd3b6d9596a","session_id":"619be78a9905952038ee9023","condition":"full-information","relevant_dimensions":["antennae","wings"],"bee_group":{"antennae":"A","wings":"2","pattern":"X","legs":"X"},"action":"avoid","summary":"bad-avoid","bonus":0.8600000000000009},{"rt":530.0999999642372,"stimulus":"\n                    <p><b>Action: <em>avoid</em></b></p>\n                    <p>This is the bee that you just saw.</p>\n                    <img src=\"bees-with-color/bee-B2DF.svg\" width=\"200\">\n                    <p><span class=\"redText\">Bad choice,</span> the bee was friendly.<br>Your bonus pay is unchanged, and remains at $0.66.</p>\n            ","response":0,"trial_type":"html-button-response","trial_index":120,"time_elapsed":444010,"internal_node_id":"0.0-4.0-1.56","subject_id":"5e67b6874b800e053bb8caf8","study_id":"6197b3f67c2b5cd3b6d9596a","session_id":"619be78a9905952038ee9023","condition":"full-information","relevant_dimensions":["antennae","wings"],"bee_group":{"antennae":"A","wings":"2","pattern":"X","legs":"X"},"bonus":0.8600000000000009},{"rt":1055.2999999523163,"stimulus":"bees-with-color/bee-B1SM.svg","response":0,"trial_type":"image-button-response","trial_index":121,"time_elapsed":445067,"internal_node_id":"0.0-4.0-0.57","subject_id":"5e67b6874b800e053bb8caf8","study_id":"6197b3f67c2b5cd3b6d9596a","session_id":"619be78a9905952038ee9023","condition":"full-information","relevant_dimensions":["antennae","wings"],"bee_group":{"antennae":"A","wings":"2","pattern":"X","legs":"X"},"action":"harvest","summary":"good-harvest","bonus":0.8600000000000009},{"rt":747.4000000357628,"stimulus":"\n                    <p><b>Action: <em>harvest</em></b></p>\n                    <p>This is the bee that you just saw.</p>\n                    <img src=\"bees-with-color/bee-B1SM.svg\" width=\"200\">\n                    <p><span class=\"greenText\"><b>Successful harvest!</b></span><br>Your pay has increased by $0.02. Your bonus pay is now $0.68.</p>\n            ","response":0,"trial_type":"html-button-response","trial_index":122,"time_elapsed":445817,"internal_node_id":"0.0-4.0-1.57","subject_id":"5e67b6874b800e053bb8caf8","study_id":"6197b3f67c2b5cd3b6d9596a","session_id":"619be78a9905952038ee9023","condition":"full-information","relevant_dimensions":["antennae","wings"],"bee_group":{"antennae":"A","wings":"2","pattern":"X","legs":"X"},"bonus":0.8600000000000009},{"rt":1587.800000011921,"stimulus":"bees-with-color/bee-A1DF.svg","response":0,"trial_type":"image-button-response","trial_index":123,"time_elapsed":447407,"internal_node_id":"0.0-4.0-0.58","subject_id":"5e67b6874b800e053bb8caf8","study_id":"6197b3f67c2b5cd3b6d9596a","session_id":"619be78a9905952038ee9023","condition":"full-information","relevant_dimensions":["antennae","wings"],"bee_group":{"antennae":"A","wings":"2","pattern":"X","legs":"X"},"action":"harvest","summary":"good-harvest","bonus":0.8600000000000009},{"rt":754.7999999523163,"stimulus":"\n                    <p><b>Action: <em>harvest</em></b></p>\n                    <p>This is the bee that you just saw.</p>\n                    <img src=\"bees-with-color/bee-A1DF.svg\" width=\"200\">\n                    <p><span class=\"greenText\"><b>Successful harvest!</b></span><br>Your pay has increased by $0.02. Your bonus pay is now $0.70.</p>\n            ","response":0,"trial_type":"html-button-response","trial_index":124,"time_elapsed":448164,"internal_node_id":"0.0-4.0-1.58","subject_id":"5e67b6874b800e053bb8caf8","study_id":"6197b3f67c2b5cd3b6d9596a","session_id":"619be78a9905952038ee9023","condition":"full-information","relevant_dimensions":["antennae","wings"],"bee_group":{"antennae":"A","wings":"2","pattern":"X","legs":"X"},"bonus":0.8600000000000009},{"rt":1618.8999999761581,"stimulus":"bees-with-color/bee-A1SM.svg","response":0,"trial_type":"image-button-response","trial_index":125,"time_elapsed":449785,"internal_node_id":"0.0-4.0-0.59","subject_id":"5e67b6874b800e053bb8caf8","study_id":"6197b3f67c2b5cd3b6d9596a","session_id":"619be78a9905952038ee9023","condition":"full-information","relevant_dimensions":["antennae","wings"],"bee_group":{"antennae":"A","wings":"2","pattern":"X","legs":"X"},"action":"harvest","summary":"good-harvest","bonus":0.8600000000000009},{"rt":793.1000000238419,"stimulus":"\n                    <p><b>Action: <em>harvest</em></b></p>\n                    <p>This is the bee that you just saw.</p>\n                    <img src=\"bees-with-color/bee-A1SM.svg\" width=\"200\">\n                    <p><span class=\"greenText\"><b>Successful harvest!</b></span><br>Your pay has increased by $0.02. Your bonus pay is now $0.72.</p>\n            ","response":0,"trial_type":"html-button-response","trial_index":126,"time_elapsed":450580,"internal_node_id":"0.0-4.0-1.59","subject_id":"5e67b6874b800e053bb8caf8","study_id":"6197b3f67c2b5cd3b6d9596a","session_id":"619be78a9905952038ee9023","condition":"full-information","relevant_dimensions":["antennae","wings"],"bee_group":{"antennae":"A","wings":"2","pattern":"X","legs":"X"},"bonus":0.8600000000000009},{"rt":2030.699999988079,"stimulus":"bees-with-color/bee-A2SF.svg","response":1,"trial_type":"image-button-response","trial_index":127,"time_elapsed":452612,"internal_node_id":"0.0-4.0-0.60","subject_id":"5e67b6874b800e053bb8caf8","study_id":"6197b3f67c2b5cd3b6d9596a","session_id":"619be78a9905952038ee9023","condition":"full-information","relevant_dimensions":["antennae","wings"],"bee_group":{"antennae":"A","wings":"2","pattern":"X","legs":"X"},"action":"avoid","summary":"good-avoid","bonus":0.8600000000000009},{"rt":868.3000000119209,"stimulus":"\n                    <p><b>Action: <em>avoid</em></b></p>\n                    <p>This is the bee that you just saw.</p>\n                    <img src=\"bees-with-color/bee-A2SF.svg\" width=\"200\">\n                    <p><span class=\"greenText\">Good choice!</span>  This bee would have stung you.<br>Your bonus pay is unchanged, and remains at $0.72.</p>\n            ","response":0,"trial_type":"html-button-response","trial_index":128,"time_elapsed":453482,"internal_node_id":"0.0-4.0-1.60","subject_id":"5e67b6874b800e053bb8caf8","study_id":"6197b3f67c2b5cd3b6d9596a","session_id":"619be78a9905952038ee9023","condition":"full-information","relevant_dimensions":["antennae","wings"],"bee_group":{"antennae":"A","wings":"2","pattern":"X","legs":"X"},"bonus":0.8600000000000009},{"rt":3800.599999964237,"stimulus":"bees-with-color/bee-A2DF.svg","response":1,"trial_type":"image-button-response","trial_index":129,"time_elapsed":457285,"internal_node_id":"0.0-4.0-0.61","subject_id":"5e67b6874b800e053bb8caf8","study_id":"6197b3f67c2b5cd3b6d9596a","session_id":"619be78a9905952038ee9023","condition":"full-information","relevant_dimensions":["antennae","wings"],"bee_group":{"antennae":"A","wings":"2","pattern":"X","legs":"X"},"action":"avoid","summary":"good-avoid","bonus":0.8600000000000009},{"rt":793.5,"stimulus":"\n                    <p><b>Action: <em>avoid</em></b></p>\n                    <p>This is the bee that you just saw.</p>\n                    <img src=\"bees-with-color/bee-A2DF.svg\" width=\"200\">\n                    <p><span class=\"greenText\">Good choice!</span>  This bee would have stung you.<br>Your bonus pay is unchanged, and remains at $0.72.</p>\n            ","response":0,"trial_type":"html-button-response","trial_index":130,"time_elapsed":458080,"internal_node_id":"0.0-4.0-1.61","subject_id":"5e67b6874b800e053bb8caf8","study_id":"6197b3f67c2b5cd3b6d9596a","session_id":"619be78a9905952038ee9023","condition":"full-information","relevant_dimensions":["antennae","wings"],"bee_group":{"antennae":"A","wings":"2","pattern":"X","legs":"X"},"bonus":0.8600000000000009},{"rt":6994.800000011921,"stimulus":"bees-with-color/bee-B1DM.svg","response":1,"trial_type":"image-button-response","trial_index":131,"time_elapsed":465078,"internal_node_id":"0.0-4.0-0.62","subject_id":"5e67b6874b800e053bb8caf8","study_id":"6197b3f67c2b5cd3b6d9596a","session_id":"619be78a9905952038ee9023","condition":"full-information","relevant_dimensions":["antennae","wings"],"bee_group":{"antennae":"A","wings":"2","pattern":"X","legs":"X"},"action":"avoid","summary":"bad-avoid","bonus":0.8600000000000009},{"rt":1055.0999999642372,"stimulus":"\n                    <p><b>Action: <em>avoid</em></b></p>\n                    <p>This is the bee that you just saw.</p>\n                    <img src=\"bees-with-color/bee-B1DM.svg\" width=\"200\">\n                    <p><span class=\"redText\">Bad choice,</span> the bee was friendly.<br>Your bonus pay is unchanged, and remains at $0.72.</p>\n            ","response":0,"trial_type":"html-button-response","trial_index":132,"time_elapsed":466135,"internal_node_id":"0.0-4.0-1.62","subject_id":"5e67b6874b800e053bb8caf8","study_id":"6197b3f67c2b5cd3b6d9596a","session_id":"619be78a9905952038ee9023","condition":"full-information","relevant_dimensions":["antennae","wings"],"bee_group":{"antennae":"A","wings":"2","pattern":"X","legs":"X"},"bonus":0.8600000000000009},{"rt":2593,"stimulus":"bees-with-color/bee-B2SM.svg","response":1,"trial_type":"image-button-response","trial_index":133,"time_elapsed":468730,"internal_node_id":"0.0-4.0-0.63","subject_id":"5e67b6874b800e053bb8caf8","study_id":"6197b3f67c2b5cd3b6d9596a","session_id":"619be78a9905952038ee9023","condition":"full-information","relevant_dimensions":["antennae","wings"],"bee_group":{"antennae":"A","wings":"2","pattern":"X","legs":"X"},"action":"avoid","summary":"bad-avoid","bonus":0.8600000000000009},{"rt":785.6000000238419,"stimulus":"\n                    <p><b>Action: <em>avoid</em></b></p>\n                    <p>This is the bee that you just saw.</p>\n                    <img src=\"bees-with-color/bee-B2SM.svg\" width=\"200\">\n                    <p><span class=\"redText\">Bad choice,</span> the bee was friendly.<br>Your bonus pay is unchanged, and remains at $0.72.</p>\n            ","response":0,"trial_type":"html-button-response","trial_index":134,"time_elapsed":469517,"internal_node_id":"0.0-4.0-1.63","subject_id":"5e67b6874b800e053bb8caf8","study_id":"6197b3f67c2b5cd3b6d9596a","session_id":"619be78a9905952038ee9023","condition":"full-information","relevant_dimensions":["antennae","wings"],"bee_group":{"antennae":"A","wings":"2","pattern":"X","legs":"X"},"bonus":0.8600000000000009},{"rt":12015.300000011921,"stimulus":"You have completed the first part of this experiment.<br><br>You will now begin a shorter second part, in which you will receive no feedback.<br>The same rules regarding bonus pay apply.<br><br>Press any key to begin.","response":" ","trial_type":"html-keyboard-response","trial_index":135,"time_elapsed":481535,"internal_node_id":"0.0-5.0","subject_id":"5e67b6874b800e053bb8caf8","study_id":"6197b3f67c2b5cd3b6d9596a","session_id":"619be78a9905952038ee9023","condition":"full-information","relevant_dimensions":["antennae","wings"],"bee_group":{"antennae":"A","wings":"2","pattern":"X","legs":"X"},"bonus":0.8600000000000009},{"rt":3749.199999988079,"stimulus":"bees-with-color/bee-A1SM.svg","response":0,"trial_type":"image-button-response","trial_index":136,"time_elapsed":485298,"internal_node_id":"0.0-6.0-0.0","subject_id":"5e67b6874b800e053bb8caf8","study_id":"6197b3f67c2b5cd3b6d9596a","session_id":"619be78a9905952038ee9023","condition":"full-information","relevant_dimensions":["antennae","wings"],"bee_group":{"antennae":"A","wings":"2","pattern":"X","legs":"X"},"bonus":0.8600000000000009},{"rt":4992,"stimulus":"bees-with-color/bee-B1DM.svg","response":0,"trial_type":"image-button-response","trial_index":137,"time_elapsed":490293,"internal_node_id":"0.0-6.0-0.1","subject_id":"5e67b6874b800e053bb8caf8","study_id":"6197b3f67c2b5cd3b6d9596a","session_id":"619be78a9905952038ee9023","condition":"full-information","relevant_dimensions":["antennae","wings"],"bee_group":{"antennae":"A","wings":"2","pattern":"X","legs":"X"},"bonus":0.8600000000000009},{"rt":2583.600000023842,"stimulus":"bees-with-color/bee-B2DF.svg","response":0,"trial_type":"image-button-response","trial_index":138,"time_elapsed":492881,"internal_node_id":"0.0-6.0-0.2","subject_id":"5e67b6874b800e053bb8caf8","study_id":"6197b3f67c2b5cd3b6d9596a","session_id":"619be78a9905952038ee9023","condition":"full-information","relevant_dimensions":["antennae","wings"],"bee_group":{"antennae":"A","wings":"2","pattern":"X","legs":"X"},"bonus":0.8600000000000009},{"rt":1841.3999999761581,"stimulus":"bees-with-color/bee-B2DM.svg","response":1,"trial_type":"image-button-response","trial_index":139,"time_elapsed":494726,"internal_node_id":"0.0-6.0-0.3","subject_id":"5e67b6874b800e053bb8caf8","study_id":"6197b3f67c2b5cd3b6d9596a","session_id":"619be78a9905952038ee9023","condition":"full-information","relevant_dimensions":["antennae","wings"],"bee_group":{"antennae":"A","wings":"2","pattern":"X","legs":"X"},"bonus":0.8600000000000009},{"rt":1324.3999999761581,"stimulus":"bees-with-color/bee-A2DM.svg","response":1,"trial_type":"image-button-response","trial_index":140,"time_elapsed":496054,"internal_node_id":"0.0-6.0-0.4","subject_id":"5e67b6874b800e053bb8caf8","study_id":"6197b3f67c2b5cd3b6d9596a","session_id":"619be78a9905952038ee9023","condition":"full-information","relevant_dimensions":["antennae","wings"],"bee_group":{"antennae":"A","wings":"2","pattern":"X","legs":"X"},"bonus":0.8600000000000009},{"rt":1384.5,"stimulus":"bees-with-color/bee-B1SF.svg","response":0,"trial_type":"image-button-response","trial_index":141,"time_elapsed":497441,"internal_node_id":"0.0-6.0-0.5","subject_id":"5e67b6874b800e053bb8caf8","study_id":"6197b3f67c2b5cd3b6d9596a","session_id":"619be78a9905952038ee9023","condition":"full-information","relevant_dimensions":["antennae","wings"],"bee_group":{"antennae":"A","wings":"2","pattern":"X","legs":"X"},"bonus":0.8600000000000009},{"rt":2029.300000011921,"stimulus":"bees-with-color/bee-A2SM.svg","response":1,"trial_type":"image-button-response","trial_index":142,"time_elapsed":499474,"internal_node_id":"0.0-6.0-0.6","subject_id":"5e67b6874b800e053bb8caf8","study_id":"6197b3f67c2b5cd3b6d9596a","session_id":"619be78a9905952038ee9023","condition":"full-information","relevant_dimensions":["antennae","wings"],"bee_group":{"antennae":"A","wings":"2","pattern":"X","legs":"X"},"bonus":0.8600000000000009},{"rt":1152.2000000476837,"stimulus":"bees-with-color/bee-A1SF.svg","response":0,"trial_type":"image-button-response","trial_index":143,"time_elapsed":500629,"internal_node_id":"0.0-6.0-0.7","subject_id":"5e67b6874b800e053bb8caf8","study_id":"6197b3f67c2b5cd3b6d9596a","session_id":"619be78a9905952038ee9023","condition":"full-information","relevant_dimensions":["antennae","wings"],"bee_group":{"antennae":"A","wings":"2","pattern":"X","legs":"X"},"bonus":0.8600000000000009},{"rt":1301.9000000357628,"stimulus":"bees-with-color/bee-A1DF.svg","response":0,"trial_type":"image-button-response","trial_index":144,"time_elapsed":501934,"internal_node_id":"0.0-6.0-0.8","subject_id":"5e67b6874b800e053bb8caf8","study_id":"6197b3f67c2b5cd3b6d9596a","session_id":"619be78a9905952038ee9023","condition":"full-information","relevant_dimensions":["antennae","wings"],"bee_group":{"antennae":"A","wings":"2","pattern":"X","legs":"X"},"bonus":0.8600000000000009},{"rt":2052.5,"stimulus":"bees-with-color/bee-B2SM.svg","response":1,"trial_type":"image-button-response","trial_index":145,"time_elapsed":503989,"internal_node_id":"0.0-6.0-0.9","subject_id":"5e67b6874b800e053bb8caf8","study_id":"6197b3f67c2b5cd3b6d9596a","session_id":"619be78a9905952038ee9023","condition":"full-information","relevant_dimensions":["antennae","wings"],"bee_group":{"antennae":"A","wings":"2","pattern":"X","legs":"X"},"bonus":0.8600000000000009},{"rt":1504.800000011921,"stimulus":"bees-with-color/bee-B1SM.svg","response":0,"trial_type":"image-button-response","trial_index":146,"time_elapsed":505496,"internal_node_id":"0.0-6.0-0.10","subject_id":"5e67b6874b800e053bb8caf8","study_id":"6197b3f67c2b5cd3b6d9596a","session_id":"619be78a9905952038ee9023","condition":"full-information","relevant_dimensions":["antennae","wings"],"bee_group":{"antennae":"A","wings":"2","pattern":"X","legs":"X"},"bonus":0.8600000000000009},{"rt":5854.699999988079,"stimulus":"bees-with-color/bee-A2DF.svg","response":0,"trial_type":"image-button-response","trial_index":147,"time_elapsed":511354,"internal_node_id":"0.0-6.0-0.11","subject_id":"5e67b6874b800e053bb8caf8","study_id":"6197b3f67c2b5cd3b6d9596a","session_id":"619be78a9905952038ee9023","condition":"full-information","relevant_dimensions":["antennae","wings"],"bee_group":{"antennae":"A","wings":"2","pattern":"X","legs":"X"},"bonus":0.8600000000000009},{"rt":2539.400000035763,"stimulus":"bees-with-color/bee-A1DM.svg","response":0,"trial_type":"image-button-response","trial_index":148,"time_elapsed":513896,"internal_node_id":"0.0-6.0-0.12","subject_id":"5e67b6874b800e053bb8caf8","study_id":"6197b3f67c2b5cd3b6d9596a","session_id":"619be78a9905952038ee9023","condition":"full-information","relevant_dimensions":["antennae","wings"],"bee_group":{"antennae":"A","wings":"2","pattern":"X","legs":"X"},"bonus":0.8600000000000009},{"rt":1076.800000011921,"stimulus":"bees-with-color/bee-A2SF.svg","response":1,"trial_type":"image-button-response","trial_index":149,"time_elapsed":514976,"internal_node_id":"0.0-6.0-0.13","subject_id":"5e67b6874b800e053bb8caf8","study_id":"6197b3f67c2b5cd3b6d9596a","session_id":"619be78a9905952038ee9023","condition":"full-information","relevant_dimensions":["antennae","wings"],"bee_group":{"antennae":"A","wings":"2","pattern":"X","legs":"X"},"bonus":0.8600000000000009},{"rt":4609.599999964237,"stimulus":"bees-with-color/bee-B1DF.svg","response":0,"trial_type":"image-button-response","trial_index":150,"time_elapsed":519589,"internal_node_id":"0.0-6.0-0.14","subject_id":"5e67b6874b800e053bb8caf8","study_id":"6197b3f67c2b5cd3b6d9596a","session_id":"619be78a9905952038ee9023","condition":"full-information","relevant_dimensions":["antennae","wings"],"bee_group":{"antennae":"A","wings":"2","pattern":"X","legs":"X"},"bonus":0.8600000000000009},{"rt":1691.800000011921,"stimulus":"bees-with-color/bee-B2SF.svg","response":1,"trial_type":"image-button-response","trial_index":151,"time_elapsed":521284,"internal_node_id":"0.0-6.0-0.15","subject_id":"5e67b6874b800e053bb8caf8","study_id":"6197b3f67c2b5cd3b6d9596a","session_id":"619be78a9905952038ee9023","condition":"full-information","relevant_dimensions":["antennae","wings"],"bee_group":{"antennae":"A","wings":"2","pattern":"X","legs":"X"},"bonus":0.8600000000000009},{"rt":5247.800000011921,"stimulus":"bees-with-color/bee-A2DM.svg","response":0,"trial_type":"image-button-response","trial_index":152,"time_elapsed":526534,"internal_node_id":"0.0-6.0-0.16","subject_id":"5e67b6874b800e053bb8caf8","study_id":"6197b3f67c2b5cd3b6d9596a","session_id":"619be78a9905952038ee9023","condition":"full-information","relevant_dimensions":["antennae","wings"],"bee_group":{"antennae":"A","wings":"2","pattern":"X","legs":"X"},"bonus":0.8600000000000009},{"rt":1827,"stimulus":"bees-with-color/bee-B2SM.svg","response":1,"trial_type":"image-button-response","trial_index":153,"time_elapsed":528364,"internal_node_id":"0.0-6.0-0.17","subject_id":"5e67b6874b800e053bb8caf8","study_id":"6197b3f67c2b5cd3b6d9596a","session_id":"619be78a9905952038ee9023","condition":"full-information","relevant_dimensions":["antennae","wings"],"bee_group":{"antennae":"A","wings":"2","pattern":"X","legs":"X"},"bonus":0.8600000000000009},{"rt":1332.699999988079,"stimulus":"bees-with-color/bee-B1DM.svg","response":0,"trial_type":"image-button-response","trial_index":154,"time_elapsed":529699,"internal_node_id":"0.0-6.0-0.18","subject_id":"5e67b6874b800e053bb8caf8","study_id":"6197b3f67c2b5cd3b6d9596a","session_id":"619be78a9905952038ee9023","condition":"full-information","relevant_dimensions":["antennae","wings"],"bee_group":{"antennae":"A","wings":"2","pattern":"X","legs":"X"},"bonus":0.8600000000000009},{"rt":965,"stimulus":"bees-with-color/bee-B1DF.svg","response":0,"trial_type":"image-button-response","trial_index":155,"time_elapsed":530667,"internal_node_id":"0.0-6.0-0.19","subject_id":"5e67b6874b800e053bb8caf8","study_id":"6197b3f67c2b5cd3b6d9596a","session_id":"619be78a9905952038ee9023","condition":"full-information","relevant_dimensions":["antennae","wings"],"bee_group":{"antennae":"A","wings":"2","pattern":"X","legs":"X"},"bonus":0.8600000000000009},{"rt":844.9000000357628,"stimulus":"bees-with-color/bee-A2DF.svg","response":1,"trial_type":"image-button-response","trial_index":156,"time_elapsed":531514,"internal_node_id":"0.0-6.0-0.20","subject_id":"5e67b6874b800e053bb8caf8","study_id":"6197b3f67c2b5cd3b6d9596a","session_id":"619be78a9905952038ee9023","condition":"full-information","relevant_dimensions":["antennae","wings"],"bee_group":{"antennae":"A","wings":"2","pattern":"X","legs":"X"},"bonus":0.8600000000000009},{"rt":4677.5,"stimulus":"bees-with-color/bee-A1SM.svg","response":1,"trial_type":"image-button-response","trial_index":157,"time_elapsed":536194,"internal_node_id":"0.0-6.0-0.21","subject_id":"5e67b6874b800e053bb8caf8","study_id":"6197b3f67c2b5cd3b6d9596a","session_id":"619be78a9905952038ee9023","condition":"full-information","relevant_di