[{"success":true,"trial_type":"fullscreen","trial_index":0,"time_elapsed":12657,"internal_node_id":"0.0-0.0","subject_id":"6140c0458076b4a939ae4bb1","study_id":"60edd13110225f80f9f3709b","session_id":"6196c4a60e3f3a9e2dc92cdf","condition":"full-information","relevant_dimensions":["antennae","pattern"],"bee_group":{"antennae":"B","wings":"X","pattern":"D","legs":"X"},"bonus":1.1600000000000008},{"success":true,"timeout":false,"failed_images":[],"failed_audio":[],"failed_video":[],"trial_type":"preload","trial_index":1,"time_elapsed":13905,"internal_node_id":"0.0-1.0","subject_id":"6140c0458076b4a939ae4bb1","study_id":"60edd13110225f80f9f3709b","session_id":"6196c4a60e3f3a9e2dc92cdf","condition":"full-information","relevant_dimensions":["antennae","pattern"],"bee_group":{"antennae":"B","wings":"X","pattern":"D","legs":"X"},"bonus":1.1600000000000008},{"rt":6220.9000000003725,"stimulus":"Welcome! Press any key to begin.","response":" ","trial_type":"html-keyboard-response","trial_index":2,"time_elapsed":20127,"internal_node_id":"0.0-2.0","subject_id":"6140c0458076b4a939ae4bb1","study_id":"60edd13110225f80f9f3709b","session_id":"6196c4a60e3f3a9e2dc92cdf","condition":"full-information","relevant_dimensions":["antennae","pattern"],"bee_group":{"antennae":"B","wings":"X","pattern":"D","legs":"X"},"bonus":1.1600000000000008},{"view_history":[{"page_index":0,"viewing_time":5046.5999999996275},{"page_index":1,"viewing_time":20191.5},{"page_index":2,"viewing_time":13620.699999999255},{"page_index":3,"viewing_time":16148},{"page_index":4,"viewing_time":8464},{"page_index":5,"viewing_time":14110},{"page_index":6,"viewing_time":25732.10000000149},{"page_index":7,"viewing_time":6983.5999999996275},{"page_index":8,"viewing_time":5054.4000000003725},{"page_index":9,"viewing_time":4254.0999999996275},{"page_index":10,"viewing_time":4203.9000000003725},{"page_index":11,"viewing_time":12019.599999999627},{"page_index":12,"viewing_time":8536.299999998882},{"page_index":13,"viewing_time":1276.1000000014901},{"page_index":14,"viewing_time":2279.699999999255}],"rt":147921,"trial_type":"instructions","trial_index":3,"time_elapsed":168049,"internal_node_id":"0.0-3.0-0.0","subject_id":"6140c0458076b4a939ae4bb1","study_id":"60edd13110225f80f9f3709b","session_id":"6196c4a60e3f3a9e2dc92cdf","condition":"full-information","relevant_dimensions":["antennae","pattern"],"bee_group":{"antennae":"B","wings":"X","pattern":"D","legs":"X"},"bonus":1.1600000000000008},{"rt":23832.599999999627,"response":{"Q0":["Two or six legs","Stripes or spots on body","Single or double wings","Antennae or no antennae"]},"question_order":[0],"trial_type":"survey-multi-select","trial_index":4,"time_elapsed":191886,"internal_node_id":"0.0-3.0-1.0","subject_id":"6140c0458076b4a939ae4bb1","study_id":"60edd13110225f80f9f3709b","session_id":"6196c4a60e3f3a9e2dc92cdf","condition":"full-information","relevant_dimensions":["antennae","pattern"],"bee_group":{"antennae":"B","wings":"X","pattern":"D","legs":"X"},"correct":true,"bonus":1.1600000000000008},{"rt":36455.800000000745,"response":{"Q1":"No.","Q2":"Based on the four features of the bee.","Q3":"You learn if it was friendly or dangerous, but do not alter your bonus."},"question_order":[0,1,2],"trial_type":"survey-multi-choice","trial_index":5,"time_elapsed":228345,"internal_node_id":"0.0-3.0-2.0","subject_id":"6140c0458076b4a939ae4bb1","study_id":"60edd13110225f80f9f3709b","session_id":"6196c4a60e3f3a9e2dc92cdf","condition":"full-information","relevant_dimensions":["antennae","pattern"],"bee_group":{"antennae":"B","wings":"X","pattern":"D","legs":"X"},"correct":true,"bonus":1.1600000000000008},{"rt":5006.4000000003725,"stimulus":"<p>Congrats, you got everything right<br>When you're ready, click the button below to continue to the experiment.</p>","response":0,"trial_type":"html-button-response","trial_index":6,"time_elapsed":233355,"internal_node_id":"0.0-3.0-3.0","subject_id":"6140c0458076b4a939ae4bb1","study_id":"60edd13110225f80f9f3709b","session_id":"6196c4a60e3f3a9e2dc92cdf","condition":"full-information","relevant_dimensions":["antennae","pattern"],"bee_group":{"antennae":"B","wings":"X","pattern":"D","legs":"X"},"bonus":1.1600000000000008},{"rt":40197.5,"stimulus":"bees-with-color/bee-A2SM.svg","response":0,"trial_type":"image-button-response","trial_index":7,"time_elapsed":273556,"internal_node_id":"0.0-4.0-0.0","subject_id":"6140c0458076b4a939ae4bb1","study_id":"60edd13110225f80f9f3709b","session_id":"6196c4a60e3f3a9e2dc92cdf","condition":"full-information","relevant_dimensions":["antennae","pattern"],"bee_group":{"antennae":"B","wings":"X","pattern":"D","legs":"X"},"action":"harvest","summary":"good-harvest","bonus":1.1600000000000008},{"rt":8020.800000000745,"stimulus":"\n                    <p><b>Action: <em>harvest</em></b></p>\n                    <p>This is the bee that you just saw.</p>\n                    <img src=\"bees-with-color/bee-A2SM.svg\" width=\"200\">\n                    <p><span class=\"greenText\"><b>Successful harvest!</b></span><br>Your pay has increased by $0.02. Your bonus pay is now $0.56.</p>\n            ","response":0,"trial_type":"html-button-response","trial_index":8,"time_elapsed":281579,"internal_node_id":"0.0-4.0-1.0","subject_id":"6140c0458076b4a939ae4bb1","study_id":"60edd13110225f80f9f3709b","session_id":"6196c4a60e3f3a9e2dc92cdf","condition":"full-information","relevant_dimensions":["antennae","pattern"],"bee_group":{"antennae":"B","wings":"X","pattern":"D","legs":"X"},"bonus":1.1600000000000008},{"rt":33817.800000000745,"stimulus":"bees-with-color/bee-A1SM.svg","response":0,"trial_type":"image-button-response","trial_index":9,"time_elapsed":315399,"internal_node_id":"0.0-4.0-0.1","subject_id":"6140c0458076b4a939ae4bb1","study_id":"60edd13110225f80f9f3709b","session_id":"6196c4a60e3f3a9e2dc92cdf","condition":"full-information","relevant_dimensions":["antennae","pattern"],"bee_group":{"antennae":"B","wings":"X","pattern":"D","legs":"X"},"action":"harvest","summary":"good-harvest","bonus":1.1600000000000008},{"rt":2372.4000000003725,"stimulus":"\n                    <p><b>Action: <em>harvest</em></b></p>\n                    <p>This is the bee that you just saw.</p>\n                    <img src=\"bees-with-color/bee-A1SM.svg\" width=\"200\">\n                    <p><span class=\"greenText\"><b>Successful harvest!</b></span><br>Your pay has increased by $0.02. Your bonus pay is now $0.58.</p>\n            ","response":0,"trial_type":"html-button-response","trial_index":10,"time_elapsed":317773,"internal_node_id":"0.0-4.0-1.1","subject_id":"6140c0458076b4a939ae4bb1","study_id":"60edd13110225f80f9f3709b","session_id":"6196c4a60e3f3a9e2dc92cdf","condition":"full-information","relevant_dimensions":["antennae","pattern"],"bee_group":{"antennae":"B","wings":"X","pattern":"D","legs":"X"},"bonus":1.1600000000000008},{"rt":7797.700000001118,"stimulus":"bees-with-color/bee-B1DF.svg","response":1,"trial_type":"image-button-response","trial_index":11,"time_elapsed":325573,"internal_node_id":"0.0-4.0-0.2","subject_id":"6140c0458076b4a939ae4bb1","study_id":"60edd13110225f80f9f3709b","session_id":"6196c4a60e3f3a9e2dc92cdf","condition":"full-information","relevant_dimensions":["antennae","pattern"],"bee_group":{"antennae":"B","wings":"X","pattern":"D","legs":"X"},"action":"avoid","summary":"good-avoid","bonus":1.1600000000000008},{"rt":46903.09999999963,"stimulus":"\n                    <p><b>Action: <em>avoid</em></b></p>\n                    <p>This is the bee that you just saw.</p>\n                    <img src=\"bees-with-color/bee-B1DF.svg\" width=\"200\">\n                    <p><span class=\"greenText\">Good choice!</span>  This bee would have stung you.<br>Your bonus pay is unchanged, and remains at $0.58.</p>\n            ","response":0,"trial_type":"html-button-response","trial_index":12,"time_elapsed":372477,"internal_node_id":"0.0-4.0-1.2","subject_id":"6140c0458076b4a939ae4bb1","study_id":"60edd13110225f80f9f3709b","session_id":"6196c4a60e3f3a9e2dc92cdf","condition":"full-information","relevant_dimensions":["antennae","pattern"],"bee_group":{"antennae":"B","wings":"X","pattern":"D","legs":"X"},"bonus":1.1600000000000008},{"rt":3770.5,"stimulus":"bees-with-color/bee-B2SF.svg","response":0,"trial_type":"image-button-response","trial_index":13,"time_elapsed":376249,"internal_node_id":"0.0-4.0-0.3","subject_id":"6140c0458076b4a939ae4bb1","study_id":"60edd13110225f80f9f3709b","session_id":"6196c4a60e3f3a9e2dc92cdf","condition":"full-information","relevant_dimensions":["antennae","pattern"],"bee_group":{"antennae":"B","wings":"X","pattern":"D","legs":"X"},"action":"harvest","summary":"good-harvest","bonus":1.1600000000000008},{"rt":30500.199999999255,"stimulus":"\n                    <p><b>Action: <em>harvest</em></b></p>\n                    <p>This is the bee that you just saw.</p>\n                    <img src=\"bees-with-color/bee-B2SF.svg\" width=\"200\">\n                    <p><span class=\"greenText\"><b>Successful harvest!</b></span><br>Your pay has increased by $0.02. Your bonus pay is now $0.60.</p>\n            ","response":0,"trial_type":"html-button-response","trial_index":14,"time_elapsed":406751,"internal_node_id":"0.0-4.0-1.3","subject_id":"6140c0458076b4a939ae4bb1","study_id":"60edd13110225f80f9f3709b","session_id":"6196c4a60e3f3a9e2dc92cdf","condition":"full-information","relevant_dimensions":["antennae","pattern"],"bee_group":{"antennae":"B","wings":"X","pattern":"D","legs":"X"},"bonus":1.1600000000000008},{"rt":1712.7000000011176,"stimulus":"bees-with-color/bee-A1DM.svg","response":1,"trial_type":"image-button-response","trial_index":15,"time_elapsed":408465,"internal_node_id":"0.0-4.0-0.4","subject_id":"6140c0458076b4a939ae4bb1","study_id":"60edd13110225f80f9f3709b","session_id":"6196c4a60e3f3a9e2dc92cdf","condition":"full-information","relevant_dimensions":["antennae","pattern"],"bee_group":{"antennae":"B","wings":"X","pattern":"D","legs":"X"},"action":"avoid","summary":"bad-avoid","bonus":1.1600000000000008},{"rt":28348.799999998882,"stimulus":"\n                    <p><b>Action: <em>avoid</em></b></p>\n                    <p>This is the bee that you just saw.</p>\n                    <img src=\"bees-with-color/bee-A1DM.svg\" width=\"200\">\n                    <p><span class=\"redText\">Bad choice,</span> the bee was friendly.<br>Your bonus pay is unchanged, and remains at $0.60.</p>\n            ","response":0,"trial_type":"html-button-response","trial_index":16,"time_elapsed":436815,"internal_node_id":"0.0-4.0-1.4","subject_id":"6140c0458076b4a939ae4bb1","study_id":"60edd13110225f80f9f3709b","session_id":"6196c4a60e3f3a9e2dc92cdf","condition":"full-information","relevant_dimensions":["antennae","pattern"],"bee_group":{"antennae":"B","wings":"X","pattern":"D","legs":"X"},"bonus":1.1600000000000008},{"rt":32856.09999999963,"stimulus":"bees-with-color/bee-B2DM.svg","response":0,"trial_type":"image-button-response","trial_index":17,"time_elapsed":469673,"internal_node_id":"0.0-4.0-0.5","subject_id":"6140c0458076b4a939ae4bb1","study_id":"60edd13110225f80f9f3709b","session_id":"6196c4a60e3f3a9e2dc92cdf","condition":"full-information","relevant_dimensions":["antennae","pattern"],"bee_group":{"antennae":"B","wings":"X","pattern":"D","legs":"X"},"action":"harvest","summary":"bad-harvest","bonus":1.1600000000000008},{"rt":43400.90000000037,"stimulus":"\n                    <p><b>Action: <em>harvest</em></b></p>\n                    <p>This is the bee that you just saw.</p>\n                    <img src=\"bees-with-color/bee-B2DM.svg\" width=\"200\">\n                    <p><span class=\"redText\">Bad choice, the bee was angry.</span><br><b>You have been stung!</b><br>Your pay has been decreased by $0.10. Your bonus pay is now $0.50.</p>\n            ","response":0,"trial_type":"html-button-response","trial_index":18,"time_elapsed":513076,"internal_node_id":"0.0-4.0-1.5","subject_id":"6140c0458076b4a939ae4bb1","study_id":"60edd13110225f80f9f3709b","session_id":"6196c4a60e3f3a9e2dc92cdf","condition":"full-information","relevant_dimensions":["antennae","pattern"],"bee_group":{"antennae":"B","wings":"X","pattern":"D","legs":"X"},"bonus":1.1600000000000008},{"rt":1410,"stimulus":"bees-with-color/bee-B1SF.svg","response":0,"trial_type":"image-button-response","trial_index":19,"time_elapsed":514488,"internal_node_id":"0.0-4.0-0.6","subject_id":"6140c0458076b4a939ae4bb1","study_id":"60edd13110225f80f9f3709b","session_id":"6196c4a60e3f3a9e2dc92cdf","condition":"full-information","relevant_dimensions":["antennae","pattern"],"bee_group":{"antennae":"B","wings":"X","pattern":"D","legs":"X"},"action":"harvest","summary":"good-harvest","bonus":1.1600000000000008},{"rt":11072.700000001118,"stimulus":"\n                    <p><b>Action: <em>harvest</em></b></p>\n                    <p>This is the bee that you just saw.</p>\n                    <img src=\"bees-with-color/bee-B1SF.svg\" width=\"200\">\n                    <p><span class=\"greenText\"><b>Successful harvest!</b></span><br>Your pay has increased by $0.02. Your bonus pay is now $0.52.</p>\n            ","response":0,"trial_type":"html-button-response","trial_index":20,"time_elapsed":525562,"internal_node_id":"0.0-4.0-1.6","subject_id":"6140c0458076b4a939ae4bb1","study_id":"60edd13110225f80f9f3709b","session_id":"6196c4a60e3f3a9e2dc92cdf","condition":"full-information","relevant_dimensions":["antennae","pattern"],"bee_group":{"antennae":"B","wings":"X","pattern":"D","legs":"X"},"bonus":1.1600000000000008},{"rt":2598.0999999996275,"stimulus":"bees-with-color/bee-A2DM.svg","response":1,"trial_type":"image-button-response","trial_index":21,"time_elapsed":528162,"internal_node_id":"0.0-4.0-0.7","subject_id":"6140c0458076b4a939ae4bb1","study_id":"60edd13110225f80f9f3709b","session_id":"6196c4a60e3f3a9e2dc92cdf","condition":"full-information","relevant_dimensions":["antennae","pattern"],"bee_group":{"antennae":"B","wings":"X","pattern":"D","legs":"X"},"action":"avoid","summary":"bad-avoid","bonus":1.1600000000000008},{"rt":92238.59999999776,"stimulus":"\n                    <p><b>Action: <em>avoid</em></b></p>\n                    <p>This is the bee that you just saw.</p>\n                    <img src=\"bees-with-color/bee-A2DM.svg\" width=\"200\">\n                    <p><span class=\"redText\">Bad choice,</span> the bee was friendly.<br>Your bonus pay is unchanged, and remains at $0.52.</p>\n            ","response":0,"trial_type":"html-button-response","trial_index":22,"time_elapsed":620401,"internal_node_id":"0.0-4.0-1.7","subject_id":"6140c0458076b4a939ae4bb1","study_id":"60edd13110225f80f9f3709b","session_id":"6196c4a60e3f3a9e2dc92cdf","condition":"full-information","relevant_dimensions":["antennae","pattern"],"bee_group":{"antennae":"B","wings":"X","pattern":"D","legs":"X"},"bonus":1.1600000000000008},{"rt":4813.70000000298,"stimulus":"bees-with-color/bee-B2SM.svg","response":1,"trial_type":"image-button-response","trial_index":23,"time_elapsed":625217,"internal_node_id":"0.0-4.0-0.8","subject_id":"6140c0458076b4a939ae4bb1","study_id":"60edd13110225f80f9f3709b","session_id":"6196c4a60e3f3a9e2dc92cdf","condition":"full-information","relevant_dimensions":["antennae","pattern"],"bee_group":{"antennae":"B","wings":"X","pattern":"D","legs":"X"},"action":"avoid","summary":"bad-avoid","bonus":1.1600000000000008},{"rt":14403,"stimulus":"\n                    <p><b>Action: <em>avoid</em></b></p>\n                    <p>This is the bee that you just saw.</p>\n                    <img src=\"bees-with-color/bee-B2SM.svg\" width=\"200\">\n                    <p><span class=\"redText\">Bad choice,</span> the bee was friendly.<br>Your bonus pay is unchanged, and remains at $0.52.</p>\n            ","response":0,"trial_type":"html-button-response","trial_index":24,"time_elapsed":639621,"internal_node_id":"0.0-4.0-1.8","subject_id":"6140c0458076b4a939ae4bb1","study_id":"60edd13110225f80f9f3709b","session_id":"6196c4a60e3f3a9e2dc92cdf","condition":"full-information","relevant_dimensions":["antennae","pattern"],"bee_group":{"antennae":"B","wings":"X","pattern":"D","legs":"X"},"bonus":1.1600000000000008},{"rt":5452.099999997765,"stimulus":"bees-with-color/bee-A1DF.svg","response":1,"trial_type":"image-button-response","trial_index":25,"time_elapsed":645075,"internal_node_id":"0.0-4.0-0.9","subject_id":"6140c0458076b4a939ae4bb1","study_id":"60edd13110225f80f9f3709b","session_id":"6196c4a60e3f3a9e2dc92cdf","condition":"full-information","relevant_dimensions":["antennae","pattern"],"bee_group":{"antennae":"B","wings":"X","pattern":"D","legs":"X"},"action":"avoid","summary":"bad-avoid","bonus":1.1600000000000008},{"rt":54810.800000000745,"stimulus":"\n                    <p><b>Action: <em>avoid</em></b></p>\n                    <p>This is the bee that you just saw.</p>\n                    <img src=\"bees-with-color/bee-A1DF.svg\" width=\"200\">\n                    <p><span class=\"redText\">Bad choice,</span> the bee was friendly.<br>Your bonus pay is unchanged, and remains at $0.52.</p>\n            ","response":0,"trial_type":"html-button-response","trial_index":26,"time_elapsed":699888,"internal_node_id":"0.0-4.0-1.9","subject_id":"6140c0458076b4a939ae4bb1","study_id":"60edd13110225f80f9f3709b","session_id":"6196c4a60e3f3a9e2dc92cdf","condition":"full-information","relevant_dimensions":["antennae","pattern"],"bee_group":{"antennae":"B","wings":"X","pattern":"D","legs":"X"},"bonus":1.1600000000000008},{"rt":3439.60000000149,"stimulus":"bees-with-color/bee-B2DF.svg","response":1,"trial_type":"image-button-response","trial_index":27,"time_elapsed":703330,"internal_node_id":"0.0-4.0-0.10","subject_id":"6140c0458076b4a939ae4bb1","study_id":"60edd13110225f80f9f3709b","session_id":"6196c4a60e3f3a9e2dc92cdf","condition":"full-information","relevant_dimensions":["antennae","pattern"],"bee_group":{"antennae":"B","wings":"X","pattern":"D","legs":"X"},"action":"avoid","summary":"good-avoid","bonus":1.1600000000000008},{"rt":53938.20000000298,"stimulus":"\n                    <p><b>Action: <em>avoid</em></b></p>\n                    <p>This is the bee that you just saw.</p>\n                    <img src=\"bees-with-color/bee-B2DF.svg\" width=\"200\">\n                    <p><span class=\"greenText\">Good choice!</span>  This bee would have stung you.<br>Your bonus pay is unchanged, and remains at $0.52.</p>\n            ","response":0,"trial_type":"html-button-response","trial_index":28,"time_elapsed":757269,"internal_node_id":"0.0-4.0-1.10","subject_id":"6140c0458076b4a939ae4bb1","study_id":"60edd13110225f80f9f3709b","session_id":"6196c4a60e3f3a9e2dc92cdf","condition":"full-information","relevant_dimensions":["antennae","pattern"],"bee_group":{"antennae":"B","wings":"X","pattern":"D","legs":"X"},"bonus":1.1600000000000008},{"rt":36710.39999999851,"stimulus":"bees-with-color/bee-A1SF.svg","response":0,"trial_type":"image-button-response","trial_index":29,"time_elapsed":793981,"internal_node_id":"0.0-4.0-0.11","subject_id":"6140c0458076b4a939ae4bb1","study_id":"60edd13110225f80f9f3709b","session_id":"6196c4a60e3f3a9e2dc92cdf","condition":"full-information","relevant_dimensions":["antennae","pattern"],"bee_group":{"antennae":"B","wings":"X","pattern":"D","legs":"X"},"action":"harvest","summary":"good-harvest","bonus":1.1600000000000008},{"rt":1268.699999999255,"stimulus":"\n                    <p><b>Action: <em>harvest</em></b></p>\n                    <p>This is the bee that you just saw.</p>\n                    <img src=\"bees-with-color/bee-A1SF.svg\" width=\"200\">\n                    <p><span class=\"greenText\"><b>Successful harvest!</b></span><br>Your pay has increased by $0.02. Your bonus pay is now $0.54.</p>\n            ","response":0,"trial_type":"html-button-response","trial_index":30,"time_elapsed":795251,"internal_node_id":"0.0-4.0-1.11","subject_id":"6140c0458076b4a939ae4bb1","study_id":"60edd13110225f80f9f3709b","session_id":"6196c4a60e3f3a9e2dc92cdf","condition":"full-information","relevant_dimensions":["antennae","pattern"],"bee_group":{"antennae":"B","wings":"X","pattern":"D","legs":"X"},"bonus":1.1600000000000008},{"rt":8442.699999999255,"stimulus":"bees-with-color/bee-A2SF.svg","response":0,"trial_type":"image-button-response","trial_index":31,"time_elapsed":803696,"internal_node_id":"0.0-4.0-0.12","subject_id":"6140c0458076b4a939ae4bb1","study_id":"60edd13110225f80f9f3709b","session_id":"6196c4a60e3f3a9e2dc92cdf","condition":"full-information","relevant_dimensions":["antennae","pattern"],"bee_group":{"antennae":"B","wings":"X","pattern":"D","legs":"X"},"action":"harvest","summary":"good-harvest","bonus":1.1600000000000008},{"rt":1294.7000000029802,"stimulus":"\n                    <p><b>Action: <em>harvest</em></b></p>\n                    <p>This is the bee that you just saw.</p>\n                    <img src=\"bees-with-color/bee-A2SF.svg\" width=\"200\">\n                    <p><span class=\"greenText\"><b>Successful harvest!</b></span><br>Your pay has increased by $0.02. Your bonus pay is now $0.56.</p>\n            ","response":0,"trial_type":"html-button-response","trial_index":32,"time_elapsed":804992,"internal_node_id":"0.0-4.0-1.12","subject_id":"6140c0458076b4a939ae4bb1","study_id":"60edd13110225f80f9f3709b","session_id":"6196c4a60e3f3a9e2dc92cdf","condition":"full-information","relevant_dimensions":["antennae","pattern"],"bee_group":{"antennae":"B","wings":"X","pattern":"D","legs":"X"},"bonus":1.1600000000000008},{"rt":7998.599999997765,"stimulus":"bees-with-color/bee-A2DF.svg","response":1,"trial_type":"image-button-response","trial_index":33,"time_elapsed":812992,"internal_node_id":"0.0-4.0-0.13","subject_id":"6140c0458076b4a939ae4bb1","study_id":"60edd13110225f80f9f3709b","session_id":"6196c4a60e3f3a9e2dc92cdf","condition":"full-information","relevant_dimensions":["antennae","pattern"],"bee_group":{"antennae":"B","wings":"X","pattern":"D","legs":"X"},"action":"avoid","summary":"bad-avoid","bonus":1.1600000000000008},{"rt":7304.300000000745,"stimulus":"\n                    <p><b>Action: <em>avoid</em></b></p>\n                    <p>This is the bee that you just saw.</p>\n                    <img src=\"bees-with-color/bee-A2DF.svg\" width=\"200\">\n                    <p><span class=\"redText\">Bad choice,</span> the bee was friendly.<br>Your bonus pay is unchanged, and remains at $0.56.</p>\n            ","response":0,"trial_type":"html-button-response","trial_index":34,"time_elapsed":820297,"internal_node_id":"0.0-4.0-1.13","subject_id":"6140c0458076b4a939ae4bb1","study_id":"60edd13110225f80f9f3709b","session_id":"6196c4a60e3f3a9e2dc92cdf","condition":"full-information","relevant_dimensions":["antennae","pattern"],"bee_group":{"antennae":"B","wings":"X","pattern":"D","legs":"X"},"bonus":1.1600000000000008},{"rt":14476.800000000745,"stimulus":"bees-with-color/bee-B1SM.svg","response":0,"trial_type":"image-button-response","trial_index":35,"time_elapsed":834776,"internal_node_id":"0.0-4.0-0.14","subject_id":"6140c0458076b4a939ae4bb1","study_id":"60edd13110225f80f9f3709b","session_id":"6196c4a60e3f3a9e2dc92cdf","condition":"full-information","relevant_dimensions":["antennae","pattern"],"bee_group":{"antennae":"B","wings":"X","pattern":"D","legs":"X"},"action":"harvest","summary":"good-harvest","bonus":1.1600000000000008},{"rt":1082.6000000014901,"stimulus":"\n                    <p><b>Action: <em>harvest</em></b></p>\n                    <p>This is the bee that you just saw.</p>\n                    <img src=\"bees-with-color/bee-B1SM.svg\" width=\"200\">\n                    <p><span class=\"greenText\"><b>Successful harvest!</b></span><br>Your pay has increased by $0.02. Your bonus pay is now $0.58.</p>\n            ","response":0,"trial_type":"html-button-response","trial_index":36,"time_elapsed":835859,"internal_node_id":"0.0-4.0-1.14","subject_id":"6140c0458076b4a939ae4bb1","study_id":"60edd13110225f80f9f3709b","session_id":"6196c4a60e3f3a9e2dc92cdf","condition":"full-information","relevant_dimensions":["antennae","pattern"],"bee_group":{"antennae":"B","wings":"X","pattern":"D","legs":"X"},"bonus":1.1600000000000008},{"rt":7472.89999999851,"stimulus":"bees-with-color/bee-B1DM.svg","response":0,"trial_type":"image-button-response","trial_index":37,"time_elapsed":843334,"internal_node_id":"0.0-4.0-0.15","subject_id":"6140c0458076b4a939ae4bb1","study_id":"60edd13110225f80f9f3709b","session_id":"6196c4a60e3f3a9e2dc92cdf","condition":"full-information","relevant_dimensions":["antennae","pattern"],"bee_group":{"antennae":"B","wings":"X","pattern":"D","legs":"X"},"action":"harvest","summary":"bad-harvest","bonus":1.1600000000000008},{"rt":11548.599999997765,"stimulus":"\n                    <p><b>Action: <em>harvest</em></b></p>\n                    <p>This is the bee that you just saw.</p>\n                    <img src=\"bees-with-color/bee-B1DM.svg\" width=\"200\">\n                    <p><span class=\"redText\">Bad choice, the bee was angry.</span><br><b>You have been stung!</b><br>Your pay has been decreased by $0.10. Your bonus pay is now $0.48.</p>\n            ","response":0,"trial_type":"html-button-response","trial_index":38,"time_elapsed":854884,"internal_node_id":"0.0-4.0-1.15","subject_id":"6140c0458076b4a939ae4bb1","study_id":"60edd13110225f80f9f3709b","session_id":"6196c4a60e3f3a9e2dc92cdf","condition":"full-information","relevant_dimensions":["antennae","pattern"],"bee_group":{"antennae":"B","wings":"X","pattern":"D","legs":"X"},"bonus":1.1600000000000008},{"rt":14600.10000000149,"stimulus":"bees-with-color/bee-B1SF.svg","response":0,"trial_type":"image-button-response","trial_index":39,"time_elapsed":869486,"internal_node_id":"0.0-4.0-0.16","subject_id":"6140c0458076b4a939ae4bb1","study_id":"60edd13110225f80f9f3709b","session_id":"6196c4a60e3f3a9e2dc92cdf","condition":"full-information","relevant_dimensions":["antennae","pattern"],"bee_group":{"antennae":"B","wings":"X","pattern":"D","legs":"X"},"action":"harvest","summary":"good-harvest","bonus":1.1600000000000008},{"rt":876.7000000029802,"stimulus":"\n                    <p><b>Action: <em>harvest</em></b></p>\n                    <p>This is the bee that you just saw.</p>\n                    <img src=\"bees-with-color/bee-B1SF.svg\" width=\"200\">\n                    <p><span class=\"greenText\"><b>Successful harvest!</b></span><br>Your pay has increased by $0.02. Your bonus pay is now $0.50.</p>\n            ","response":0,"trial_type":"html-button-response","trial_index":40,"time_elapsed":870364,"internal_node_id":"0.0-4.0-1.16","subject_id":"6140c0458076b4a939ae4bb1","study_id":"60edd13110225f80f9f3709b","session_id":"6196c4a60e3f3a9e2dc92cdf","condition":"full-information","relevant_dimensions":["antennae","pattern"],"bee_group":{"antennae":"B","wings":"X","pattern":"D","legs":"X"},"bonus":1.1600000000000008},{"rt":11522.60000000149,"stimulus":"bees-with-color/bee-A2SF.svg","response":1,"trial_type":"image-button-response","trial_index":41,"time_elapsed":881888,"internal_node_id":"0.0-4.0-0.17","subject_id":"6140c0458076b4a939ae4bb1","study_id":"60edd13110225f80f9f3709b","session_id":"6196c4a60e3f3a9e2dc92cdf","condition":"full-information","relevant_dimensions":["antennae","pattern"],"bee_group":{"antennae":"B","wings":"X","pattern":"D","legs":"X"},"action":"avoid","summary":"bad-avoid","bonus":1.1600000000000008},{"rt":4932.39999999851,"stimulus":"\n                    <p><b>Action: <em>avoid</em></b></p>\n                    <p>This is the bee that you just saw.</p>\n                    <img src=\"bees-with-color/bee-A2SF.svg\" width=\"200\">\n                    <p><span class=\"redText\">Bad choice,</span> the bee was friendly.<br>Your bonus pay is unchanged, and remains at $0.50.</p>\n            ","response":0,"trial_type":"html-button-response","trial_index":42,"time_elapsed":886822,"internal_node_id":"0.0-4.0-1.17","subject_id":"6140c0458076b4a939ae4bb1","study_id":"60edd13110225f80f9f3709b","session_id":"6196c4a60e3f3a9e2dc92cdf","condition":"full-information","relevant_dimensions":["antennae","pattern"],"bee_group":{"antennae":"B","wings":"X","pattern":"D","legs":"X"},"bonus":1.1600000000000008},{"rt":3586.300000000745,"stimulus":"bees-with-color/bee-B2SM.svg","response":0,"trial_type":"image-button-response","trial_index":43,"time_elapsed":890410,"internal_node_id":"0.0-4.0-0.18","subject_id":"6140c0458076b4a939ae4bb1","study_id":"60edd13110225f80f9f3709b","session_id":"6196c4a60e3f3a9e2dc92cdf","condition":"full-information","relevant_dimensions":["antennae","pattern"],"bee_group":{"antennae":"B","wings":"X","pattern":"D","legs":"X"},"action":"harvest","summary":"good-harvest","bonus":1.1600000000000008},{"rt":3386.900000002235,"stimulus":"\n                    <p><b>Action: <em>harvest</em></b></p>\n                    <p>This is the bee that you just saw.</p>\n                    <img src=\"bees-with-color/bee-B2SM.svg\" width=\"200\">\n                    <p><span class=\"greenText\"><b>Successful harvest!</b></span><br>Your pay has increased by $0.02. Your bonus pay is now $0.52.</p>\n            ","response":0,"trial_type":"html-button-response","trial_index":44,"time_elapsed":893798,"internal_node_id":"0.0-4.0-1.18","subject_id":"6140c0458076b4a939ae4bb1","study_id":"60edd13110225f80f9f3709b","session_id":"6196c4a60e3f3a9e2dc92cdf","condition":"full-information","relevant_dimensions":["antennae","pattern"],"bee_group":{"antennae":"B","wings":"X","pattern":"D","legs":"X"},"bonus":1.1600000000000008},{"rt":5158.39999999851,"stimulus":"bees-with-color/bee-B2DM.svg","response":1,"trial_type":"image-button-response","trial_index":45,"time_elapsed":898958,"internal_node_id":"0.0-4.0-0.19","subject_id":"6140c0458076b4a939ae4bb1","study_id":"60edd13110225f80f9f3709b","session_id":"6196c4a60e3f3a9e2dc92cdf","condition":"full-information","relevant_dimensions":["antennae","pattern"],"bee_group":{"antennae":"B","wings":"X","pattern":"D","legs":"X"},"action":"avoid","summary":"good-avoid","bonus":1.1600000000000008},{"rt":3918.800000000745,"stimulus":"\n                    <p><b>Action: <em>avoid</em></b></p>\n                    <p>This is the bee that you just saw.</p>\n                    <img src=\"bees-with-color/bee-B2DM.svg\" width=\"200\">\n                    <p><span class=\"greenText\">Good choice!</span>  This bee would have stung you.<br>Your bonus pay is unchanged, and remains at $0.52.</p>\n            ","response":0,"trial_type":"html-button-response","trial_index":46,"time_elapsed":902878,"internal_node_id":"0.0-4.0-1.19","subject_id":"6140c0458076b4a939ae4bb1","study_id":"60edd13110225f80f9f3709b","session_id":"6196c4a60e3f3a9e2dc92cdf","condition":"full-information","relevant_dimensions":["antennae","pattern"],"bee_group":{"antennae":"B","wings":"X","pattern":"D","legs":"X"},"bonus":1.1600000000000008},{"rt":2174.5,"stimulus":"bees-with-color/bee-A2DM.svg","response":1,"trial_type":"image-button-response","trial_index":47,"time_elapsed":905054,"internal_node_id":"0.0-4.0-0.20","subject_id":"6140c0458076b4a939ae4bb1","study_id":"60edd13110225f80f9f3709b","session_id":"6196c4a60e3f3a9e2dc92cdf","condition":"full-information","relevant_dimensions":["antennae","pattern"],"bee_group":{"antennae":"B","wings":"X","pattern":"D","legs":"X"},"action":"avoid","summary":"bad-avoid","bonus":1.1600000000000008},{"rt":6764.39999999851,"stimulus":"\n                    <p><b>Action: <em>avoid</em></b></p>\n                    <p>This is the bee that you just saw.</p>\n                    <img src=\"bees-with-color/bee-A2DM.svg\" width=\"200\">\n                    <p><span class=\"redText\">Bad choice,</span> the bee was friendly.<br>Your bonus pay is unchanged, and remains at $0.52.</p>\n            ","response":0,"trial_type":"html-button-response","trial_index":48,"time_elapsed":911820,"internal_node_id":"0.0-4.0-1.20","subject_id":"6140c0458076b4a939ae4bb1","study_id":"60edd13110225f80f9f3709b","session_id":"6196c4a60e3f3a9e2dc92cdf","condition":"full-information","relevant_dimensions":["antennae","pattern"],"bee_group":{"antennae":"B","wings":"X","pattern":"D","legs":"X"},"bonus":1.1600000000000008},{"rt":17156.699999999255,"stimulus":"bees-with-color/bee-B1SM.svg","response":0,"trial_type":"image-button-response","trial_index":49,"time_elapsed":928978,"internal_node_id":"0.0-4.0-0.21","subject_id":"6140c0458076b4a939ae4bb1","study_id":"60edd13110225f80f9f3709b","session_id":"6196c4a60e3f3a9e2dc92cdf","condition":"full-information","relevant_dimensions":["antennae","pattern"],"bee_group":{"antennae":"B","wings":"X","pattern":"D","legs":"X"},"action":"harvest","summary":"good-harvest","bonus":1.1600000000000008},{"rt":5018.60000000149,"stimulus":"\n                    <p><b>Action: <em>harvest</em></b></p>\n                    <p>This is the bee that you just saw.</p>\n                    <img src=\"bees-with-color/bee-B1SM.svg\" width=\"200\">\n                    <p><span class=\"greenText\"><b>Successful harvest!</b></span><br>Your pay has increased by $0.02. Your bonus pay is now $0.54.</p>\n            ","response":0,"trial_type":"html-button-response","trial_index":50,"time_elapsed":933998,"internal_node_id":"0.0-4.0-1.21","subject_id":"6140c0458076b4a939ae4bb1","study_id":"60edd13110225f80f9f3709b","session_id":"6196c4a60e3f3a9e2dc92cdf","condition":"full-information","relevant_dimensions":["antennae","pattern"],"bee_group":{"antennae":"B","wings":"X","pattern":"D","legs":"X"},"bonus":1.1600000000000008},{"rt":11600.300000000745,"stimulus":"bees-with-color/bee-B2DF.svg","response":1,"trial_type":"image-button-response","trial_index":51,"time_elapsed":945600,"internal_node_id":"0.0-4.0-0.22","subject_id":"6140c0458076b4a939ae4bb1","study_id":"60edd13110225f80f9f3709b","session_id":"6196c4a60e3f3a9e2dc92cdf","condition":"full-information","relevant_dimensions":["antennae","pattern"],"bee_group":{"antennae":"B","wings":"X","pattern":"D","legs":"X"},"action":"avoid","summary":"good-avoid","bonus":1.1600000000000008},{"rt":46772.400000002235,"stimulus":"\n                    <p><b>Action: <em>avoid</em></b></p>\n                    <p>This is the bee that you just saw.</p>\n                    <img src=\"bees-with-color/bee-B2DF.svg\" width=\"200\">\n                    <p><span class=\"greenText\">Good choice!</span>  This bee would have stung you.<br>Your bonus pay is unchanged, and remains at $0.54.</p>\n            ","response":0,"trial_type":"html-button-response","trial_index":52,"time_elapsed":992374,"internal_node_id":"0.0-4.0-1.22","subject_id":"6140c0458076b4a939ae4bb1","study_id":"60edd13110225f80f9f3709b","session_id":"6196c4a60e3f3a9e2dc92cdf","condition":"full-information","relevant_dimensions":["antennae","pattern"],"bee_group":{"antennae":"B","wings":"X","pattern":"D","legs":"X"},"bonus":1.1600000000000008},{"rt":7292.800000000745,"stimulus":"bees-with-color/bee-B2SF.svg","response":0,"trial_type":"image-button-response","trial_index":53,"time_elapsed":999668,"internal_node_id":"0.0-4.0-0.23","subject_id":"6140c0458076b4a939ae4bb1","study_id":"60edd13110225f80f9f3709b","session_id":"6196c4a60e3f3a9e2dc92cdf","condition":"full-information","relevant_dimensions":["antennae","pattern"],"bee_group":{"antennae":"B","wings":"X","pattern":"D","legs":"X"},"action":"harvest","summary":"good-harvest","bonus":1.1600000000000008},{"rt":17342.199999999255,"stimulus":"\n                    <p><b>Action: <em>harvest</em></b></p>\n                    <p>This is the bee that you just saw.</p>\n                    <img src=\"bees-with-color/bee-B2SF.svg\" width=\"200\">\n                    <p><span class=\"greenText\"><b>Successful harvest!</b></span><br>Your pay has increased by $0.02. Your bonus pay is now $0.56.</p>\n            ","response":0,"trial_type":"html-button-response","trial_index":54,"time_elapsed":1017011,"internal_node_id":"0.0-4.0-1.23","subject_id":"6140c0458076b4a939ae4bb1","study_id":"60edd13110225f80f9f3709b","session_id":"6196c4a60e3f3a9e2dc92cdf","condition":"full-information","relevant_dimensions":["antennae","pattern"],"bee_group":{"antennae":"B","wings":"X","pattern":"D","legs":"X"},"bonus":1.1600000000000008},{"rt":6428.900000002235,"stimulus":"bees-with-color/bee-A1DF.svg","response":1,"trial_type":"image-button-response","trial_index":55,"time_elapsed":1023442,"internal_node_id":"0.0-4.0-0.24","subject_id":"6140c0458076b4a939ae4bb1","study_id":"60edd13110225f80f9f3709b","session_id":"6196c4a60e3f3a9e2dc92cdf","condition":"full-information","relevant_dimensions":["antennae","pattern"],"bee_group":{"antennae":"B","wings":"X","pattern":"D","legs":"X"},"action":"avoid","summary":"bad-avoid","bonus":1.1600000000000008},{"rt":11868.5,"stimulus":"\n                    <p><b>Action: <em>avoid</em></b></p>\n                    <p>This is the bee that you just saw.</p>\n                    <img src=\"bees-with-color/bee-A1DF.svg\" width=\"200\">\n                    <p><span class=\"redText\">Bad choice,</span> the bee was friendly.<br>Your bonus pay is unchanged, and remains at $0.56.</p>\n            ","response":0,"trial_type":"html-button-response","trial_index":56,"time_elapsed":1035312,"internal_node_id":"0.0-4.0-1.24","subject_id":"6140c0458076b4a939ae4bb1","study_id":"60edd13110225f80f9f3709b","session_id":"6196c4a60e3f3a9e2dc92cdf","condition":"full-information","relevant_dimensions":["antennae","pattern"],"bee_group":{"antennae":"B","wings":"X","pattern":"D","legs":"X"},"bonus":1.1600000000000008},{"rt":8674,"stimulus":"bees-with-color/bee-A1DM.svg","response":1,"trial_type":"image-button-response","trial_index":57,"time_elapsed":1043988,"internal_node_id":"0.0-4.0-0.25","subject_id":"6140c0458076b4a939ae4bb1","study_id":"60edd13110225f80f9f3709b","session_id":"6196c4a60e3f3a9e2dc92cdf","condition":"full-information","relevant_dimensions":["antennae","pattern"],"bee_group":{"antennae":"B","wings":"X","pattern":"D","legs":"X"},"action":"avoid","summary":"bad-avoid","bonus":1.1600000000000008},{"rt":10336.60000000149,"stimulus":"\n                    <p><b>Action: <em>avoid</em></b></p>\n                    <p>This is the bee that you just saw.</p>\n                    <img src=\"bees-with-color/bee-A1DM.svg\" width=\"200\">\n                    <p><span class=\"redText\">Bad choice,</span> the bee was friendly.<br>Your bonus pay is unchanged, and remains at $0.56.</p>\n            ","response":0,"trial_type":"html-button-response","trial_index":58,"time_elapsed":1054326,"internal_node_id":"0.0-4.0-1.25","subject_id":"6140c0458076b4a939ae4bb1","study_id":"60edd13110225f80f9f3709b","session_id":"6196c4a60e3f3a9e2dc92cdf","condition":"full-information","relevant_dimensions":["antennae","pattern"],"bee_group":{"antennae":"B","wings":"X","pattern":"D","legs":"X"},"bonus":1.1600000000000008},{"rt":5034,"stimulus":"bees-with-color/bee-B1DF.svg","response":1,"trial_type":"image-button-response","trial_index":59,"time_elapsed":1059362,"internal_node_id":"0.0-4.0-0.26","subject_id":"6140c0458076b4a939ae4bb1","study_id":"60edd13110225f80f9f3709b","session_id":"6196c4a60e3f3a9e2dc92cdf","condition":"full-information","relevant_dimensions":["antennae","pattern"],"bee_group":{"antennae":"B","wings":"X","pattern":"D","legs":"X"},"action":"avoid","summary":"good-avoid","bonus":1.1600000000000008},{"rt":4645.199999999255,"stimulus":"\n                    <p><b>Action: <em>avoid</em></b></p>\n                    <p>This is the bee that you just saw.</p>\n                    <img src=\"bees-with-color/bee-B1DF.svg\" width=\"200\">\n                    <p><span class=\"greenText\">Good choice!</span>  This bee would have stung you.<br>Your bonus pay is unchanged, and remains at $0.56.</p>\n            ","response":0,"trial_type":"html-button-response","trial_index":60,"time_elapsed":1064008,"internal_node_id":"0.0-4.0-1.26","subject_id":"6140c0458076b4a939ae4bb1","study_id":"60edd13110225f80f9f3709b","session_id":"6196c4a60e3f3a9e2dc92cdf","condition":"full-information","relevant_dimensions":["antennae","pattern"],"bee_group":{"antennae":"B","wings":"X","pattern":"D","legs":"X"},"bonus":1.1600000000000008},{"rt":6560.699999999255,"stimulus":"bees-with-color/bee-A1SF.svg","response":0,"trial_type":"image-button-response","trial_index":61,"time_elapsed":1070570,"internal_node_id":"0.0-4.0-0.27","subject_id":"6140c0458076b4a939ae4bb1","study_id":"60edd13110225f80f9f3709b","session_id":"6196c4a60e3f3a9e2dc92cdf","condition":"full-information","relevant_dimensions":["antennae","pattern"],"bee_group":{"antennae":"B","wings":"X","pattern":"D","legs":"X"},"action":"harvest","summary":"good-harvest","bonus":1.1600000000000008},{"rt":2098.699999999255,"stimulus":"\n                    <p><b>Action: <em>harvest</em></b></p>\n                    <p>This is the bee that you just saw.</p>\n                    <img src=\"bees-with-color/bee-A1SF.svg\" width=\"200\">\n                    <p><span class=\"greenText\"><b>Successful harvest!</b></span><br>Your pay has increased by $0.02. Your bonus pay is now $0.58.</p>\n            ","response":0,"trial_type":"html-button-response","trial_index":62,"time_elapsed":1072670,"internal_node_id":"0.0-4.0-1.27","subject_id":"6140c0458076b4a939ae4bb1","study_id":"60edd13110225f80f9f3709b","session_id":"6196c4a60e3f3a9e2dc92cdf","condition":"full-information","relevant_dimensions":["antennae","pattern"],"bee_group":{"antennae":"B","wings":"X","pattern":"D","legs":"X"},"bonus":1.1600000000000008},{"rt":6162.5,"stimulus":"bees-with-color/bee-A1SM.svg","response":0,"trial_type":"image-button-response","trial_index":63,"time_elapsed":1078834,"internal_node_id":"0.0-4.0-0.28","subject_id":"6140c0458076b4a939ae4bb1","study_id":"60edd13110225f80f9f3709b","session_id":"6196c4a60e3f3a9e2dc92cdf","condition":"full-information","relevant_dimensions":["antennae","pattern"],"bee_group":{"antennae":"B","wings":"X","pattern":"D","legs":"X"},"action":"harvest","summary":"good-harvest","bonus":1.1600000000000008},{"rt":4048.7999999970198,"stimulus":"\n                    <p><b>Action: <em>harvest</em></b></p>\n                    <p>This is the bee that you just saw.</p>\n                    <img src=\"bees-with-color/bee-A1SM.svg\" width=\"200\">\n                    <p><span class=\"greenText\"><b>Successful harvest!</b></span><br>Your pay has increased by $0.02. Your bonus pay is now $0.60.</p>\n            ","response":0,"trial_type":"html-button-response","trial_index":64,"time_elapsed":1082884,"internal_node_id":"0.0-4.0-1.28","subject_id":"6140c0458076b4a939ae4bb1","study_id":"60edd13110225f80f9f3709b","session_id":"6196c4a60e3f3a9e2dc92cdf","condition":"full-information","relevant_dimensions":["antennae","pattern"],"bee_group":{"antennae":"B","wings":"X","pattern":"D","legs":"X"},"bonus":1.1600000000000008},{"rt":7200.5,"stimulus":"bees-with-color/bee-B1DM.svg","response":1,"trial_type":"image-button-response","trial_index":65,"time_elapsed":1090086,"internal_node_id":"0.0-4.0-0.29","subject_id":"6140c0458076b4a939ae4bb1","study_id":"60edd13110225f80f9f3709b","session_id":"6196c4a60e3f3a9e2dc92cdf","condition":"full-information","relevant_dimensions":["antennae","pattern"],"bee_group":{"antennae":"B","wings":"X","pattern":"D","legs":"X"},"action":"avoid","summary":"good-avoid","bonus":1.1600000000000008},{"rt":38118.900000002235,"stimulus":"\n                    <p><b>Action: <em>avoid</em></b></p>\n                    <p>This is the bee that you just saw.</p>\n                    <img src=\"bees-with-color/bee-B1DM.svg\" width=\"200\">\n                    <p><span class=\"greenText\">Good choice!</span>  This bee would have stung you.<br>Your bonus pay is unchanged, and remains at $0.60.</p>\n            ","response":0,"trial_type":"html-button-response","trial_index":66,"time_elapsed":1128206,"internal_node_id":"0.0-4.0-1.29","subject_id":"6140c0458076b4a939ae4bb1","study_id":"60edd13110225f80f9f3709b","session_id":"6196c4a60e3f3a9e2dc92cdf","condition":"full-information","relevant_dimensions":["antennae","pattern"],"bee_group":{"antennae":"B","wings":"X","pattern":"D","legs":"X"},"bonus":1.1600000000000008},{"rt":22297.70000000298,"stimulus":"bees-with-color/bee-A2SM.svg","response":0,"trial_type":"image-button-response","trial_index":67,"time_elapsed":1150506,"internal_node_id":"0.0-4.0-0.30","subject_id":"6140c0458076b4a939ae4bb1","study_id":"60edd13110225f80f9f3709b","session_id":"6196c4a60e3f3a9e2dc92cdf","condition":"full-information","relevant_dimensions":["antennae","pattern"],"bee_group":{"antennae":"B","wings":"X","pattern":"D","legs":"X"},"action":"harvest","summary":"good-harvest","bonus":1.1600000000000008},{"rt":4834.900000002235,"stimulus":"\n                    <p><b>Action: <em>harvest</em></b></p>\n                    <p>This is the bee that you just saw.</p>\n                    <img src=\"bees-with-color/bee-A2SM.svg\" width=\"200\">\n                    <p><span class=\"greenText\"><b>Successful harvest!</b></span><br>Your pay has increased by $0.02. Your bonus pay is now $0.62.</p>\n            ","response":0,"trial_type":"html-button-response","trial_index":68,"time_elapsed":1155342,"internal_node_id":"0.0-4.0-1.30","subject_id":"6140c0458076b4a939ae4bb1","study_id":"60edd13110225f80f9f3709b","session_id":"6196c4a60e3f3a9e2dc92cdf","condition":"full-information","relevant_dimensions":["antennae","pattern"],"bee_group":{"antennae":"B","wings":"X","pattern":"D","legs":"X"},"bonus":1.1600000000000008},{"rt":8150.39999999851,"stimulus":"bees-with-color/bee-A2DF.svg","response":1,"trial_type":"image-button-response","trial_index":69,"time_elapsed":1163494,"internal_node_id":"0.0-4.0-0.31","subject_id":"6140c0458076b4a939ae4bb1","study_id":"60edd13110225f80f9f3709b","session_id":"6196c4a60e3f3a9e2dc92cdf","condition":"full-information","relevant_dimensions":["antennae","pattern"],"bee_group":{"antennae":"B","wings":"X","pattern":"D","legs":"X"},"action":"avoid","summary":"bad-avoid","bonus":1.1600000000000008},{"rt":6410.5,"stimulus":"\n                    <p><b>Action: <em>avoid</em></b></p>\n                    <p>This is the bee that you just saw.</p>\n                    <img src=\"bees-with-color/bee-A2DF.svg\" width=\"200\">\n                    <p><span class=\"redText\">Bad choice,</span> the bee was friendly.<br>Your bonus pay is unchanged, and remains at $0.62.</p>\n            ","response":0,"trial_type":"html-button-response","trial_index":70,"time_elapsed":1169906,"internal_node_id":"0.0-4.0-1.31","subject_id":"6140c0458076b4a939ae4bb1","study_id":"60edd13110225f80f9f3709b","session_id":"6196c4a60e3f3a9e2dc92cdf","condition":"full-information","relevant_dimensions":["antennae","pattern"],"bee_group":{"antennae":"B","wings":"X","pattern":"D","legs":"X"},"bonus":1.1600000000000008},{"rt":6422.300000000745,"stimulus":"bees-with-color/bee-B1DM.svg","response":1,"trial_type":"image-button-response","trial_index":71,"time_elapsed":1176330,"internal_node_id":"0.0-4.0-0.32","subject_id":"6140c0458076b4a939ae4bb1","study_id":"60edd13110225f80f9f3709b","session_id":"6196c4a60e3f3a9e2dc92cdf","condition":"full-information","relevant_dimensions":["antennae","pattern"],"bee_group":{"antennae":"B","wings":"X","pattern":"D","legs":"X"},"action":"avoid","summary":"good-avoid","bonus":1.1600000000000008},{"rt":5310.699999999255,"stimulus":"\n                    <p><b>Action: <em>avoid</em></b></p>\n                    <p>This is the bee that you just saw.</p>\n                    <img src=\"bees-with-color/bee-B1DM.svg\" width=\"200\">\n                    <p><span class=\"greenText\">Good choice!</span>  This bee would have stung you.<br>Your bonus pay is unchanged, and remains at $0.62.</p>\n            ","response":0,"trial_type":"html-button-response","trial_index":72,"time_elapsed":1181642,"internal_node_id":"0.0-4.0-1.32","subject_id":"6140c0458076b4a939ae4bb1","study_id":"60edd13110225f80f9f3709b","session_id":"6196c4a60e3f3a9e2dc92cdf","condition":"full-information","relevant_dimensions":["antennae","pattern"],"bee_group":{"antennae":"B","wings":"X","pattern":"D","legs":"X"},"bonus":1.1600000000000008},{"rt":7840.39999999851,"stimulus":"bees-with-color/bee-A2DM.svg","response":1,"trial_type":"image-button-response","trial_index":73,"time_elapsed":1189484,"internal_node_id":"0.0-4.0-0.33","subject_id":"6140c0458076b4a939ae4bb1","study_id":"60edd13110225f80f9f3709b","session_id":"6196c4a60e3f3a9e2dc92cdf","condition":"full-information","relevant_dimensions":["antennae","pattern"],"bee_group":{"antennae":"B","wings":"X","pattern":"D","legs":"X"},"action":"avoid","summary":"bad-avoid","bonus":1.1600000000000008},{"rt":4253,"stimulus":"\n                    <p><b>Action: <em>avoid</em></b></p>\n                    <p>This is the bee that you just saw.</p>\n                    <img src=\"bees-with-color/bee-A2DM.svg\" width=\"200\">\n                    <p><span class=\"redText\">Bad choice,</span> the bee was friendly.<br>Your bonus pay is unchanged, and remains at $0.62.</p>\n            ","response":0,"trial_type":"html-button-response","trial_index":74,"time_elapsed":1193738,"internal_node_id":"0.0-4.0-1.33","subject_id":"6140c0458076b4a939ae4bb1","study_id":"60edd13110225f80f9f3709b","session_id":"6196c4a60e3f3a9e2dc92cdf","condition":"full-information","relevant_dimensions":["antennae","pattern"],"bee_group":{"antennae":"B","wings":"X","pattern":"D","legs":"X"},"bonus":1.1600000000000008},{"rt":5455.60000000149,"stimulus":"bees-with-color/bee-A1SM.svg","response":0,"trial_type":"image-button-response","trial_index":75,"time_elapsed":1199196,"internal_node_id":"0.0-4.0-0.34","subject_id":"6140c0458076b4a939ae4bb1","study_id":"60edd13110225f80f9f3709b","session_id":"6196c4a60e3f3a9e2dc92cdf","condition":"full-information","relevant_dimensions":["antennae","pattern"],"bee_group":{"antennae":"B","wings":"X","pattern":"D","legs":"X"},"action":"harvest","summary":"good-harvest","bonus":1.1600000000000008},{"rt":4729.300000000745,"stimulus":"\n                    <p><b>Action: <em>harvest</em></b></p>\n                    <p>This is the bee that you just saw.</p>\n                    <img src=\"bees-with-color/bee-A1SM.svg\" width=\"200\">\n                    <p><span class=\"greenText\"><b>Successful harvest!</b></span><br>Your pay has increased by $0.02. Your bonus pay is now $0.64.</p>\n            ","response":0,"trial_type":"html-button-response","trial_index":76,"time_elapsed":1203926,"internal_node_id":"0.0-4.0-1.34","subject_id":"6140c0458076b4a939ae4bb1","study_id":"60edd13110225f80f9f3709b","session_id":"6196c4a60e3f3a9e2dc92cdf","condition":"full-information","relevant_dimensions":["antennae","pattern"],"bee_group":{"antennae":"B","wings":"X","pattern":"D","legs":"X"},"bonus":1.1600000000000008},{"rt":5046.099999997765,"stimulus":"bees-with-color/bee-A1DF.svg","response":1,"trial_type":"image-button-response","trial_index":77,"time_elapsed":1208974,"internal_node_id":"0.0-4.0-0.35","subject_id":"6140c0458076b4a939ae4bb1","study_id":"60edd13110225f80f9f3709b","session_id":"6196c4a60e3f3a9e2dc92cdf","condition":"full-information","relevant_dimensions":["antennae","pattern"],"bee_group":{"antennae":"B","wings":"X","pattern":"D","legs":"X"},"action":"avoid","summary":"bad-avoid","bonus":1.1600000000000008},{"rt":49014.800000000745,"stimulus":"\n                    <p><b>Action: <em>avoid</em></b></p>\n                    <p>This is the bee that you just saw.</p>\n                    <img src=\"bees-with-color/bee-A1DF.svg\" width=\"200\">\n                    <p><span class=\"redText\">Bad choice,</span> the bee was friendly.<br>Your bonus pay is unchanged, and remains at $0.64.</p>\n            ","response":0,"trial_type":"html-button-response","trial_index":78,"time_elapsed":1257990,"internal_node_id":"0.0-4.0-1.35","subject_id":"6140c0458076b4a939ae4bb1","study_id":"60edd13110225f80f9f3709b","session_id":"6196c4a60e3f3a9e2dc92cdf","condition":"full-information","relevant_dimensions":["antennae","pattern"],"bee_group":{"antennae":"B","wings":"X","pattern":"D","legs":"X"},"bonus":1.1600000000000008},{"rt":8976.60000000149,"stimulus":"bees-with-color/bee-B2SF.svg","response":0,"trial_type":"image-button-response","trial_index":79,"time_elapsed":1266969,"internal_node_id":"0.0-4.0-0.36","subject_id":"6140c0458076b4a939ae4bb1","study_id":"60edd13110225f80f9f3709b","session_id":"6196c4a60e3f3a9e2dc92cdf","condition":"full-information","relevant_dimensions":["antennae","pattern"],"bee_group":{"antennae":"B","wings":"X","pattern":"D","legs":"X"},"action":"harvest","summary":"good-harvest","bonus":1.1600000000000008},{"rt":4729.699999999255,"stimulus":"\n                    <p><b>Action: <em>harvest</em></b></p>\n                    <p>This is the bee that you just saw.</p>\n                    <img src=\"bees-with-color/bee-B2SF.svg\" width=\"200\">\n                    <p><span class=\"greenText\"><b>Successful harvest!</b></span><br>Your pay has increased by $0.02. Your bonus pay is now $0.66.</p>\n            ","response":0,"trial_type":"html-button-response","trial_index":80,"time_elapsed":1271700,"internal_node_id":"0.0-4.0-1.36","subject_id":"6140c0458076b4a939ae4bb1","study_id":"60edd13110225f80f9f3709b","session_id":"6196c4a60e3f3a9e2dc92cdf","condition":"full-information","relevant_dimensions":["antennae","pattern"],"bee_group":{"antennae":"B","wings":"X","pattern":"D","legs":"X"},"bonus":1.1600000000000008},{"rt":6958.699999999255,"stimulus":"bees-with-color/bee-A1SF.svg","response":0,"trial_type":"image-button-response","trial_index":81,"time_elapsed":1278661,"internal_node_id":"0.0-4.0-0.37","subject_id":"6140c0458076b4a939ae4bb1","study_id":"60edd13110225f80f9f3709b","session_id":"6196c4a60e3f3a9e2dc92cdf","condition":"full-information","relevant_dimensions":["antennae","pattern"],"bee_group":{"antennae":"B","wings":"X","pattern":"D","legs":"X"},"action":"harvest","summary":"good-harvest","bonus":1.1600000000000008},{"rt":3118.5,"stimulus":"\n                    <p><b>Action: <em>harvest</em></b></p>\n                    <p>This is the bee that you just saw.</p>\n                    <img src=\"bees-with-color/bee-A1SF.svg\" width=\"200\">\n                    <p><span class=\"greenText\"><b>Successful harvest!</b></span><br>Your pay has increased by $0.02. Your bonus pay is now $0.68.</p>\n            ","response":0,"trial_type":"html-button-response","trial_index":82,"time_elapsed":1281781,"internal_node_id":"0.0-4.0-1.37","subject_id":"6140c0458076b4a939ae4bb1","study_id":"60edd13110225f80f9f3709b","session_id":"6196c4a60e3f3a9e2dc92cdf","condition":"full-information","relevant_dimensions":["antennae","pattern"],"bee_group":{"antennae":"B","wings":"X","pattern":"D","legs":"X"},"bonus":1.1600000000000008},{"rt":8650.5,"stimulus":"bees-with-color/bee-B1DF.svg","response":1,"trial_type":"image-button-response","trial_index":83,"time_elapsed":1290433,"internal_node_id":"0.0-4.0-0.38","subject_id":"6140c0458076b4a939ae4bb1","study_id":"60edd13110225f80f9f3709b","session_id":"6196c4a60e3f3a9e2dc92cdf","condition":"full-information","relevant_dimensions":["antennae","pattern"],"bee_group":{"antennae":"B","wings":"X","pattern":"D","legs":"X"},"action":"avoid","summary":"good-avoid","bonus":1.1600000000000008},{"rt":4870.800000000745,"stimulus":"\n                    <p><b>Action: <em>avoid</em></b></p>\n                    <p>This is the bee that you just saw.</p>\n                    <img src=\"bees-with-color/bee-B1DF.svg\" width=\"200\">\n                    <p><span class=\"greenText\">Good choice!</span>  This bee would have stung you.<br>Your bonus pay is unchanged, and remains at $0.68.</p>\n            ","response":0,"trial_type":"html-button-response","trial_index":84,"time_elapsed":1295305,"internal_node_id":"0.0-4.0-1.38","subject_id":"6140c0458076b4a939ae4bb1","study_id":"60edd13110225f80f9f3709b","session_id":"6196c4a60e3f3a9e2dc92cdf","condition":"full-information","relevant_dimensions":["antennae","pattern"],"bee_group":{"antennae":"B","wings":"X","pattern":"D","legs":"X"},"bonus":1.1600000000000008},{"rt":6166.5,"stimulus":"bees-with-color/bee-B1SF.svg","response":0,"trial_type":"image-button-response","trial_index":85,"time_elapsed":1301473,"internal_node_id":"0.0-4.0-0.39","subject_id":"6140c0458076b4a939ae4bb1","study_id":"60edd13110225f80f9f3709b","session_id":"6196c4a60e3f3a9e2dc92cdf","condition":"full-information","relevant_dimensions":["antennae","pattern"],"bee_group":{"antennae":"B","wings":"X","pattern":"D","legs":"X"},"action":"harvest","summary":"good-harvest","bonus":1.1600000000000008},{"rt":4980.900000002235,"stimulus":"\n                    <p><b>Action: <em>harvest</em></b></p>\n                    <p>This is the bee that you just saw.</p>\n                    <img src=\"bees-with-color/bee-B1SF.svg\" width=\"200\">\n                    <p><span class=\"greenText\"><b>Successful harvest!</b></span><br>Your pay has increased by $0.02. Your bonus pay is now $0.70.</p>\n            ","response":0,"trial_type":"html-button-response","trial_index":86,"time_elapsed":1306455,"internal_node_id":"0.0-4.0-1.39","subject_id":"6140c0458076b4a939ae4bb1","study_id":"60edd13110225f80f9f3709b","session_id":"6196c4a60e3f3a9e2dc92cdf","condition":"full-information","relevant_dimensions":["antennae","pattern"],"bee_group":{"antennae":"B","wings":"X","pattern":"D","legs":"X"},"bonus":1.1600000000000008},{"rt":15864.39999999851,"stimulus":"bees-with-color/bee-A2SF.svg","response":0,"trial_type":"image-button-response","trial_index":87,"time_elapsed":1322320,"internal_node_id":"0.0-4.0-0.40","subject_id":"6140c0458076b4a939ae4bb1","study_id":"60edd13110225f80f9f3709b","session_id":"6196c4a60e3f3a9e2dc92cdf","condition":"full-information","relevant_dimensions":["antennae","pattern"],"bee_group":{"antennae":"B","wings":"X","pattern":"D","legs":"X"},"action":"harvest","summary":"good-harvest","bonus":1.1600000000000008},{"rt":892.2999999970198,"stimulus":"\n                    <p><b>Action: <em>harvest</em></b></p>\n                    <p>This is the bee that you just saw.</p>\n                    <img src=\"bees-with-color/bee-A2SF.svg\" width=\"200\">\n                    <p><span class=\"greenText\"><b>Successful harvest!</b></span><br>Your pay has increased by $0.02. Your bonus pay is now $0.72.</p>\n            ","response":0,"trial_type":"html-button-response","trial_index":88,"time_elapsed":1323214,"internal_node_id":"0.0-4.0-1.40","subject_id":"6140c0458076b4a939ae4bb1","study_id":"60edd13110225f80f9f3709b","session_id":"6196c4a60e3f3a9e2dc92cdf","condition":"full-information","relevant_dimensions":["antennae","pattern"],"bee_group":{"antennae":"B","wings":"X","pattern":"D","legs":"X"},"bonus":1.1600000000000008},{"rt":5464.699999999255,"stimulus":"bees-with-color/bee-B2SM.svg","response":0,"trial_type":"image-button-response","trial_index":89,"time_elapsed":1328680,"internal_node_id":"0.0-4.0-0.41","subject_id":"6140c0458076b4a939ae4bb1","study_id":"60edd13110225f80f9f3709b","session_id":"6196c4a60e3f3a9e2dc92cdf","condition":"full-information","relevant_dimensions":["antennae","pattern"],"bee_group":{"antennae":"B","wings":"X","pattern":"D","legs":"X"},"action":"harvest","summary":"good-harvest","bonus":1.1600000000000008},{"rt":4308.800000000745,"stimulus":"\n                    <p><b>Action: <em>harvest</em></b></p>\n                    <p>This is the bee that you just saw.</p>\n                    <img src=\"bees-with-color/bee-B2SM.svg\" width=\"200\">\n                    <p><span class=\"greenText\"><b>Successful harvest!</b></span><br>Your pay has increased by $0.02. Your bonus pay is now $0.74.</p>\n            ","response":0,"trial_type":"html-button-response","trial_index":90,"time_elapsed":1332990,"internal_node_id":"0.0-4.0-1.41","subject_id":"6140c0458076b4a939ae4bb1","study_id":"60edd13110225f80f9f3709b","session_id":"6196c4a60e3f3a9e2dc92cdf","condition":"full-information","relevant_dimensions":["antennae","pattern"],"bee_group":{"antennae":"B","wings":"X","pattern":"D","legs":"X"},"bonus":1.1600000000000008},{"rt":3682.400000002235,"stimulus":"bees-with-color/bee-A2SM.svg","response":0,"trial_type":"image-button-response","trial_index":91,"time_elapsed":1336674,"internal_node_id":"0.0-4.0-0.42","subject_id":"6140c0458076b4a939ae4bb1","study_id":"60edd13110225f80f9f3709b","session_id":"6196c4a60e3f3a9e2dc92cdf","condition":"full-information","relevant_dimensions":["antennae","pattern"],"bee_group":{"antennae":"B","wings":"X","pattern":"D","legs":"X"},"action":"harvest","summary":"good-harvest","bonus":1.1600000000000008},{"rt":2368.699999999255,"stimulus":"\n                    <p><b>Action: <em>harvest</em></b></p>\n                    <p>This is the bee that you just saw.</p>\n                    <img src=\"bees-with-color/bee-A2SM.svg\" width=\"200\">\n                    <p><span class=\"greenText\"><b>Successful harvest!</b></span><br>Your pay has increased by $0.02. Your bonus pay is now $0.76.</p>\n            ","response":0,"trial_type":"html-button-response","trial_index":92,"time_elapsed":1339045,"internal_node_id":"0.0-4.0-1.42","subject_id":"6140c0458076b4a939ae4bb1","study_id":"60edd13110225f80f9f3709b","session_id":"6196c4a60e3f3a9e2dc92cdf","condition":"full-information","relevant_dimensions":["antennae","pattern"],"bee_group":{"antennae":"B","wings":"X","pattern":"D","legs":"X"},"bonus":1.1600000000000008},{"rt":5514.300000000745,"stimulus":"bees-with-color/bee-B2DF.svg","response":1,"trial_type":"image-button-response","trial_index":93,"time_elapsed":1344560,"internal_node_id":"0.0-4.0-0.43","subject_id":"6140c0458076b4a939ae4bb1","study_id":"60edd13110225f80f9f3709b","session_id":"6196c4a60e3f3a9e2dc92cdf","condition":"full-information","relevant_dimensions":["antennae","pattern"],"bee_group":{"antennae":"B","wings":"X","pattern":"D","legs":"X"},"action":"avoid","summary":"good-avoid","bonus":1.1600000000000008},{"rt":6258.800000000745,"stimulus":"\n                    <p><b>Action: <em>avoid</em></b></p>\n                    <p>This is the bee that you just saw.</p>\n                    <img src=\"bees-with-color/bee-B2DF.svg\" width=\"200\">\n                    <p><span class=\"greenText\">Good choice!</span>  This bee would have stung you.<br>Your bonus pay is unchanged, and remains at $0.76.</p>\n            ","response":0,"trial_type":"html-button-response","trial_index":94,"time_elapsed":1350820,"internal_node_id":"0.0-4.0-1.43","subject_id":"6140c0458076b4a939ae4bb1","study_id":"60edd13110225f80f9f3709b","session_id":"6196c4a60e3f3a9e2dc92cdf","condition":"full-information","relevant_dimensions":["antennae","pattern"],"bee_group":{"antennae":"B","wings":"X","pattern":"D","legs":"X"},"bonus":1.1600000000000008},{"rt":5232.400000002235,"stimulus":"bees-with-color/bee-B2DM.svg","response":1,"trial_type":"image-button-response","trial_index":95,"time_elapsed":1356055,"internal_node_id":"0.0-4.0-0.44","subject_id":"6140c0458076b4a939ae4bb1","study_id":"60edd13110225f80f9f3709b","session_id":"6196c4a60e3f3a9e2dc92cdf","condition":"full-information","relevant_dimensions":["antennae","pattern"],"bee_group":{"antennae":"B","wings":"X","pattern":"D","legs":"X"},"action":"avoid","summary":"good-avoid","bonus":1.1600000000000008},{"rt":5086.800000000745,"stimulus":"\n                    <p><b>Action: <em>avoid</em></b></p>\n                    <p>This is the bee that you just saw.</p>\n                    <img src=\"bees-with-color/bee-B2DM.svg\" width=\"200\">\n                    <p><span class=\"greenText\">Good choice!</span>  This bee would have stung you.<br>Your bonus pay is unchanged, and remains at $0.76.</p>\n            ","response":0,"trial_type":"html-button-response","trial_index":96,"time_elapsed":1361143,"internal_node_id":"0.0-4.0-1.44","subject_id":"6140c0458076b4a939ae4bb1","study_id":"60edd13110225f80f9f3709b","session_id":"6196c4a60e3f3a9e2dc92cdf","condition":"full-information","relevant_dimensions":["antennae","pattern"],"bee_group":{"antennae":"B","wings":"X","pattern":"D","legs":"X"},"bonus":1.1600000000000008},{"rt":16962.300000000745,"stimulus":"bees-with-color/bee-A2DF.svg","response":1,"trial_type":"image-button-response","trial_index":97,"time_elapsed":1378106,"internal_node_id":"0.0-4.0-0.45","subject_id":"6140c0458076b4a939ae4bb1","study_id":"60edd13110225f80f9f3709b","session_id":"6196c4a60e3f3a9e2dc92cdf","condition":"full-information","relevant_dimensions":["antennae","pattern"],"bee_group":{"antennae":"B","wings":"X","pattern":"D","legs":"X"},"action":"avoid","summary":"bad-avoid","bonus":1.1600000000000008},{"rt":3892.800000000745,"stimulus":"\n                    <p><b>Action: <em>avoid</em></b></p>\n                    <p>This is the bee that you just saw.</p>\n                    <img src=\"bees-with-color/bee-A2DF.svg\" width=\"200\">\n                    <p><span class=\"redText\">Bad choice,</span> the bee was friendly.<br>Your bonus pay is unchanged, and remains at $0.76.</p>\n            ","response":0,"trial_type":"html-button-response","trial_index":98,"time_elapsed":1381994,"internal_node_id":"0.0-4.0-1.45","subject_id":"6140c0458076b4a939ae4bb1","study_id":"60edd13110225f80f9f3709b","session_id":"6196c4a60e3f3a9e2dc92cdf","condition":"full-information","relevant_dimensions":["antennae","pattern"],"bee_group":{"antennae":"B","wings":"X","pattern":"D","legs":"X"},"bonus":1.1600000000000008},{"rt":4170.699999999255,"stimulus":"bees-with-color/bee-B1SM.svg","response":0,"trial_type":"image-button-response","trial_index":99,"time_elapsed":1386167,"internal_node_id":"0.0-4.0-0.46","subject_id":"6140c0458076b4a939ae4bb1","study_id":"60edd13110225f80f9f3709b","session_id":"6196c4a60e3f3a9e2dc92cdf","condition":"full-information","relevant_dimensions":["antennae","pattern"],"bee_group":{"antennae":"B","wings":"X","pattern":"D","legs":"X"},"action":"harvest","summary":"good-harvest","bonus":1.1600000000000008},{"rt":4126.79999999702,"stimulus":"\n                    <p><b>Action: <em>harvest</em></b></p>\n                    <p>This is the bee that you just saw.</p>\n                    <img src=\"bees-with-color/bee-B1SM.svg\" width=\"200\">\n                    <p><span class=\"greenText\"><b>Successful harvest!</b></span><br>Your pay has increased by $0.02. Your bonus pay is now $0.78.</p>\n            ","response":0,"trial_type":"html-button-response","trial_index":100,"time_elapsed":1390295,"internal_node_id":"0.0-4.0-1.46","subject_id":"6140c0458076b4a939ae4bb1","study_id":"60edd13110225f80f9f3709b","session_id":"6196c4a60e3f3a9e2dc92cdf","condition":"full-information","relevant_dimensions":["antennae","pattern"],"bee_group":{"antennae":"B","wings":"X","pattern":"D","legs":"X"},"bonus":1.1600000000000008},{"rt":7614.10000000149,"stimulus":"bees-with-color/bee-A1DM.svg","response":1,"trial_type":"image-button-response","trial_index":101,"time_elapsed":1397910,"internal_node_id":"0.0-4.0-0.47","subject_id":"6140c0458076b4a939ae4bb1","study_id":"60edd13110225f80f9f3709b","session_id":"6196c4a60e3f3a9e2dc92cdf","condition":"full-information","relevant_dimensions":["antennae","pattern"],"bee_group":{"antennae":"B","wings":"X","pattern":"D","legs":"X"},"action":"avoid","summary":"bad-avoid","bonus":1.1600000000000008},{"rt":4828.699999999255,"stimulus":"\n                    <p><b>Action: <em>avoid</em></b></p>\n                    <p>This is the bee that you just saw.</p>\n                    <img src=\"bees-with-color/bee-A1DM.svg\" width=\"200\">\n                    <p><span class=\"redText\">Bad choice,</span> the bee was friendly.<br>Your bonus pay is unchanged, and remains at $0.78.</p>\n            ","response":0,"trial_type":"html-button-response","trial_index":102,"time_elapsed":1402740,"internal_node_id":"0.0-4.0-1.47","subject_id":"6140c0458076b4a939ae4bb1","study_id":"60edd13110225f80f9f3709b","session_id":"6196c4a60e3f3a9e2dc92cdf","condition":"full-information","relevant_dimensions":["antennae","pattern"],"bee_group":{"antennae":"B","wings":"X","pattern":"D","legs":"X"},"bonus":1.1600000000000008},{"rt":5938.5,"stimulus":"bees-with-color/bee-B1DM.svg","response":1,"trial_type":"image-button-response","trial_index":103,"time_elapsed":1408681,"internal_node_id":"0.0-4.0-0.48","subject_id":"6140c0458076b4a939ae4bb1","study_id":"60edd13110225f80f9f3709b","session_id":"6196c4a60e3f3a9e2dc92cdf","condition":"full-information","relevant_dimensions":["antennae","pattern"],"bee_group":{"antennae":"B","wings":"X","pattern":"D","legs":"X"},"action":"avoid","summary":"good-avoid","bonus":1.1600000000000008},{"rt":6922.60000000149,"stimulus":"\n                    <p><b>Action: <em>avoid</em></b></p>\n                    <p>This is the bee that you just saw.</p>\n                    <img src=\"bees-with-color/bee-B1DM.svg\" width=\"200\">\n                    <p><span class=\"greenText\">Good choice!</span>  This bee would have stung you.<br>Your bonus pay is unchanged, and remains at $0.78.</p>\n            ","response":0,"trial_type":"html-button-response","trial_index":104,"time_elapsed":1415605,"internal_node_id":"0.0-4.0-1.48","subject_id":"6140c0458076b4a939ae4bb1","study_id":"60edd13110225f80f9f3709b","session_id":"6196c4a60e3f3a9e2dc92cdf","condition":"full-information","relevant_dimensions":["antennae","pattern"],"bee_group":{"antennae":"B","wings":"X","pattern":"D","legs":"X"},"bonus":1.1600000000000008},{"rt":3762.5,"stimulus":"bees-with-color/bee-A1DM.svg","response":1,"trial_type":"image-button-response","trial_index":105,"time_elapsed":1419369,"internal_node_id":"0.0-4.0-0.49","subject_id":"6140c0458076b4a939ae4bb1","study_id":"60edd13110225f80f9f3709b","session_id":"6196c4a60e3f3a9e2dc92cdf","condition":"full-information","relevant_dimensions":["antennae","pattern"],"bee_group":{"antennae":"B","wings":"X","pattern":"D","legs":"X"},"action":"avoid","summary":"bad-avoid","bonus":1.1600000000000008},{"rt":3906.300000000745,"stimulus":"\n                    <p><b>Action: <em>avoid</em></b></p>\n                    <p>This is the bee that you just saw.</p>\n                    <img src=\"bees-with-color/bee-A1DM.svg\" width=\"200\">\n                    <p><span class=\"redText\">Bad choice,</span> the bee was friendly.<br>Your bonus pay is unchanged, and remains at $0.78.</p>\n            ","response":0,"trial_type":"html-button-response","trial_index":106,"time_elapsed":1423276,"internal_node_id":"0.0-4.0-1.49","subject_id":"6140c0458076b4a939ae4bb1","study_id":"60edd13110225f80f9f3709b","session_id":"6196c4a60e3f3a9e2dc92cdf","condition":"full-information","relevant_dimensions":["antennae","pattern"],"bee_group":{"antennae":"B","wings":"X","pattern":"D","legs":"X"},"bonus":1.1600000000000008},{"rt":3738.699999999255,"stimulus":"bees-with-color/bee-A2SM.svg","response":0,"trial_type":"image-button-response","trial_index":107,"time_elapsed":1427017,"internal_node_id":"0.0-4.0-0.50","subject_id":"6140c0458076b4a939ae4bb1","study_id":"60edd13110225f80f9f3709b","session_id":"6196c4a60e3f3a9e2dc92cdf","condition":"full-information","relevant_dimensions":["antennae","pattern"],"bee_group":{"antennae":"B","wings":"X","pattern":"D","legs":"X"},"action":"harvest","summary":"good-harvest","bonus":1.1600000000000008},{"rt":4264.60000000149,"stimulus":"\n                    <p><b>Action: <em>harvest</em></b></p>\n                    <p>This is the bee that you just saw.</p>\n                    <img src=\"bees-with-color/bee-A2SM.svg\" width=\"200\">\n                    <p><span class=\"greenText\"><b>Successful harvest!</b></span><br>Your pay has increased by $0.02. Your bonus pay is now $0.80.</p>\n            ","response":0,"trial_type":"html-button-response","trial_index":108,"time_elapsed":1431282,"internal_node_id":"0.0-4.0-1.50","subject_id":"6140c0458076b4a939ae4bb1","study_id":"60edd13110225f80f9f3709b","session_id":"6196c4a60e3f3a9e2dc92cdf","condition":"full-information","relevant_dimensions":["antennae","pattern"],"bee_group":{"antennae":"B","wings":"X","pattern":"D","legs":"X"},"bonus":1.1600000000000008},{"rt":4766.5,"stimulus":"bees-with-color/bee-B2DF.svg","response":1,"trial_type":"image-button-response","trial_index":109,"time_elapsed":1436051,"internal_node_id":"0.0-4.0-0.51","subject_id":"6140c0458076b4a939ae4bb1","study_id":"60edd13110225f80f9f3709b","session_id":"6196c4a60e3f3a9e2dc92cdf","condition":"full-information","relevant_dimensions":["antennae","pattern"],"bee_group":{"antennae":"B","wings":"X","pattern":"D","legs":"X"},"action":"avoid","summary":"good-avoid","bonus":1.1600000000000008},{"rt":4800.599999997765,"stimulus":"\n                    <p><b>Action: <em>avoid</em></b></p>\n                    <p>This is the bee that you just saw.</p>\n                    <img src=\"bees-with-color/bee-B2DF.svg\" width=\"200\">\n                    <p><span class=\"greenText\">Good choice!</span>  This bee would have stung you.<br>Your bonus pay is unchanged, and remains at $0.80.</p>\n            ","response":0,"trial_type":"html-button-response","trial_index":110,"time_elapsed":1440853,"internal_node_id":"0.0-4.0-1.51","subject_id":"6140c0458076b4a939ae4bb1","study_id":"60edd13110225f80f9f3709b","session_id":"6196c4a60e3f3a9e2dc92cdf","condition":"full-information","relevant_dimensions":["antennae","pattern"],"bee_group":{"antennae":"B","wings":"X","pattern":"D","legs":"X"},"bonus":1.1600000000000008},{"rt":10114.10000000149,"stimulus":"bees-with-color/bee-A1SF.svg","response":0,"trial_type":"image-button-response","trial_index":111,"time_elapsed":1450974,"internal_node_id":"0.0-4.0-0.52","subject_id":"6140c0458076b4a939ae4bb1","study_id":"60edd13110225f80f9f3709b","session_id":"6196c4a60e3f3a9e2dc92cdf","condition":"full-information","relevant_dimensions":["antennae","pattern"],"bee_group":{"antennae":"B","wings":"X","pattern":"D","legs":"X"},"action":"harvest","summary":"good-harvest","bonus":1.1600000000000008},{"rt":779.1999999992549,"stimulus":"\n                    <p><b>Action: <em>harvest</em></b></p>\n                    <p>This is the bee that you just saw.</p>\n                    <img src=\"bees-with-color/bee-A1SF.svg\" width=\"200\">\n                    <p><span class=\"greenText\"><b>Successful harvest!</b></span><br>Your pay has increased by $0.02. Your bonus pay is now $0.82.</p>\n            ","response":0,"trial_type":"html-button-response","trial_index":112,"time_elapsed":1451755,"internal_node_id":"0.0-4.0-1.52","subject_id":"6140c0458076b4a939ae4bb1","study_id":"60edd13110225f80f9f3709b","session_id":"6196c4a60e3f3a9e2dc92cdf","condition":"full-information","relevant_dimensions":["antennae","pattern"],"bee_group":{"antennae":"B","wings":"X","pattern":"D","legs":"X"},"bonus":1.1600000000000008},{"rt":5208.29999999702,"stimulus":"bees-with-color/bee-A2SF.svg","response":0,"trial_type":"image-button-response","trial_index":113,"time_elapsed":1456965,"internal_node_id":"0.0-4.0-0.53","subject_id":"6140c0458076b4a939ae4bb1","study_id":"60edd13110225f80f9f3709b","session_id":"6196c4a60e3f3a9e2dc92cdf","condition":"full-information","relevant_dimensions":["antennae","pattern"],"bee_group":{"antennae":"B","wings":"X","pattern":"D","legs":"X"},"action":"harvest","summary":"good-harvest","bonus":1.1600000000000008},{"rt":3132.7999999970198,"stimulus":"\n                    <p><b>Action: <em>harvest</em></b></p>\n                    <p>This is the bee that you just saw.</p>\n                    <img src=\"bees-with-color/bee-A2SF.svg\" width=\"200\">\n                    <p><span class=\"greenText\"><b>Successful harvest!</b></span><br>Your pay has increased by $0.02. Your bonus pay is now $0.84.</p>\n            ","response":0,"trial_type":"html-button-response","trial_index":114,"time_elapsed":1460099,"internal_node_id":"0.0-4.0-1.53","subject_id":"6140c0458076b4a939ae4bb1","study_id":"60edd13110225f80f9f3709b","session_id":"6196c4a60e3f3a9e2dc92cdf","condition":"full-information","relevant_dimensions":["antennae","pattern"],"bee_group":{"antennae":"B","wings":"X","pattern":"D","legs":"X"},"bonus":1.1600000000000008},{"rt":2056.599999997765,"stimulus":"bees-with-color/bee-B2SF.svg","response":0,"trial_type":"image-button-response","trial_index":115,"time_elapsed":1462157,"internal_node_id":"0.0-4.0-0.54","subject_id":"6140c0458076b4a939ae4bb1","study_id":"60edd13110225f80f9f3709b","session_id":"6196c4a60e3f3a9e2dc92cdf","condition":"full-information","relevant_dimensions":["antennae","pattern"],"bee_group":{"antennae":"B","wings":"X","pattern":"D","legs":"X"},"action":"harvest","summary":"good-harvest","bonus":1.1600000000000008},{"rt":964.6999999992549,"stimulus":"\n                    <p><b>Action: <em>harvest</em></b></p>\n                    <p>This is the bee that you just saw.</p>\n                    <img src=\"bees-with-color/bee-B2SF.svg\" width=\"200\">\n                    <p><span class=\"greenText\"><b>Successful harvest!</b></span><br>Your pay has increased by $0.02. Your bonus pay is now $0.86.</p>\n            ","response":0,"trial_type":"html-button-response","trial_index":116,"time_elapsed":1463123,"internal_node_id":"0.0-4.0-1.54","subject_id":"6140c0458076b4a939ae4bb1","study_id":"60edd13110225f80f9f3709b","session_id":"6196c4a60e3f3a9e2dc92cdf","condition":"full-information","relevant_dimensions":["antennae","pattern"],"bee_group":{"antennae":"B","wings":"X","pattern":"D","legs":"X"},"bonus":1.1600000000000008},{"rt":3964.89999999851,"stimulus":"bees-with-color/bee-B2SM.svg","response":0,"trial_type":"image-button-response","trial_index":117,"time_elapsed":1467089,"internal_node_id":"0.0-4.0-0.55","subject_id":"6140c0458076b4a939ae4bb1","study_id":"60edd13110225f80f9f3709b","session_id":"6196c4a60e3f3a9e2dc92cdf","condition":"full-information","relevant_dimensions":["antennae","pattern"],"bee_group":{"antennae":"B","wings":"X","pattern":"D","legs":"X"},"action":"harvest","summary":"good-harvest","bonus":1.1600000000000008},{"rt":762.3999999985099,"stimulus":"\n                    <p><b>Action: <em>harvest</em></b></p>\n                    <p>This is the bee that you just saw.</p>\n                    <img src=\"bees-with-color/bee-B2SM.svg\" width=\"200\">\n                    <p><span class=\"greenText\"><b>Successful harvest!</b></span><br>Your pay has increased by $0.02. Your bonus pay is now $0.88.</p>\n            ","response":0,"trial_type":"html-button-response","trial_index":118,"time_elapsed":1467852,"internal_node_id":"0.0-4.0-1.55","subject_id":"6140c0458076b4a939ae4bb1","study_id":"60edd13110225f80f9f3709b","session_id":"6196c4a60e3f3a9e2dc92cdf","condition":"full-information","relevant_dimensions":["antennae","pattern"],"bee_group":{"antennae":"B","wings":"X","pattern":"D","legs":"X"},"bonus":1.1600000000000008},{"rt":5556.599999997765,"stimulus":"bees-with-color/bee-A2DF.svg","response":1,"trial_type":"image-button-response","trial_index":119,"time_elapsed":1473410,"internal_node_id":"0.0-4.0-0.56","subject_id":"6140c0458076b4a939ae4bb1","study_id":"60edd13110225f80f9f3709b","session_id":"6196c4a60e3f3a9e2dc92cdf","condition":"full-information","relevant_dimensions":["antennae","pattern"],"bee_group":{"antennae":"B","wings":"X","pattern":"D","legs":"X"},"action":"avoid","summary":"bad-avoid","bonus":1.1600000000000008},{"rt":4728.89999999851,"stimulus":"\n                    <p><b>Action: <em>avoid</em></b></p>\n                    <p>This is the bee that you just saw.</p>\n                    <img src=\"bees-with-color/bee-A2DF.svg\" width=\"200\">\n                    <p><span class=\"redText\">Bad choice,</span> the bee was friendly.<br>Your bonus pay is unchanged, and remains at $0.88.</p>\n            ","response":0,"trial_type":"html-button-response","trial_index":120,"time_elapsed":1478141,"internal_node_id":"0.0-4.0-1.56","subject_id":"6140c0458076b4a939ae4bb1","study_id":"60edd13110225f80f9f3709b","session_id":"6196c4a60e3f3a9e2dc92cdf","condition":"full-information","relevant_dimensions":["antennae","pattern"],"bee_group":{"antennae":"B","wings":"X","pattern":"D","legs":"X"},"bonus":1.1600000000000008},{"rt":6318.5,"stimulus":"bees-with-color/bee-A2DM.svg","response":1,"trial_type":"image-button-response","trial_index":121,"time_elapsed":1484461,"internal_node_id":"0.0-4.0-0.57","subject_id":"6140c0458076b4a939ae4bb1","study_id":"60edd13110225f80f9f3709b","session_id":"6196c4a60e3f3a9e2dc92cdf","condition":"full-information","relevant_dimensions":["antennae","pattern"],"bee_group":{"antennae":"B","wings":"X","pattern":"D","legs":"X"},"action":"avoid","summary":"bad-avoid","bonus":1.1600000000000008},{"rt":4947.89999999851,"stimulus":"\n                    <p><b>Action: <em>avoid</em></b></p>\n                    <p>This is the bee that you just saw.</p>\n                    <img src=\"bees-with-color/bee-A2DM.svg\" width=\"200\">\n                    <p><span class=\"redText\">Bad choice,</span> the bee was friendly.<br>Your bonus pay is unchanged, and remains at $0.88.</p>\n            ","response":0,"trial_type":"html-button-response","trial_index":122,"time_elapsed":1489411,"internal_node_id":"0.0-4.0-1.57","subject_id":"6140c0458076b4a939ae4bb1","study_id":"60edd13110225f80f9f3709b","session_id":"6196c4a60e3f3a9e2dc92cdf","condition":"full-information","relevant_dimensions":["antennae","pattern"],"bee_group":{"antennae":"B","wings":"X","pattern":"D","legs":"X"},"bonus":1.1600000000000008},{"rt":7380,"stimulus":"bees-with-color/bee-B1DF.svg","response":1,"trial_type":"image-button-response","trial_index":123,"time_elapsed":1496793,"internal_node_id":"0.0-4.0-0.58","subject_id":"6140c0458076b4a939ae4bb1","study_id":"60edd13110225f80f9f3709b","session_id":"6196c4a60e3f3a9e2dc92cdf","condition":"full-information","relevant_dimensions":["antennae","pattern"],"bee_group":{"antennae":"B","wings":"X","pattern":"D","legs":"X"},"action":"avoid","summary":"good-avoid","bonus":1.1600000000000008},{"rt":5744.60000000149,"stimulus":"\n                    <p><b>Action: <em>avoid</em></b></p>\n                    <p>This is the bee that you just saw.</p>\n                    <img src=\"bees-with-color/bee-B1DF.svg\" width=\"200\">\n                    <p><span class=\"greenText\">Good choice!</span>  This bee would have stung you.<br>Your bonus pay is unchanged, and remains at $0.88.</p>\n            ","response":0,"trial_type":"html-button-response","trial_index":124,"time_elapsed":1502539,"internal_node_id":"0.0-4.0-1.58","subject_id":"6140c0458076b4a939ae4bb1","study_id":"60edd13110225f80f9f3709b","session_id":"6196c4a60e3f3a9e2dc92cdf","condition":"full-information","relevant_dimensions":["antennae","pattern"],"bee_group":{"antennae":"B","wings":"X","pattern":"D","legs":"X"},"bonus":1.1600000000000008},{"rt":3928.39999999851,"stimulus":"bees-with-color/bee-A1SM.svg","response":0,"trial_type":"image-button-response","trial_index":125,"time_elapsed":1506469,"internal_node_id":"0.0-4.0-0.59","subject_id":"6140c0458076b4a939ae4bb1","study_id":"60edd13110225f80f9f3709b","session_id":"6196c4a60e3f3a9e2dc92cdf","condition":"full-information","relevant_dimensions":["antennae","pattern"],"bee_group":{"antennae":"B","wings":"X","pattern":"D","legs":"X"},"action":"harvest","summary":"good-harvest","bonus":1.1600000000000008},{"rt":3440.60000000149,"stimulus":"\n                    <p><b>Action: <em>harvest</em></b></p>\n                    <p>This is the bee that you just saw.</p>\n                    <img src=\"bees-with-color/bee-A1SM.svg\" width=\"200\">\n                    <p><span class=\"greenText\"><b>Successful harvest!</b></span><br>Your pay has increased by $0.02. Your bonus pay is now $0.90.</p>\n            ","response":0,"trial_type":"html-button-response","trial_index":126,"time_elapsed":1509911,"internal_node_id":"0.0-4.0-1.59","subject_id":"6140c0458076b4a939ae4bb1","study_id":"60edd13110225f80f9f3709b","session_id":"6196c4a60e3f3a9e2dc92cdf","condition":"full-information","relevant_dimensions":["antennae","pattern"],"bee_group":{"antennae":"B","wings":"X","pattern":"D","legs":"X"},"bonus":1.1600000000000008},{"rt":4967.39999999851,"stimulus":"bees-with-color/bee-B1SF.svg","response":0,"trial_type":"image-button-response","trial_index":127,"time_elapsed":1514881,"internal_node_id":"0.0-4.0-0.60","subject_id":"6140c0458076b4a939ae4bb1","study_id":"60edd13110225f80f9f3709b","session_id":"6196c4a60e3f3a9e2dc92cdf","condition":"full-information","relevant_dimensions":["antennae","pattern"],"bee_group":{"antennae":"B","wings":"X","pattern":"D","legs":"X"},"action":"harvest","summary":"good-harvest","bonus":1.1600000000000008},{"rt":822.7999999970198,"stimulus":"\n                    <p><b>Action: <em>harvest</em></b></p>\n                    <p>This is the bee that you just saw.</p>\n                    <img src=\"bees-with-color/bee-B1SF.svg\" width=\"200\">\n                    <p><span class=\"greenText\"><b>Successful harvest!</b></span><br>Your pay has increased by $0.02. Your bonus pay is now $0.92.</p>\n            ","response":0,"trial_type":"html-button-response","trial_index":128,"time_elapsed":1515705,"internal_node_id":"0.0-4.0-1.60","subject_id":"6140c0458076b4a939ae4bb1","study_id":"60edd13110225f80f9f3709b","session_id":"6196c4a60e3f3a9e2dc92cdf","condition":"full-information","relevant_dimensions":["antennae","pattern"],"bee_group":{"antennae":"B","wings":"X","pattern":"D","legs":"X"},"bonus":1.1600000000000008},{"rt":5812.300000000745,"stimulus":"bees-with-color/bee-B2DM.svg","response":1,"trial_type":"image-button-response","trial_index":129,"time_elapsed":1521519,"internal_node_id":"0.0-4.0-0.61","subject_id":"6140c0458076b4a939ae4bb1","study_id":"60edd13110225f80f9f3709b","session_id":"6196c4a60e3f3a9e2dc92cdf","condition":"full-information","relevant_dimensions":["antennae","pattern"],"bee_group":{"antennae":"B","wings":"X","pattern":"D","legs":"X"},"action":"avoid","summary":"good-avoid","bonus":1.1600000000000008},{"rt":5485.300000000745,"stimulus":"\n                    <p><b>Action: <em>avoid</em></b></p>\n                    <p>This is the bee that you just saw.</p>\n                    <img src=\"bees-with-color/bee-B2DM.svg\" width=\"200\">\n                    <p><span class=\"greenText\">Good choice!</span>  This bee would have stung you.<br>Your bonus pay is unchanged, and remains at $0.92.</p>\n            ","response":0,"trial_type":"html-button-response","trial_index":130,"time_elapsed":1527005,"internal_node_id":"0.0-4.0-1.61","subject_id":"6140c0458076b4a939ae4bb1","study_id":"60edd13110225f80f9f3709b","session_id":"6196c4a60e3f3a9e2dc92cdf","condition":"full-information","relevant_dimensions":["antennae","pattern"],"bee_group":{"antennae":"B","wings":"X","pattern":"D","legs":"X"},"bonus":1.1600000000000008},{"rt":4571.89999999851,"stimulus":"bees-with-color/bee-B1SM.svg","response":0,"trial_type":"image-button-response","trial_index":131,"time_elapsed":1531578,"internal_node_id":"0.0-4.0-0.62","subject_id":"6140c0458076b4a939ae4bb1","study_id":"60edd13110225f80f9f3709b","session_id":"6196c4a60e3f3a9e2dc92cdf","condition":"full-information","relevant_dimensions":["antennae","pattern"],"bee_group":{"antennae":"B","wings":"X","pattern":"D","legs":"X"},"action":"harvest","summary":"good-harvest","bonus":1.1600000000000008},{"rt":918.9000000022352,"stimulus":"\n                    <p><b>Action: <em>harvest</em></b></p>\n                    <p>This is the bee that you just saw.</p>\n                    <img src=\"bees-with-color/bee-B1SM.svg\" width=\"200\">\n                    <p><span class=\"greenText\"><b>Successful harvest!</b></span><br>Your pay has increased by $0.02. Your bonus pay is now $0.94.</p>\n            ","response":0,"trial_type":"html-button-response","trial_index":132,"time_elapsed":1532499,"internal_node_id":"0.0-4.0-1.62","subject_id":"6140c0458076b4a939ae4bb1","study_id":"60edd13110225f80f9f3709b","session_id":"6196c4a60e3f3a9e2dc92cdf","condition":"full-information","relevant_dimensions":["antennae","pattern"],"bee_group":{"antennae":"B","wings":"X","pattern":"D","legs":"X"},"bonus":1.1600000000000008},{"rt":5213,"stimulus":"bees-with-color/bee-A1DF.svg","response":1,"trial_type":"image-button-response","trial_index":133,"time_elapsed":1537713,"internal_node_id":"0.0-4.0-0.63","subject_id":"6140c0458076b4a939ae4bb1","study_id":"60edd13110225f80f9f3709b","session_id":"6196c4a60e3f3a9e2dc92cdf","condition":"full-information","relevant_dimensions":["antennae","pattern"],"bee_group":{"antennae":"B","wings":"X","pattern":"D","legs":"X"},"action":"avoid","summary":"bad-avoid","bonus":1.1600000000000008},{"rt":966.8000000007451,"stimulus":"\n                    <p><b>Action: <em>avoid</em></b></p>\n                    <p>This is the bee that you just saw.</p>\n                    <img src=\"bees-with-color/bee-A1DF.svg\" width=\"200\">\n                    <p><span class=\"redText\">Bad choice,</span> the bee was friendly.<br>Your bonus pay is unchanged, and remains at $0.94.</p>\n            ","response":0,"trial_type":"html-button-response","trial_index":134,"time_elapsed":1538681,"internal_node_id":"0.0-4.0-1.63","subject_id":"6140c0458076b4a939ae4bb1","study_id":"60edd13110225f80f9f3709b","session_id":"6196c4a60e3f3a9e2dc92cdf","condition":"full-information","relevant_dimensions":["antennae","pattern"],"bee_group":{"antennae":"B","wings":"X","pattern":"D","legs":"X"},"bonus":1.1600000000000008},{"rt":10375.599999997765,"stimulus":"You have completed the first part of this experiment.<br><br>You will now begin a shorter second part, in which you will receive no feedback.<br>The same rules regarding bonus pay apply.<br><br>Press any key to begin.","response":" ","trial_type":"html-keyboard-response","trial_index":135,"time_elapsed":1549058,"internal_node_id":"0.0-5.0","subject_id":"6140c0458076b4a939ae4bb1","study_id":"60edd13110225f80f9f3709b","session_id":"6196c4a60e3f3a9e2dc92cdf","condition":"full-information","relevant_dimensions":["antennae","pattern"],"bee_group":{"antennae":"B","wings":"X","pattern":"D","legs":"X"},"bonus":1.1600000000000008},{"rt":7773.800000000745,"stimulus":"bees-with-color/bee-B1DM.svg","response":1,"trial_type":"image-button-response","trial_index":136,"time_elapsed":1556841,"internal_node_id":"0.0-6.0-0.0","subject_id":"6140c0458076b4a939ae4bb1","study_id":"60edd13110225f80f9f3709b","session_id":"6196c4a60e3f3a9e2dc92cdf","condition":"full-information","relevant_dimensions":["antennae","pattern"],"bee_group":{"antennae":"B","wings":"X","pattern":"D","legs":"X"},"bonus":1.1600000000000008},{"rt":5261.300000000745,"stimulus":"bees-with-color/bee-B2DM.svg","response":1,"trial_type":"image-button-response","trial_index":137,"time_elapsed":1562105,"internal_node_id":"0.0-6.0-0.1","subject_id":"6140c0458076b4a939ae4bb1","study_id":"60edd13110225f80f9f3709b","session_id":"6196c4a60e3f3a9e2dc92cdf","condition":"full-information","relevant_dimensions":["antennae","pattern"],"bee_group":{"antennae":"B","wings":"X","pattern":"D","legs":"X"},"bonus":1.1600000000000008},{"rt":3867.5,"stimulus":"bees-with-color/bee-A1SM.svg","response":0,"trial_type":"image-button-response","trial_index":138,"time_elapsed":1565974,"internal_node_id":"0.0-6.0-0.2","subject_id":"6140c0458076b4a939ae4bb1","study_id":"60edd13110225f80f9f3709b","session_id":"6196c4a60e3f3a9e2dc92cdf","condition":"full-information","relevant_dimensions":["antennae","pattern"],"bee_group":{"antennae":"B","wings":"X","pattern":"D","legs":"X"},"bonus":1.1600000000000008},{"rt":4690.10000000149,"stimulus":"bees-with-color/bee-B1SF.svg","response":0,"trial_type":"image-button-response","trial_index":139,"time_elapsed":1570667,"internal_node_id":"0.0-6.0-0.3","subject_id":"6140c0458076b4a939ae4bb1","study_id":"60edd13110225f80f9f3709b","session_id":"6196c4a60e3f3a9e2dc92cdf","condition":"full-information","relevant_dimensions":["antennae","pattern"],"bee_group":{"antennae":"B","wings":"X","pattern":"D","legs":"X"},"bonus":1.1600000000000008},{"rt":8816,"stimulus":"bees-with-color/bee-A1DF.svg","response":1,"trial_type":"image-button-response","trial_index":140,"time_elapsed":1579485,"internal_node_id":"0.0-6.0-0.4","subject_id":"6140c0458076b4a939ae4bb1","study_id":"60edd13110225f80f9f3709b","session_id":"6196c4a60e3f3a9e2dc92cdf","condition":"full-information","relevant_dimensions":["antennae","pattern"],"bee_group":{"antennae":"B","wings":"X","pattern":"D","legs":"X"},"bonus":1.1600000000000008},{"rt":96918.19999999925,"stimulus":"bees-with-color/bee-A2DM.svg","response":1,"trial_type":"image-button-response","trial_index":141,"time_elapsed":1676405,"internal_node_id":"0.0-6.0-0.5","subject_id":"6140c0458076b4a939ae4bb1","study_id":"60edd13110225f80f9f3709b","session_id":"6196c4a60e3f3a9e2dc92cdf","condition":"full-information","relevant_dimensions":["antennae","pattern"],"bee_group":{"antennae":"B","wings":"X","pattern":"D","legs":"X"},"bonus":1.1600000000000008},{"rt":1359.3999999985099,"stimulus":"bees-with-color/bee-B2SF.svg","response":0,"trial_type":"image-button-response","trial_index":142,"time_elapsed":1677767,"internal_node_id":"0.0-6.0-0.6","subject_id":"6140c0458076b4a939ae4bb1","study_id":"60edd13110225f80f9f3709b","session_id":"6196c4a60e3f3a9e2dc92cdf","condition":"full-information","relevant_dimensions":["antennae","pattern"],"bee_group":{"antennae":"B","wings":"X","pattern":"D","legs":"X"},"bonus":1.1600000000000008},{"rt":742.3999999985099,"stimulus":"bees-with-color/bee-A1SF.svg","response":0,"trial_type":"image-button-response","trial_index":143,"time_elapsed":1678511,"internal_node_id":"0.0-6.0-0.7","subject_id":"6140c0458076b4a939ae4bb1","study_id":"60edd13110225f80f9f3709b","session_id":"6196c4a60e3f3a9e2dc92cdf","condition":"full-information","relevant_dimensions":["antennae","pattern"],"bee_group":{"antennae":"B","wings":"X","pattern":"D","legs":"X"},"bonus":1.1600000000000008},{"rt":443.4000000022352,"stimulus":"bees-with-color/bee-A2SM.svg","response":0,"trial_type":"image-button-response","trial_index":144,"time_elapsed":1678957,"internal_node_id":"0.0-6.0-0.8","subject_id":"6140c0458076b4a939ae4bb1","study_id":"60edd13110225f80f9f3709b","session_id":"6196c4a60e3f3a9e2dc92cdf","condition":"full-information","relevant_dimensions":["antennae","pattern"],"bee_group":{"antennae":"B","wings":"X","pattern":"D","legs":"X"},"bonus":1.1600000000000008},{"rt":943.6999999992549,"stimulus":"bees-with-color/bee-B1DF.svg","response":1,"trial_type":"image-button-response","trial_index":145,"time_elapsed":1679903,"internal_node_id":"0.0-6.0-0.9","subject_id":"6140c0458076b4a939ae4bb1","study_id":"60edd13110225f80f9f3709b","session_id":"6196c4a60e3f3a9e2dc92cdf","condition":"full-information","relevant_dimensions":["antennae","pattern"],"bee_group":{"antennae":"B","wings":"X","pattern":"D","legs":"X"},"bonus":1.1600000000000008},{"rt":1092,"stimulus":"bees-with-color/bee-A1DM.svg","response":1,"trial_type":"image-button-response","trial_index":146,"time_elapsed":1680997,"internal_node_id":"0.0-6.0-0.10","subject_id":"6140c0458076b4a939ae4bb1","study_id":"60edd13110225f80f9f3709b","session_id":"6196c4a60e3f3a9e2dc92cdf","condition":"full-information","relevant_dimensions":["antennae","pattern"],"bee_group":{"antennae":"B","wings":"X","pattern":"D","legs":"X"},"bonus":1.1600000000000008},{"rt":912.3999999985099,"stimulus":"bees-with-color/bee-B2SM.svg","response":0,"trial_type":"image-button-response","trial_index":147,"time_elapsed":1681911,"internal_node_id":"0.0-6.0-0.11","subject_id":"6140c0458076b4a939ae4bb1","study_id":"60edd13110225f80f9f3709b","session_id":"6196c4a60e3f3a9e2dc92cdf","condition":"full-information","relevant_dimensions":["antennae","pattern"],"bee_group":{"antennae":"B","wings":"X","pattern":"D","legs":"X"},"bonus":1.1600000000000008},{"rt":4582.5,"stimulus":"bees-with-color/bee-A2SF.svg","response":0,"trial_type":"image-button-response","trial_index":148,"time_elapsed":1686495,"internal_node_id":"0.0-6.0-0.12","subject_id":"6140c0458076b4a939ae4bb1","study_id":"60edd13110225f80f9f3709b","session_id":"6196c4a60e3f3a9e2dc92cdf","condition":"full-information","relevant_dimensions":["antennae","pattern"],"bee_group":{"antennae":"B","wings":"X","pattern":"D","legs":"X"},"bonus":1.1600000000000008},{"rt":5144.099999997765,"stimulus":"bees-with-color/bee-A2DF.svg","response":1,"trial_type":"image-button-response","trial_index":149,"time_elapsed":1691641,"internal_node_id":"0.0-6.0-0.13","subject_id":"6140c0458076b4a939ae4bb1","study_id":"60edd13110225f80f9f3709b","session_id":"6196c4a60e3f3a9e2dc92cdf","condition":"full-information","relevant_dimensions":["antennae","pattern"],"bee_group":{"antennae":"B","wings":"X","pattern":"D","legs":"X"},"bonus":1.1600000000000008},{"rt":1045.699999999255,"stimulus":"bees-with-color/bee-B2DF.svg","response":1,"trial_type":"image-button-response","trial_index":150,"time_elapsed":1692689,"internal_node_id":"0.0-6.0-0.14","subject_id":"6140c0458076b4a939ae4bb1","study_id":"60edd13110225f80f9f3709b","session_id":"6196c4a60e3f3a9e2dc92cdf","condition":"full-information","relevant_dimensions":["antennae","pattern"],"bee_group":{"antennae":"B","wings":"X","pattern":"D","legs":"X"},"bonus":1.1600000000000008},{"rt":830.8000000007451,"stimulus":"bees-with-color/bee-B1SM.svg","response":0,"trial_type":"image-button-response","trial_index":151,"time_elapsed":1693521,"internal_node_id":"0.0-6.0-0.15","subject_id":"6140c0458076b4a939ae4bb1","study_id":"60edd13110225f80f9f3709b","session_id":"6196c4a60e3f3a9e2dc92cdf","condition":"full-information","relevant_dimensions":["antennae","pattern"],"bee_group":{"antennae":"B","wings":"X","pattern":"D","legs":"X"},"bonus":1.1600000000000008},{"rt":808.3999999985099,"stimulus":"bees-with-color/bee-B1SM.svg","response":0,"trial_type":"image-button-response","trial_index":152,"time_elapsed":1694331,"internal_node_id":"0.0-6.0-0.16","subject_id":"6140c0458076b4a939ae4bb1","study_id":"60edd13110225f80f9f3709b","session_id":"6196c4a60e3f3a9e2dc92cdf","condition":"full-information","relevant_dimensions":["antennae","pattern"],"bee_group":{"antennae":"B","wings":"X","pattern":"D","legs":"X"},"bonus":1.1600000000000008},{"rt":1118.1000000014901,"stimulus":"bees-with-color/bee-A1DF.svg","response":1,"trial_type":"image-button-response","trial_index":153,"time_elapsed":1695451,"internal_node_id":"0.0-6.0-0.17","subject_id":"6140c0458076b4a939ae4bb1","study_id":"60edd13110225f80f9f3709b","session_id":"6196c4a60e3f3a9e2dc92cdf","condition":"full-information","relevant_dimensions":["antennae","pattern"],"bee_group":{"antennae":"B","wings":"X","pattern":"D","legs":"X"},"bonus":1.1600000000000008},{"rt":820.3000000007451,"stimulus":"bees-with-color/bee-A2SF.svg","response":0,"trial_type":"image-button-response","trial_index":154,"time_elapsed":1696273,"internal_node_id":"0.0-6.0-0.18","subject_id":"6140c0458076b4a939ae4bb1","study_id":"60edd13110225f80f9f3709b","session_id":"6196c4a60e3f3a9e2dc92cdf","condition":"full-information","relevant_dimensions":["antennae","pattern"],"bee_group":{"antennae":"B","wings":"X","pattern":"D","legs":"X"},"bonus":1.1600000000000008},{"rt":961.5,"stimulus":"bees-with-color/bee-B1DM.svg","response":1,"trial_type":"image-button-response","trial_index":155,"time_elapsed":1697236,"internal_node_id":"0.0-6.0-0.19","subject_id":"6140c0458076b4a939ae4bb1","study_id":"60edd13110225f80f9f3709b","session_id":"6196c4a60e3f3a9e2dc92cdf","condition":"full-information","relevant_dimensions":["antennae","pattern"],"bee_group":{"antennae":"B","wings":"X","pattern":"D","legs":"X"},"bonus":1.1600000000000008},{"rt":793.8999999985099,"stimulus":"bees-with-color/bee-A2DM.svg","response":1,"trial_type":"image-button-response","trial_index":156,"time_elapsed":1698031,"internal_node_id":"0.0-6.0-0.20","subject_id":"6140c0458076b4a939ae4bb1","study_id":"60edd13110225f80f9f3709b","session_id":"6196c4a60e3f3a9e2dc92cdf","condition":"full-informatio