[{"success":true,"trial_type":"fullscreen","trial_index":0,"time_elapsed":20620,"internal_node_id":"0.0-0.0","subject_id":"5fe602f729db954217db9aef","study_id":"6197b3f67c2b5cd3b6d9596a","session_id":"619be31d79a8fd8fd2cb96a2","condition":"contingent","relevant_dimensions":["antennae","pattern"],"bee_group":{"antennae":"B","wings":"X","pattern":"D","legs":"X"},"bonus":0.8800000000000004},{"success":true,"timeout":false,"failed_images":[],"failed_audio":[],"failed_video":[],"trial_type":"preload","trial_index":1,"time_elapsed":22694,"internal_node_id":"0.0-1.0","subject_id":"5fe602f729db954217db9aef","study_id":"6197b3f67c2b5cd3b6d9596a","session_id":"619be31d79a8fd8fd2cb96a2","condition":"contingent","relevant_dimensions":["antennae","pattern"],"bee_group":{"antennae":"B","wings":"X","pattern":"D","legs":"X"},"bonus":0.8800000000000004},{"rt":5962.0999999940395,"stimulus":"Welcome! Press any key to begin.","response":" ","trial_type":"html-keyboard-response","trial_index":2,"time_elapsed":28657,"internal_node_id":"0.0-2.0","subject_id":"5fe602f729db954217db9aef","study_id":"6197b3f67c2b5cd3b6d9596a","session_id":"619be31d79a8fd8fd2cb96a2","condition":"contingent","relevant_dimensions":["antennae","pattern"],"bee_group":{"antennae":"B","wings":"X","pattern":"D","legs":"X"},"bonus":0.8800000000000004},{"view_history":[{"page_index":0,"viewing_time":4088.0999999940395},{"page_index":1,"viewing_time":9570},{"page_index":2,"viewing_time":11447},{"page_index":3,"viewing_time":10060.200000017881},{"page_index":4,"viewing_time":8015.9000000059605},{"page_index":5,"viewing_time":23472},{"page_index":6,"viewing_time":8363.09999999404},{"page_index":7,"viewing_time":4221.9000000059605},{"page_index":8,"viewing_time":2792},{"page_index":9,"viewing_time":2363.0999999940395},{"page_index":10,"viewing_time":1972},{"page_index":11,"viewing_time":8914.90000000596},{"page_index":12,"viewing_time":4415},{"page_index":13,"viewing_time":1083.8999999761581},{"page_index":14,"viewing_time":1639.300000011921}],"rt":102419,"trial_type":"instructions","trial_index":3,"time_elapsed":131077,"internal_node_id":"0.0-3.0-0.0","subject_id":"5fe602f729db954217db9aef","study_id":"6197b3f67c2b5cd3b6d9596a","session_id":"619be31d79a8fd8fd2cb96a2","condition":"contingent","relevant_dimensions":["antennae","pattern"],"bee_group":{"antennae":"B","wings":"X","pattern":"D","legs":"X"},"bonus":0.8800000000000004},{"rt":12021,"response":{"Q0":["Two or six legs","Stripes or spots on body","Single or double wings","Antennae or no antennae"]},"question_order":[0],"trial_type":"survey-multi-select","trial_index":4,"time_elapsed":143101,"internal_node_id":"0.0-3.0-1.0","subject_id":"5fe602f729db954217db9aef","study_id":"6197b3f67c2b5cd3b6d9596a","session_id":"619be31d79a8fd8fd2cb96a2","condition":"contingent","relevant_dimensions":["antennae","pattern"],"bee_group":{"antennae":"B","wings":"X","pattern":"D","legs":"X"},"correct":true,"bonus":0.8800000000000004},{"rt":25131.70000001788,"response":{"Q1":"No.","Q2":"Based on the four features of the bee.","Q3":"You do not learn if it was friendly or dangerous, and do not alter your bonus."},"question_order":[0,1,2],"trial_type":"survey-multi-choice","trial_index":5,"time_elapsed":168234,"internal_node_id":"0.0-3.0-2.0","subject_id":"5fe602f729db954217db9aef","study_id":"6197b3f67c2b5cd3b6d9596a","session_id":"619be31d79a8fd8fd2cb96a2","condition":"contingent","relevant_dimensions":["antennae","pattern"],"bee_group":{"antennae":"B","wings":"X","pattern":"D","legs":"X"},"correct":true,"bonus":0.8800000000000004},{"rt":2124.800000011921,"stimulus":"<p>Congrats, you got everything right<br>When you're ready, click the button below to continue to the experiment.</p>","response":0,"trial_type":"html-button-response","trial_index":6,"time_elapsed":170360,"internal_node_id":"0.0-3.0-3.0","subject_id":"5fe602f729db954217db9aef","study_id":"6197b3f67c2b5cd3b6d9596a","session_id":"619be31d79a8fd8fd2cb96a2","condition":"contingent","relevant_dimensions":["antennae","pattern"],"bee_group":{"antennae":"B","wings":"X","pattern":"D","legs":"X"},"bonus":0.8800000000000004},{"rt":12941.5,"stimulus":"bees-with-color/bee-B2DM.svg","response":0,"trial_type":"image-button-response","trial_index":7,"time_elapsed":183303,"internal_node_id":"0.0-4.0-0.0","subject_id":"5fe602f729db954217db9aef","study_id":"6197b3f67c2b5cd3b6d9596a","session_id":"619be31d79a8fd8fd2cb96a2","condition":"contingent","relevant_dimensions":["antennae","pattern"],"bee_group":{"antennae":"B","wings":"X","pattern":"D","legs":"X"},"action":"harvest","summary":"bad-harvest","bonus":0.8800000000000004},{"rt":7245.0999999940395,"stimulus":"\n                    <p><b>Action: <em>harvest</em></b></p>\n                    <p>This is the bee that you just saw.</p>\n                    <img src=\"bees-with-color/bee-B2DM.svg\" width=\"200\">\n                    <p><span class=\"redText\">Bad choice, the bee was angry.</span><br><b>You have been stung!</b><br>Your pay has been decreased by $0.10. Your bonus pay is now $0.44.</p>\n            ","response":0,"trial_type":"html-button-response","trial_index":8,"time_elapsed":190550,"internal_node_id":"0.0-4.0-1.0","subject_id":"5fe602f729db954217db9aef","study_id":"6197b3f67c2b5cd3b6d9596a","session_id":"619be31d79a8fd8fd2cb96a2","condition":"contingent","relevant_dimensions":["antennae","pattern"],"bee_group":{"antennae":"B","wings":"X","pattern":"D","legs":"X"},"bonus":0.8800000000000004},{"rt":1020.5,"stimulus":"bees-with-color/bee-B1SF.svg","response":0,"trial_type":"image-button-response","trial_index":9,"time_elapsed":191572,"internal_node_id":"0.0-4.0-0.1","subject_id":"5fe602f729db954217db9aef","study_id":"6197b3f67c2b5cd3b6d9596a","session_id":"619be31d79a8fd8fd2cb96a2","condition":"contingent","relevant_dimensions":["antennae","pattern"],"bee_group":{"antennae":"B","wings":"X","pattern":"D","legs":"X"},"action":"harvest","summary":"good-harvest","bonus":0.8800000000000004},{"rt":14915.09999999404,"stimulus":"\n                    <p><b>Action: <em>harvest</em></b></p>\n                    <p>This is the bee that you just saw.</p>\n                    <img src=\"bees-with-color/bee-B1SF.svg\" width=\"200\">\n                    <p><span class=\"greenText\"><b>Successful harvest!</b></span><br>Your pay has increased by $0.02. Your bonus pay is now $0.46.</p>\n            ","response":0,"trial_type":"html-button-response","trial_index":10,"time_elapsed":206488,"internal_node_id":"0.0-4.0-1.1","subject_id":"5fe602f729db954217db9aef","study_id":"6197b3f67c2b5cd3b6d9596a","session_id":"619be31d79a8fd8fd2cb96a2","condition":"contingent","relevant_dimensions":["antennae","pattern"],"bee_group":{"antennae":"B","wings":"X","pattern":"D","legs":"X"},"bonus":0.8800000000000004},{"rt":12339.59999999404,"stimulus":"bees-with-color/bee-A1DM.svg","response":0,"trial_type":"image-button-response","trial_index":11,"time_elapsed":218829,"internal_node_id":"0.0-4.0-0.2","subject_id":"5fe602f729db954217db9aef","study_id":"6197b3f67c2b5cd3b6d9596a","session_id":"619be31d79a8fd8fd2cb96a2","condition":"contingent","relevant_dimensions":["antennae","pattern"],"bee_group":{"antennae":"B","wings":"X","pattern":"D","legs":"X"},"action":"harvest","summary":"good-harvest","bonus":0.8800000000000004},{"rt":2098.4000000059605,"stimulus":"\n                    <p><b>Action: <em>harvest</em></b></p>\n                    <p>This is the bee that you just saw.</p>\n                    <img src=\"bees-with-color/bee-A1DM.svg\" width=\"200\">\n                    <p><span class=\"greenText\"><b>Successful harvest!</b></span><br>Your pay has increased by $0.02. Your bonus pay is now $0.48.</p>\n            ","response":0,"trial_type":"html-button-response","trial_index":12,"time_elapsed":220929,"internal_node_id":"0.0-4.0-1.2","subject_id":"5fe602f729db954217db9aef","study_id":"6197b3f67c2b5cd3b6d9596a","session_id":"619be31d79a8fd8fd2cb96a2","condition":"contingent","relevant_dimensions":["antennae","pattern"],"bee_group":{"antennae":"B","wings":"X","pattern":"D","legs":"X"},"bonus":0.8800000000000004},{"rt":10394.90000000596,"stimulus":"bees-with-color/bee-A2SM.svg","response":0,"trial_type":"image-button-response","trial_index":13,"time_elapsed":231325,"internal_node_id":"0.0-4.0-0.3","subject_id":"5fe602f729db954217db9aef","study_id":"6197b3f67c2b5cd3b6d9596a","session_id":"619be31d79a8fd8fd2cb96a2","condition":"contingent","relevant_dimensions":["antennae","pattern"],"bee_group":{"antennae":"B","wings":"X","pattern":"D","legs":"X"},"action":"harvest","summary":"good-harvest","bonus":0.8800000000000004},{"rt":4501.299999982119,"stimulus":"\n                    <p><b>Action: <em>harvest</em></b></p>\n                    <p>This is the bee that you just saw.</p>\n                    <img src=\"bees-with-color/bee-A2SM.svg\" width=\"200\">\n                    <p><span class=\"greenText\"><b>Successful harvest!</b></span><br>Your pay has increased by $0.02. Your bonus pay is now $0.50.</p>\n            ","response":0,"trial_type":"html-button-response","trial_index":14,"time_elapsed":235827,"internal_node_id":"0.0-4.0-1.3","subject_id":"5fe602f729db954217db9aef","study_id":"6197b3f67c2b5cd3b6d9596a","session_id":"619be31d79a8fd8fd2cb96a2","condition":"contingent","relevant_dimensions":["antennae","pattern"],"bee_group":{"antennae":"B","wings":"X","pattern":"D","legs":"X"},"bonus":0.8800000000000004},{"rt":6906.4000000059605,"stimulus":"bees-with-color/bee-B2DF.svg","response":0,"trial_type":"image-button-response","trial_index":15,"time_elapsed":242734,"internal_node_id":"0.0-4.0-0.4","subject_id":"5fe602f729db954217db9aef","study_id":"6197b3f67c2b5cd3b6d9596a","session_id":"619be31d79a8fd8fd2cb96a2","condition":"contingent","relevant_dimensions":["antennae","pattern"],"bee_group":{"antennae":"B","wings":"X","pattern":"D","legs":"X"},"action":"harvest","summary":"bad-harvest","bonus":0.8800000000000004},{"rt":2858.5,"stimulus":"\n                    <p><b>Action: <em>harvest</em></b></p>\n                    <p>This is the bee that you just saw.</p>\n                    <img src=\"bees-with-color/bee-B2DF.svg\" width=\"200\">\n                    <p><span class=\"redText\">Bad choice, the bee was angry.</span><br><b>You have been stung!</b><br>Your pay has been decreased by $0.10. Your bonus pay is now $0.40.</p>\n            ","response":0,"trial_type":"html-button-response","trial_index":16,"time_elapsed":245594,"internal_node_id":"0.0-4.0-1.4","subject_id":"5fe602f729db954217db9aef","study_id":"6197b3f67c2b5cd3b6d9596a","session_id":"619be31d79a8fd8fd2cb96a2","condition":"contingent","relevant_dimensions":["antennae","pattern"],"bee_group":{"antennae":"B","wings":"X","pattern":"D","legs":"X"},"bonus":0.8800000000000004},{"rt":10466.90000000596,"stimulus":"bees-with-color/bee-B2SM.svg","response":0,"trial_type":"image-button-response","trial_index":17,"time_elapsed":256062,"internal_node_id":"0.0-4.0-0.5","subject_id":"5fe602f729db954217db9aef","study_id":"6197b3f67c2b5cd3b6d9596a","session_id":"619be31d79a8fd8fd2cb96a2","condition":"contingent","relevant_dimensions":["antennae","pattern"],"bee_group":{"antennae":"B","wings":"X","pattern":"D","legs":"X"},"action":"harvest","summary":"good-harvest","bonus":0.8800000000000004},{"rt":719.7999999821186,"stimulus":"\n                    <p><b>Action: <em>harvest</em></b></p>\n                    <p>This is the bee that you just saw.</p>\n                    <img src=\"bees-with-color/bee-B2SM.svg\" width=\"200\">\n                    <p><span class=\"greenText\"><b>Successful harvest!</b></span><br>Your pay has increased by $0.02. Your bonus pay is now $0.42.</p>\n            ","response":0,"trial_type":"html-button-response","trial_index":18,"time_elapsed":256783,"internal_node_id":"0.0-4.0-1.5","subject_id":"5fe602f729db954217db9aef","study_id":"6197b3f67c2b5cd3b6d9596a","session_id":"619be31d79a8fd8fd2cb96a2","condition":"contingent","relevant_dimensions":["antennae","pattern"],"bee_group":{"antennae":"B","wings":"X","pattern":"D","legs":"X"},"bonus":0.8800000000000004},{"rt":7196.800000011921,"stimulus":"bees-with-color/bee-A1SM.svg","response":0,"trial_type":"image-button-response","trial_index":19,"time_elapsed":263982,"internal_node_id":"0.0-4.0-0.6","subject_id":"5fe602f729db954217db9aef","study_id":"6197b3f67c2b5cd3b6d9596a","session_id":"619be31d79a8fd8fd2cb96a2","condition":"contingent","relevant_dimensions":["antennae","pattern"],"bee_group":{"antennae":"B","wings":"X","pattern":"D","legs":"X"},"action":"harvest","summary":"good-harvest","bonus":0.8800000000000004},{"rt":1497.0999999940395,"stimulus":"\n                    <p><b>Action: <em>harvest</em></b></p>\n                    <p>This is the bee that you just saw.</p>\n                    <img src=\"bees-with-color/bee-A1SM.svg\" width=\"200\">\n                    <p><span class=\"greenText\"><b>Successful harvest!</b></span><br>Your pay has increased by $0.02. Your bonus pay is now $0.44.</p>\n            ","response":0,"trial_type":"html-button-response","trial_index":20,"time_elapsed":265480,"internal_node_id":"0.0-4.0-1.6","subject_id":"5fe602f729db954217db9aef","study_id":"6197b3f67c2b5cd3b6d9596a","session_id":"619be31d79a8fd8fd2cb96a2","condition":"contingent","relevant_dimensions":["antennae","pattern"],"bee_group":{"antennae":"B","wings":"X","pattern":"D","legs":"X"},"bonus":0.8800000000000004},{"rt":14709.90000000596,"stimulus":"bees-with-color/bee-A2SF.svg","response":0,"trial_type":"image-button-response","trial_index":21,"time_elapsed":280191,"internal_node_id":"0.0-4.0-0.7","subject_id":"5fe602f729db954217db9aef","study_id":"6197b3f67c2b5cd3b6d9596a","session_id":"619be31d79a8fd8fd2cb96a2","condition":"contingent","relevant_dimensions":["antennae","pattern"],"bee_group":{"antennae":"B","wings":"X","pattern":"D","legs":"X"},"action":"harvest","summary":"good-harvest","bonus":0.8800000000000004},{"rt":595.3000000119209,"stimulus":"\n                    <p><b>Action: <em>harvest</em></b></p>\n                    <p>This is the bee that you just saw.</p>\n                    <img src=\"bees-with-color/bee-A2SF.svg\" width=\"200\">\n                    <p><span class=\"greenText\"><b>Successful harvest!</b></span><br>Your pay has increased by $0.02. Your bonus pay is now $0.46.</p>\n            ","response":0,"trial_type":"html-button-response","trial_index":22,"time_elapsed":280787,"internal_node_id":"0.0-4.0-1.7","subject_id":"5fe602f729db954217db9aef","study_id":"6197b3f67c2b5cd3b6d9596a","session_id":"619be31d79a8fd8fd2cb96a2","condition":"contingent","relevant_dimensions":["antennae","pattern"],"bee_group":{"antennae":"B","wings":"X","pattern":"D","legs":"X"},"bonus":0.8800000000000004},{"rt":10649.5,"stimulus":"bees-with-color/bee-A2DM.svg","response":1,"trial_type":"image-button-response","trial_index":23,"time_elapsed":291438,"internal_node_id":"0.0-4.0-0.8","subject_id":"5fe602f729db954217db9aef","study_id":"6197b3f67c2b5cd3b6d9596a","session_id":"619be31d79a8fd8fd2cb96a2","condition":"contingent","relevant_dimensions":["antennae","pattern"],"bee_group":{"antennae":"B","wings":"X","pattern":"D","legs":"X"},"action":"avoid","summary":"bad-avoid","bonus":0.8800000000000004},{"rt":1558,"stimulus":"\n                    <p><b>Action: <em>avoid</em></b></p>\n                    <p>This is the bee that you just saw.</p>\n                    <img src=\"bees-with-color/bee-A2DM.svg\" width=\"200\">\n                    <p><br>Your bonus pay is unchanged, and remains at $0.46.</p>\n            ","response":0,"trial_type":"html-button-response","trial_index":24,"time_elapsed":292997,"internal_node_id":"0.0-4.0-1.8","subject_id":"5fe602f729db954217db9aef","study_id":"6197b3f67c2b5cd3b6d9596a","session_id":"619be31d79a8fd8fd2cb96a2","condition":"contingent","relevant_dimensions":["antennae","pattern"],"bee_group":{"antennae":"B","wings":"X","pattern":"D","legs":"X"},"bonus":0.8800000000000004},{"rt":8748.90000000596,"stimulus":"bees-with-color/bee-A1DF.svg","response":0,"trial_type":"image-button-response","trial_index":25,"time_elapsed":301747,"internal_node_id":"0.0-4.0-0.9","subject_id":"5fe602f729db954217db9aef","study_id":"6197b3f67c2b5cd3b6d9596a","session_id":"619be31d79a8fd8fd2cb96a2","condition":"contingent","relevant_dimensions":["antennae","pattern"],"bee_group":{"antennae":"B","wings":"X","pattern":"D","legs":"X"},"action":"harvest","summary":"good-harvest","bonus":0.8800000000000004},{"rt":5450.0999999940395,"stimulus":"\n                    <p><b>Action: <em>harvest</em></b></p>\n                    <p>This is the bee that you just saw.</p>\n                    <img src=\"bees-with-color/bee-A1DF.svg\" width=\"200\">\n                    <p><span class=\"greenText\"><b>Successful harvest!</b></span><br>Your pay has increased by $0.02. Your bonus pay is now $0.48.</p>\n            ","response":0,"trial_type":"html-button-response","trial_index":26,"time_elapsed":307198,"internal_node_id":"0.0-4.0-1.9","subject_id":"5fe602f729db954217db9aef","study_id":"6197b3f67c2b5cd3b6d9596a","session_id":"619be31d79a8fd8fd2cb96a2","condition":"contingent","relevant_dimensions":["antennae","pattern"],"bee_group":{"antennae":"B","wings":"X","pattern":"D","legs":"X"},"bonus":0.8800000000000004},{"rt":13322.09999999404,"stimulus":"bees-with-color/bee-B1DM.svg","response":0,"trial_type":"image-button-response","trial_index":27,"time_elapsed":320521,"internal_node_id":"0.0-4.0-0.10","subject_id":"5fe602f729db954217db9aef","study_id":"6197b3f67c2b5cd3b6d9596a","session_id":"619be31d79a8fd8fd2cb96a2","condition":"contingent","relevant_dimensions":["antennae","pattern"],"bee_group":{"antennae":"B","wings":"X","pattern":"D","legs":"X"},"action":"harvest","summary":"bad-harvest","bonus":0.8800000000000004},{"rt":8036.799999982119,"stimulus":"\n                    <p><b>Action: <em>harvest</em></b></p>\n                    <p>This is the bee that you just saw.</p>\n                    <img src=\"bees-with-color/bee-B1DM.svg\" width=\"200\">\n                    <p><span class=\"redText\">Bad choice, the bee was angry.</span><br><b>You have been stung!</b><br>Your pay has been decreased by $0.10. Your bonus pay is now $0.38.</p>\n            ","response":0,"trial_type":"html-button-response","trial_index":28,"time_elapsed":328559,"internal_node_id":"0.0-4.0-1.10","subject_id":"5fe602f729db954217db9aef","study_id":"6197b3f67c2b5cd3b6d9596a","session_id":"619be31d79a8fd8fd2cb96a2","condition":"contingent","relevant_dimensions":["antennae","pattern"],"bee_group":{"antennae":"B","wings":"X","pattern":"D","legs":"X"},"bonus":0.8800000000000004},{"rt":13887,"stimulus":"bees-with-color/bee-B2SF.svg","response":0,"trial_type":"image-button-response","trial_index":29,"time_elapsed":342447,"internal_node_id":"0.0-4.0-0.11","subject_id":"5fe602f729db954217db9aef","study_id":"6197b3f67c2b5cd3b6d9596a","session_id":"619be31d79a8fd8fd2cb96a2","condition":"contingent","relevant_dimensions":["antennae","pattern"],"bee_group":{"antennae":"B","wings":"X","pattern":"D","legs":"X"},"action":"harvest","summary":"good-harvest","bonus":0.8800000000000004},{"rt":649.7999999821186,"stimulus":"\n                    <p><b>Action: <em>harvest</em></b></p>\n                    <p>This is the bee that you just saw.</p>\n                    <img src=\"bees-with-color/bee-B2SF.svg\" width=\"200\">\n                    <p><span class=\"greenText\"><b>Successful harvest!</b></span><br>Your pay has increased by $0.02. Your bonus pay is now $0.40.</p>\n            ","response":0,"trial_type":"html-button-response","trial_index":30,"time_elapsed":343098,"internal_node_id":"0.0-4.0-1.11","subject_id":"5fe602f729db954217db9aef","study_id":"6197b3f67c2b5cd3b6d9596a","session_id":"619be31d79a8fd8fd2cb96a2","condition":"contingent","relevant_dimensions":["antennae","pattern"],"bee_group":{"antennae":"B","wings":"X","pattern":"D","legs":"X"},"bonus":0.8800000000000004},{"rt":7563.0999999940395,"stimulus":"bees-with-color/bee-A2DF.svg","response":1,"trial_type":"image-button-response","trial_index":31,"time_elapsed":350662,"internal_node_id":"0.0-4.0-0.12","subject_id":"5fe602f729db954217db9aef","study_id":"6197b3f67c2b5cd3b6d9596a","session_id":"619be31d79a8fd8fd2cb96a2","condition":"contingent","relevant_dimensions":["antennae","pattern"],"bee_group":{"antennae":"B","wings":"X","pattern":"D","legs":"X"},"action":"avoid","summary":"bad-avoid","bonus":0.8800000000000004},{"rt":792.3000000119209,"stimulus":"\n                    <p><b>Action: <em>avoid</em></b></p>\n                    <p>This is the bee that you just saw.</p>\n                    <img src=\"bees-with-color/bee-A2DF.svg\" width=\"200\">\n                    <p><br>Your bonus pay is unchanged, and remains at $0.40.</p>\n            ","response":0,"trial_type":"html-button-response","trial_index":32,"time_elapsed":351455,"internal_node_id":"0.0-4.0-1.12","subject_id":"5fe602f729db954217db9aef","study_id":"6197b3f67c2b5cd3b6d9596a","session_id":"619be31d79a8fd8fd2cb96a2","condition":"contingent","relevant_dimensions":["antennae","pattern"],"bee_group":{"antennae":"B","wings":"X","pattern":"D","legs":"X"},"bonus":0.8800000000000004},{"rt":12000,"stimulus":"bees-with-color/bee-B1SM.svg","response":0,"trial_type":"image-button-response","trial_index":33,"time_elapsed":363456,"internal_node_id":"0.0-4.0-0.13","subject_id":"5fe602f729db954217db9aef","study_id":"6197b3f67c2b5cd3b6d9596a","session_id":"619be31d79a8fd8fd2cb96a2","condition":"contingent","relevant_dimensions":["antennae","pattern"],"bee_group":{"antennae":"B","wings":"X","pattern":"D","legs":"X"},"action":"harvest","summary":"good-harvest","bonus":0.8800000000000004},{"rt":609.8000000119209,"stimulus":"\n                    <p><b>Action: <em>harvest</em></b></p>\n                    <p>This is the bee that you just saw.</p>\n                    <img src=\"bees-with-color/bee-B1SM.svg\" width=\"200\">\n                    <p><span class=\"greenText\"><b>Successful harvest!</b></span><br>Your pay has increased by $0.02. Your bonus pay is now $0.42.</p>\n            ","response":0,"trial_type":"html-button-response","trial_index":34,"time_elapsed":364067,"internal_node_id":"0.0-4.0-1.13","subject_id":"5fe602f729db954217db9aef","study_id":"6197b3f67c2b5cd3b6d9596a","session_id":"619be31d79a8fd8fd2cb96a2","condition":"contingent","relevant_dimensions":["antennae","pattern"],"bee_group":{"antennae":"B","wings":"X","pattern":"D","legs":"X"},"bonus":0.8800000000000004},{"rt":4380.9000000059605,"stimulus":"bees-with-color/bee-A1SF.svg","response":0,"trial_type":"image-button-response","trial_index":35,"time_elapsed":368449,"internal_node_id":"0.0-4.0-0.14","subject_id":"5fe602f729db954217db9aef","study_id":"6197b3f67c2b5cd3b6d9596a","session_id":"619be31d79a8fd8fd2cb96a2","condition":"contingent","relevant_dimensions":["antennae","pattern"],"bee_group":{"antennae":"B","wings":"X","pattern":"D","legs":"X"},"action":"harvest","summary":"good-harvest","bonus":0.8800000000000004},{"rt":477,"stimulus":"\n                    <p><b>Action: <em>harvest</em></b></p>\n                    <p>This is the bee that you just saw.</p>\n                    <img src=\"bees-with-color/bee-A1SF.svg\" width=\"200\">\n                    <p><span class=\"greenText\"><b>Successful harvest!</b></span><br>Your pay has increased by $0.02. Your bonus pay is now $0.44.</p>\n            ","response":0,"trial_type":"html-button-response","trial_index":36,"time_elapsed":368927,"internal_node_id":"0.0-4.0-1.14","subject_id":"5fe602f729db954217db9aef","study_id":"6197b3f67c2b5cd3b6d9596a","session_id":"619be31d79a8fd8fd2cb96a2","condition":"contingent","relevant_dimensions":["antennae","pattern"],"bee_group":{"antennae":"B","wings":"X","pattern":"D","legs":"X"},"bonus":0.8800000000000004},{"rt":8450.90000000596,"stimulus":"bees-with-color/bee-B1DF.svg","response":0,"trial_type":"image-button-response","trial_index":37,"time_elapsed":377379,"internal_node_id":"0.0-4.0-0.15","subject_id":"5fe602f729db954217db9aef","study_id":"6197b3f67c2b5cd3b6d9596a","session_id":"619be31d79a8fd8fd2cb96a2","condition":"contingent","relevant_dimensions":["antennae","pattern"],"bee_group":{"antennae":"B","wings":"X","pattern":"D","legs":"X"},"action":"harvest","summary":"bad-harvest","bonus":0.8800000000000004},{"rt":1433.8999999761581,"stimulus":"\n                    <p><b>Action: <em>harvest</em></b></p>\n                    <p>This is the bee that you just saw.</p>\n                    <img src=\"bees-with-color/bee-B1DF.svg\" width=\"200\">\n                    <p><span class=\"redText\">Bad choice, the bee was angry.</span><br><b>You have been stung!</b><br>Your pay has been decreased by $0.10. Your bonus pay is now $0.34.</p>\n            ","response":0,"trial_type":"html-button-response","trial_index":38,"time_elapsed":378814,"internal_node_id":"0.0-4.0-1.15","subject_id":"5fe602f729db954217db9aef","study_id":"6197b3f67c2b5cd3b6d9596a","session_id":"619be31d79a8fd8fd2cb96a2","condition":"contingent","relevant_dimensions":["antennae","pattern"],"bee_group":{"antennae":"B","wings":"X","pattern":"D","legs":"X"},"bonus":0.8800000000000004},{"rt":7976.200000017881,"stimulus":"bees-with-color/bee-B1SF.svg","response":0,"trial_type":"image-button-response","trial_index":39,"time_elapsed":386791,"internal_node_id":"0.0-4.0-0.16","subject_id":"5fe602f729db954217db9aef","study_id":"6197b3f67c2b5cd3b6d9596a","session_id":"619be31d79a8fd8fd2cb96a2","condition":"contingent","relevant_dimensions":["antennae","pattern"],"bee_group":{"antennae":"B","wings":"X","pattern":"D","legs":"X"},"action":"harvest","summary":"good-harvest","bonus":0.8800000000000004},{"rt":647.0999999940395,"stimulus":"\n                    <p><b>Action: <em>harvest</em></b></p>\n                    <p>This is the bee that you just saw.</p>\n                    <img src=\"bees-with-color/bee-B1SF.svg\" width=\"200\">\n                    <p><span class=\"greenText\"><b>Successful harvest!</b></span><br>Your pay has increased by $0.02. Your bonus pay is now $0.36.</p>\n            ","response":0,"trial_type":"html-button-response","trial_index":40,"time_elapsed":387439,"internal_node_id":"0.0-4.0-1.16","subject_id":"5fe602f729db954217db9aef","study_id":"6197b3f67c2b5cd3b6d9596a","session_id":"619be31d79a8fd8fd2cb96a2","condition":"contingent","relevant_dimensions":["antennae","pattern"],"bee_group":{"antennae":"B","wings":"X","pattern":"D","legs":"X"},"bonus":0.8800000000000004},{"rt":5612.299999982119,"stimulus":"bees-with-color/bee-A2SM.svg","response":0,"trial_type":"image-button-response","trial_index":41,"time_elapsed":393052,"internal_node_id":"0.0-4.0-0.17","subject_id":"5fe602f729db954217db9aef","study_id":"6197b3f67c2b5cd3b6d9596a","session_id":"619be31d79a8fd8fd2cb96a2","condition":"contingent","relevant_dimensions":["antennae","pattern"],"bee_group":{"antennae":"B","wings":"X","pattern":"D","legs":"X"},"action":"harvest","summary":"good-harvest","bonus":0.8800000000000004},{"rt":620.8000000119209,"stimulus":"\n                    <p><b>Action: <em>harvest</em></b></p>\n                    <p>This is the bee that you just saw.</p>\n                    <img src=\"bees-with-color/bee-A2SM.svg\" width=\"200\">\n                    <p><span class=\"greenText\"><b>Successful harvest!</b></span><br>Your pay has increased by $0.02. Your bonus pay is now $0.38.</p>\n            ","response":0,"trial_type":"html-button-response","trial_index":42,"time_elapsed":393674,"internal_node_id":"0.0-4.0-1.17","subject_id":"5fe602f729db954217db9aef","study_id":"6197b3f67c2b5cd3b6d9596a","session_id":"619be31d79a8fd8fd2cb96a2","condition":"contingent","relevant_dimensions":["antennae","pattern"],"bee_group":{"antennae":"B","wings":"X","pattern":"D","legs":"X"},"bonus":0.8800000000000004},{"rt":4887,"stimulus":"bees-with-color/bee-A2DM.svg","response":1,"trial_type":"image-button-response","trial_index":43,"time_elapsed":398562,"internal_node_id":"0.0-4.0-0.18","subject_id":"5fe602f729db954217db9aef","study_id":"6197b3f67c2b5cd3b6d9596a","session_id":"619be31d79a8fd8fd2cb96a2","condition":"contingent","relevant_dimensions":["antennae","pattern"],"bee_group":{"antennae":"B","wings":"X","pattern":"D","legs":"X"},"action":"avoid","summary":"bad-avoid","bonus":0.8800000000000004},{"rt":949.2000000178814,"stimulus":"\n                    <p><b>Action: <em>avoid</em></b></p>\n                    <p>This is the bee that you just saw.</p>\n                    <img src=\"bees-with-color/bee-A2DM.svg\" width=\"200\">\n                    <p><br>Your bonus pay is unchanged, and remains at $0.38.</p>\n            ","response":0,"trial_type":"html-button-response","trial_index":44,"time_elapsed":399512,"internal_node_id":"0.0-4.0-1.18","subject_id":"5fe602f729db954217db9aef","study_id":"6197b3f67c2b5cd3b6d9596a","session_id":"619be31d79a8fd8fd2cb96a2","condition":"contingent","relevant_dimensions":["antennae","pattern"],"bee_group":{"antennae":"B","wings":"X","pattern":"D","legs":"X"},"bonus":0.8800000000000004},{"rt":5720.200000017881,"stimulus":"bees-with-color/bee-A1SM.svg","response":0,"trial_type":"image-button-response","trial_index":45,"time_elapsed":405233,"internal_node_id":"0.0-4.0-0.19","subject_id":"5fe602f729db954217db9aef","study_id":"6197b3f67c2b5cd3b6d9596a","session_id":"619be31d79a8fd8fd2cb96a2","condition":"contingent","relevant_dimensions":["antennae","pattern"],"bee_group":{"antennae":"B","wings":"X","pattern":"D","legs":"X"},"action":"harvest","summary":"good-harvest","bonus":0.8800000000000004},{"rt":433.19999998807907,"stimulus":"\n                    <p><b>Action: <em>harvest</em></b></p>\n                    <p>This is the bee that you just saw.</p>\n                    <img src=\"bees-with-color/bee-A1SM.svg\" width=\"200\">\n                    <p><span class=\"greenText\"><b>Successful harvest!</b></span><br>Your pay has increased by $0.02. Your bonus pay is now $0.40.</p>\n            ","response":0,"trial_type":"html-button-response","trial_index":46,"time_elapsed":405667,"internal_node_id":"0.0-4.0-1.19","subject_id":"5fe602f729db954217db9aef","study_id":"6197b3f67c2b5cd3b6d9596a","session_id":"619be31d79a8fd8fd2cb96a2","condition":"contingent","relevant_dimensions":["antennae","pattern"],"bee_group":{"antennae":"B","wings":"X","pattern":"D","legs":"X"},"bonus":0.8800000000000004},{"rt":5968.700000017881,"stimulus":"bees-with-color/bee-A1DM.svg","response":0,"trial_type":"image-button-response","trial_index":47,"time_elapsed":411637,"internal_node_id":"0.0-4.0-0.20","subject_id":"5fe602f729db954217db9aef","study_id":"6197b3f67c2b5cd3b6d9596a","session_id":"619be31d79a8fd8fd2cb96a2","condition":"contingent","relevant_dimensions":["antennae","pattern"],"bee_group":{"antennae":"B","wings":"X","pattern":"D","legs":"X"},"action":"harvest","summary":"good-harvest","bonus":0.8800000000000004},{"rt":539.3999999761581,"stimulus":"\n                    <p><b>Action: <em>harvest</em></b></p>\n                    <p>This is the bee that you just saw.</p>\n                    <img src=\"bees-with-color/bee-A1DM.svg\" width=\"200\">\n                    <p><span class=\"greenText\"><b>Successful harvest!</b></span><br>Your pay has increased by $0.02. Your bonus pay is now $0.42.</p>\n            ","response":0,"trial_type":"html-button-response","trial_index":48,"time_elapsed":412177,"internal_node_id":"0.0-4.0-1.20","subject_id":"5fe602f729db954217db9aef","study_id":"6197b3f67c2b5cd3b6d9596a","session_id":"619be31d79a8fd8fd2cb96a2","condition":"contingent","relevant_dimensions":["antennae","pattern"],"bee_group":{"antennae":"B","wings":"X","pattern":"D","legs":"X"},"bonus":0.8800000000000004},{"rt":12657.600000023842,"stimulus":"bees-with-color/bee-A2DF.svg","response":1,"trial_type":"image-button-response","trial_index":49,"time_elapsed":424836,"internal_node_id":"0.0-4.0-0.21","subject_id":"5fe602f729db954217db9aef","study_id":"6197b3f67c2b5cd3b6d9596a","session_id":"619be31d79a8fd8fd2cb96a2","condition":"contingent","relevant_dimensions":["antennae","pattern"],"bee_group":{"antennae":"B","wings":"X","pattern":"D","legs":"X"},"action":"avoid","summary":"bad-avoid","bonus":0.8800000000000004},{"rt":499.40000000596046,"stimulus":"\n                    <p><b>Action: <em>avoid</em></b></p>\n                    <p>This is the bee that you just saw.</p>\n                    <img src=\"bees-with-color/bee-A2DF.svg\" width=\"200\">\n                    <p><br>Your bonus pay is unchanged, and remains at $0.42.</p>\n            ","response":0,"trial_type":"html-button-response","trial_index":50,"time_elapsed":425336,"internal_node_id":"0.0-4.0-1.21","subject_id":"5fe602f729db954217db9aef","study_id":"6197b3f67c2b5cd3b6d9596a","session_id":"619be31d79a8fd8fd2cb96a2","condition":"contingent","relevant_dimensions":["antennae","pattern"],"bee_group":{"antennae":"B","wings":"X","pattern":"D","legs":"X"},"bonus":0.8800000000000004},{"rt":10286.700000017881,"stimulus":"bees-with-color/bee-B2DF.svg","response":0,"trial_type":"image-button-response","trial_index":51,"time_elapsed":435624,"internal_node_id":"0.0-4.0-0.22","subject_id":"5fe602f729db954217db9aef","study_id":"6197b3f67c2b5cd3b6d9596a","session_id":"619be31d79a8fd8fd2cb96a2","condition":"contingent","relevant_dimensions":["antennae","pattern"],"bee_group":{"antennae":"B","wings":"X","pattern":"D","legs":"X"},"action":"harvest","summary":"bad-harvest","bonus":0.8800000000000004},{"rt":937.1999999880791,"stimulus":"\n                    <p><b>Action: <em>harvest</em></b></p>\n                    <p>This is the bee that you just saw.</p>\n                    <img src=\"bees-with-color/bee-B2DF.svg\" width=\"200\">\n                    <p><span class=\"redText\">Bad choice, the bee was angry.</span><br><b>You have been stung!</b><br>Your pay has been decreased by $0.10. Your bonus pay is now $0.32.</p>\n            ","response":0,"trial_type":"html-button-response","trial_index":52,"time_elapsed":436562,"internal_node_id":"0.0-4.0-1.22","subject_id":"5fe602f729db954217db9aef","study_id":"6197b3f67c2b5cd3b6d9596a","session_id":"619be31d79a8fd8fd2cb96a2","condition":"contingent","relevant_dimensions":["antennae","pattern"],"bee_group":{"antennae":"B","wings":"X","pattern":"D","legs":"X"},"bonus":0.8800000000000004},{"rt":7607,"stimulus":"bees-with-color/bee-B1DF.svg","response":0,"trial_type":"image-button-response","trial_index":53,"time_elapsed":444170,"internal_node_id":"0.0-4.0-0.23","subject_id":"5fe602f729db954217db9aef","study_id":"6197b3f67c2b5cd3b6d9596a","session_id":"619be31d79a8fd8fd2cb96a2","condition":"contingent","relevant_dimensions":["antennae","pattern"],"bee_group":{"antennae":"B","wings":"X","pattern":"D","legs":"X"},"action":"harvest","summary":"bad-harvest","bonus":0.8800000000000004},{"rt":813.3000000119209,"stimulus":"\n                    <p><b>Action: <em>harvest</em></b></p>\n                    <p>This is the bee that you just saw.</p>\n                    <img src=\"bees-with-color/bee-B1DF.svg\" width=\"200\">\n                    <p><span class=\"redText\">Bad choice, the bee was angry.</span><br><b>You have been stung!</b><br>Your pay has been decreased by $0.10. Your bonus pay is now $0.22.</p>\n            ","response":0,"trial_type":"html-button-response","trial_index":54,"time_elapsed":444984,"internal_node_id":"0.0-4.0-1.23","subject_id":"5fe602f729db954217db9aef","study_id":"6197b3f67c2b5cd3b6d9596a","session_id":"619be31d79a8fd8fd2cb96a2","condition":"contingent","relevant_dimensions":["antennae","pattern"],"bee_group":{"antennae":"B","wings":"X","pattern":"D","legs":"X"},"bonus":0.8800000000000004},{"rt":12133.90000000596,"stimulus":"bees-with-color/bee-B2SF.svg","response":0,"trial_type":"image-button-response","trial_index":55,"time_elapsed":457119,"internal_node_id":"0.0-4.0-0.24","subject_id":"5fe602f729db954217db9aef","study_id":"6197b3f67c2b5cd3b6d9596a","session_id":"619be31d79a8fd8fd2cb96a2","condition":"contingent","relevant_dimensions":["antennae","pattern"],"bee_group":{"antennae":"B","wings":"X","pattern":"D","legs":"X"},"action":"harvest","summary":"good-harvest","bonus":0.8800000000000004},{"rt":568.0999999940395,"stimulus":"\n                    <p><b>Action: <em>harvest</em></b></p>\n                    <p>This is the bee that you just saw.</p>\n                    <img src=\"bees-with-color/bee-B2SF.svg\" width=\"200\">\n                    <p><span class=\"greenText\"><b>Successful harvest!</b></span><br>Your pay has increased by $0.02. Your bonus pay is now $0.24.</p>\n            ","response":0,"trial_type":"html-button-response","trial_index":56,"time_elapsed":457688,"internal_node_id":"0.0-4.0-1.24","subject_id":"5fe602f729db954217db9aef","study_id":"6197b3f67c2b5cd3b6d9596a","session_id":"619be31d79a8fd8fd2cb96a2","condition":"contingent","relevant_dimensions":["antennae","pattern"],"bee_group":{"antennae":"B","wings":"X","pattern":"D","legs":"X"},"bonus":0.8800000000000004},{"rt":3802.9000000059605,"stimulus":"bees-with-color/bee-B2SM.svg","response":0,"trial_type":"image-button-response","trial_index":57,"time_elapsed":461492,"internal_node_id":"0.0-4.0-0.25","subject_id":"5fe602f729db954217db9aef","study_id":"6197b3f67c2b5cd3b6d9596a","session_id":"619be31d79a8fd8fd2cb96a2","condition":"contingent","relevant_dimensions":["antennae","pattern"],"bee_group":{"antennae":"B","wings":"X","pattern":"D","legs":"X"},"action":"harvest","summary":"good-harvest","bonus":0.8800000000000004},{"rt":539.1999999880791,"stimulus":"\n                    <p><b>Action: <em>harvest</em></b></p>\n                    <p>This is the bee that you just saw.</p>\n                    <img src=\"bees-with-color/bee-B2SM.svg\" width=\"200\">\n                    <p><span class=\"greenText\"><b>Successful harvest!</b></span><br>Your pay has increased by $0.02. Your bonus pay is now $0.26.</p>\n            ","response":0,"trial_type":"html-button-response","trial_index":58,"time_elapsed":462032,"internal_node_id":"0.0-4.0-1.25","subject_id":"5fe602f729db954217db9aef","study_id":"6197b3f67c2b5cd3b6d9596a","session_id":"619be31d79a8fd8fd2cb96a2","condition":"contingent","relevant_dimensions":["antennae","pattern"],"bee_group":{"antennae":"B","wings":"X","pattern":"D","legs":"X"},"bonus":0.8800000000000004},{"rt":9299,"stimulus":"bees-with-color/bee-A1DF.svg","response":0,"trial_type":"image-button-response","trial_index":59,"time_elapsed":471332,"internal_node_id":"0.0-4.0-0.26","subject_id":"5fe602f729db954217db9aef","study_id":"6197b3f67c2b5cd3b6d9596a","session_id":"619be31d79a8fd8fd2cb96a2","condition":"contingent","relevant_dimensions":["antennae","pattern"],"bee_group":{"antennae":"B","wings":"X","pattern":"D","legs":"X"},"action":"harvest","summary":"good-harvest","bonus":0.8800000000000004},{"rt":676.4000000059605,"stimulus":"\n                    <p><b>Action: <em>harvest</em></b></p>\n                    <p>This is the bee that you just saw.</p>\n                    <img src=\"bees-with-color/bee-A1DF.svg\" width=\"200\">\n                    <p><span class=\"greenText\"><b>Successful harvest!</b></span><br>Your pay has increased by $0.02. Your bonus pay is now $0.28.</p>\n            ","response":0,"trial_type":"html-button-response","trial_index":60,"time_elapsed":472009,"internal_node_id":"0.0-4.0-1.26","subject_id":"5fe602f729db954217db9aef","study_id":"6197b3f67c2b5cd3b6d9596a","session_id":"619be31d79a8fd8fd2cb96a2","condition":"contingent","relevant_dimensions":["antennae","pattern"],"bee_group":{"antennae":"B","wings":"X","pattern":"D","legs":"X"},"bonus":0.8800000000000004},{"rt":16405.90000000596,"stimulus":"bees-with-color/bee-B2DM.svg","response":0,"trial_type":"image-button-response","trial_index":61,"time_elapsed":488416,"internal_node_id":"0.0-4.0-0.27","subject_id":"5fe602f729db954217db9aef","study_id":"6197b3f67c2b5cd3b6d9596a","session_id":"619be31d79a8fd8fd2cb96a2","condition":"contingent","relevant_dimensions":["antennae","pattern"],"bee_group":{"antennae":"B","wings":"X","pattern":"D","legs":"X"},"action":"harvest","summary":"bad-harvest","bonus":0.8800000000000004},{"rt":5589.9000000059605,"stimulus":"\n                    <p><b>Action: <em>harvest</em></b></p>\n                    <p>This is the bee that you just saw.</p>\n                    <img src=\"bees-with-color/bee-B2DM.svg\" width=\"200\">\n                    <p><span class=\"redText\">Bad choice, the bee was angry.</span><br><b>You have been stung!</b><br>Your pay has been decreased by $0.10. Your bonus pay is now $0.18.</p>\n            ","response":0,"trial_type":"html-button-response","trial_index":62,"time_elapsed":494007,"internal_node_id":"0.0-4.0-1.27","subject_id":"5fe602f729db954217db9aef","study_id":"6197b3f67c2b5cd3b6d9596a","session_id":"619be31d79a8fd8fd2cb96a2","condition":"contingent","relevant_dimensions":["antennae","pattern"],"bee_group":{"antennae":"B","wings":"X","pattern":"D","legs":"X"},"bonus":0.8800000000000004},{"rt":8721.299999982119,"stimulus":"bees-with-color/bee-B1SM.svg","response":0,"trial_type":"image-button-response","trial_index":63,"time_elapsed":502729,"internal_node_id":"0.0-4.0-0.28","subject_id":"5fe602f729db954217db9aef","study_id":"6197b3f67c2b5cd3b6d9596a","session_id":"619be31d79a8fd8fd2cb96a2","condition":"contingent","relevant_dimensions":["antennae","pattern"],"bee_group":{"antennae":"B","wings":"X","pattern":"D","legs":"X"},"action":"harvest","summary":"good-harvest","bonus":0.8800000000000004},{"rt":4334.600000023842,"stimulus":"\n                    <p><b>Action: <em>harvest</em></b></p>\n                    <p>This is the bee that you just saw.</p>\n                    <img src=\"bees-with-color/bee-B1SM.svg\" width=\"200\">\n                    <p><span class=\"greenText\"><b>Successful harvest!</b></span><br>Your pay has increased by $0.02. Your bonus pay is now $0.20.</p>\n            ","response":0,"trial_type":"html-button-response","trial_index":64,"time_elapsed":507065,"internal_node_id":"0.0-4.0-1.28","subject_id":"5fe602f729db954217db9aef","study_id":"6197b3f67c2b5cd3b6d9596a","session_id":"619be31d79a8fd8fd2cb96a2","condition":"contingent","relevant_dimensions":["antennae","pattern"],"bee_group":{"antennae":"B","wings":"X","pattern":"D","legs":"X"},"bonus":0.8800000000000004},{"rt":5818,"stimulus":"bees-with-color/bee-A2SF.svg","response":0,"trial_type":"image-button-response","trial_index":65,"time_elapsed":512884,"internal_node_id":"0.0-4.0-0.29","subject_id":"5fe602f729db954217db9aef","study_id":"6197b3f67c2b5cd3b6d9596a","session_id":"619be31d79a8fd8fd2cb96a2","condition":"contingent","relevant_dimensions":["antennae","pattern"],"bee_group":{"antennae":"B","wings":"X","pattern":"D","legs":"X"},"action":"harvest","summary":"good-harvest","bonus":0.8800000000000004},{"rt":5333.4000000059605,"stimulus":"\n                    <p><b>Action: <em>harvest</em></b></p>\n                    <p>This is the bee that you just saw.</p>\n                    <img src=\"bees-with-color/bee-A2SF.svg\" width=\"200\">\n                    <p><span class=\"greenText\"><b>Successful harvest!</b></span><br>Your pay has increased by $0.02. Your bonus pay is now $0.22.</p>\n            ","response":0,"trial_type":"html-button-response","trial_index":66,"time_elapsed":518218,"internal_node_id":"0.0-4.0-1.29","subject_id":"5fe602f729db954217db9aef","study_id":"6197b3f67c2b5cd3b6d9596a","session_id":"619be31d79a8fd8fd2cb96a2","condition":"contingent","relevant_dimensions":["antennae","pattern"],"bee_group":{"antennae":"B","wings":"X","pattern":"D","legs":"X"},"bonus":0.8800000000000004},{"rt":5651.800000011921,"stimulus":"bees-with-color/bee-B1DM.svg","response":0,"trial_type":"image-button-response","trial_index":67,"time_elapsed":523871,"internal_node_id":"0.0-4.0-0.30","subject_id":"5fe602f729db954217db9aef","study_id":"6197b3f67c2b5cd3b6d9596a","session_id":"619be31d79a8fd8fd2cb96a2","condition":"contingent","relevant_dimensions":["antennae","pattern"],"bee_group":{"antennae":"B","wings":"X","pattern":"D","legs":"X"},"action":"harvest","summary":"bad-harvest","bonus":0.8800000000000004},{"rt":26826.29999998212,"stimulus":"\n                    <p><b>Action: <em>harvest</em></b></p>\n                    <p>This is the bee that you just saw.</p>\n                    <img src=\"bees-with-color/bee-B1DM.svg\" width=\"200\">\n                    <p><span class=\"redText\">Bad choice, the bee was angry.</span><br><b>You have been stung!</b><br>Your pay has been decreased by $0.10. Your bonus pay is now $0.12.</p>\n            ","response":0,"trial_type":"html-button-response","trial_index":68,"time_elapsed":550698,"internal_node_id":"0.0-4.0-1.30","subject_id":"5fe602f729db954217db9aef","study_id":"6197b3f67c2b5cd3b6d9596a","session_id":"619be31d79a8fd8fd2cb96a2","condition":"contingent","relevant_dimensions":["antennae","pattern"],"bee_group":{"antennae":"B","wings":"X","pattern":"D","legs":"X"},"bonus":0.8800000000000004},{"rt":17166.100000023842,"stimulus":"bees-with-color/bee-A1SF.svg","response":0,"trial_type":"image-button-response","trial_index":69,"time_elapsed":567865,"internal_node_id":"0.0-4.0-0.31","subject_id":"5fe602f729db954217db9aef","study_id":"6197b3f67c2b5cd3b6d9596a","session_id":"619be31d79a8fd8fd2cb96a2","condition":"contingent","relevant_dimensions":["antennae","pattern"],"bee_group":{"antennae":"B","wings":"X","pattern":"D","legs":"X"},"action":"harvest","summary":"good-harvest","bonus":0.8800000000000004},{"rt":4133.9000000059605,"stimulus":"\n                    <p><b>Action: <em>harvest</em></b></p>\n                    <p>This is the bee that you just saw.</p>\n                    <img src=\"bees-with-color/bee-A1SF.svg\" width=\"200\">\n                    <p><span class=\"greenText\"><b>Successful harvest!</b></span><br>Your pay has increased by $0.02. Your bonus pay is now $0.14.</p>\n            ","response":0,"trial_type":"html-button-response","trial_index":70,"time_elapsed":572000,"internal_node_id":"0.0-4.0-1.31","subject_id":"5fe602f729db954217db9aef","study_id":"6197b3f67c2b5cd3b6d9596a","session_id":"619be31d79a8fd8fd2cb96a2","condition":"contingent","relevant_dimensions":["antennae","pattern"],"bee_group":{"antennae":"B","wings":"X","pattern":"D","legs":"X"},"bonus":0.8800000000000004},{"rt":6604.9000000059605,"stimulus":"bees-with-color/bee-B1DF.svg","response":0,"trial_type":"image-button-response","trial_index":71,"time_elapsed":578606,"internal_node_id":"0.0-4.0-0.32","subject_id":"5fe602f729db954217db9aef","study_id":"6197b3f67c2b5cd3b6d9596a","session_id":"619be31d79a8fd8fd2cb96a2","condition":"contingent","relevant_dimensions":["antennae","pattern"],"bee_group":{"antennae":"B","wings":"X","pattern":"D","legs":"X"},"action":"harvest","summary":"bad-harvest","bonus":0.8800000000000004},{"rt":14132.5,"stimulus":"\n                    <p><b>Action: <em>harvest</em></b></p>\n                    <p>This is the bee that you just saw.</p>\n                    <img src=\"bees-with-color/bee-B1DF.svg\" width=\"200\">\n                    <p><span class=\"redText\">Bad choice, the bee was angry.</span><br><b>You have been stung!</b><br>Your pay has been decreased by $0.10. Your bonus pay is now $0.04.</p>\n            ","response":0,"trial_type":"html-button-response","trial_index":72,"time_elapsed":592739,"internal_node_id":"0.0-4.0-1.32","subject_id":"5fe602f729db954217db9aef","study_id":"6197b3f67c2b5cd3b6d9596a","session_id":"619be31d79a8fd8fd2cb96a2","condition":"contingent","relevant_dimensions":["antennae","pattern"],"bee_group":{"antennae":"B","wings":"X","pattern":"D","legs":"X"},"bonus":0.8800000000000004},{"rt":8450.699999988079,"stimulus":"bees-with-color/bee-B1SM.svg","response":0,"trial_type":"image-button-response","trial_index":73,"time_elapsed":601191,"internal_node_id":"0.0-4.0-0.33","subject_id":"5fe602f729db954217db9aef","study_id":"6197b3f67c2b5cd3b6d9596a","session_id":"619be31d79a8fd8fd2cb96a2","condition":"contingent","relevant_dimensions":["antennae","pattern"],"bee_group":{"antennae":"B","wings":"X","pattern":"D","legs":"X"},"action":"harvest","summary":"good-harvest","bonus":0.8800000000000004},{"rt":743.1999999880791,"stimulus":"\n                    <p><b>Action: <em>harvest</em></b></p>\n                    <p>This is the bee that you just saw.</p>\n                    <img src=\"bees-with-color/bee-B1SM.svg\" width=\"200\">\n                    <p><span class=\"greenText\"><b>Successful harvest!</b></span><br>Your pay has increased by $0.02. Your bonus pay is now $0.06.</p>\n            ","response":0,"trial_type":"html-button-response","trial_index":74,"time_elapsed":601935,"internal_node_id":"0.0-4.0-1.33","subject_id":"5fe602f729db954217db9aef","study_id":"6197b3f67c2b5cd3b6d9596a","session_id":"619be31d79a8fd8fd2cb96a2","condition":"contingent","relevant_dimensions":["antennae","pattern"],"bee_group":{"antennae":"B","wings":"X","pattern":"D","legs":"X"},"bonus":0.8800000000000004},{"rt":6176.4000000059605,"stimulus":"bees-with-color/bee-B2DF.svg","response":0,"trial_type":"image-button-response","trial_index":75,"time_elapsed":608112,"internal_node_id":"0.0-4.0-0.34","subject_id":"5fe602f729db954217db9aef","study_id":"6197b3f67c2b5cd3b6d9596a","session_id":"619be31d79a8fd8fd2cb96a2","condition":"contingent","relevant_dimensions":["antennae","pattern"],"bee_group":{"antennae":"B","wings":"X","pattern":"D","legs":"X"},"action":"harvest","summary":"bad-harvest","bonus":0.8800000000000004},{"rt":7419.799999982119,"stimulus":"\n                    <p><b>Action: <em>harvest</em></b></p>\n                    <p>This is the bee that you just saw.</p>\n                    <img src=\"bees-with-color/bee-B2DF.svg\" width=\"200\">\n                    <p><span class=\"redText\">Bad choice, the bee was angry.</span><br><b>You have been stung!</b><br>Your pay has been decreased by $0.10. Your bonus pay is now $0.00.</p>\n            ","response":0,"trial_type":"html-button-response","trial_index":76,"time_elapsed":615533,"internal_node_id":"0.0-4.0-1.34","subject_id":"5fe602f729db954217db9aef","study_id":"6197b3f67c2b5cd3b6d9596a","session_id":"619be31d79a8fd8fd2cb96a2","condition":"contingent","relevant_dimensions":["antennae","pattern"],"bee_group":{"antennae":"B","wings":"X","pattern":"D","legs":"X"},"bonus":0.8800000000000004},{"rt":12718.899999976158,"stimulus":"bees-with-color/bee-A2SM.svg","response":0,"trial_type":"image-button-response","trial_index":77,"time_elapsed":628253,"internal_node_id":"0.0-4.0-0.35","subject_id":"5fe602f729db954217db9aef","study_id":"6197b3f67c2b5cd3b6d9596a","session_id":"619be31d79a8fd8fd2cb96a2","condition":"contingent","relevant_dimensions":["antennae","pattern"],"bee_group":{"antennae":"B","wings":"X","pattern":"D","legs":"X"},"action":"harvest","summary":"good-harvest","bonus":0.8800000000000004},{"rt":6042.199999988079,"stimulus":"\n                    <p><b>Action: <em>harvest</em></b></p>\n                    <p>This is the bee that you just saw.</p>\n                    <img src=\"bees-with-color/bee-A2SM.svg\" width=\"200\">\n                    <p><span class=\"greenText\"><b>Successful harvest!</b></span><br>Your pay has increased by $0.02. Your bonus pay is now $0.02.</p>\n            ","response":0,"trial_type":"html-button-response","trial_index":78,"time_elapsed":634296,"internal_node_id":"0.0-4.0-1.35","subject_id":"5fe602f729db954217db9aef","study_id":"6197b3f67c2b5cd3b6d9596a","session_id":"619be31d79a8fd8fd2cb96a2","condition":"contingent","relevant_dimensions":["antennae","pattern"],"bee_group":{"antennae":"B","wings":"X","pattern":"D","legs":"X"},"bonus":0.8800000000000004},{"rt":17090.30000001192,"stimulus":"bees-with-color/bee-A1DM.svg","response":0,"trial_type":"image-button-response","trial_index":79,"time_elapsed":651387,"internal_node_id":"0.0-4.0-0.36","subject_id":"5fe602f729db954217db9aef","study_id":"6197b3f67c2b5cd3b6d9596a","session_id":"619be31d79a8fd8fd2cb96a2","condition":"contingent","relevant_dimensions":["antennae","pattern"],"bee_group":{"antennae":"B","wings":"X","pattern":"D","legs":"X"},"action":"harvest","summary":"good-harvest","bonus":0.8800000000000004},{"rt":5412.800000011921,"stimulus":"\n                    <p><b>Action: <em>harvest</em></b></p>\n                    <p>This is the bee that you just saw.</p>\n                    <img src=\"bees-with-color/bee-A1DM.svg\" width=\"200\">\n                    <p><span class=\"greenText\"><b>Successful harvest!</b></span><br>Your pay has increased by $0.02. Your bonus pay is now $0.04.</p>\n            ","response":0,"trial_type":"html-button-response","trial_index":80,"time_elapsed":656801,"internal_node_id":"0.0-4.0-1.36","subject_id":"5fe602f729db954217db9aef","study_id":"6197b3f67c2b5cd3b6d9596a","session_id":"619be31d79a8fd8fd2cb96a2","condition":"contingent","relevant_dimensions":["antennae","pattern"],"bee_group":{"antennae":"B","wings":"X","pattern":"D","legs":"X"},"bonus":0.8800000000000004},{"rt":9008.09999999404,"stimulus":"bees-with-color/bee-A1DF.svg","response":0,"trial_type":"image-button-response","trial_index":81,"time_elapsed":665811,"internal_node_id":"0.0-4.0-0.37","subject_id":"5fe602f729db954217db9aef","study_id":"6197b3f67c2b5cd3b6d9596a","session_id":"619be31d79a8fd8fd2cb96a2","condition":"contingent","relevant_dimensions":["antennae","pattern"],"bee_group":{"antennae":"B","wings":"X","pattern":"D","legs":"X"},"action":"harvest","summary":"good-harvest","bonus":0.8800000000000004},{"rt":576.5,"stimulus":"\n                    <p><b>Action: <em>harvest</em></b></p>\n                    <p>This is the bee that you just saw.</p>\n                    <img src=\"bees-with-color/bee-A1DF.svg\" width=\"200\">\n                    <p><span class=\"greenText\"><b>Successful harvest!</b></span><br>Your pay has increased by $0.02. Your bonus pay is now $0.06.</p>\n            ","response":0,"trial_type":"html-button-response","trial_index":82,"time_elapsed":666388,"internal_node_id":"0.0-4.0-1.37","subject_id":"5fe602f729db954217db9aef","study_id":"6197b3f67c2b5cd3b6d9596a","session_id":"619be31d79a8fd8fd2cb96a2","condition":"contingent","relevant_dimensions":["antennae","pattern"],"bee_group":{"antennae":"B","wings":"X","pattern":"D","legs":"X"},"bonus":0.8800000000000004},{"rt":17479.5,"stimulus":"bees-with-color/bee-B1SF.svg","response":0,"trial_type":"image-button-response","trial_index":83,"time_elapsed":683869,"internal_node_id":"0.0-4.0-0.38","subject_id":"5fe602f729db954217db9aef","study_id":"6197b3f67c2b5cd3b6d9596a","session_id":"619be31d79a8fd8fd2cb96a2","condition":"contingent","relevant_dimensions":["antennae","pattern"],"bee_group":{"antennae":"B","wings":"X","pattern":"D","legs":"X"},"action":"harvest","summary":"good-harvest","bonus":0.8800000000000004},{"rt":11770.09999999404,"stimulus":"\n                    <p><b>Action: <em>harvest</em></b></p>\n                    <p>This is the bee that you just saw.</p>\n                    <img src=\"bees-with-color/bee-B1SF.svg\" width=\"200\">\n                    <p><span class=\"greenText\"><b>Successful harvest!</b></span><br>Your pay has increased by $0.02. Your bonus pay is now $0.08.</p>\n            ","response":0,"trial_type":"html-button-response","trial_index":84,"time_elapsed":695640,"internal_node_id":"0.0-4.0-1.38","subject_id":"5fe602f729db954217db9aef","study_id":"6197b3f67c2b5cd3b6d9596a","session_id":"619be31d79a8fd8fd2cb96a2","condition":"contingent","relevant_dimensions":["antennae","pattern"],"bee_group":{"antennae":"B","wings":"X","pattern":"D","legs":"X"},"bonus":0.8800000000000004},{"rt":11208.90000000596,"stimulus":"bees-with-color/bee-B2SM.svg","response":0,"trial_type":"image-button-response","trial_index":85,"time_elapsed":706851,"internal_node_id":"0.0-4.0-0.39","subject_id":"5fe602f729db954217db9aef","study_id":"6197b3f67c2b5cd3b6d9596a","session_id":"619be31d79a8fd8fd2cb96a2","condition":"contingent","relevant_dimensions":["antennae","pattern"],"bee_group":{"antennae":"B","wings":"X","pattern":"D","legs":"X"},"action":"harvest","summary":"good-harvest","bonus":0.8800000000000004},{"rt":10199.899999976158,"stimulus":"\n                    <p><b>Action: <em>harvest</em></b></p>\n                    <p>This is the bee that you just saw.</p>\n                    <img src=\"bees-with-color/bee-B2SM.svg\" width=\"200\">\n                    <p><span class=\"greenText\"><b>Successful harvest!</b></span><br>Your pay has increased by $0.02. Your bonus pay is now $0.10.</p>\n            ","response":0,"trial_type":"html-button-response","trial_index":86,"time_elapsed":717051,"internal_node_id":"0.0-4.0-1.39","subject_id":"5fe602f729db954217db9aef","study_id":"6197b3f67c2b5cd3b6d9596a","session_id":"619be31d79a8fd8fd2cb96a2","condition":"contingent","relevant_dimensions":["antennae","pattern"],"bee_group":{"antennae":"B","wings":"X","pattern":"D","legs":"X"},"bonus":0.8800000000000004},{"rt":7639.299999982119,"stimulus":"bees-with-color/bee-B1DM.svg","response":1,"trial_type":"image-button-response","trial_index":87,"time_elapsed":724692,"internal_node_id":"0.0-4.0-0.40","subject_id":"5fe602f729db954217db9aef","study_id":"6197b3f67c2b5cd3b6d9596a","session_id":"619be31d79a8fd8fd2cb96a2","condition":"contingent","relevant_dimensions":["antennae","pattern"],"bee_group":{"antennae":"B","wings":"X","pattern":"D","legs":"X"},"action":"avoid","summary":"good-avoid","bonus":0.8800000000000004},{"rt":668.5,"stimulus":"\n                    <p><b>Action: <em>avoid</em></b></p>\n                    <p>This is the bee that you just saw.</p>\n                    <img src=\"bees-with-color/bee-B1DM.svg\" width=\"200\">\n                    <p><br>Your bonus pay is unchanged, and remains at $0.10.</p>\n            ","response":0,"trial_type":"html-button-response","trial_index":88,"time_elapsed":725361,"internal_node_id":"0.0-4.0-1.40","subject_id":"5fe602f729db954217db9aef","study_id":"6197b3f67c2b5cd3b6d9596a","session_id":"619be31d79a8fd8fd2cb96a2","condition":"contingent","relevant_dimensions":["antennae","pattern"],"bee_group":{"antennae":"B","wings":"X","pattern":"D","legs":"X"},"bonus":0.8800000000000004},{"rt":28528.20000001788,"stimulus":"bees-with-color/bee-A1SF.svg","response":0,"trial_type":"image-button-response","trial_index":89,"time_elapsed":753891,"internal_node_id":"0.0-4.0-0.41","subject_id":"5fe602f729db954217db9aef","study_id":"6197b3f67c2b5cd3b6d9596a","session_id":"619be31d79a8fd8fd2cb96a2","condition":"contingent","relevant_dimensions":["antennae","pattern"],"bee_group":{"antennae":"B","wings":"X","pattern":"D","legs":"X"},"action":"harvest","summary":"good-harvest","bonus":0.8800000000000004},{"rt":626.2000000178814,"stimulus":"\n                    <p><b>Action: <em>harvest</em></b></p>\n                    <p>This is the bee that you just saw.</p>\n                    <img src=\"bees-with-color/bee-A1SF.svg\" width=\"200\">\n                    <p><span class=\"greenText\"><b>Successful harvest!</b></span><br>Your pay has increased by $0.02. Your bonus pay is now $0.12.</p>\n            ","response":0,"trial_type":"html-button-response","trial_index":90,"time_elapsed":754518,"internal_node_id":"0.0-4.0-1.41","subject_id":"5fe602f729db954217db9aef","study_id":"6197b3f67c2b5cd3b6d9596a","session_id":"619be31d79a8fd8fd2cb96a2","condition":"contingent","relevant_dimensions":["antennae","pattern"],"bee_group":{"antennae":"B","wings":"X","pattern":"D","legs":"X"},"bonus":0.8800000000000004},{"rt":12575.40000000596,"stimulus":"bees-with-color/bee-A1SM.svg","response":0,"trial_type":"image-button-response","trial_index":91,"time_elapsed":767094,"internal_node_id":"0.0-4.0-0.42","subject_id":"5fe602f729db954217db9aef","study_id":"6197b3f67c2b5cd3b6d9596a","session_id":"619be31d79a8fd8fd2cb96a2","condition":"contingent","relevant_dimensions":["antennae","pattern"],"bee_group":{"antennae":"B","wings":"X","pattern":"D","legs":"X"},"action":"harvest","summary":"good-harvest","bonus":0.8800000000000004},{"rt":1956.300000011921,"stimulus":"\n                    <p><b>Action: <em>harvest</em></b></p>\n                    <p>This is the bee that you just saw.</p>\n                    <img src=\"bees-with-color/bee-A1SM.svg\" width=\"200\">\n                    <p><span class=\"greenText\"><b>Successful harvest!</b></span><br>Your pay has increased by $0.02. Your bonus pay is now $0.14.</p>\n            ","response":0,"trial_type":"html-button-response","trial_index":92,"time_elapsed":769051,"internal_node_id":"0.0-4.0-1.42","subject_id":"5fe602f729db954217db9aef","study_id":"6197b3f67c2b5cd3b6d9596a","session_id":"619be31d79a8fd8fd2cb96a2","condition":"contingent","relevant_dimensions":["antennae","pattern"],"bee_group":{"antennae":"B","wings":"X","pattern":"D","legs":"X"},"bonus":0.8800000000000004},{"rt":15145,"stimulus":"bees-with-color/bee-A2SF.svg","response":0,"trial_type":"image-button-response","trial_index":93,"time_elapsed":784197,"internal_node_id":"0.0-4.0-0.43","subject_id":"5fe602f729db954217db9aef","study_id":"6197b3f67c2b5cd3b6d9596a","session_id":"619be31d79a8fd8fd2cb96a2","condition":"contingent","relevant_dimensions":["antennae","pattern"],"bee_group":{"antennae":"B","wings":"X","pattern":"D","legs":"X"},"action":"harvest","summary":"good-harvest","bonus":0.8800000000000004},{"rt":624.1999999880791,"stimulus":"\n                    <p><b>Action: <em>harvest</em></b></p>\n                    <p>This is the bee that you just saw.</p>\n                    <img src=\"bees-with-color/bee-A2SF.svg\" width=\"200\">\n                    <p><span class=\"greenText\"><b>Successful harvest!</b></span><br>Your pay has increased by $0.02. Your bonus pay is now $0.16.</p>\n            ","response":0,"trial_type":"html-button-response","trial_index":94,"time_elapsed":784822,"internal_node_id":"0.0-4.0-1.43","subject_id":"5fe602f729db954217db9aef","study_id":"6197b3f67c2b5cd3b6d9596a","session_id":"619be31d79a8fd8fd2cb96a2","condition":"contingent","relevant_dimensions":["antennae","pattern"],"bee_group":{"antennae":"B","wings":"X","pattern":"D","legs":"X"},"bonus":0.8800000000000004},{"rt":7349.5,"stimulus":"bees-with-color/bee-A2DF.svg","response":0,"trial_type":"image-button-response","trial_index":95,"time_elapsed":792173,"internal_node_id":"0.0-4.0-0.44","subject_id":"5fe602f729db954217db9aef","study_id":"6197b3f67c2b5cd3b6d9596a","session_id":"619be31d79a8fd8fd2cb96a2","condition":"contingent","relevant_dimensions":["antennae","pattern"],"bee_group":{"antennae":"B","wings":"X","pattern":"D","legs":"X"},"action":"harvest","summary":"good-harvest","bonus":0.8800000000000004},{"rt":1492.4000000059605,"stimulus":"\n                    <p><b>Action: <em>harvest</em></b></p>\n                    <p>This is the bee that you just saw.</p>\n                    <img src=\"bees-with-color/bee-A2DF.svg\" width=\"200\">\n                    <p><span class=\"greenText\"><b>Successful harvest!</b></span><br>Your pay has increased by $0.02. Your bonus pay is now $0.18.</p>\n            ","response":0,"trial_type":"html-button-response","trial_index":96,"time_elapsed":793666,"internal_node_id":"0.0-4.0-1.44","subject_id":"5fe602f729db954217db9aef","study_id":"6197b3f67c2b5cd3b6d9596a","session_id":"619be31d79a8fd8fd2cb96a2","condition":"contingent","relevant_dimensions":["antennae","pattern"],"bee_group":{"antennae":"B","wings":"X","pattern":"D","legs":"X"},"bonus":0.8800000000000004},{"rt":14418,"stimulus":"bees-with-color/bee-B2DM.svg","response":1,"trial_type":"image-button-response","trial_index":97,"time_elapsed":808085,"internal_node_id":"0.0-4.0-0.45","subject_id":"5fe602f729db954217db9aef","study_id":"6197b3f67c2b5cd3b6d9596a","session_id":"619be31d79a8fd8fd2cb96a2","condition":"contingent","relevant_dimensions":["antennae","pattern"],"bee_group":{"antennae":"B","wings":"X","pattern":"D","legs":"X"},"action":"avoid","summary":"good-avoid","bonus":0.8800000000000004},{"rt":1779,"stimulus":"\n                    <p><b>Action: <em>avoid</em></b></p>\n                    <p>This is the bee that you just saw.</p>\n                    <img src=\"bees-with-color/bee-B2DM.svg\" width=\"200\">\n                    <p><br>Your bonus pay is unchanged, and remains at $0.18.</p>\n            ","response":0,"trial_type":"html-button-response","trial_index":98,"time_elapsed":809865,"internal_node_id":"0.0-4.0-1.45","subject_id":"5fe602f729db954217db9aef","study_id":"6197b3f67c2b5cd3b6d9596a","session_id":"619be31d79a8fd8fd2cb96a2","condition":"contingent","relevant_dimensions":["antennae","pattern"],"bee_group":{"antennae":"B","wings":"X","pattern":"D","legs":"X"},"bonus":0.8800000000000004},{"rt":7178,"stimulus":"bees-with-color/bee-A2DM.svg","response":0,"trial_type":"image-button-response","trial_index":99,"time_elapsed":817044,"internal_node_id":"0.0-4.0-0.46","subject_id":"5fe602f729db954217db9aef","study_id":"6197b3f67c2b5cd3b6d9596a","session_id":"619be31d79a8fd8fd2cb96a2","condition":"contingent","relevant_dimensions":["antennae","pattern"],"bee_group":{"antennae":"B","wings":"X","pattern":"D","legs":"X"},"action":"harvest","summary":"good-harvest","bonus":0.8800000000000004},{"rt":1033.2000000178814,"stimulus":"\n                    <p><b>Action: <em>harvest</em></b></p>\n                    <p>This is the bee that you just saw.</p>\n                    <img src=\"bees-with-color/bee-A2DM.svg\" width=\"200\">\n                    <p><span class=\"greenText\"><b>Successful harvest!</b></span><br>Your pay has increased by $0.02. Your bonus pay is now $0.20.</p>\n            ","response":0,"trial_type":"html-button-response","trial_index":100,"time_elapsed":818078,"internal_node_id":"0.0-4.0-1.46","subject_id":"5fe602f729db954217db9aef","study_id":"6197b3f67c2b5cd3b6d9596a","session_id":"619be31d79a8fd8fd2cb96a2","condition":"contingent","relevant_dimensions":["antennae","pattern"],"bee_group":{"antennae":"B","wings":"X","pattern":"D","legs":"X"},"bonus":0.8800000000000004},{"rt":18294.90000000596,"stimulus":"bees-with-color/bee-B2SF.svg","response":0,"trial_type":"image-button-response","trial_index":101,"time_elapsed":836374,"internal_node_id":"0.0-4.0-0.47","subject_id":"5fe602f729db954217db9aef","study_id":"6197b3f67c2b5cd3b6d9596a","session_id":"619be31d79a8fd8fd2cb96a2","condition":"contingent","relevant_dimensions":["antennae","pattern"],"bee_group":{"antennae":"B","wings":"X","pattern":"D","legs":"X"},"action":"harvest","summary":"good-harvest","bonus":0.8800000000000004},{"rt":1647.9000000059605,"stimulus":"\n                    <p><b>Action: <em>harvest</em></b></p>\n                    <p>This is the bee that you just saw.</p>\n                    <img src=\"bees-with-color/bee-B2SF.svg\" width=\"200\">\n                    <p><span class=\"greenText\"><b>Successful harvest!</b></span><br>Your pay has increased by $0.02. Your bonus pay is now $0.22.</p>\n            ","response":0,"trial_type":"html-button-response","trial_index":102,"time_elapsed":838023,"internal_node_id":"0.0-4.0-1.47","subject_id":"5fe602f729db954217db9aef","study_id":"6197b3f67c2b5cd3b6d9596a","session_id":"619be31d79a8fd8fd2cb96a2","condition":"contingent","relevant_dimensions":["antennae","pattern"],"bee_group":{"antennae":"B","wings":"X","pattern":"D","legs":"X"},"bonus":0.8800000000000004},{"rt":13781,"stimulus":"bees-with-color/bee-B2DF.svg","response":1,"trial_type":"image-button-response","trial_index":103,"time_elapsed":851805,"internal_node_id":"0.0-4.0-0.48","subject_id":"5fe602f729db954217db9aef","study_id":"6197b3f67c2b5cd3b6d9596a","session_id":"619be31d79a8fd8fd2cb96a2","condition":"contingent","relevant_dimensions":["antennae","pattern"],"bee_group":{"antennae":"B","wings":"X","pattern":"D","legs":"X"},"action":"avoid","summary":"good-avoid","bonus":0.8800000000000004},{"rt":634.0999999940395,"stimulus":"\n                    <p><b>Action: <em>avoid</em></b></p>\n                    <p>This is the bee that you just saw.</p>\n                    <img src=\"bees-with-color/bee-B2DF.svg\" width=\"200\">\n                    <p><br>Your bonus pay is unchanged, and remains at $0.22.</p>\n            ","response":0,"trial_type":"html-button-response","trial_index":104,"time_elapsed":852440,"internal_node_id":"0.0-4.0-1.48","subject_id":"5fe602f729db954217db9aef","study_id":"6197b3f67c2b5cd3b6d9596a","session_id":"619be31d79a8fd8fd2cb96a2","condition":"contingent","relevant_dimensions":["antennae","pattern"],"bee_group":{"antennae":"B","wings":"X","pattern":"D","legs":"X"},"bonus":0.8800000000000004},{"rt":10821.90000000596,"stimulus":"bees-with-color/bee-A1SM.svg","response":0,"trial_type":"image-button-response","trial_index":105,"time_elapsed":863263,"internal_node_id":"0.0-4.0-0.49","subject_id":"5fe602f729db954217db9aef","study_id":"6197b3f67c2b5cd3b6d9596a","session_id":"619be31d79a8fd8fd2cb96a2","condition":"contingent","relevant_dimensions":["antennae","pattern"],"bee_group":{"antennae":"B","wings":"X","pattern":"D","legs":"X"},"action":"harvest","summary":"good-harvest","bonus":0.8800000000000004},{"rt":628,"stimulus":"\n                    <p><b>Action: <em>harvest</em></b></p>\n                    <p>This is the bee that you just saw.</p>\n                    <img src=\"bees-with-color/bee-A1SM.svg\" width=\"200\">\n                    <p><span class=\"greenText\"><b>Successful harvest!</b></span><br>Your pay has increased by $0.02. Your bonus pay is now $0.24.</p>\n            ","response":0,"trial_type":"html-button-response","trial_index":106,"time_elapsed":863892,"internal_node_id":"0.0-4.0-1.49","subject_id":"5fe602f729db954217db9aef","study_id":"6197b3f67c2b5cd3b6d9596a","session_id":"619be31d79a8fd8fd2cb96a2","condition":"contingent","relevant_dimensions":["antennae","pattern"],"bee_group":{"antennae":"B","wings":"X","pattern":"D","legs":"X"},"bonus":0.8800000000000004},{"rt":8103.0999999940395,"stimulus":"bees-with-color/bee-A1DM.svg","response":0,"trial_type":"image-button-response","trial_index":107,"time_elapsed":871996,"internal_node_id":"0.0-4.0-0.50","subject_id":"5fe602f729db954217db9aef","study_id":"6197b3f67c2b5cd3b6d9596a","session_id":"619be31d79a8fd8fd2cb96a2","condition":"contingent","relevant_dimensions":["antennae","pattern"],"bee_group":{"antennae":"B","wings":"X","pattern":"D","legs":"X"},"action":"harvest","summary":"good-harvest","bonus":0.8800000000000004},{"rt":680.0999999940395,"stimulus":"\n                    <p><b>Action: <em>harvest</em></b></p>\n                    <p>This is the bee that you just saw.</p>\n                    <img src=\"bees-with-color/bee-A1DM.svg\" width=\"200\">\n                    <p><span class=\"greenText\"><b>Successful harvest!</b></span><br>Your pay has increased by $0.02. Your bonus pay is now $0.26.</p>\n            ","response":0,"trial_type":"html-button-response","trial_index":108,"time_elapsed":872677,"internal_node_id":"0.0-4.0-1.50","subject_id":"5fe602f729db954217db9aef","study_id":"6197b3f67c2b5cd3b6d9596a","session_id":"619be31d79a8fd8fd2cb96a2","condition":"contingent","relevant_dimensions":["antennae","pattern"],"bee_group":{"antennae":"B","wings":"X","pattern":"D","legs":"X"},"bonus":0.8800000000000004},{"rt":12364.199999988079,"stimulus":"bees-with-color/bee-B1DF.svg","response":1,"trial_type":"image-button-response","trial_index":109,"time_elapsed":885043,"internal_node_id":"0.0-4.0-0.51","subject_id":"5fe602f729db954217db9aef","study_id":"6197b3f67c2b5cd3b6d9596a","session_id":"619be31d79a8fd8fd2cb96a2","condition":"contingent","relevant_dimensions":["antennae","pattern"],"bee_group":{"antennae":"B","wings":"X","pattern":"D","legs":"X"},"action":"avoid","summary":"good-avoid","bonus":0.8800000000000004},{"rt":709.0999999940395,"stimulus":"\n                    <p><b>Action: <em>avoid</em></b></p>\n                    <p>This is the bee that you just saw.</p>\n                    <img src=\"bees-with-color/bee-B1DF.svg\" width=\"200\">\n                    <p><br>Your bonus pay is unchanged, and remains at $0.26.</p>\n            ","response":0,"trial_type":"html-button-response","trial_index":110,"time_elapsed":885753,"internal_node_id":"0.0-4.0-1.51","subject_id":"5fe602f729db954217db9aef","study_id":"6197b3f67c2b5cd3b6d9596a","session_id":"619be31d79a8fd8fd2cb96a2","condition":"contingent","relevant_dimensions":["antennae","pattern"],"bee_group":{"antennae":"B","wings":"X","pattern":"D","legs":"X"},"bonus":0.8800000000000004},{"rt":6353.800000011921,"stimulus":"bees-with-color/bee-A2SF.svg","response":0,"trial_type":"image-button-response","trial_index":111,"time_elapsed":892108,"internal_node_id":"0.0-4.0-0.52","subject_id":"5fe602f729db954217db9aef","study_id":"6197b3f67c2b5cd3b6d9596a","session_id":"619be31d79a8fd8fd2cb96a2","condition":"contingent","relevant_dimensions":["antennae","pattern"],"bee_group":{"antennae":"B","wings":"X","pattern":"D","legs":"X"},"action":"harvest","summary":"good-harvest","bonus":0.8800000000000004},{"rt":794.2999999821186,"stimulus":"\n                    <p><b>Action: <em>harvest</em></b></p>\n                    <p>This is the bee that you just saw.</p>\n                    <img src=\"bees-with-color/bee-A2SF.svg\" width=\"200\">\n                    <p><span class=\"greenText\"><b>Successful harvest!</b></span><br>Your pay has increased by $0.02. Your bonus pay is now $0.28.</p>\n            ","response":0,"trial_type":"html-button-response","trial_index":112,"time_elapsed":892903,"internal_node_id":"0.0-4.0-1.52","subject_id":"5fe602f729db954217db9aef","study_id":"6197b3f67c2b5cd3b6d9596a","session_id":"619be31d79a8fd8fd2cb96a2","condition":"contingent","relevant_dimensions":["antennae","pattern"],"bee_group":{"antennae":"B","wings":"X","pattern":"D","legs":"X"},"bonus":0.8800000000000004},{"rt":9895.899999976158,"stimulus":"bees-with-color/bee-A1DF.svg","response":0,"trial_type":"image-button-response","trial_index":113,"time_elapsed":902800,"internal_node_id":"0.0-4.0-0.53","subject_id":"5fe602f729db954217db9aef","study_id":"6197b3f67c2b5cd3b6d9596a","session_id":"619be31d79a8fd8fd2cb96a2","condition":"contingent","relevant_dimensions":["antennae","pattern"],"bee_group":{"antennae":"B","wings":"X","pattern":"D","legs":"X"},"action":"harvest","summary":"good-harvest","bonus":0.8800000000000004},{"rt":459.10000002384186,"stimulus":"\n                    <p><b>Action: <em>harvest</em></b></p>\n                    <p>This is the bee that you just saw.</p>\n                    <img src=\"bees-with-color/bee-A1DF.svg\" width=\"200\">\n                    <p><span class=\"greenText\"><b>Successful harvest!</b></span><br>Your pay has increased by $0.02. Your bonus pay is now $0.30.</p>\n            ","response":0,"trial_type":"html-button-response","trial_index":114,"time_elapsed":903260,"internal_node_id":"0.0-4.0-1.53","subject_id":"5fe602f729db954217db9aef","study_id":"6197b3f67c2b5cd3b6d9596a","session_id":"619be31d79a8fd8fd2cb96a2","condition":"contingent","relevant_dimensions":["antennae","pattern"],"bee_group":{"antennae":"B","wings":"X","pattern":"D","legs":"X"},"bonus":0.8800000000000004},{"rt":7361.5999999940395,"stimulus":"bees-with-color/bee-B2SF.svg","response":1,"trial_type":"image-button-response","trial_index":115,"time_elapsed":910623,"internal_node_id":"0.0-4.0-0.54","subject_id":"5fe602f729db954217db9aef","study_id":"6197b3f67c2b5cd3b6d9596a","session_id":"619be31d79a8fd8fd2cb96a2","condition":"contingent","relevant_dimensions":["antennae","pattern"],"bee_group":{"antennae":"B","wings":"X","pattern":"D","legs":"X"},"action":"avoid","summary":"bad-avoid","bonus":0.8800000000000004},{"rt":420.2999999821186,"stimulus":"\n                    <p><b>Action: <em>avoid</em></b></p>\n                    <p>This is the bee that you just saw.</p>\n                    <img src=\"bees-with-color/bee-B2SF.svg\" width=\"200\">\n                    <p><br>Your bonus pay is unchanged, and remains at $0.30.</p>\n            ","response":0,"trial_type":"html-button-response","trial_index":116,"time_elapsed":911044,"internal_node_id":"0.0-4.0-1.54","subject_id":"5fe602f729db954217db9aef","study_id":"6197b3f67c2b5cd3b6d9596a","session_id":"619be31d79a8fd8fd2cb96a2","condition":"contingent","relevant_dimensions":["antennae","pattern"],"bee_group":{"antennae":"B","wings":"X","pattern":"D","legs":"X"},"bonus":0.8800000000000004},{"rt":12857.90000000596,"stimulus":"bees-with-color/bee-A2DM.svg","response":0,"trial_type":"image-button-response","trial_index":117,"time_elapsed":923903,"internal_node_id":"0.0-4.0-0.55","subject_id":"5fe602f729db954217db9aef","study_id":"6197b3f67c2b5cd3b6d9596a","session_id":"619be31d79a8fd8fd2cb96a2","condition":"contingent","relevant_dimensions":["antennae","pattern"],"bee_group":{"antennae":"B","wings":"X","pattern":"D","legs":"X"},"action":"harvest","summary":"good-harvest","bonus":0.8800000000000004},{"rt":572.2999999821186,"stimulus":"\n                    <p><b>Action: <em>harvest</em></b></p>\n                    <p>This is the bee that you just saw.</p>\n                    <img src=\"bees-with-color/bee-A2DM.svg\" width=\"200\">\n                    <p><span class=\"greenText\"><b>Successful harvest!</b></span><br>Your pay has increased by $0.02. Your bonus pay is now $0.32.</p>\n            ","response":0,"trial_type":"html-button-response","trial_index":118,"time_elapsed":924476,"internal_node_id":"0.0-4.0-1.55","subject_id":"5fe602f729db954217db9aef","study_id":"6197b3f67c2b5cd3b6d9596a","session_id":"619be31d79a8fd8fd2cb96a2","condition":"contingent","relevant_dimensions":["antennae","pattern"],"bee_group":{"antennae":"B","wings":"X","pattern":"D","legs":"X"},"bonus":0.8800000000000004},{"rt":10266.899999976158,"stimulus":"bees-with-color/bee-B1SF.svg","response":0,"trial_type":"image-button-response","trial_index":119,"time_elapsed":934744,"internal_node_id":"0.0-4.0-0.56","subject_id":"5fe602f729db954217db9aef","study_id":"6197b3f67c2b5cd3b6d9596a","session_id":"619be31d79a8fd8fd2cb96a2","condition":"contingent","relevant_dimensions":["antennae","pattern"],"bee_group":{"antennae":"B","wings":"X","pattern":"D","legs":"X"},"action":"harvest","summary":"good-harvest","bonus":0.8800000000000004},{"rt":470.2000000178814,"stimulus":"\n                    <p><b>Action: <em>harvest</em></b></p>\n                    <p>This is the bee that you just saw.</p>\n                    <img src=\"bees-with-color/bee-B1SF.svg\" width=\"200\">\n                    <p><span class=\"greenText\"><b>Successful harvest!</b></span><br>Your pay has increased by $0.02. Your bonus pay is now $0.34.</p>\n            ","response":0,"trial_type":"html-button-response","trial_index":120,"time_elapsed":935215,"internal_node_id":"0.0-4.0-1.56","subject_id":"5fe602f729db954217db9aef","study_id":"6197b3f67c2b5cd3b6d9596a","session_id":"619be31d79a8fd8fd2cb96a2","condition":"contingent","relevant_dimensions":["antennae","pattern"],"bee_group":{"antennae":"B","wings":"X","pattern":"D","legs":"X"},"bonus":0.8800000000000004},{"rt":9592.5,"stimulus":"bees-with-color/bee-B2DM.svg","response":1,"trial_type":"image-button-response","trial_index":121,"time_elapsed":944808,"internal_node_id":"0.0-4.0-0.57","subject_id":"5fe602f729db954217db9aef","study_id":"6197b3f67c2b5cd3b6d9596a","session_id":"619be31d79a8fd8fd2cb96a2","condition":"contingent","relevant_dimensions":["antennae","pattern"],"bee_group":{"antennae":"B","wings":"X","pattern":"D","legs":"X"},"action":"avoid","summary":"good-avoid","bonus":0.8800000000000004},{"rt":513.9000000059605,"stimulus":"\n                    <p><b>Action: <em>avoid</em></b></p>\n                    <p>This is the bee that you just saw.</p>\n                    <img src=\"bees-with-color/bee-B2DM.svg\" width=\"200\">\n                    <p><br>Your bonus pay is unchanged, and remains at $0.34.</p>\n            ","response":0,"trial_type":"html-button-response","trial_index":122,"time_elapsed":945323,"internal_node_id":"0.0-4.0-1.57","subject_id":"5fe602f729db954217db9aef","study_id":"6197b3f67c2b5cd3b6d9596a","session_id":"619be31d79a8fd8fd2cb96a2","condition":"contingent","relevant_dimensions":["antennae","pattern"],"bee_group":{"antennae":"B","wings":"X","pattern":"D","legs":"X"},"bonus":0.8800000000000004},{"rt":5472.9000000059605,"stimulus":"bees-with-color/bee-A2DF.svg","response":0,"trial_type":"image-button-response","trial_index":123,"time_elapsed":950797,"internal_node_id":"0.0-4.0-0.58","subject_id":"5fe602f729db954217db9aef","study_id":"6197b3f67c2b5cd3b6d9596a","session_id":"619be31d79a8fd8fd2cb96a2","condition":"contingent","relevant_dimensions":["antennae","pattern"],"bee_group":{"antennae":"B","wings":"X","pattern":"D","legs":"X"},"action":"harvest","summary":"good-harvest","bonus":0.8800000000000004},{"rt":881,"stimulus":"\n                    <p><b>Action: <em>harvest</em></b></p>\n                    <p>This is the bee that you just saw.</p>\n                    <img src=\"bees-with-color/bee-A2DF.svg\" width=\"200\">\n                    <p><span class=\"greenText\"><b>Successful harvest!</b></span><br>Your pay has increased by $0.02. Your bonus pay is now $0.36.</p>\n            ","response":0,"trial_type":"html-button-response","trial_index":124,"time_elapsed":951679,"internal_node_id":"0.0-4.0-1.58","subject_id":"5fe602f729db954217db9aef","study_id":"6197b3f67c2b5cd3b6d9596a","session_id":"619be31d79a8fd8fd2cb96a2","condition":"contingent","relevant_dimensions":["antennae","pattern"],"bee_group":{"antennae":"B","wings":"X","pattern":"D","legs":"X"},"bonus":0.8800000000000004},{"rt":12796.899999976158,"stimulus":"bees-with-color/bee-B1DM.svg","response":1,"trial_type":"image-button-response","trial_index":125,"time_elapsed":964477,"internal_node_id":"0.0-4.0-0.59","subject_id":"5fe602f729db954217db9aef","study_id":"6197b3f67c2b5cd3b6d9596a","session_id":"619be31d79a8fd8fd2cb96a2","condition":"contingent","relevant_dimensions":["antennae","pattern"],"bee_group":{"antennae":"B","wings":"X","pattern":"D","legs":"X"},"action":"avoid","summary":"good-avoid","bonus":0.8800000000000004},{"rt":821.1999999880791,"stimulus":"\n                    <p><b>Action: <em>avoid</em></b></p>\n                    <p>This is the bee that you just saw.</p>\n                    <img src=\"bees-with-color/bee-B1DM.svg\" width=\"200\">\n                    <p><br>Your bonus pay is unchanged, and remains at $0.36.</p>\n            ","response":0,"trial_type":"html-button-response","trial_index":126,"time_elapsed":965299,"internal_node_id":"0.0-4.0-1.59","subject_id":"5fe602f729db954217db9aef","study_id":"6197b3f67c2b5cd3b6d9596a","session_id":"619be31d79a8fd8fd2cb96a2","condition":"contingent","relevant_dimensions":["antennae","pattern"],"bee_group":{"antennae":"B","wings":"X","pattern":"D","legs":"X"},"bonus":0.8800000000000004},{"rt":11468.200000017881,"stimulus":"bees-with-color/bee-B1SM.svg","response":0,"trial_type":"image-button-response","trial_index":127,"time_elapsed":976768,"internal_node_id":"0.0-4.0-0.60","subject_id":"5fe602f729db954217db9aef","study_id":"6197b3f67c2b5cd3b6d9596a","session_id":"619be31d79a8fd8fd2cb96a2","condition":"contingent","relevant_dimensions":["antennae","pattern"],"bee_group":{"antennae":"B","wings":"X","pattern":"D","legs":"X"},"action":"harvest","summary":"good-harvest","bonus":0.8800000000000004},{"rt":521.9000000059605,"stimulus":"\n                    <p><b>Action: <em>harvest</em></b></p>\n                    <p>This is the bee that you just saw.</p>\n                    <img src=\"bees-with-color/bee-B1SM.svg\" width=\"200\">\n                    <p><span class=\"greenText\"><b>Successful harvest!</b></span><br>Your pay has increased by $0.02. Your bonus pay is now $0.38.</p>\n            ","response":0,"trial_type":"html-button-response","trial_index":128,"time_elapsed":977291,"internal_node_id":"0.0-4.0-1.60","subject_id":"5fe602f729db954217db9aef","study_id":"6197b3f67c2b5cd3b6d9596a","session_id":"619be31d79a8fd8fd2cb96a2","condition":"contingent","relevant_dimensions":["antennae","pattern"],"bee_group":{"antennae":"B","wings":"X","pattern":"D","legs":"X"},"bonus":0.8800000000000004},{"rt":9741.09999999404,"stimulus":"bees-with-color/bee-A1SF.svg","response":0,"trial_type":"image-button-response","trial_index":129,"time_elapsed":987033,"internal_node_id":"0.0-4.0-0.61","subject_id":"5fe602f729db954217db9aef","study_id":"6197b3f67c2b5cd3b6d9596a","session_id":"619be31d79a8fd8fd2cb96a2","condition":"contingent","relevant_dimensions":["antennae","pattern"],"bee_group":{"antennae":"B","wings":"X","pattern":"D","legs":"X"},"action":"harvest","summary":"good-harvest","bonus":0.8800000000000004},{"rt":614.0999999940395,"stimulus":"\n                    <p><b>Action: <em>harvest</em></b></p>\n                    <p>This is the bee that you just saw.</p>\n                    <img src=\"bees-with-color/bee-A1SF.svg\" width=\"200\">\n                    <p><span class=\"greenText\"><b>Successful harvest!</b></span><br>Your pay has increased by $0.02. Your bonus pay is now $0.40.</p>\n            ","response":0,"trial_type":"html-button-response","trial_index":130,"time_elapsed":987648,"internal_node_id":"0.0-4.0-1.61","subject_id":"5fe602f729db954217db9aef","study_id":"6197b3f67c2b5cd3b6d9596a","session_id":"619be31d79a8fd8fd2cb96a2","condition":"contingent","relevant_dimensions":["antennae","pattern"],"bee_group":{"antennae":"B","wings":"X","pattern":"D","legs":"X"},"bonus":0.8800000000000004},{"rt":5622.9000000059605,"stimulus":"bees-with-color/bee-A2SM.svg","response":0,"trial_type":"image-button-response","trial_index":131,"time_elapsed":993272,"internal_node_id":"0.0-4.0-0.62","subject_id":"5fe602f729db954217db9aef","study_id":"6197b3f67c2b5cd3b6d9596a","session_id":"619be31d79a8fd8fd2cb96a2","condition":"contingent","relevant_dimensions":["antennae","pattern"],"bee_group":{"antennae":"B","wings":"X","pattern":"D","legs":"X"},"action":"harvest","summary":"good-harvest","bonus":0.8800000000000004},{"rt":781.0999999940395,"stimulus":"\n                    <p><b>Action: <em>harvest</em></b></p>\n                    <p>This is the bee that you just saw.</p>\n                    <img src=\"bees-with-color/bee-A2SM.svg\" width=\"200\">\n                    <p><span class=\"greenText\"><b>Successful harvest!</b></span><br>Your pay has increased by $0.02. Your bonus pay is now $0.42.</p>\n            ","response":0,"trial_type":"html-button-response","trial_index":132,"time_elapsed":994054,"internal_node_id":"0.0-4.0-1.62","subject_id":"5fe602f729db954217db9aef","study_id":"6197b3f67c2b5cd3b6d9596a","session_id":"619be31d79a8fd8fd2cb96a2","condition":"contingent","relevant_dimensions":["antennae","pattern"],"bee_group":{"antennae":"B","wings":"X","pattern":"D","legs":"X"},"bonus":0.8800000000000004},{"rt":4095.100000023842,"stimulus":"bees-with-color/bee-B2SM.svg","response":0,"trial_type":"image-button-response","trial_index":133,"time_elapsed":998150,"internal_node_id":"0.0-4.0-0.63","subject_id":"5fe602f729db954217db9aef","study_id":"6197b3f67c2b5cd3b6d9596a","session_id":"619be31d79a8fd8fd2cb96a2","condition":"contingent","relevant_dimensions":["antennae","pattern"],"bee_group":{"antennae":"B","wings":"X","pattern":"D","legs":"X"},"action":"harvest","summary":"good-harvest","bonus":0.8800000000000004},{"rt":637.9000000059605,"stimulus":"\n                    <p><b>Action: <em>harvest</em></b></p>\n                    <p>This is the bee that you just saw.</p>\n                    <img src=\"bees-with-color/bee-B2SM.svg\" width=\"200\">\n                    <p><span class=\"greenText\"><b>Successful harvest!</b></span><br>Your pay has increased by $0.02. Your bonus pay is now $0.44.</p>\n            ","response":0,"trial_type":"html-button-response","trial_index":134,"time_elapsed":998789,"internal_node_id":"0.0-4.0-1.63","subject_id":"5fe602f729db954217db9aef","study_id":"6197b3f67c2b5cd3b6d9596a","session_id":"619be31d79a8fd8fd2cb96a2","condition":"contingent","relevant_dimensions":["antennae","pattern"],"bee_group":{"antennae":"B","wings":"X","pattern":"D","legs":"X"},"bonus":0.8800000000000004},{"rt":7747.700000017881,"stimulus":"You have completed the first part of this experiment.<br><br>You will now begin a shorter second part, in which you will receive no feedback.<br>The same rules regarding bonus pay apply.<br><br>Press any key to begin.","response":" ","trial_type":"html-keyboard-response","trial_index":135,"time_elapsed":1006538,"internal_node_id":"0.0-5.0","subject_id":"5fe602f729db954217db9aef","study_id":"6197b3f67c2b5cd3b6d9596a","session_id":"619be31d79a8fd8fd2cb96a2","condition":"contingent","relevant_dimensions":["antennae","pattern"],"bee_group":{"antennae":"B","wings":"X","pattern":"D","legs":"X"},"bonus":0.8800000000000004},{"rt":10640.700000017881,"stimulus":"bees-with-color/bee-B1SM.svg","response":0,"trial_type":"image-button-response","trial_index":136,"time_elapsed":1017185,"internal_node_id":"0.0-6.0-0.0","subject_id":"5fe602f729db954217db9aef","study_id":"6197b3f67c2b5cd3b6d9596a","session_id":"619be31d79a8fd8fd2cb96a2","condition":"contingent","relevant_dimensions":["antennae","pattern"],"bee_group":{"antennae":"B","wings":"X","pattern":"D","legs":"X"},"bonus":0.8800000000000004},{"rt":24776.30000001192,"stimulus":"bees-with-color/bee-A1SM.svg","response":0,"trial_type":"image-button-response","trial_index":137,"time_elapsed":1041963,"internal_node_id":"0.0-6.0-0.1","subject_id":"5fe602f729db954217db9aef","study_id":"6197b3f67c2b5cd3b6d9596a","session_id":"619be31d79a8fd8fd2cb96a2","condition":"contingent","relevant_dimensions":["antennae","pattern"],"bee_group":{"antennae":"B","wings":"X","pattern":"D","legs":"X"},"bonus":0.8800000000000004},{"rt":8833.299999982119,"stimulus":"bees-with-color/bee-A1DM.svg","response":0,"trial_type":"image-button-response","trial_index":138,"time_elapsed":1050798,"internal_node_id":"0.0-6.0-0.2","subject_id":"5fe602f729db954217db9aef","study_id":"6197b3f67c2b5cd3b6d9596a","session_id":"619be31d79a8fd8fd2cb96a2","condition":"contingent","relevant_dimensions":["antennae","pattern"],"bee_group":{"antennae":"B","wings":"X","pattern":"D","legs":"X"},"bonus":0.8800000000000004},{"rt":7159.5999999940395,"stimulus":"bees-with-color/bee-B2SM.svg","response":0,"trial_type":"image-button-response","trial_index":139,"time_elapsed":1057959,"internal_node_id":"0.0-6.0-0.3","subject_id":"5fe602f729db954217db9aef","study_id":"6197b3f67c2b5cd3b6d9596a","session_id":"619be31d79a8fd8fd2cb96a2","condition":"contingent","relevant_dimensions":["antennae","pattern"],"bee_group":{"antennae":"B","wings":"X","pattern":"D","legs":"X"},"bonus":0.8800000000000004},{"rt":11939.100000023842,"stimulus":"bees-with-color/bee-A1DF.svg","response":0,"trial_type":"image-button-response","trial_index":140,"time_elapsed":1069899,"internal_node_id":"0.0-6.0-0.4","subject_id":"5fe602f729db954217db9aef","study_id":"6197b3f67c2b5cd3b6d9596a","session_id":"619be31d79a8fd8fd2cb96a2","condition":"contingent","relevant_dimensions":["antennae","pattern"],"bee_group":{"antennae":"B","wings":"X","pattern":"D","legs":"X"},"bonus":0.8800000000000004},{"rt":10816.5,"stimulus":"bees-with-color/bee-B1DM.svg","response":1,"trial_type":"image-button-response","trial_index":141,"time_elapsed":1080718,"internal_node_id":"0.0-6.0-0.5","subject_id":"5fe602f729db954217db9aef","study_id":"6197b3f67c2b5cd3b6d9596a","session_id":"619be31d79a8fd8fd2cb96a2","condition":"contingent","relevant_dimensions":["antennae","pattern"],"bee_group":{"antennae":"B","wings":"X","pattern":"D","legs":"X"},"bonus":0.8800000000000004},{"rt":8980.200000017881,"stimulus":"bees-with-color/bee-B2DF.svg","response":1,"trial_type":"image-button-response","trial_index":142,"time_elapsed":1089700,"internal_node_id":"0.0-6.0-0.6","subject_id":"5fe602f729db954217db9aef","study_id":"6197b3f67c2b5cd3b6d9596a","session_id":"619be31d79a8fd8fd2cb96a2","condition":"contingent","relevant_dimensions":["antennae","pattern"],"bee_group":{"antennae":"B","wings":"X","pattern":"D","legs":"X"},"bonus":0.8800000000000004},{"rt":11236.699999988079,"stimulus":"bees-with-color/bee-A1SF.svg","response":0,"trial_type":"image-button-response","trial_index":143,"time_elapsed":1100938,"internal_node_id":"0.0-6.0-0.7","subject_id":"5fe602f729db954217db9aef","study_id":"6197b3f67c2b5cd3b6d9596a","session_id":"619be31d79a8fd8fd2cb96a2","condition":"contingent","relevant_dimensions":["antennae","pattern"],"bee_group":{"antennae":"B","wings":"X","pattern":"D","legs":"X"},"bonus":0.8800000000000004},{"rt":10284.5,"stimulus":"bees-with-color/bee-B2SF.svg","response":1,"trial_type":"image-button-response","trial_index":144,"time_elapsed":1111224,"internal_node_id":"0.0-6.0-0.8","subject_id":"5fe602f729db954217db9aef","study_id":"6197b3f67c2b5cd3b6d9596a","session_id":"619be31d79a8fd8fd2cb96a2","condition":"contingent","relevant_dimensions":["antennae","pattern"],"bee_group":{"antennae":"B","wings":"X","pattern":"D","legs":"X"},"bonus":0.8800000000000004},{"rt":8677.90000000596,"stimulus":"bees-with-color/bee-B2DM.svg","response":1,"trial_type":"image-button-response","trial_index":145,"time_elapsed":1119904,"internal_node_id":"0.0-6.0-0.9","subject_id":"5fe602f729db954217db9aef","study_id":"6197b3f67c2b5cd3b6d9596a","session_id":"619be31d79a8fd8fd2cb96a2","condition":"contingent","relevant_dimensions":["antennae","pattern"],"bee_group":{"antennae":"B","wings":"X","pattern":"D","legs":"X"},"bonus":0.8800000000000004},{"rt":6954.0999999940395,"stimulus":"bees-with-color/bee-B1DF.svg","response":1,"trial_type":"image-button-response","trial_index":146,"time_elapsed":1126860,"internal_node_id":"0.0-6.0-0.10","subject_id":"5fe602f729db954217db9aef","study_id":"6197b3f67c2b5cd3b6d9596a","session_id":"619be31d79a8fd8fd2cb96a2","condition":"contingent","relevant_dimensions":["antennae","pattern"],"bee_group":{"antennae":"B","wings":"X","pattern":"D","legs":"X"},"bonus":0.8800000000000004},{"rt":8671.200000017881,"stimulus":"bees-with-color/bee-A2DM.svg","response":0,"trial_type":"image-button-response","trial_index":147,"time_elapsed":1135533,"internal_node_id":"0.0-6.0-0.11","subject_id":"5fe602f729db954217db9aef","study_id":"6197b3f67c2b5cd3b6d9596a","session_id":"619be31d79a8fd8fd2cb96a2","condition":"contingent","relevant_dimensions":["antennae","pattern"],"bee_group":{"antennae":"B","wings":"X","pattern":"D","legs":"X"},"bonus":0.8800000000000004},{"rt":9905.5,"stimulus":"bees-with-color/bee-B1SF.svg","response":0,"trial_type":"image-button-response","trial_index":148,"time_elapsed":1145440,"internal_node_id":"0.0-6.0-0.12","subject_id":"5fe602f729db954217db9aef","study_id":"6197b3f67c2b5cd3b6d9596a","session_id":"619be31d79a8fd8fd2cb96a2","condition":"contingent","relevant_dimensions":["antennae","pattern"],"bee_group":{"antennae":"B","wings":"X","pattern":"D","legs":"X"},"bonus":0.8800000000000004},{"rt":7488.800000011921,"stimulus":"bees-with-color/bee-A2SF.svg","response":0,"trial_type":"image-button-response","trial_index":149,"time_elapsed":1152930,"internal_node_id":"0.0-6.0-0.13","subject_id":"5fe602f729db954217db9aef","study_id":"6197b3f67c2b5cd3b6d9596a","session_id":"619be31d79a8fd8fd2cb96a2","condition":"contingent","relevant_dimensions":["antennae","pattern"],"bee_group":{"antennae":"B","wings":"X","pattern":"D","legs":"X"},"bonus":0.8800000000000004},{"rt":21738.40000000596,"stimulus":"bees-with-color/bee-A2DF.svg","response":1,"trial_type":"image-button-response","trial_index":150,"time_elapsed":1174671,"internal_node_id":"0.0-6.0-0.14","subject_id":"5fe602f729db954217db9aef","study_id":"6197b3f67c2b5cd3b6d9596a","session_id":"619be31d79a8fd8fd2cb96a2","condition":"contingent","relevant_dimensions":["antennae","pattern"],"bee_group":{"antennae":"B","wings":"X","pattern":"D","legs":"X"},"bonus":0.8800000000000004},{"rt":10311,"stimulus":"bees-with-color/bee-A2SM.svg","response":0,"trial_type":"image-button-response","trial_index":151,"time_elapsed":1184983,"internal_node_id":"0.0-6.0-0.15","subject_id":"5fe602f729db954217db9aef","study_id":"6197b3f67c2b5cd3b6d9596a","session_id":"619be31d79a8fd8fd2cb96a2","condition":"contingent","relevant_dimensions":["antennae","pattern"],"bee_group":{"antennae":"B","wings":"X","pattern":"D","legs":"X"},"bonus":0.8800000000000004},{"rt":9586.199999988079,"stimulus":"bees-with-color/bee-A1DF.svg","response":0,"trial_type":"image-button-response","trial_index":152,"time_elapsed":1194570,"internal_node_id":"0.0-6.0-0.16","subject_id":"5fe602f729db954217db9aef","study_id":"6197b3f67c2b5cd3b6d9596a","session_id":"619be31d79a8fd8fd2cb96a2","condition":"contingent","relevant_dimensions":["antennae","pattern"],"bee_group":{"antennae":"B","wings":"X","pattern":"D","legs":"X"},"bonus":0.8800000000000004},{"rt":10215.800000011921,"stimulus":"bees-with-color/bee-B2DM.svg","response":1,"trial_type":"image-button-response","trial_index":153,"time_elapsed":1204787,"internal_node_id":"0.0-6.0-0.17","subject_id":"5fe602f729db954217db9aef","study_id":"6197b3f67c2b5cd3b6d9596a","session_id":"619be31d79a8fd8fd2cb96a2","condition":"contingent","relevant_dimensions":["antennae","pattern"],"bee_group":{"antennae":"B","wings":"X","pattern":"D","legs":"X"},"bonus":0.8800000000000004},{"rt":7976.0999999940395,"stimulus":"bees-with-color/bee-A1SF.svg","response":0,"trial_type":"image-button-response","trial_index":154,"time_elapsed":1212764,"internal_node_id":"0.0-6.0-0.18","subject_id":"5fe602f729db954217db9aef","study_id":"6197b3f67c2b5cd3b6d9596a","session_id":"619be31d79a8fd8fd2cb96a2","condition":"contingent","relevant_dimensions":["antennae","pattern"],"bee_group":{"antennae":"B","wings":"X","pattern":"D","legs":"X"},"bonus":0.8800000000000004},{"rt":11515.799999982119,"stimulus":"bees-with-color/bee-A2DM.svg","response":0,"trial_type":"image-button-response","trial_index":155,"time_elapsed":1224282,"internal_node_id":"0.0-6.0-0.19","subject_id":"5fe602f729db954217db9aef","study_id":"6197b3f67c2b5cd3b6d9596a","session_id":"619be31d79a8fd8fd2cb96a2","condition":"contingent","relevant_dimensions":["antennae","pattern"],"bee_group":{"antennae":"B","wings":"X","pattern":"D","legs":"X"},"bonus":0.8800000000000004},{"rt":10422.799999982119,"stimulus":"bees-with-color/bee-B2SF.svg","response":0,"trial_type":"image-button-response","trial_index":156,"time_elapsed":1234705,"internal_node_id":"0.0-6.0-0.20","subject_id":"5fe602f729db954217db9aef","study_id":"6197b3f67c2b5cd3b6d9596a","session_id":"619be31d79a8fd8fd2cb96a2","condition":"contingent","relevant_dimensions":["antennae","pattern"],"bee_group":{"antennae":"B","wings":"X","pattern":"D","legs":"X"},"bonus":0.8800000000000004},{"rt":15416.800000011921,"stimulus":"bees-with-color/bee-A1SM.svg","response":0,"trial_type":"image-button-response","trial_index":157,"time_elapsed":1250123,"internal_node_id":"0.0-6.0-0.21","subject_id":"5fe602f729db954217db9aef","study_id":"6197b3f67c2b5cd3b6d9596a","session_id":"619be31d79a8fd8fd2cb96a2","condition":"contingent","relevant_dimensions":["antennae","pattern"],"bee_group":{"antennae":"B","wings":"X","pattern":"D","legs":"X"},"bonus":0.8800000000000004},{"rt":10739.799999982119,"stimulus":"bees-with-color/bee-A1DM.svg","response":0,"trial_type":"image-button-response","trial_index":158,"time_elapsed":1260864,"internal_node_id":"0.0-6.0-0.22","subject_id":"5fe602f729db954217db9aef","study_id":"6197b3f67c2b5cd3b6d9596a","session_id":"619be31d79a8fd8fd2cb96a2","condition":"contingent","relevant_dimensions":["antennae","pattern"],"bee_group":{"antennae":"B","wings":"X","pattern":"D","legs":"X"},"bonus":0.8800000000000004},{"rt":12737.90000000596,"stimulus":"bees-with-color/bee-B1DF.svg","response":1,"trial_type":"image-button-response","trial_index":159,"time_elapsed":1273603,"internal_node_id":"0.0-6.0-0.23","subject_id":"5fe602f729db954217db9aef","study_id":"6197b3f67c2b5cd3b6d9596a","session_id":"619be31d79a8fd8fd2cb