[{"success":true,"trial_type":"fullscreen","trial_index":0,"time_elapsed":27378,"internal_node_id":"0.0-0.0","subject_id":"60feaca2d504b502493dcf5b","study_id":"6197b3f67c2b5cd3b6d9596a","session_id":"6197b9e6f073b53ee3a215bd","condition":"contingent","relevant_dimensions":["pattern","legs"],"bee_group":{"antennae":"X","wings":"X","pattern":"D","legs":"M"},"bonus":1.4000000000000008},{"success":true,"timeout":false,"failed_images":[],"failed_audio":[],"failed_video":[],"trial_type":"preload","trial_index":1,"time_elapsed":29133,"internal_node_id":"0.0-1.0","subject_id":"60feaca2d504b502493dcf5b","study_id":"6197b3f67c2b5cd3b6d9596a","session_id":"6197b9e6f073b53ee3a215bd","condition":"contingent","relevant_dimensions":["pattern","legs"],"bee_group":{"antennae":"X","wings":"X","pattern":"D","legs":"M"},"bonus":1.4000000000000008},{"rt":3228.899999976158,"stimulus":"Welcome! Press any key to begin.","response":" ","trial_type":"html-keyboard-response","trial_index":2,"time_elapsed":32364,"internal_node_id":"0.0-2.0","subject_id":"60feaca2d504b502493dcf5b","study_id":"6197b3f67c2b5cd3b6d9596a","session_id":"6197b9e6f073b53ee3a215bd","condition":"contingent","relevant_dimensions":["pattern","legs"],"bee_group":{"antennae":"X","wings":"X","pattern":"D","legs":"M"},"bonus":1.4000000000000008},{"view_history":[{"page_index":0,"viewing_time":4999.5},{"page_index":1,"viewing_time":14919.699999928474},{"page_index":2,"viewing_time":15623.900000095367},{"page_index":3,"viewing_time":14848},{"page_index":4,"viewing_time":7743.399999976158},{"page_index":5,"viewing_time":7840.399999976158},{"page_index":6,"viewing_time":10439.899999976158},{"page_index":7,"viewing_time":7712},{"page_index":6,"viewing_time":2167.899999976158},{"page_index":7,"viewing_time":5743.900000095367},{"page_index":8,"viewing_time":8208.099999904633},{"page_index":9,"viewing_time":6631.900000095367},{"page_index":10,"viewing_time":8783.899999976158},{"page_index":11,"viewing_time":9967.899999976158},{"page_index":12,"viewing_time":12927.899999976158},{"page_index":13,"viewing_time":1383.6000000238419},{"page_index":14,"viewing_time":2408.2999999523163}],"rt":142351.10000002384,"trial_type":"instructions","trial_index":3,"time_elapsed":174717,"internal_node_id":"0.0-3.0-0.0","subject_id":"60feaca2d504b502493dcf5b","study_id":"6197b3f67c2b5cd3b6d9596a","session_id":"6197b9e6f073b53ee3a215bd","condition":"contingent","relevant_dimensions":["pattern","legs"],"bee_group":{"antennae":"X","wings":"X","pattern":"D","legs":"M"},"bonus":1.4000000000000008},{"rt":18257.5,"response":{"Q0":["Two or six legs","Stripes or spots on body","Single or double wings","Antennae or no antennae"]},"question_order":[0],"trial_type":"survey-multi-select","trial_index":4,"time_elapsed":192990,"internal_node_id":"0.0-3.0-1.0","subject_id":"60feaca2d504b502493dcf5b","study_id":"6197b3f67c2b5cd3b6d9596a","session_id":"6197b9e6f073b53ee3a215bd","condition":"contingent","relevant_dimensions":["pattern","legs"],"bee_group":{"antennae":"X","wings":"X","pattern":"D","legs":"M"},"correct":true,"bonus":1.4000000000000008},{"rt":30884,"response":{"Q1":"No.","Q2":"Based on the four features of the bee.","Q3":"You do not learn if it was friendly or dangerous, and do not alter your bonus."},"question_order":[0,1,2],"trial_type":"survey-multi-choice","trial_index":5,"time_elapsed":223878,"internal_node_id":"0.0-3.0-2.0","subject_id":"60feaca2d504b502493dcf5b","study_id":"6197b3f67c2b5cd3b6d9596a","session_id":"6197b9e6f073b53ee3a215bd","condition":"contingent","relevant_dimensions":["pattern","legs"],"bee_group":{"antennae":"X","wings":"X","pattern":"D","legs":"M"},"correct":true,"bonus":1.4000000000000008},{"rt":4284.399999976158,"stimulus":"<p>Congrats, you got everything right<br>When you're ready, click the button below to continue to the experiment.</p>","response":0,"trial_type":"html-button-response","trial_index":6,"time_elapsed":228166,"internal_node_id":"0.0-3.0-3.0","subject_id":"60feaca2d504b502493dcf5b","study_id":"6197b3f67c2b5cd3b6d9596a","session_id":"6197b9e6f073b53ee3a215bd","condition":"contingent","relevant_dimensions":["pattern","legs"],"bee_group":{"antennae":"X","wings":"X","pattern":"D","legs":"M"},"bonus":1.4000000000000008},{"rt":9746.5,"stimulus":"bees-with-color/bee-B1DF.svg","response":0,"trial_type":"image-button-response","trial_index":7,"time_elapsed":237917,"internal_node_id":"0.0-4.0-0.0","subject_id":"60feaca2d504b502493dcf5b","study_id":"6197b3f67c2b5cd3b6d9596a","session_id":"6197b9e6f073b53ee3a215bd","condition":"contingent","relevant_dimensions":["pattern","legs"],"bee_group":{"antennae":"X","wings":"X","pattern":"D","legs":"M"},"action":"harvest","summary":"good-harvest","bonus":1.4000000000000008},{"rt":8434.199999928474,"stimulus":"\n                    <p><b>Action: <em>harvest</em></b></p>\n                    <p>This is the bee that you just saw.</p>\n                    <img src=\"bees-with-color/bee-B1DF.svg\" width=\"200\">\n                    <p><span class=\"greenText\"><b>Successful harvest!</b></span><br>Your pay has increased by $0.02. Your bonus pay is now $0.56.</p>\n            ","response":0,"trial_type":"html-button-response","trial_index":8,"time_elapsed":246356,"internal_node_id":"0.0-4.0-1.0","subject_id":"60feaca2d504b502493dcf5b","study_id":"6197b3f67c2b5cd3b6d9596a","session_id":"6197b9e6f073b53ee3a215bd","condition":"contingent","relevant_dimensions":["pattern","legs"],"bee_group":{"antennae":"X","wings":"X","pattern":"D","legs":"M"},"bonus":1.4000000000000008},{"rt":2980.600000023842,"stimulus":"bees-with-color/bee-A1SF.svg","response":0,"trial_type":"image-button-response","trial_index":9,"time_elapsed":249340,"internal_node_id":"0.0-4.0-0.1","subject_id":"60feaca2d504b502493dcf5b","study_id":"6197b3f67c2b5cd3b6d9596a","session_id":"6197b9e6f073b53ee3a215bd","condition":"contingent","relevant_dimensions":["pattern","legs"],"bee_group":{"antennae":"X","wings":"X","pattern":"D","legs":"M"},"action":"harvest","summary":"good-harvest","bonus":1.4000000000000008},{"rt":1500.6999999284744,"stimulus":"\n                    <p><b>Action: <em>harvest</em></b></p>\n                    <p>This is the bee that you just saw.</p>\n                    <img src=\"bees-with-color/bee-A1SF.svg\" width=\"200\">\n                    <p><span class=\"greenText\"><b>Successful harvest!</b></span><br>Your pay has increased by $0.02. Your bonus pay is now $0.58.</p>\n            ","response":0,"trial_type":"html-button-response","trial_index":10,"time_elapsed":250844,"internal_node_id":"0.0-4.0-1.1","subject_id":"60feaca2d504b502493dcf5b","study_id":"6197b3f67c2b5cd3b6d9596a","session_id":"6197b9e6f073b53ee3a215bd","condition":"contingent","relevant_dimensions":["pattern","legs"],"bee_group":{"antennae":"X","wings":"X","pattern":"D","legs":"M"},"bonus":1.4000000000000008},{"rt":2636.899999976158,"stimulus":"bees-with-color/bee-A2SF.svg","response":0,"trial_type":"image-button-response","trial_index":11,"time_elapsed":253484,"internal_node_id":"0.0-4.0-0.2","subject_id":"60feaca2d504b502493dcf5b","study_id":"6197b3f67c2b5cd3b6d9596a","session_id":"6197b9e6f073b53ee3a215bd","condition":"contingent","relevant_dimensions":["pattern","legs"],"bee_group":{"antennae":"X","wings":"X","pattern":"D","legs":"M"},"action":"harvest","summary":"good-harvest","bonus":1.4000000000000008},{"rt":4173.699999928474,"stimulus":"\n                    <p><b>Action: <em>harvest</em></b></p>\n                    <p>This is the bee that you just saw.</p>\n                    <img src=\"bees-with-color/bee-A2SF.svg\" width=\"200\">\n                    <p><span class=\"greenText\"><b>Successful harvest!</b></span><br>Your pay has increased by $0.02. Your bonus pay is now $0.60.</p>\n            ","response":0,"trial_type":"html-button-response","trial_index":12,"time_elapsed":257660,"internal_node_id":"0.0-4.0-1.2","subject_id":"60feaca2d504b502493dcf5b","study_id":"6197b3f67c2b5cd3b6d9596a","session_id":"6197b9e6f073b53ee3a215bd","condition":"contingent","relevant_dimensions":["pattern","legs"],"bee_group":{"antennae":"X","wings":"X","pattern":"D","legs":"M"},"bonus":1.4000000000000008},{"rt":4765.299999952316,"stimulus":"bees-with-color/bee-B1DM.svg","response":0,"trial_type":"image-button-response","trial_index":13,"time_elapsed":262428,"internal_node_id":"0.0-4.0-0.3","subject_id":"60feaca2d504b502493dcf5b","study_id":"6197b3f67c2b5cd3b6d9596a","session_id":"6197b9e6f073b53ee3a215bd","condition":"contingent","relevant_dimensions":["pattern","legs"],"bee_group":{"antennae":"X","wings":"X","pattern":"D","legs":"M"},"action":"harvest","summary":"bad-harvest","bonus":1.4000000000000008},{"rt":1189.2000000476837,"stimulus":"\n                    <p><b>Action: <em>harvest</em></b></p>\n                    <p>This is the bee that you just saw.</p>\n                    <img src=\"bees-with-color/bee-B1DM.svg\" width=\"200\">\n                    <p><span class=\"redText\">Bad choice, the bee was angry.</span><br><b>You have been stung!</b><br>Your pay has been decreased by $0.10. Your bonus pay is now $0.50.</p>\n            ","response":0,"trial_type":"html-button-response","trial_index":14,"time_elapsed":263620,"internal_node_id":"0.0-4.0-1.3","subject_id":"60feaca2d504b502493dcf5b","study_id":"6197b3f67c2b5cd3b6d9596a","session_id":"6197b9e6f073b53ee3a215bd","condition":"contingent","relevant_dimensions":["pattern","legs"],"bee_group":{"antennae":"X","wings":"X","pattern":"D","legs":"M"},"bonus":1.4000000000000008},{"rt":1741.0999999046326,"stimulus":"bees-with-color/bee-B2SM.svg","response":1,"trial_type":"image-button-response","trial_index":15,"time_elapsed":265364,"internal_node_id":"0.0-4.0-0.4","subject_id":"60feaca2d504b502493dcf5b","study_id":"6197b3f67c2b5cd3b6d9596a","session_id":"6197b9e6f073b53ee3a215bd","condition":"contingent","relevant_dimensions":["pattern","legs"],"bee_group":{"antennae":"X","wings":"X","pattern":"D","legs":"M"},"action":"avoid","summary":"bad-avoid","bonus":1.4000000000000008},{"rt":2637.3000000715256,"stimulus":"\n                    <p><b>Action: <em>avoid</em></b></p>\n                    <p>This is the bee that you just saw.</p>\n                    <img src=\"bees-with-color/bee-B2SM.svg\" width=\"200\">\n                    <p><br>Your bonus pay is unchanged, and remains at $0.50.</p>\n            ","response":0,"trial_type":"html-button-response","trial_index":16,"time_elapsed":268004,"internal_node_id":"0.0-4.0-1.4","subject_id":"60feaca2d504b502493dcf5b","study_id":"6197b3f67c2b5cd3b6d9596a","session_id":"6197b9e6f073b53ee3a215bd","condition":"contingent","relevant_dimensions":["pattern","legs"],"bee_group":{"antennae":"X","wings":"X","pattern":"D","legs":"M"},"bonus":1.4000000000000008},{"rt":2565.2999999523163,"stimulus":"bees-with-color/bee-A2DM.svg","response":1,"trial_type":"image-button-response","trial_index":17,"time_elapsed":270572,"internal_node_id":"0.0-4.0-0.5","subject_id":"60feaca2d504b502493dcf5b","study_id":"6197b3f67c2b5cd3b6d9596a","session_id":"6197b9e6f073b53ee3a215bd","condition":"contingent","relevant_dimensions":["pattern","legs"],"bee_group":{"antennae":"X","wings":"X","pattern":"D","legs":"M"},"action":"avoid","summary":"good-avoid","bonus":1.4000000000000008},{"rt":989.5999999046326,"stimulus":"\n                    <p><b>Action: <em>avoid</em></b></p>\n                    <p>This is the bee that you just saw.</p>\n                    <img src=\"bees-with-color/bee-A2DM.svg\" width=\"200\">\n                    <p><br>Your bonus pay is unchanged, and remains at $0.50.</p>\n            ","response":0,"trial_type":"html-button-response","trial_index":18,"time_elapsed":271564,"internal_node_id":"0.0-4.0-1.5","subject_id":"60feaca2d504b502493dcf5b","study_id":"6197b3f67c2b5cd3b6d9596a","session_id":"6197b9e6f073b53ee3a215bd","condition":"contingent","relevant_dimensions":["pattern","legs"],"bee_group":{"antennae":"X","wings":"X","pattern":"D","legs":"M"},"bonus":1.4000000000000008},{"rt":1124.7000000476837,"stimulus":"bees-with-color/bee-B1SF.svg","response":0,"trial_type":"image-button-response","trial_index":19,"time_elapsed":272692,"internal_node_id":"0.0-4.0-0.6","subject_id":"60feaca2d504b502493dcf5b","study_id":"6197b3f67c2b5cd3b6d9596a","session_id":"6197b9e6f073b53ee3a215bd","condition":"contingent","relevant_dimensions":["pattern","legs"],"bee_group":{"antennae":"X","wings":"X","pattern":"D","legs":"M"},"action":"harvest","summary":"good-harvest","bonus":1.4000000000000008},{"rt":957.2999999523163,"stimulus":"\n                    <p><b>Action: <em>harvest</em></b></p>\n                    <p>This is the bee that you just saw.</p>\n                    <img src=\"bees-with-color/bee-B1SF.svg\" width=\"200\">\n                    <p><span class=\"greenText\"><b>Successful harvest!</b></span><br>Your pay has increased by $0.02. Your bonus pay is now $0.52.</p>\n            ","response":0,"trial_type":"html-button-response","trial_index":20,"time_elapsed":273652,"internal_node_id":"0.0-4.0-1.6","subject_id":"60feaca2d504b502493dcf5b","study_id":"6197b3f67c2b5cd3b6d9596a","session_id":"6197b9e6f073b53ee3a215bd","condition":"contingent","relevant_dimensions":["pattern","legs"],"bee_group":{"antennae":"X","wings":"X","pattern":"D","legs":"M"},"bonus":1.4000000000000008},{"rt":1358.1000000238419,"stimulus":"bees-with-color/bee-A2DF.svg","response":0,"trial_type":"image-button-response","trial_index":21,"time_elapsed":275012,"internal_node_id":"0.0-4.0-0.7","subject_id":"60feaca2d504b502493dcf5b","study_id":"6197b3f67c2b5cd3b6d9596a","session_id":"6197b9e6f073b53ee3a215bd","condition":"contingent","relevant_dimensions":["pattern","legs"],"bee_group":{"antennae":"X","wings":"X","pattern":"D","legs":"M"},"action":"harvest","summary":"good-harvest","bonus":1.4000000000000008},{"rt":1021.1000000238419,"stimulus":"\n                    <p><b>Action: <em>harvest</em></b></p>\n                    <p>This is the bee that you just saw.</p>\n                    <img src=\"bees-with-color/bee-A2DF.svg\" width=\"200\">\n                    <p><span class=\"greenText\"><b>Successful harvest!</b></span><br>Your pay has increased by $0.02. Your bonus pay is now $0.54.</p>\n            ","response":0,"trial_type":"html-button-response","trial_index":22,"time_elapsed":276036,"internal_node_id":"0.0-4.0-1.7","subject_id":"60feaca2d504b502493dcf5b","study_id":"6197b3f67c2b5cd3b6d9596a","session_id":"6197b9e6f073b53ee3a215bd","condition":"contingent","relevant_dimensions":["pattern","legs"],"bee_group":{"antennae":"X","wings":"X","pattern":"D","legs":"M"},"bonus":1.4000000000000008},{"rt":1244.6000000238419,"stimulus":"bees-with-color/bee-B1SM.svg","response":1,"trial_type":"image-button-response","trial_index":23,"time_elapsed":277284,"internal_node_id":"0.0-4.0-0.8","subject_id":"60feaca2d504b502493dcf5b","study_id":"6197b3f67c2b5cd3b6d9596a","session_id":"6197b9e6f073b53ee3a215bd","condition":"contingent","relevant_dimensions":["pattern","legs"],"bee_group":{"antennae":"X","wings":"X","pattern":"D","legs":"M"},"action":"avoid","summary":"bad-avoid","bonus":1.4000000000000008},{"rt":862,"stimulus":"\n                    <p><b>Action: <em>avoid</em></b></p>\n                    <p>This is the bee that you just saw.</p>\n                    <img src=\"bees-with-color/bee-B1SM.svg\" width=\"200\">\n                    <p><br>Your bonus pay is unchanged, and remains at $0.54.</p>\n            ","response":0,"trial_type":"html-button-response","trial_index":24,"time_elapsed":278148,"internal_node_id":"0.0-4.0-1.8","subject_id":"60feaca2d504b502493dcf5b","study_id":"6197b3f67c2b5cd3b6d9596a","session_id":"6197b9e6f073b53ee3a215bd","condition":"contingent","relevant_dimensions":["pattern","legs"],"bee_group":{"antennae":"X","wings":"X","pattern":"D","legs":"M"},"bonus":1.4000000000000008},{"rt":1061.6000000238419,"stimulus":"bees-with-color/bee-A1DF.svg","response":0,"trial_type":"image-button-response","trial_index":25,"time_elapsed":279212,"internal_node_id":"0.0-4.0-0.9","subject_id":"60feaca2d504b502493dcf5b","study_id":"6197b3f67c2b5cd3b6d9596a","session_id":"6197b9e6f073b53ee3a215bd","condition":"contingent","relevant_dimensions":["pattern","legs"],"bee_group":{"antennae":"X","wings":"X","pattern":"D","legs":"M"},"action":"harvest","summary":"good-harvest","bonus":1.4000000000000008},{"rt":717.2000000476837,"stimulus":"\n                    <p><b>Action: <em>harvest</em></b></p>\n                    <p>This is the bee that you just saw.</p>\n                    <img src=\"bees-with-color/bee-A1DF.svg\" width=\"200\">\n                    <p><span class=\"greenText\"><b>Successful harvest!</b></span><br>Your pay has increased by $0.02. Your bonus pay is now $0.56.</p>\n            ","response":0,"trial_type":"html-button-response","trial_index":26,"time_elapsed":279932,"internal_node_id":"0.0-4.0-1.9","subject_id":"60feaca2d504b502493dcf5b","study_id":"6197b3f67c2b5cd3b6d9596a","session_id":"6197b9e6f073b53ee3a215bd","condition":"contingent","relevant_dimensions":["pattern","legs"],"bee_group":{"antennae":"X","wings":"X","pattern":"D","legs":"M"},"bonus":1.4000000000000008},{"rt":1165.9000000953674,"stimulus":"bees-with-color/bee-B2SF.svg","response":0,"trial_type":"image-button-response","trial_index":27,"time_elapsed":281100,"internal_node_id":"0.0-4.0-0.10","subject_id":"60feaca2d504b502493dcf5b","study_id":"6197b3f67c2b5cd3b6d9596a","session_id":"6197b9e6f073b53ee3a215bd","condition":"contingent","relevant_dimensions":["pattern","legs"],"bee_group":{"antennae":"X","wings":"X","pattern":"D","legs":"M"},"action":"harvest","summary":"good-harvest","bonus":1.4000000000000008},{"rt":653.1000000238419,"stimulus":"\n                    <p><b>Action: <em>harvest</em></b></p>\n                    <p>This is the bee that you just saw.</p>\n                    <img src=\"bees-with-color/bee-B2SF.svg\" width=\"200\">\n                    <p><span class=\"greenText\"><b>Successful harvest!</b></span><br>Your pay has increased by $0.02. Your bonus pay is now $0.58.</p>\n            ","response":0,"trial_type":"html-button-response","trial_index":28,"time_elapsed":281756,"internal_node_id":"0.0-4.0-1.10","subject_id":"60feaca2d504b502493dcf5b","study_id":"6197b3f67c2b5cd3b6d9596a","session_id":"6197b9e6f073b53ee3a215bd","condition":"contingent","relevant_dimensions":["pattern","legs"],"bee_group":{"antennae":"X","wings":"X","pattern":"D","legs":"M"},"bonus":1.4000000000000008},{"rt":941.5,"stimulus":"bees-with-color/bee-A1SM.svg","response":1,"trial_type":"image-button-response","trial_index":29,"time_elapsed":282700,"internal_node_id":"0.0-4.0-0.11","subject_id":"60feaca2d504b502493dcf5b","study_id":"6197b3f67c2b5cd3b6d9596a","session_id":"6197b9e6f073b53ee3a215bd","condition":"contingent","relevant_dimensions":["pattern","legs"],"bee_group":{"antennae":"X","wings":"X","pattern":"D","legs":"M"},"action":"avoid","summary":"bad-avoid","bonus":1.4000000000000008},{"rt":1453.3000000715256,"stimulus":"\n                    <p><b>Action: <em>avoid</em></b></p>\n                    <p>This is the bee that you just saw.</p>\n                    <img src=\"bees-with-color/bee-A1SM.svg\" width=\"200\">\n                    <p><br>Your bonus pay is unchanged, and remains at $0.58.</p>\n            ","response":0,"trial_type":"html-button-response","trial_index":30,"time_elapsed":284156,"internal_node_id":"0.0-4.0-1.11","subject_id":"60feaca2d504b502493dcf5b","study_id":"6197b3f67c2b5cd3b6d9596a","session_id":"6197b9e6f073b53ee3a215bd","condition":"contingent","relevant_dimensions":["pattern","legs"],"bee_group":{"antennae":"X","wings":"X","pattern":"D","legs":"M"},"bonus":1.4000000000000008},{"rt":1093.5,"stimulus":"bees-with-color/bee-A2SM.svg","response":1,"trial_type":"image-button-response","trial_index":31,"time_elapsed":285252,"internal_node_id":"0.0-4.0-0.12","subject_id":"60feaca2d504b502493dcf5b","study_id":"6197b3f67c2b5cd3b6d9596a","session_id":"6197b9e6f073b53ee3a215bd","condition":"contingent","relevant_dimensions":["pattern","legs"],"bee_group":{"antennae":"X","wings":"X","pattern":"D","legs":"M"},"action":"avoid","summary":"bad-avoid","bonus":1.4000000000000008},{"rt":917.3000000715256,"stimulus":"\n                    <p><b>Action: <em>avoid</em></b></p>\n                    <p>This is the bee that you just saw.</p>\n                    <img src=\"bees-with-color/bee-A2SM.svg\" width=\"200\">\n                    <p><br>Your bonus pay is unchanged, and remains at $0.58.</p>\n            ","response":0,"trial_type":"html-button-response","trial_index":32,"time_elapsed":286172,"internal_node_id":"0.0-4.0-1.12","subject_id":"60feaca2d504b502493dcf5b","study_id":"6197b3f67c2b5cd3b6d9596a","session_id":"6197b9e6f073b53ee3a215bd","condition":"contingent","relevant_dimensions":["pattern","legs"],"bee_group":{"antennae":"X","wings":"X","pattern":"D","legs":"M"},"bonus":1.4000000000000008},{"rt":829.6000000238419,"stimulus":"bees-with-color/bee-B2DM.svg","response":1,"trial_type":"image-button-response","trial_index":33,"time_elapsed":287004,"internal_node_id":"0.0-4.0-0.13","subject_id":"60feaca2d504b502493dcf5b","study_id":"6197b3f67c2b5cd3b6d9596a","session_id":"6197b9e6f073b53ee3a215bd","condition":"contingent","relevant_dimensions":["pattern","legs"],"bee_group":{"antennae":"X","wings":"X","pattern":"D","legs":"M"},"action":"avoid","summary":"good-avoid","bonus":1.4000000000000008},{"rt":693.2000000476837,"stimulus":"\n                    <p><b>Action: <em>avoid</em></b></p>\n                    <p>This is the bee that you just saw.</p>\n                    <img src=\"bees-with-color/bee-B2DM.svg\" width=\"200\">\n                    <p><br>Your bonus pay is unchanged, and remains at $0.58.</p>\n            ","response":0,"trial_type":"html-button-response","trial_index":34,"time_elapsed":287700,"internal_node_id":"0.0-4.0-1.13","subject_id":"60feaca2d504b502493dcf5b","study_id":"6197b3f67c2b5cd3b6d9596a","session_id":"6197b9e6f073b53ee3a215bd","condition":"contingent","relevant_dimensions":["pattern","legs"],"bee_group":{"antennae":"X","wings":"X","pattern":"D","legs":"M"},"bonus":1.4000000000000008},{"rt":749.5,"stimulus":"bees-with-color/bee-A1DM.svg","response":1,"trial_type":"image-button-response","trial_index":35,"time_elapsed":288452,"internal_node_id":"0.0-4.0-0.14","subject_id":"60feaca2d504b502493dcf5b","study_id":"6197b3f67c2b5cd3b6d9596a","session_id":"6197b9e6f073b53ee3a215bd","condition":"contingent","relevant_dimensions":["pattern","legs"],"bee_group":{"antennae":"X","wings":"X","pattern":"D","legs":"M"},"action":"avoid","summary":"good-avoid","bonus":1.4000000000000008},{"rt":661.2000000476837,"stimulus":"\n                    <p><b>Action: <em>avoid</em></b></p>\n                    <p>This is the bee that you just saw.</p>\n                    <img src=\"bees-with-color/bee-A1DM.svg\" width=\"200\">\n                    <p><br>Your bonus pay is unchanged, and remains at $0.58.</p>\n            ","response":0,"trial_type":"html-button-response","trial_index":36,"time_elapsed":289116,"internal_node_id":"0.0-4.0-1.14","subject_id":"60feaca2d504b502493dcf5b","study_id":"6197b3f67c2b5cd3b6d9596a","session_id":"6197b9e6f073b53ee3a215bd","condition":"contingent","relevant_dimensions":["pattern","legs"],"bee_group":{"antennae":"X","wings":"X","pattern":"D","legs":"M"},"bonus":1.4000000000000008},{"rt":789.6000000238419,"stimulus":"bees-with-color/bee-B2DF.svg","response":0,"trial_type":"image-button-response","trial_index":37,"time_elapsed":289908,"internal_node_id":"0.0-4.0-0.15","subject_id":"60feaca2d504b502493dcf5b","study_id":"6197b3f67c2b5cd3b6d9596a","session_id":"6197b9e6f073b53ee3a215bd","condition":"contingent","relevant_dimensions":["pattern","legs"],"bee_group":{"antennae":"X","wings":"X","pattern":"D","legs":"M"},"action":"harvest","summary":"good-harvest","bonus":1.4000000000000008},{"rt":660.8999999761581,"stimulus":"\n                    <p><b>Action: <em>harvest</em></b></p>\n                    <p>This is the bee that you just saw.</p>\n                    <img src=\"bees-with-color/bee-B2DF.svg\" width=\"200\">\n                    <p><span class=\"greenText\"><b>Successful harvest!</b></span><br>Your pay has increased by $0.02. Your bonus pay is now $0.60.</p>\n            ","response":0,"trial_type":"html-button-response","trial_index":38,"time_elapsed":290572,"internal_node_id":"0.0-4.0-1.15","subject_id":"60feaca2d504b502493dcf5b","study_id":"6197b3f67c2b5cd3b6d9596a","session_id":"6197b9e6f073b53ee3a215bd","condition":"contingent","relevant_dimensions":["pattern","legs"],"bee_group":{"antennae":"X","wings":"X","pattern":"D","legs":"M"},"bonus":1.4000000000000008},{"rt":845.6000000238419,"stimulus":"bees-with-color/bee-A1SF.svg","response":0,"trial_type":"image-button-response","trial_index":39,"time_elapsed":291420,"internal_node_id":"0.0-4.0-0.16","subject_id":"60feaca2d504b502493dcf5b","study_id":"6197b3f67c2b5cd3b6d9596a","session_id":"6197b9e6f073b53ee3a215bd","condition":"contingent","relevant_dimensions":["pattern","legs"],"bee_group":{"antennae":"X","wings":"X","pattern":"D","legs":"M"},"action":"harvest","summary":"good-harvest","bonus":1.4000000000000008},{"rt":957.1000000238419,"stimulus":"\n                    <p><b>Action: <em>harvest</em></b></p>\n                    <p>This is the bee that you just saw.</p>\n                    <img src=\"bees-with-color/bee-A1SF.svg\" width=\"200\">\n                    <p><span class=\"greenText\"><b>Successful harvest!</b></span><br>Your pay has increased by $0.02. Your bonus pay is now $0.62.</p>\n            ","response":0,"trial_type":"html-button-response","trial_index":40,"time_elapsed":292380,"internal_node_id":"0.0-4.0-1.16","subject_id":"60feaca2d504b502493dcf5b","study_id":"6197b3f67c2b5cd3b6d9596a","session_id":"6197b9e6f073b53ee3a215bd","condition":"contingent","relevant_dimensions":["pattern","legs"],"bee_group":{"antennae":"X","wings":"X","pattern":"D","legs":"M"},"bonus":1.4000000000000008},{"rt":941.6000000238419,"stimulus":"bees-with-color/bee-A2SM.svg","response":1,"trial_type":"image-button-response","trial_index":41,"time_elapsed":293324,"internal_node_id":"0.0-4.0-0.17","subject_id":"60feaca2d504b502493dcf5b","study_id":"6197b3f67c2b5cd3b6d9596a","session_id":"6197b9e6f073b53ee3a215bd","condition":"contingent","relevant_dimensions":["pattern","legs"],"bee_group":{"antennae":"X","wings":"X","pattern":"D","legs":"M"},"action":"avoid","summary":"bad-avoid","bonus":1.4000000000000008},{"rt":733,"stimulus":"\n                    <p><b>Action: <em>avoid</em></b></p>\n                    <p>This is the bee that you just saw.</p>\n                    <img src=\"bees-with-color/bee-A2SM.svg\" width=\"200\">\n                    <p><br>Your bonus pay is unchanged, and remains at $0.62.</p>\n            ","response":0,"trial_type":"html-button-response","trial_index":42,"time_elapsed":294060,"internal_node_id":"0.0-4.0-1.17","subject_id":"60feaca2d504b502493dcf5b","study_id":"6197b3f67c2b5cd3b6d9596a","session_id":"6197b9e6f073b53ee3a215bd","condition":"contingent","relevant_dimensions":["pattern","legs"],"bee_group":{"antennae":"X","wings":"X","pattern":"D","legs":"M"},"bonus":1.4000000000000008},{"rt":997.3999999761581,"stimulus":"bees-with-color/bee-A1SM.svg","response":1,"trial_type":"image-button-response","trial_index":43,"time_elapsed":295060,"internal_node_id":"0.0-4.0-0.18","subject_id":"60feaca2d504b502493dcf5b","study_id":"6197b3f67c2b5cd3b6d9596a","session_id":"6197b9e6f073b53ee3a215bd","condition":"contingent","relevant_dimensions":["pattern","legs"],"bee_group":{"antennae":"X","wings":"X","pattern":"D","legs":"M"},"action":"avoid","summary":"bad-avoid","bonus":1.4000000000000008},{"rt":660.8999999761581,"stimulus":"\n                    <p><b>Action: <em>avoid</em></b></p>\n                    <p>This is the bee that you just saw.</p>\n                    <img src=\"bees-with-color/bee-A1SM.svg\" width=\"200\">\n                    <p><br>Your bonus pay is unchanged, and remains at $0.62.</p>\n            ","response":0,"trial_type":"html-button-response","trial_index":44,"time_elapsed":295724,"internal_node_id":"0.0-4.0-1.18","subject_id":"60feaca2d504b502493dcf5b","study_id":"6197b3f67c2b5cd3b6d9596a","session_id":"6197b9e6f073b53ee3a215bd","condition":"contingent","relevant_dimensions":["pattern","legs"],"bee_group":{"antennae":"X","wings":"X","pattern":"D","legs":"M"},"bonus":1.4000000000000008},{"rt":782.2000000476837,"stimulus":"bees-with-color/bee-A1DM.svg","response":1,"trial_type":"image-button-response","trial_index":45,"time_elapsed":296508,"internal_node_id":"0.0-4.0-0.19","subject_id":"60feaca2d504b502493dcf5b","study_id":"6197b3f67c2b5cd3b6d9596a","session_id":"6197b9e6f073b53ee3a215bd","condition":"contingent","relevant_dimensions":["pattern","legs"],"bee_group":{"antennae":"X","wings":"X","pattern":"D","legs":"M"},"action":"avoid","summary":"good-avoid","bonus":1.4000000000000008},{"rt":645.2000000476837,"stimulus":"\n                    <p><b>Action: <em>avoid</em></b></p>\n                    <p>This is the bee that you just saw.</p>\n                    <img src=\"bees-with-color/bee-A1DM.svg\" width=\"200\">\n                    <p><br>Your bonus pay is unchanged, and remains at $0.62.</p>\n            ","response":0,"trial_type":"html-button-response","trial_index":46,"time_elapsed":297156,"internal_node_id":"0.0-4.0-1.19","subject_id":"60feaca2d504b502493dcf5b","study_id":"6197b3f67c2b5cd3b6d9596a","session_id":"6197b9e6f073b53ee3a215bd","condition":"contingent","relevant_dimensions":["pattern","legs"],"bee_group":{"antennae":"X","wings":"X","pattern":"D","legs":"M"},"bonus":1.4000000000000008},{"rt":774,"stimulus":"bees-with-color/bee-B1SF.svg","response":0,"trial_type":"image-button-response","trial_index":47,"time_elapsed":297932,"internal_node_id":"0.0-4.0-0.20","subject_id":"60feaca2d504b502493dcf5b","study_id":"6197b3f67c2b5cd3b6d9596a","session_id":"6197b9e6f073b53ee3a215bd","condition":"contingent","relevant_dimensions":["pattern","legs"],"bee_group":{"antennae":"X","wings":"X","pattern":"D","legs":"M"},"action":"harvest","summary":"good-harvest","bonus":1.4000000000000008},{"rt":661.8999999761581,"stimulus":"\n                    <p><b>Action: <em>harvest</em></b></p>\n                    <p>This is the bee that you just saw.</p>\n                    <img src=\"bees-with-color/bee-B1SF.svg\" width=\"200\">\n                    <p><span class=\"greenText\"><b>Successful harvest!</b></span><br>Your pay has increased by $0.02. Your bonus pay is now $0.64.</p>\n            ","response":0,"trial_type":"html-button-response","trial_index":48,"time_elapsed":298596,"internal_node_id":"0.0-4.0-1.20","subject_id":"60feaca2d504b502493dcf5b","study_id":"6197b3f67c2b5cd3b6d9596a","session_id":"6197b9e6f073b53ee3a215bd","condition":"contingent","relevant_dimensions":["pattern","legs"],"bee_group":{"antennae":"X","wings":"X","pattern":"D","legs":"M"},"bonus":1.4000000000000008},{"rt":1078.2000000476837,"stimulus":"bees-with-color/bee-B1SM.svg","response":1,"trial_type":"image-button-response","trial_index":49,"time_elapsed":299676,"internal_node_id":"0.0-4.0-0.21","subject_id":"60feaca2d504b502493dcf5b","study_id":"6197b3f67c2b5cd3b6d9596a","session_id":"6197b9e6f073b53ee3a215bd","condition":"contingent","relevant_dimensions":["pattern","legs"],"bee_group":{"antennae":"X","wings":"X","pattern":"D","legs":"M"},"action":"avoid","summary":"bad-avoid","bonus":1.4000000000000008},{"rt":1445,"stimulus":"\n                    <p><b>Action: <em>avoid</em></b></p>\n                    <p>This is the bee that you just saw.</p>\n                    <img src=\"bees-with-color/bee-B1SM.svg\" width=\"200\">\n                    <p><br>Your bonus pay is unchanged, and remains at $0.64.</p>\n            ","response":0,"trial_type":"html-button-response","trial_index":50,"time_elapsed":301124,"internal_node_id":"0.0-4.0-1.21","subject_id":"60feaca2d504b502493dcf5b","study_id":"6197b3f67c2b5cd3b6d9596a","session_id":"6197b9e6f073b53ee3a215bd","condition":"contingent","relevant_dimensions":["pattern","legs"],"bee_group":{"antennae":"X","wings":"X","pattern":"D","legs":"M"},"bonus":1.4000000000000008},{"rt":9550.100000023842,"stimulus":"bees-with-color/bee-B2SM.svg","response":1,"trial_type":"image-button-response","trial_index":51,"time_elapsed":310676,"internal_node_id":"0.0-4.0-0.22","subject_id":"60feaca2d504b502493dcf5b","study_id":"6197b3f67c2b5cd3b6d9596a","session_id":"6197b9e6f073b53ee3a215bd","condition":"contingent","relevant_dimensions":["pattern","legs"],"bee_group":{"antennae":"X","wings":"X","pattern":"D","legs":"M"},"action":"avoid","summary":"bad-avoid","bonus":1.4000000000000008},{"rt":885.7000000476837,"stimulus":"\n                    <p><b>Action: <em>avoid</em></b></p>\n                    <p>This is the bee that you just saw.</p>\n                    <img src=\"bees-with-color/bee-B2SM.svg\" width=\"200\">\n                    <p><br>Your bonus pay is unchanged, and remains at $0.64.</p>\n            ","response":0,"trial_type":"html-button-response","trial_index":52,"time_elapsed":311564,"internal_node_id":"0.0-4.0-1.22","subject_id":"60feaca2d504b502493dcf5b","study_id":"6197b3f67c2b5cd3b6d9596a","session_id":"6197b9e6f073b53ee3a215bd","condition":"contingent","relevant_dimensions":["pattern","legs"],"bee_group":{"antennae":"X","wings":"X","pattern":"D","legs":"M"},"bonus":1.4000000000000008},{"rt":1341.2999999523163,"stimulus":"bees-with-color/bee-B2DM.svg","response":1,"trial_type":"image-button-response","trial_index":53,"time_elapsed":312908,"internal_node_id":"0.0-4.0-0.23","subject_id":"60feaca2d504b502493dcf5b","study_id":"6197b3f67c2b5cd3b6d9596a","session_id":"6197b9e6f073b53ee3a215bd","condition":"contingent","relevant_dimensions":["pattern","legs"],"bee_group":{"antennae":"X","wings":"X","pattern":"D","legs":"M"},"action":"avoid","summary":"good-avoid","bonus":1.4000000000000008},{"rt":917.7000000476837,"stimulus":"\n                    <p><b>Action: <em>avoid</em></b></p>\n                    <p>This is the bee that you just saw.</p>\n                    <img src=\"bees-with-color/bee-B2DM.svg\" width=\"200\">\n                    <p><br>Your bonus pay is unchanged, and remains at $0.64.</p>\n            ","response":0,"trial_type":"html-button-response","trial_index":54,"time_elapsed":313828,"internal_node_id":"0.0-4.0-1.23","subject_id":"60feaca2d504b502493dcf5b","study_id":"6197b3f67c2b5cd3b6d9596a","session_id":"6197b9e6f073b53ee3a215bd","condition":"contingent","relevant_dimensions":["pattern","legs"],"bee_group":{"antennae":"X","wings":"X","pattern":"D","legs":"M"},"bonus":1.4000000000000008},{"rt":1701.8999999761581,"stimulus":"bees-with-color/bee-A2DF.svg","response":0,"trial_type":"image-button-response","trial_index":55,"time_elapsed":315532,"internal_node_id":"0.0-4.0-0.24","subject_id":"60feaca2d504b502493dcf5b","study_id":"6197b3f67c2b5cd3b6d9596a","session_id":"6197b9e6f073b53ee3a215bd","condition":"contingent","relevant_dimensions":["pattern","legs"],"bee_group":{"antennae":"X","wings":"X","pattern":"D","legs":"M"},"action":"harvest","summary":"good-harvest","bonus":1.4000000000000008},{"rt":1748.7999999523163,"stimulus":"\n                    <p><b>Action: <em>harvest</em></b></p>\n                    <p>This is the bee that you just saw.</p>\n                    <img src=\"bees-with-color/bee-A2DF.svg\" width=\"200\">\n                    <p><span class=\"greenText\"><b>Successful harvest!</b></span><br>Your pay has increased by $0.02. Your bonus pay is now $0.66.</p>\n            ","response":0,"trial_type":"html-button-response","trial_index":56,"time_elapsed":317284,"internal_node_id":"0.0-4.0-1.24","subject_id":"60feaca2d504b502493dcf5b","study_id":"6197b3f67c2b5cd3b6d9596a","session_id":"6197b9e6f073b53ee3a215bd","condition":"contingent","relevant_dimensions":["pattern","legs"],"bee_group":{"antennae":"X","wings":"X","pattern":"D","legs":"M"},"bonus":1.4000000000000008},{"rt":1149.7999999523163,"stimulus":"bees-with-color/bee-B2SF.svg","response":0,"trial_type":"image-button-response","trial_index":57,"time_elapsed":318436,"internal_node_id":"0.0-4.0-0.25","subject_id":"60feaca2d504b502493dcf5b","study_id":"6197b3f67c2b5cd3b6d9596a","session_id":"6197b9e6f073b53ee3a215bd","condition":"contingent","relevant_dimensions":["pattern","legs"],"bee_group":{"antennae":"X","wings":"X","pattern":"D","legs":"M"},"action":"harvest","summary":"good-harvest","bonus":1.4000000000000008},{"rt":893.6000000238419,"stimulus":"\n                    <p><b>Action: <em>harvest</em></b></p>\n                    <p>This is the bee that you just saw.</p>\n                    <img src=\"bees-with-color/bee-B2SF.svg\" width=\"200\">\n                    <p><span class=\"greenText\"><b>Successful harvest!</b></span><br>Your pay has increased by $0.02. Your bonus pay is now $0.68.</p>\n            ","response":0,"trial_type":"html-button-response","trial_index":58,"time_elapsed":319332,"internal_node_id":"0.0-4.0-1.25","subject_id":"60feaca2d504b502493dcf5b","study_id":"6197b3f67c2b5cd3b6d9596a","session_id":"6197b9e6f073b53ee3a215bd","condition":"contingent","relevant_dimensions":["pattern","legs"],"bee_group":{"antennae":"X","wings":"X","pattern":"D","legs":"M"},"bonus":1.4000000000000008},{"rt":2301.899999976158,"stimulus":"bees-with-color/bee-B2DF.svg","response":0,"trial_type":"image-button-response","trial_index":59,"time_elapsed":321636,"internal_node_id":"0.0-4.0-0.26","subject_id":"60feaca2d504b502493dcf5b","study_id":"6197b3f67c2b5cd3b6d9596a","session_id":"6197b9e6f073b53ee3a215bd","condition":"contingent","relevant_dimensions":["pattern","legs"],"bee_group":{"antennae":"X","wings":"X","pattern":"D","legs":"M"},"action":"harvest","summary":"good-harvest","bonus":1.4000000000000008},{"rt":845.1999999284744,"stimulus":"\n                    <p><b>Action: <em>harvest</em></b></p>\n                    <p>This is the bee that you just saw.</p>\n                    <img src=\"bees-with-color/bee-B2DF.svg\" width=\"200\">\n                    <p><span class=\"greenText\"><b>Successful harvest!</b></span><br>Your pay has increased by $0.02. Your bonus pay is now $0.70.</p>\n            ","response":0,"trial_type":"html-button-response","trial_index":60,"time_elapsed":322484,"internal_node_id":"0.0-4.0-1.26","subject_id":"60feaca2d504b502493dcf5b","study_id":"6197b3f67c2b5cd3b6d9596a","session_id":"6197b9e6f073b53ee3a215bd","condition":"contingent","relevant_dimensions":["pattern","legs"],"bee_group":{"antennae":"X","wings":"X","pattern":"D","legs":"M"},"bonus":1.4000000000000008},{"rt":1053.3999999761581,"stimulus":"bees-with-color/bee-A2SF.svg","response":0,"trial_type":"image-button-response","trial_index":61,"time_elapsed":323540,"internal_node_id":"0.0-4.0-0.27","subject_id":"60feaca2d504b502493dcf5b","study_id":"6197b3f67c2b5cd3b6d9596a","session_id":"6197b9e6f073b53ee3a215bd","condition":"contingent","relevant_dimensions":["pattern","legs"],"bee_group":{"antennae":"X","wings":"X","pattern":"D","legs":"M"},"action":"harvest","summary":"good-harvest","bonus":1.4000000000000008},{"rt":677.5,"stimulus":"\n                    <p><b>Action: <em>harvest</em></b></p>\n                    <p>This is the bee that you just saw.</p>\n                    <img src=\"bees-with-color/bee-A2SF.svg\" width=\"200\">\n                    <p><span class=\"greenText\"><b>Successful harvest!</b></span><br>Your pay has increased by $0.02. Your bonus pay is now $0.72.</p>\n            ","response":0,"trial_type":"html-button-response","trial_index":62,"time_elapsed":324220,"internal_node_id":"0.0-4.0-1.27","subject_id":"60feaca2d504b502493dcf5b","study_id":"6197b3f67c2b5cd3b6d9596a","session_id":"6197b9e6f073b53ee3a215bd","condition":"contingent","relevant_dimensions":["pattern","legs"],"bee_group":{"antennae":"X","wings":"X","pattern":"D","legs":"M"},"bonus":1.4000000000000008},{"rt":933.8999999761581,"stimulus":"bees-with-color/bee-B1DM.svg","response":1,"trial_type":"image-button-response","trial_index":63,"time_elapsed":325156,"internal_node_id":"0.0-4.0-0.28","subject_id":"60feaca2d504b502493dcf5b","study_id":"6197b3f67c2b5cd3b6d9596a","session_id":"6197b9e6f073b53ee3a215bd","condition":"contingent","relevant_dimensions":["pattern","legs"],"bee_group":{"antennae":"X","wings":"X","pattern":"D","legs":"M"},"action":"avoid","summary":"good-avoid","bonus":1.4000000000000008},{"rt":781.5,"stimulus":"\n                    <p><b>Action: <em>avoid</em></b></p>\n                    <p>This is the bee that you just saw.</p>\n                    <img src=\"bees-with-color/bee-B1DM.svg\" width=\"200\">\n                    <p><br>Your bonus pay is unchanged, and remains at $0.72.</p>\n            ","response":0,"trial_type":"html-button-response","trial_index":64,"time_elapsed":325940,"internal_node_id":"0.0-4.0-1.28","subject_id":"60feaca2d504b502493dcf5b","study_id":"6197b3f67c2b5cd3b6d9596a","session_id":"6197b9e6f073b53ee3a215bd","condition":"contingent","relevant_dimensions":["pattern","legs"],"bee_group":{"antennae":"X","wings":"X","pattern":"D","legs":"M"},"bonus":1.4000000000000008},{"rt":781.8999999761581,"stimulus":"bees-with-color/bee-B1DF.svg","response":0,"trial_type":"image-button-response","trial_index":65,"time_elapsed":326724,"internal_node_id":"0.0-4.0-0.29","subject_id":"60feaca2d504b502493dcf5b","study_id":"6197b3f67c2b5cd3b6d9596a","session_id":"6197b9e6f073b53ee3a215bd","condition":"contingent","relevant_dimensions":["pattern","legs"],"bee_group":{"antennae":"X","wings":"X","pattern":"D","legs":"M"},"action":"harvest","summary":"good-harvest","bonus":1.4000000000000008},{"rt":917.2000000476837,"stimulus":"\n                    <p><b>Action: <em>harvest</em></b></p>\n                    <p>This is the bee that you just saw.</p>\n                    <img src=\"bees-with-color/bee-B1DF.svg\" width=\"200\">\n                    <p><span class=\"greenText\"><b>Successful harvest!</b></span><br>Your pay has increased by $0.02. Your bonus pay is now $0.74.</p>\n            ","response":0,"trial_type":"html-button-response","trial_index":66,"time_elapsed":327643,"internal_node_id":"0.0-4.0-1.29","subject_id":"60feaca2d504b502493dcf5b","study_id":"6197b3f67c2b5cd3b6d9596a","session_id":"6197b9e6f073b53ee3a215bd","condition":"contingent","relevant_dimensions":["pattern","legs"],"bee_group":{"antennae":"X","wings":"X","pattern":"D","legs":"M"},"bonus":1.4000000000000008},{"rt":814.1000000238419,"stimulus":"bees-with-color/bee-A2DM.svg","response":1,"trial_type":"image-button-response","trial_index":67,"time_elapsed":328460,"internal_node_id":"0.0-4.0-0.30","subject_id":"60feaca2d504b502493dcf5b","study_id":"6197b3f67c2b5cd3b6d9596a","session_id":"6197b9e6f073b53ee3a215bd","condition":"contingent","relevant_dimensions":["pattern","legs"],"bee_group":{"antennae":"X","wings":"X","pattern":"D","legs":"M"},"action":"avoid","summary":"good-avoid","bonus":1.4000000000000008},{"rt":644.8999999761581,"stimulus":"\n                    <p><b>Action: <em>avoid</em></b></p>\n                    <p>This is the bee that you just saw.</p>\n                    <img src=\"bees-with-color/bee-A2DM.svg\" width=\"200\">\n                    <p><br>Your bonus pay is unchanged, and remains at $0.74.</p>\n            ","response":0,"trial_type":"html-button-response","trial_index":68,"time_elapsed":329108,"internal_node_id":"0.0-4.0-1.30","subject_id":"60feaca2d504b502493dcf5b","study_id":"6197b3f67c2b5cd3b6d9596a","session_id":"6197b9e6f073b53ee3a215bd","condition":"contingent","relevant_dimensions":["pattern","legs"],"bee_group":{"antennae":"X","wings":"X","pattern":"D","legs":"M"},"bonus":1.4000000000000008},{"rt":917.8999999761581,"stimulus":"bees-with-color/bee-A1DF.svg","response":0,"trial_type":"image-button-response","trial_index":69,"time_elapsed":330028,"internal_node_id":"0.0-4.0-0.31","subject_id":"60feaca2d504b502493dcf5b","study_id":"6197b3f67c2b5cd3b6d9596a","session_id":"6197b9e6f073b53ee3a215bd","condition":"contingent","relevant_dimensions":["pattern","legs"],"bee_group":{"antennae":"X","wings":"X","pattern":"D","legs":"M"},"action":"harvest","summary":"good-harvest","bonus":1.4000000000000008},{"rt":605.3999999761581,"stimulus":"\n                    <p><b>Action: <em>harvest</em></b></p>\n                    <p>This is the bee that you just saw.</p>\n                    <img src=\"bees-with-color/bee-A1DF.svg\" width=\"200\">\n                    <p><span class=\"greenText\"><b>Successful harvest!</b></span><br>Your pay has increased by $0.02. Your bonus pay is now $0.76.</p>\n            ","response":0,"trial_type":"html-button-response","trial_index":70,"time_elapsed":330636,"internal_node_id":"0.0-4.0-1.31","subject_id":"60feaca2d504b502493dcf5b","study_id":"6197b3f67c2b5cd3b6d9596a","session_id":"6197b9e6f073b53ee3a215bd","condition":"contingent","relevant_dimensions":["pattern","legs"],"bee_group":{"antennae":"X","wings":"X","pattern":"D","legs":"M"},"bonus":1.4000000000000008},{"rt":1053.6999999284744,"stimulus":"bees-with-color/bee-A1SF.svg","response":0,"trial_type":"image-button-response","trial_index":71,"time_elapsed":331692,"internal_node_id":"0.0-4.0-0.32","subject_id":"60feaca2d504b502493dcf5b","study_id":"6197b3f67c2b5cd3b6d9596a","session_id":"6197b9e6f073b53ee3a215bd","condition":"contingent","relevant_dimensions":["pattern","legs"],"bee_group":{"antennae":"X","wings":"X","pattern":"D","legs":"M"},"action":"harvest","summary":"good-harvest","bonus":1.4000000000000008},{"rt":1317.1000000238419,"stimulus":"\n                    <p><b>Action: <em>harvest</em></b></p>\n                    <p>This is the bee that you just saw.</p>\n                    <img src=\"bees-with-color/bee-A1SF.svg\" width=\"200\">\n                    <p><span class=\"greenText\"><b>Successful harvest!</b></span><br>Your pay has increased by $0.02. Your bonus pay is now $0.78.</p>\n            ","response":0,"trial_type":"html-button-response","trial_index":72,"time_elapsed":333012,"internal_node_id":"0.0-4.0-1.32","subject_id":"60feaca2d504b502493dcf5b","study_id":"6197b3f67c2b5cd3b6d9596a","session_id":"6197b9e6f073b53ee3a215bd","condition":"contingent","relevant_dimensions":["pattern","legs"],"bee_group":{"antennae":"X","wings":"X","pattern":"D","legs":"M"},"bonus":1.4000000000000008},{"rt":1045.7999999523163,"stimulus":"bees-with-color/bee-A2DM.svg","response":1,"trial_type":"image-button-response","trial_index":73,"time_elapsed":334060,"internal_node_id":"0.0-4.0-0.33","subject_id":"60feaca2d504b502493dcf5b","study_id":"6197b3f67c2b5cd3b6d9596a","session_id":"6197b9e6f073b53ee3a215bd","condition":"contingent","relevant_dimensions":["pattern","legs"],"bee_group":{"antennae":"X","wings":"X","pattern":"D","legs":"M"},"action":"avoid","summary":"good-avoid","bonus":1.4000000000000008},{"rt":773.2000000476837,"stimulus":"\n                    <p><b>Action: <em>avoid</em></b></p>\n                    <p>This is the bee that you just saw.</p>\n                    <img src=\"bees-with-color/bee-A2DM.svg\" width=\"200\">\n                    <p><br>Your bonus pay is unchanged, and remains at $0.78.</p>\n            ","response":0,"trial_type":"html-button-response","trial_index":74,"time_elapsed":334836,"internal_node_id":"0.0-4.0-1.33","subject_id":"60feaca2d504b502493dcf5b","study_id":"6197b3f67c2b5cd3b6d9596a","session_id":"6197b9e6f073b53ee3a215bd","condition":"contingent","relevant_dimensions":["pattern","legs"],"bee_group":{"antennae":"X","wings":"X","pattern":"D","legs":"M"},"bonus":1.4000000000000008},{"rt":1029.6999999284744,"stimulus":"bees-with-color/bee-B2SM.svg","response":1,"trial_type":"image-button-response","trial_index":75,"time_elapsed":335868,"internal_node_id":"0.0-4.0-0.34","subject_id":"60feaca2d504b502493dcf5b","study_id":"6197b3f67c2b5cd3b6d9596a","session_id":"6197b9e6f073b53ee3a215bd","condition":"contingent","relevant_dimensions":["pattern","legs"],"bee_group":{"antennae":"X","wings":"X","pattern":"D","legs":"M"},"action":"avoid","summary":"bad-avoid","bonus":1.4000000000000008},{"rt":597.2000000476837,"stimulus":"\n                    <p><b>Action: <em>avoid</em></b></p>\n                    <p>This is the bee that you just saw.</p>\n                    <img src=\"bees-with-color/bee-B2SM.svg\" width=\"200\">\n                    <p><br>Your bonus pay is unchanged, and remains at $0.78.</p>\n            ","response":0,"trial_type":"html-button-response","trial_index":76,"time_elapsed":336468,"internal_node_id":"0.0-4.0-1.34","subject_id":"60feaca2d504b502493dcf5b","study_id":"6197b3f67c2b5cd3b6d9596a","session_id":"6197b9e6f073b53ee3a215bd","condition":"contingent","relevant_dimensions":["pattern","legs"],"bee_group":{"antennae":"X","wings":"X","pattern":"D","legs":"M"},"bonus":1.4000000000000008},{"rt":1045.6999999284744,"stimulus":"bees-with-color/bee-B1SM.svg","response":1,"trial_type":"image-button-response","trial_index":77,"time_elapsed":337516,"internal_node_id":"0.0-4.0-0.35","subject_id":"60feaca2d504b502493dcf5b","study_id":"6197b3f67c2b5cd3b6d9596a","session_id":"6197b9e6f073b53ee3a215bd","condition":"contingent","relevant_dimensions":["pattern","legs"],"bee_group":{"antennae":"X","wings":"X","pattern":"D","legs":"M"},"action":"avoid","summary":"bad-avoid","bonus":1.4000000000000008},{"rt":685.1999999284744,"stimulus":"\n                    <p><b>Action: <em>avoid</em></b></p>\n                    <p>This is the bee that you just saw.</p>\n                    <img src=\"bees-with-color/bee-B1SM.svg\" width=\"200\">\n                    <p><br>Your bonus pay is unchanged, and remains at $0.78.</p>\n            ","response":0,"trial_type":"html-button-response","trial_index":78,"time_elapsed":338204,"internal_node_id":"0.0-4.0-1.35","subject_id":"60feaca2d504b502493dcf5b","study_id":"6197b3f67c2b5cd3b6d9596a","session_id":"6197b9e6f073b53ee3a215bd","condition":"contingent","relevant_dimensions":["pattern","legs"],"bee_group":{"antennae":"X","wings":"X","pattern":"D","legs":"M"},"bonus":1.4000000000000008},{"rt":780.5999999046326,"stimulus":"bees-with-color/bee-A2SF.svg","response":0,"trial_type":"image-button-response","trial_index":79,"time_elapsed":338988,"internal_node_id":"0.0-4.0-0.36","subject_id":"60feaca2d504b502493dcf5b","study_id":"6197b3f67c2b5cd3b6d9596a","session_id":"6197b9e6f073b53ee3a215bd","condition":"contingent","relevant_dimensions":["pattern","legs"],"bee_group":{"antennae":"X","wings":"X","pattern":"D","legs":"M"},"action":"harvest","summary":"good-harvest","bonus":1.4000000000000008},{"rt":685,"stimulus":"\n                    <p><b>Action: <em>harvest</em></b></p>\n                    <p>This is the bee that you just saw.</p>\n                    <img src=\"bees-with-color/bee-A2SF.svg\" width=\"200\">\n                    <p><span class=\"greenText\"><b>Successful harvest!</b></span><br>Your pay has increased by $0.02. Your bonus pay is now $0.80.</p>\n            ","response":0,"trial_type":"html-button-response","trial_index":80,"time_elapsed":339676,"internal_node_id":"0.0-4.0-1.36","subject_id":"60feaca2d504b502493dcf5b","study_id":"6197b3f67c2b5cd3b6d9596a","session_id":"6197b9e6f073b53ee3a215bd","condition":"contingent","relevant_dimensions":["pattern","legs"],"bee_group":{"antennae":"X","wings":"X","pattern":"D","legs":"M"},"bonus":1.4000000000000008},{"rt":837.3000000715256,"stimulus":"bees-with-color/bee-A1SM.svg","response":1,"trial_type":"image-button-response","trial_index":81,"time_elapsed":340516,"internal_node_id":"0.0-4.0-0.37","subject_id":"60feaca2d504b502493dcf5b","study_id":"6197b3f67c2b5cd3b6d9596a","session_id":"6197b9e6f073b53ee3a215bd","condition":"contingent","relevant_dimensions":["pattern","legs"],"bee_group":{"antennae":"X","wings":"X","pattern":"D","legs":"M"},"action":"avoid","summary":"bad-avoid","bonus":1.4000000000000008},{"rt":533.1999999284744,"stimulus":"\n                    <p><b>Action: <em>avoid</em></b></p>\n                    <p>This is the bee that you just saw.</p>\n                    <img src=\"bees-with-color/bee-A1SM.svg\" width=\"200\">\n                    <p><br>Your bonus pay is unchanged, and remains at $0.80.</p>\n            ","response":0,"trial_type":"html-button-response","trial_index":82,"time_elapsed":341052,"internal_node_id":"0.0-4.0-1.37","subject_id":"60feaca2d504b502493dcf5b","study_id":"6197b3f67c2b5cd3b6d9596a","session_id":"6197b9e6f073b53ee3a215bd","condition":"contingent","relevant_dimensions":["pattern","legs"],"bee_group":{"antennae":"X","wings":"X","pattern":"D","legs":"M"},"bonus":1.4000000000000008},{"rt":709.5999999046326,"stimulus":"bees-with-color/bee-B2SF.svg","response":0,"trial_type":"image-button-response","trial_index":83,"time_elapsed":341763,"internal_node_id":"0.0-4.0-0.38","subject_id":"60feaca2d504b502493dcf5b","study_id":"6197b3f67c2b5cd3b6d9596a","session_id":"6197b9e6f073b53ee3a215bd","condition":"contingent","relevant_dimensions":["pattern","legs"],"bee_group":{"antennae":"X","wings":"X","pattern":"D","legs":"M"},"action":"harvest","summary":"good-harvest","bonus":1.4000000000000008},{"rt":565.8999999761581,"stimulus":"\n                    <p><b>Action: <em>harvest</em></b></p>\n                    <p>This is the bee that you just saw.</p>\n                    <img src=\"bees-with-color/bee-B2SF.svg\" width=\"200\">\n                    <p><span class=\"greenText\"><b>Successful harvest!</b></span><br>Your pay has increased by $0.02. Your bonus pay is now $0.82.</p>\n            ","response":0,"trial_type":"html-button-response","trial_index":84,"time_elapsed":342332,"internal_node_id":"0.0-4.0-1.38","subject_id":"60feaca2d504b502493dcf5b","study_id":"6197b3f67c2b5cd3b6d9596a","session_id":"6197b9e6f073b53ee3a215bd","condition":"contingent","relevant_dimensions":["pattern","legs"],"bee_group":{"antennae":"X","wings":"X","pattern":"D","legs":"M"},"bonus":1.4000000000000008},{"rt":966.1999999284744,"stimulus":"bees-with-color/bee-B1DM.svg","response":1,"trial_type":"image-button-response","trial_index":85,"time_elapsed":343300,"internal_node_id":"0.0-4.0-0.39","subject_id":"60feaca2d504b502493dcf5b","study_id":"6197b3f67c2b5cd3b6d9596a","session_id":"6197b9e6f073b53ee3a215bd","condition":"contingent","relevant_dimensions":["pattern","legs"],"bee_group":{"antennae":"X","wings":"X","pattern":"D","legs":"M"},"action":"avoid","summary":"good-avoid","bonus":1.4000000000000008},{"rt":725.8000000715256,"stimulus":"\n                    <p><b>Action: <em>avoid</em></b></p>\n                    <p>This is the bee that you just saw.</p>\n                    <img src=\"bees-with-color/bee-B1DM.svg\" width=\"200\">\n                    <p><br>Your bonus pay is unchanged, and remains at $0.82.</p>\n            ","response":0,"trial_type":"html-button-response","trial_index":86,"time_elapsed":344027,"internal_node_id":"0.0-4.0-1.39","subject_id":"60feaca2d504b502493dcf5b","study_id":"6197b3f67c2b5cd3b6d9596a","session_id":"6197b9e6f073b53ee3a215bd","condition":"contingent","relevant_dimensions":["pattern","legs"],"bee_group":{"antennae":"X","wings":"X","pattern":"D","legs":"M"},"bonus":1.4000000000000008},{"rt":1166.1999999284744,"stimulus":"bees-with-color/bee-A2SM.svg","response":1,"trial_type":"image-button-response","trial_index":87,"time_elapsed":345195,"internal_node_id":"0.0-4.0-0.40","subject_id":"60feaca2d504b502493dcf5b","study_id":"6197b3f67c2b5cd3b6d9596a","session_id":"6197b9e6f073b53ee3a215bd","condition":"contingent","relevant_dimensions":["pattern","legs"],"bee_group":{"antennae":"X","wings":"X","pattern":"D","legs":"M"},"action":"avoid","summary":"bad-avoid","bonus":1.4000000000000008},{"rt":589.8000000715256,"stimulus":"\n                    <p><b>Action: <em>avoid</em></b></p>\n                    <p>This is the bee that you just saw.</p>\n                    <img src=\"bees-with-color/bee-A2SM.svg\" width=\"200\">\n                    <p><br>Your bonus pay is unchanged, and remains at $0.82.</p>\n            ","response":0,"trial_type":"html-button-response","trial_index":88,"time_elapsed":345787,"internal_node_id":"0.0-4.0-1.40","subject_id":"60feaca2d504b502493dcf5b","study_id":"6197b3f67c2b5cd3b6d9596a","session_id":"6197b9e6f073b53ee3a215bd","condition":"contingent","relevant_dimensions":["pattern","legs"],"bee_group":{"antennae":"X","wings":"X","pattern":"D","legs":"M"},"bonus":1.4000000000000008},{"rt":790,"stimulus":"bees-with-color/bee-B1DF.svg","response":0,"trial_type":"image-button-response","trial_index":89,"time_elapsed":346580,"internal_node_id":"0.0-4.0-0.41","subject_id":"60feaca2d504b502493dcf5b","study_id":"6197b3f67c2b5cd3b6d9596a","session_id":"6197b9e6f073b53ee3a215bd","condition":"contingent","relevant_dimensions":["pattern","legs"],"bee_group":{"antennae":"X","wings":"X","pattern":"D","legs":"M"},"action":"harvest","summary":"good-harvest","bonus":1.4000000000000008},{"rt":557.7999999523163,"stimulus":"\n                    <p><b>Action: <em>harvest</em></b></p>\n                    <p>This is the bee that you just saw.</p>\n                    <img src=\"bees-with-color/bee-B1DF.svg\" width=\"200\">\n                    <p><span class=\"greenText\"><b>Successful harvest!</b></span><br>Your pay has increased by $0.02. Your bonus pay is now $0.84.</p>\n            ","response":0,"trial_type":"html-button-response","trial_index":90,"time_elapsed":347140,"internal_node_id":"0.0-4.0-1.41","subject_id":"60feaca2d504b502493dcf5b","study_id":"6197b3f67c2b5cd3b6d9596a","session_id":"6197b9e6f073b53ee3a215bd","condition":"contingent","relevant_dimensions":["pattern","legs"],"bee_group":{"antennae":"X","wings":"X","pattern":"D","legs":"M"},"bonus":1.4000000000000008},{"rt":917.8000000715256,"stimulus":"bees-with-color/bee-B2DM.svg","response":1,"trial_type":"image-button-response","trial_index":91,"time_elapsed":348059,"internal_node_id":"0.0-4.0-0.42","subject_id":"60feaca2d504b502493dcf5b","study_id":"6197b3f67c2b5cd3b6d9596a","session_id":"6197b9e6f073b53ee3a215bd","condition":"contingent","relevant_dimensions":["pattern","legs"],"bee_group":{"antennae":"X","wings":"X","pattern":"D","legs":"M"},"action":"avoid","summary":"good-avoid","bonus":1.4000000000000008},{"rt":637.7000000476837,"stimulus":"\n                    <p><b>Action: <em>avoid</em></b></p>\n                    <p>This is the bee that you just saw.</p>\n                    <img src=\"bees-with-color/bee-B2DM.svg\" width=\"200\">\n                    <p><br>Your bonus pay is unchanged, and remains at $0.84.</p>\n            ","response":0,"trial_type":"html-button-response","trial_index":92,"time_elapsed":348699,"internal_node_id":"0.0-4.0-1.42","subject_id":"60feaca2d504b502493dcf5b","study_id":"6197b3f67c2b5cd3b6d9596a","session_id":"6197b9e6f073b53ee3a215bd","condition":"contingent","relevant_dimensions":["pattern","legs"],"bee_group":{"antennae":"X","wings":"X","pattern":"D","legs":"M"},"bonus":1.4000000000000008},{"rt":750.1000000238419,"stimulus":"bees-with-color/bee-A2DF.svg","response":0,"trial_type":"image-button-response","trial_index":93,"time_elapsed":349451,"internal_node_id":"0.0-4.0-0.43","subject_id":"60feaca2d504b502493dcf5b","study_id":"6197b3f67c2b5cd3b6d9596a","session_id":"6197b9e6f073b53ee3a215bd","condition":"contingent","relevant_dimensions":["pattern","legs"],"bee_group":{"antennae":"X","wings":"X","pattern":"D","legs":"M"},"action":"harvest","summary":"good-harvest","bonus":1.4000000000000008},{"rt":613.7000000476837,"stimulus":"\n                    <p><b>Action: <em>harvest</em></b></p>\n                    <p>This is the bee that you just saw.</p>\n                    <img src=\"bees-with-color/bee-A2DF.svg\" width=\"200\">\n                    <p><span class=\"greenText\"><b>Successful harvest!</b></span><br>Your pay has increased by $0.02. Your bonus pay is now $0.86.</p>\n            ","response":0,"trial_type":"html-button-response","trial_index":94,"time_elapsed":350067,"internal_node_id":"0.0-4.0-1.43","subject_id":"60feaca2d504b502493dcf5b","study_id":"6197b3f67c2b5cd3b6d9596a","session_id":"6197b9e6f073b53ee3a215bd","condition":"contingent","relevant_dimensions":["pattern","legs"],"bee_group":{"antennae":"X","wings":"X","pattern":"D","legs":"M"},"bonus":1.4000000000000008},{"rt":870,"stimulus":"bees-with-color/bee-B2DF.svg","response":0,"trial_type":"image-button-response","trial_index":95,"time_elapsed":350939,"internal_node_id":"0.0-4.0-0.44","subject_id":"60feaca2d504b502493dcf5b","study_id":"6197b3f67c2b5cd3b6d9596a","session_id":"6197b9e6f073b53ee3a215bd","condition":"contingent","relevant_dimensions":["pattern","legs"],"bee_group":{"antennae":"X","wings":"X","pattern":"D","legs":"M"},"action":"harvest","summary":"good-harvest","bonus":1.4000000000000008},{"rt":645.8000000715256,"stimulus":"\n                    <p><b>Action: <em>harvest</em></b></p>\n                    <p>This is the bee that you just saw.</p>\n                    <img src=\"bees-with-color/bee-B2DF.svg\" width=\"200\">\n                    <p><span class=\"greenText\"><b>Successful harvest!</b></span><br>Your pay has increased by $0.02. Your bonus pay is now $0.88.</p>\n            ","response":0,"trial_type":"html-button-response","trial_index":96,"time_elapsed":351587,"internal_node_id":"0.0-4.0-1.44","subject_id":"60feaca2d504b502493dcf5b","study_id":"6197b3f67c2b5cd3b6d9596a","session_id":"6197b9e6f073b53ee3a215bd","condition":"contingent","relevant_dimensions":["pattern","legs"],"bee_group":{"antennae":"X","wings":"X","pattern":"D","legs":"M"},"bonus":1.4000000000000008},{"rt":894,"stimulus":"bees-with-color/bee-A1DM.svg","response":1,"trial_type":"image-button-response","trial_index":97,"time_elapsed":352484,"internal_node_id":"0.0-4.0-0.45","subject_id":"60feaca2d504b502493dcf5b","study_id":"6197b3f67c2b5cd3b6d9596a","session_id":"6197b9e6f073b53ee3a215bd","condition":"contingent","relevant_dimensions":["pattern","legs"],"bee_group":{"antennae":"X","wings":"X","pattern":"D","legs":"M"},"action":"avoid","summary":"good-avoid","bonus":1.4000000000000008},{"rt":1021.5,"stimulus":"\n                    <p><b>Action: <em>avoid</em></b></p>\n                    <p>This is the bee that you just saw.</p>\n                    <img src=\"bees-with-color/bee-A1DM.svg\" width=\"200\">\n                    <p><br>Your bonus pay is unchanged, and remains at $0.88.</p>\n            ","response":0,"trial_type":"html-button-response","trial_index":98,"time_elapsed":353507,"internal_node_id":"0.0-4.0-1.45","subject_id":"60feaca2d504b502493dcf5b","study_id":"6197b3f67c2b5cd3b6d9596a","session_id":"6197b9e6f073b53ee3a215bd","condition":"contingent","relevant_dimensions":["pattern","legs"],"bee_group":{"antennae":"X","wings":"X","pattern":"D","legs":"M"},"bonus":1.4000000000000008},{"rt":766,"stimulus":"bees-with-color/bee-A1DF.svg","response":0,"trial_type":"image-button-response","trial_index":99,"time_elapsed":354276,"internal_node_id":"0.0-4.0-0.46","subject_id":"60feaca2d504b502493dcf5b","study_id":"6197b3f67c2b5cd3b6d9596a","session_id":"6197b9e6f073b53ee3a215bd","condition":"contingent","relevant_dimensions":["pattern","legs"],"bee_group":{"antennae":"X","wings":"X","pattern":"D","legs":"M"},"action":"harvest","summary":"good-harvest","bonus":1.4000000000000008},{"rt":637.8000000715256,"stimulus":"\n                    <p><b>Action: <em>harvest</em></b></p>\n                    <p>This is the bee that you just saw.</p>\n                    <img src=\"bees-with-color/bee-A1DF.svg\" width=\"200\">\n                    <p><span class=\"greenText\"><b>Successful harvest!</b></span><br>Your pay has increased by $0.02. Your bonus pay is now $0.90.</p>\n            ","response":0,"trial_type":"html-button-response","trial_index":100,"time_elapsed":354916,"internal_node_id":"0.0-4.0-1.46","subject_id":"60feaca2d504b502493dcf5b","study_id":"6197b3f67c2b5cd3b6d9596a","session_id":"6197b9e6f073b53ee3a215bd","condition":"contingent","relevant_dimensions":["pattern","legs"],"bee_group":{"antennae":"X","wings":"X","pattern":"D","legs":"M"},"bonus":1.4000000000000008},{"rt":709.9000000953674,"stimulus":"bees-with-color/bee-B1SF.svg","response":0,"trial_type":"image-button-response","trial_index":101,"time_elapsed":355628,"internal_node_id":"0.0-4.0-0.47","subject_id":"60feaca2d504b502493dcf5b","study_id":"6197b3f67c2b5cd3b6d9596a","session_id":"6197b9e6f073b53ee3a215bd","condition":"contingent","relevant_dimensions":["pattern","legs"],"bee_group":{"antennae":"X","wings":"X","pattern":"D","legs":"M"},"action":"harvest","summary":"good-harvest","bonus":1.4000000000000008},{"rt":613.6000000238419,"stimulus":"\n                    <p><b>Action: <em>harvest</em></b></p>\n                    <p>This is the bee that you just saw.</p>\n                    <img src=\"bees-with-color/bee-B1SF.svg\" width=\"200\">\n                    <p><span class=\"greenText\"><b>Successful harvest!</b></span><br>Your pay has increased by $0.02. Your bonus pay is now $0.92.</p>\n            ","response":0,"trial_type":"html-button-response","trial_index":102,"time_elapsed":356244,"internal_node_id":"0.0-4.0-1.47","subject_id":"60feaca2d504b502493dcf5b","study_id":"6197b3f67c2b5cd3b6d9596a","session_id":"6197b9e6f073b53ee3a215bd","condition":"contingent","relevant_dimensions":["pattern","legs"],"bee_group":{"antennae":"X","wings":"X","pattern":"D","legs":"M"},"bonus":1.4000000000000008},{"rt":1109.7000000476837,"stimulus":"bees-with-color/bee-A2DM.svg","response":1,"trial_type":"image-button-response","trial_index":103,"time_elapsed":357356,"internal_node_id":"0.0-4.0-0.48","subject_id":"60feaca2d504b502493dcf5b","study_id":"6197b3f67c2b5cd3b6d9596a","session_id":"6197b9e6f073b53ee3a215bd","condition":"contingent","relevant_dimensions":["pattern","legs"],"bee_group":{"antennae":"X","wings":"X","pattern":"D","legs":"M"},"action":"avoid","summary":"good-avoid","bonus":1.4000000000000008},{"rt":597.2999999523163,"stimulus":"\n                    <p><b>Action: <em>avoid</em></b></p>\n                    <p>This is the bee that you just saw.</p>\n                    <img src=\"bees-with-color/bee-A2DM.svg\" width=\"200\">\n                    <p><br>Your bonus pay is unchanged, and remains at $0.92.</p>\n            ","response":0,"trial_type":"html-button-response","trial_index":104,"time_elapsed":357955,"internal_node_id":"0.0-4.0-1.48","subject_id":"60feaca2d504b502493dcf5b","study_id":"6197b3f67c2b5cd3b6d9596a","session_id":"6197b9e6f073b53ee3a215bd","condition":"contingent","relevant_dimensions":["pattern","legs"],"bee_group":{"antennae":"X","wings":"X","pattern":"D","legs":"M"},"bonus":1.4000000000000008},{"rt":926,"stimulus":"bees-with-color/bee-B2DM.svg","response":1,"trial_type":"image-button-response","trial_index":105,"time_elapsed":358884,"internal_node_id":"0.0-4.0-0.49","subject_id":"60feaca2d504b502493dcf5b","study_id":"6197b3f67c2b5cd3b6d9596a","session_id":"6197b9e6f073b53ee3a215bd","condition":"contingent","relevant_dimensions":["pattern","legs"],"bee_group":{"antennae":"X","wings":"X","pattern":"D","legs":"M"},"action":"avoid","summary":"good-avoid","bonus":1.4000000000000008},{"rt":493.39999997615814,"stimulus":"\n                    <p><b>Action: <em>avoid</em></b></p>\n                    <p>This is the bee that you just saw.</p>\n                    <img src=\"bees-with-color/bee-B2DM.svg\" width=\"200\">\n                    <p><br>Your bonus pay is unchanged, and remains at $0.92.</p>\n            ","response":0,"trial_type":"html-button-response","trial_index":106,"time_elapsed":359380,"internal_node_id":"0.0-4.0-1.49","subject_id":"60feaca2d504b502493dcf5b","study_id":"6197b3f67c2b5cd3b6d9596a","session_id":"6197b9e6f073b53ee3a215bd","condition":"contingent","relevant_dimensions":["pattern","legs"],"bee_group":{"antennae":"X","wings":"X","pattern":"D","legs":"M"},"bonus":1.4000000000000008},{"rt":797.8000000715256,"stimulus":"bees-with-color/bee-B1SF.svg","response":0,"trial_type":"image-button-response","trial_index":107,"time_elapsed":360180,"internal_node_id":"0.0-4.0-0.50","subject_id":"60feaca2d504b502493dcf5b","study_id":"6197b3f67c2b5cd3b6d9596a","session_id":"6197b9e6f073b53ee3a215bd","condition":"contingent","relevant_dimensions":["pattern","legs"],"bee_group":{"antennae":"X","wings":"X","pattern":"D","legs":"M"},"action":"harvest","summary":"good-harvest","bonus":1.4000000000000008},{"rt":589.5,"stimulus":"\n                    <p><b>Action: <em>harvest</em></b></p>\n                    <p>This is the bee that you just saw.</p>\n                    <img src=\"bees-with-color/bee-B1SF.svg\" width=\"200\">\n                    <p><span class=\"greenText\"><b>Successful harvest!</b></span><br>Your pay has increased by $0.02. Your bonus pay is now $0.94.</p>\n            ","response":0,"trial_type":"html-button-response","trial_index":108,"time_elapsed":360771,"internal_node_id":"0.0-4.0-1.50","subject_id":"60feaca2d504b502493dcf5b","study_id":"6197b3f67c2b5cd3b6d9596a","session_id":"6197b9e6f073b53ee3a215bd","condition":"contingent","relevant_dimensions":["pattern","legs"],"bee_group":{"antennae":"X","wings":"X","pattern":"D","legs":"M"},"bonus":1.4000000000000008},{"rt":901.7000000476837,"stimulus":"bees-with-color/bee-A1SM.svg","response":1,"trial_type":"image-button-response","trial_index":109,"time_elapsed":361676,"internal_node_id":"0.0-4.0-0.51","subject_id":"60feaca2d504b502493dcf5b","study_id":"6197b3f67c2b5cd3b6d9596a","session_id":"6197b9e6f073b53ee3a215bd","condition":"contingent","relevant_dimensions":["pattern","legs"],"bee_group":{"antennae":"X","wings":"X","pattern":"D","legs":"M"},"action":"avoid","summary":"bad-avoid","bonus":1.4000000000000008},{"rt":517.5,"stimulus":"\n                    <p><b>Action: <em>avoid</em></b></p>\n                    <p>This is the bee that you just saw.</p>\n                    <img src=\"bees-with-color/bee-A1SM.svg\" width=\"200\">\n                    <p><br>Your bonus pay is unchanged, and remains at $0.94.</p>\n            ","response":0,"trial_type":"html-button-response","trial_index":110,"time_elapsed":362196,"internal_node_id":"0.0-4.0-1.51","subject_id":"60feaca2d504b502493dcf5b","study_id":"6197b3f67c2b5cd3b6d9596a","session_id":"6197b9e6f073b53ee3a215bd","condition":"contingent","relevant_dimensions":["pattern","legs"],"bee_group":{"antennae":"X","wings":"X","pattern":"D","legs":"M"},"bonus":1.4000000000000008},{"rt":893.7000000476837,"stimulus":"bees-with-color/bee-A1SF.svg","response":0,"trial_type":"image-button-response","trial_index":111,"time_elapsed":363092,"internal_node_id":"0.0-4.0-0.52","subject_id":"60feaca2d504b502493dcf5b","study_id":"6197b3f67c2b5cd3b6d9596a","session_id":"6197b9e6f073b53ee3a215bd","condition":"contingent","relevant_dimensions":["pattern","legs"],"bee_group":{"antennae":"X","wings":"X","pattern":"D","legs":"M"},"action":"harvest","summary":"good-harvest","bonus":1.4000000000000008},{"rt":781.3999999761581,"stimulus":"\n                    <p><b>Action: <em>harvest</em></b></p>\n                    <p>This is the bee that you just saw.</p>\n                    <img src=\"bees-with-color/bee-A1SF.svg\" width=\"200\">\n                    <p><span class=\"greenText\"><b>Successful harvest!</b></span><br>Your pay has increased by $0.02. Your bonus pay is now $0.96.</p>\n            ","response":0,"trial_type":"html-button-response","trial_index":112,"time_elapsed":363876,"internal_node_id":"0.0-4.0-1.52","subject_id":"60feaca2d504b502493dcf5b","study_id":"6197b3f67c2b5cd3b6d9596a","session_id":"6197b9e6f073b53ee3a215bd","condition":"contingent","relevant_dimensions":["pattern","legs"],"bee_group":{"antennae":"X","wings":"X","pattern":"D","legs":"M"},"bonus":1.4000000000000008},{"rt":1093.8000000715256,"stimulus":"bees-with-color/bee-B2SM.svg","response":1,"trial_type":"image-button-response","trial_index":113,"time_elapsed":364972,"internal_node_id":"0.0-4.0-0.53","subject_id":"60feaca2d504b502493dcf5b","study_id":"6197b3f67c2b5cd3b6d9596a","session_id":"6197b9e6f073b53ee3a215bd","condition":"contingent","relevant_dimensions":["pattern","legs"],"bee_group":{"antennae":"X","wings":"X","pattern":"D","legs":"M"},"action":"avoid","summary":"bad-avoid","bonus":1.4000000000000008},{"rt":901.1000000238419,"stimulus":"\n                    <p><b>Action: <em>avoid</em></b></p>\n                    <p>This is the bee that you just saw.</p>\n                    <img src=\"bees-with-color/bee-B2SM.svg\" width=\"200\">\n                    <p><br>Your bonus pay is unchanged, and remains at $0.96.</p>\n            ","response":0,"trial_type":"html-button-response","trial_index":114,"time_elapsed":365875,"internal_node_id":"0.0-4.0-1.53","subject_id":"60feaca2d504b502493dcf5b","study_id":"6197b3f67c2b5cd3b6d9596a","session_id":"6197b9e6f073b53ee3a215bd","condition":"contingent","relevant_dimensions":["pattern","legs"],"bee_group":{"antennae":"X","wings":"X","pattern":"D","legs":"M"},"bonus":1.4000000000000008},{"rt":949.8999999761581,"stimulus":"bees-with-color/bee-B1SM.svg","response":1,"trial_type":"image-button-response","trial_index":115,"time_elapsed":366828,"internal_node_id":"0.0-4.0-0.54","subject_id":"60feaca2d504b502493dcf5b","study_id":"6197b3f67c2b5cd3b6d9596a","session_id":"6197b9e6f073b53ee3a215bd","condition":"contingent","relevant_dimensions":["pattern","legs"],"bee_group":{"antennae":"X","wings":"X","pattern":"D","legs":"M"},"action":"avoid","summary":"bad-avoid","bonus":1.4000000000000008},{"rt":573.3999999761581,"stimulus":"\n                    <p><b>Action: <em>avoid</em></b></p>\n                    <p>This is the bee that you just saw.</p>\n                    <img src=\"bees-with-color/bee-B1SM.svg\" width=\"200\">\n                    <p><br>Your bonus pay is unchanged, and remains at $0.96.</p>\n            ","response":0,"trial_type":"html-button-response","trial_index":116,"time_elapsed":367404,"internal_node_id":"0.0-4.0-1.54","subject_id":"60feaca2d504b502493dcf5b","study_id":"6197b3f67c2b5cd3b6d9596a","session_id":"6197b9e6f073b53ee3a215bd","condition":"contingent","relevant_dimensions":["pattern","legs"],"bee_group":{"antennae":"X","wings":"X","pattern":"D","legs":"M"},"bonus":1.4000000000000008},{"rt":893.7000000476837,"stimulus":"bees-with-color/bee-A2DF.svg","response":0,"trial_type":"image-button-response","trial_index":117,"time_elapsed":368300,"internal_node_id":"0.0-4.0-0.55","subject_id":"60feaca2d504b502493dcf5b","study_id":"6197b3f67c2b5cd3b6d9596a","session_id":"6197b9e6f073b53ee3a215bd","condition":"contingent","relevant_dimensions":["pattern","legs"],"bee_group":{"antennae":"X","wings":"X","pattern":"D","legs":"M"},"action":"harvest","summary":"good-harvest","bonus":1.4000000000000008},{"rt":597.3000000715256,"stimulus":"\n                    <p><b>Action: <em>harvest</em></b></p>\n                    <p>This is the bee that you just saw.</p>\n                    <img src=\"bees-with-color/bee-A2DF.svg\" width=\"200\">\n                    <p><span class=\"greenText\"><b>Successful harvest!</b></span><br>Your pay has increased by $0.02. Your bonus pay is now $0.98.</p>\n            ","response":0,"trial_type":"html-button-response","trial_index":118,"time_elapsed":368900,"internal_node_id":"0.0-4.0-1.55","subject_id":"60feaca2d504b502493dcf5b","study_id":"6197b3f67c2b5cd3b6d9596a","session_id":"6197b9e6f073b53ee3a215bd","condition":"contingent","relevant_dimensions":["pattern","legs"],"bee_group":{"antennae":"X","wings":"X","pattern":"D","legs":"M"},"bonus":1.4000000000000008},{"rt":1277.7000000476837,"stimulus":"bees-with-color/bee-A2SM.svg","response":1,"trial_type":"image-button-response","trial_index":119,"time_elapsed":370180,"internal_node_id":"0.0-4.0-0.56","subject_id":"60feaca2d504b502493dcf5b","study_id":"6197b3f67c2b5cd3b6d9596a","session_id":"6197b9e6f073b53ee3a215bd","condition":"contingent","relevant_dimensions":["pattern","legs"],"bee_group":{"antennae":"X","wings":"X","pattern":"D","legs":"M"},"action":"avoid","summary":"bad-avoid","bonus":1.4000000000000008},{"rt":613.2000000476837,"stimulus":"\n                    <p><b>Action: <em>avoid</em></b></p>\n                    <p>This is the bee that you just saw.</p>\n                    <img src=\"bees-with-color/bee-A2SM.svg\" width=\"200\">\n                    <p><br>Your bonus pay is unchanged, and remains at $0.98.</p>\n            ","response":0,"trial_type":"html-button-response","trial_index":120,"time_elapsed":370795,"internal_node_id":"0.0-4.0-1.56","subject_id":"60feaca2d504b502493dcf5b","study_id":"6197b3f67c2b5cd3b6d9596a","session_id":"6197b9e6f073b53ee3a215bd","condition":"contingent","relevant_dimensions":["pattern","legs"],"bee_group":{"antennae":"X","wings":"X","pattern":"D","legs":"M"},"bonus":1.4000000000000008},{"rt":1029.6000000238419,"stimulus":"bees-with-color/bee-A1DF.svg","response":0,"trial_type":"image-button-response","trial_index":121,"time_elapsed":371828,"internal_node_id":"0.0-4.0-0.57","subject_id":"60feaca2d504b502493dcf5b","study_id":"6197b3f67c2b5cd3b6d9596a","session_id":"6197b9e6f073b53ee3a215bd","condition":"contingent","relevant_dimensions":["pattern","legs"],"bee_group":{"antennae":"X","wings":"X","pattern":"D","legs":"M"},"action":"harvest","summary":"good-harvest","bonus":1.4000000000000008},{"rt":669.2000000476837,"stimulus":"\n                    <p><b>Action: <em>harvest</em></b></p>\n                    <p>This is the bee that you just saw.</p>\n                    <img src=\"bees-with-color/bee-A1DF.svg\" width=\"200\">\n                    <p><span class=\"greenText\"><b>Successful harvest!</b></span><br>Your pay has increased by $0.02. Your bonus pay is now $1.00.</p>\n            ","response":0,"trial_type":"html-button-response","trial_index":122,"time_elapsed":372500,"internal_node_id":"0.0-4.0-1.57","subject_id":"60feaca2d504b502493dcf5b","study_id":"6197b3f67c2b5cd3b6d9596a","session_id":"6197b9e6f073b53ee3a215bd","condition":"contingent","relevant_dimensions":["pattern","legs"],"bee_group":{"antennae":"X","wings":"X","pattern":"D","legs":"M"},"bonus":1.4000000000000008},{"rt":813.5,"stimulus":"bees-with-color/bee-A1DM.svg","response":1,"trial_type":"image-button-response","trial_index":123,"time_elapsed":373316,"internal_node_id":"0.0-4.0-0.58","subject_id":"60feaca2d504b502493dcf5b","study_id":"6197b3f67c2b5cd3b6d9596a","session_id":"6197b9e6f073b53ee3a215bd","condition":"contingent","relevant_dimensions":["pattern","legs"],"bee_group":{"antennae":"X","wings":"X","pattern":"D","legs":"M"},"action":"avoid","summary":"good-avoid","bonus":1.4000000000000008},{"rt":996.5999999046326,"stimulus":"\n                    <p><b>Action: <em>avoid</em></b></p>\n                    <p>This is the bee that you just saw.</p>\n                    <img src=\"bees-with-color/bee-A1DM.svg\" width=\"200\">\n                    <p><br>Your bonus pay is unchanged, and remains at $1.00.</p>\n            ","response":0,"trial_type":"html-button-response","trial_index":124,"time_elapsed":374315,"internal_node_id":"0.0-4.0-1.58","subject_id":"60feaca2d504b502493dcf5b","study_id":"6197b3f67c2b5cd3b6d9596a","session_id":"6197b9e6f073b53ee3a215bd","condition":"contingent","relevant_dimensions":["pattern","legs"],"bee_group":{"antennae":"X","wings":"X","pattern":"D","legs":"M"},"bonus":1.4000000000000008},{"rt":1061.6000000238419,"stimulus":"bees-with-color/bee-B2SF.svg","response":0,"trial_type":"image-button-response","trial_index":125,"time_elapsed":375380,"internal_node_id":"0.0-4.0-0.59","subject_id":"60feaca2d504b502493dcf5b","study_id":"6197b3f67c2b5cd3b6d9596a","session_id":"6197b9e6f073b53ee3a215bd","condition":"contingent","relevant_dimensions":["pattern","legs"],"bee_group":{"antennae":"X","wings":"X","pattern":"D","legs":"M"},"action":"harvest","summary":"good-harvest","bonus":1.4000000000000008},{"rt":637.1000000238419,"stimulus":"\n                    <p><b>Action: <em>harvest</em></b></p>\n                    <p>This is the bee that you just saw.</p>\n                    <img src=\"bees-with-color/bee-B2SF.svg\" width=\"200\">\n                    <p><span class=\"greenText\"><b>Successful harvest!</b></span><br>Your pay has increased by $0.02. Your bonus pay is now $1.02.</p>\n            ","response":0,"trial_type":"html-button-response","trial_index":126,"time_elapsed":376019,"internal_node_id":"0.0-4.0-1.59","subject_id":"60feaca2d504b502493dcf5b","study_id":"6197b3f67c2b5cd3b6d9596a","session_id":"6197b9e6f073b53ee3a215bd","condition":"contingent","relevant_dimensions":["pattern","legs"],"bee_group":{"antennae":"X","wings":"X","pattern":"D","legs":"M"},"bonus":1.4000000000000008},{"rt":838.2000000476837,"stimulus":"bees-with-color/bee-B1DM.svg","response":1,"trial_type":"image-button-response","trial_index":127,"time_elapsed":376859,"internal_node_id":"0.0-4.0-0.60","subject_id":"60feaca2d504b502493dcf5b","study_id":"6197b3f67c2b5cd3b6d9596a","session_id":"6197b9e6f073b53ee3a215bd","condition":"contingent","relevant_dimensions":["pattern","legs"],"bee_group":{"antennae":"X","wings":"X","pattern":"D","legs":"M"},"action":"avoid","summary":"good-avoid","bonus":1.4000000000000008},{"rt":549.9000000953674,"stimulus":"\n                    <p><b>Action: <em>avoid</em></b></p>\n                    <p>This is the bee that you just saw.</p>\n                    <img src=\"bees-with-color/bee-B1DM.svg\" width=\"200\">\n                    <p><br>Your bonus pay is unchanged, and remains at $1.02.</p>\n            ","response":0,"trial_type":"html-button-response","trial_index":128,"time_elapsed":377412,"internal_node_id":"0.0-4.0-1.60","subject_id":"60feaca2d504b502493dcf5b","study_id":"6197b3f67c2b5cd3b6d9596a","session_id":"6197b9e6f073b53ee3a215bd","condition":"contingent","relevant_dimensions":["pattern","legs"],"bee_group":{"antennae":"X","wings":"X","pattern":"D","legs":"M"},"bonus":1.4000000000000008},{"rt":749.8000000715256,"stimulus":"bees-with-color/bee-A2SF.svg","response":0,"trial_type":"image-button-response","trial_index":129,"time_elapsed":378163,"internal_node_id":"0.0-4.0-0.61","subject_id":"60feaca2d504b502493dcf5b","study_id":"6197b3f67c2b5cd3b6d9596a","session_id":"6197b9e6f073b53ee3a215bd","condition":"contingent","relevant_dimensions":["pattern","legs"],"bee_group":{"antennae":"X","wings":"X","pattern":"D","legs":"M"},"action":"harvest","summary":"good-harvest","bonus":1.4000000000000008},{"rt":597.8999999761581,"stimulus":"\n                    <p><b>Action: <em>harvest</em></b></p>\n                    <p>This is the bee that you just saw.</p>\n                    <img src=\"bees-with-color/bee-A2SF.svg\" width=\"200\">\n                    <p><span class=\"greenText\"><b>Successful harvest!</b></span><br>Your pay has increased by $0.02. Your bonus pay is now $1.04.</p>\n            ","response":0,"trial_type":"html-button-response","trial_index":130,"time_elapsed":378763,"internal_node_id":"0.0-4.0-1.61","subject_id":"60feaca2d504b502493dcf5b","study_id":"6197b3f67c2b5cd3b6d9596a","session_id":"6197b9e6f073b53ee3a215bd","condition":"contingent","relevant_dimensions":["pattern","legs"],"bee_group":{"antennae":"X","wings":"X","pattern":"D","legs":"M"},"bonus":1.4000000000000008},{"rt":718,"stimulus":"bees-with-color/bee-B2DF.svg","response":0,"trial_type":"image-button-response","trial_index":131,"time_elapsed":379483,"internal_node_id":"0.0-4.0-0.62","subject_id":"60feaca2d504b502493dcf5b","study_id":"6197b3f67c2b5cd3b6d9596a","session_id":"6197b9e6f073b53ee3a215bd","condition":"contingent","relevant_dimensions":["pattern","legs"],"bee_group":{"antennae":"X","wings":"X","pattern":"D","legs":"M"},"action":"harvest","summary":"good-harvest","bonus":1.4000000000000008},{"rt":493.7999999523163,"stimulus":"\n                    <p><b>Action: <em>harvest</em></b></p>\n                    <p>This is the bee that you just saw.</p>\n                    <img src=\"bees-with-color/bee-B2DF.svg\" width=\"200\">\n                    <p><span class=\"greenText\"><b>Successful harvest!</b></span><br>Your pay has increased by $0.02. Your bonus pay is now $1.06.</p>\n            ","response":0,"trial_type":"html-button-response","trial_index":132,"time_elapsed":379979,"internal_node_id":"0.0-4.0-1.62","subject_id":"60feaca2d504b502493dcf5b","study_id":"6197b3f67c2b5cd3b6d9596a","session_id":"6197b9e6f073b53ee3a215bd","condition":"contingent","relevant_dimensions":["pattern","legs"],"bee_group":{"antennae":"X","wings":"X","pattern":"D","legs":"M"},"bonus":1.4000000000000008},{"rt":854.1000000238419,"stimulus":"bees-with-color/bee-B1DF.svg","response":0,"trial_type":"image-button-response","trial_index":133,"time_elapsed":380835,"internal_node_id":"0.0-4.0-0.63","subject_id":"60feaca2d504b502493dcf5b","study_id":"6197b3f67c2b5cd3b6d9596a","session_id":"6197b9e6f073b53ee3a215bd","condition":"contingent","relevant_dimensions":["pattern","legs"],"bee_group":{"antennae":"X","wings":"X","pattern":"D","legs":"M"},"action":"harvest","summary":"good-harvest","bonus":1.4000000000000008},{"rt":581.7999999523163,"stimulus":"\n                    <p><b>Action: <em>harvest</em></b></p>\n                    <p>This is the bee that you just saw.</p>\n                    <img src=\"bees-with-color/bee-B1DF.svg\" width=\"200\">\n                    <p><span class=\"greenText\"><b>Successful harvest!</b></span><br>Your pay has increased by $0.02. Your bonus pay is now $1.08.</p>\n            ","response":0,"trial_type":"html-button-response","trial_index":134,"time_elapsed":381419,"internal_node_id":"0.0-4.0-1.63","subject_id":"60feaca2d504b502493dcf5b","study_id":"6197b3f67c2b5cd3b6d9596a","session_id":"6197b9e6f073b53ee3a215bd","condition":"contingent","relevant_dimensions":["pattern","legs"],"bee_group":{"antennae":"X","wings":"X","pattern":"D","legs":"M"},"bonus":1.4000000000000008},{"rt":9963.200000047684,"stimulus":"You have completed the first part of this experiment.<br><br>You will now begin a shorter second part, in which you will receive no feedback.<br>The same rules regarding bonus pay apply.<br><br>Press any key to begin.","response":" ","trial_type":"html-keyboard-response","trial_index":135,"time_elapsed":391385,"internal_node_id":"0.0-5.0","subject_id":"60feaca2d504b502493dcf5b","study_id":"6197b3f67c2b5cd3b6d9596a","session_id":"6197b9e6f073b53ee3a215bd","condition":"contingent","relevant_dimensions":["pattern","legs"],"bee_group":{"antennae":"X","wings":"X","pattern":"D","legs":"M"},"bonus":1.4000000000000008},{"rt":2214.399999976158,"stimulus":"bees-with-color/bee-A1SM.svg","response":1,"trial_type":"image-button-response","trial_index":136,"time_elapsed":393619,"internal_node_id":"0.0-6.0-0.0","subject_id":"60feaca2d504b502493dcf5b","study_id":"6197b3f67c2b5cd3b6d9596a","session_id":"6197b9e6f073b53ee3a215bd","condition":"contingent","relevant_dimensions":["pattern","legs"],"bee_group":{"antennae":"X","wings":"X","pattern":"D","legs":"M"},"bonus":1.4000000000000008},{"rt":948.8999999761581,"stimulus":"bees-with-color/bee-B1SM.svg","response":1,"trial_type":"image-button-response","trial_index":137,"time_elapsed":394571,"internal_node_id":"0.0-6.0-0.1","subject_id":"60feaca2d504b502493dcf5b","study_id":"6197b3f67c2b5cd3b6d9596a","session_id":"6197b9e6f073b53ee3a215bd","condition":"contingent","relevant_dimensions":["pattern","legs"],"bee_group":{"antennae":"X","wings":"X","pattern":"D","legs":"M"},"bonus":1.4000000000000008},{"rt":588.8999999761581,"stimulus":"bees-with-color/bee-B2SM.svg","response":1,"trial_type":"image-button-response","trial_index":138,"time_elapsed":395163,"internal_node_id":"0.0-6.0-0.2","subject_id":"60feaca2d504b502493dcf5b","study_id":"6197b3f67c2b5cd3b6d9596a","session_id":"6197b9e6f073b53ee3a215bd","condition":"contingent","relevant_dimensions":["pattern","legs"],"bee_group":{"antennae":"X","wings":"X","pattern":"D","legs":"M"},"bonus":1.4000000000000008},{"rt":708.8999999761581,"stimulus":"bees-with-color/bee-A1SF.svg","response":0,"trial_type":"image-button-response","trial_index":139,"time_elapsed":395875,"internal_node_id":"0.0-6.0-0.3","subject_id":"60feaca2d504b502493dcf5b","study_id":"6197b3f67c2b5cd3b6d9596a","session_id":"6197b9e6f073b53ee3a215bd","condition":"contingent","relevant_dimensions":["pattern","legs"],"bee_group":{"antennae":"X","wings":"X","pattern":"D","legs":"M"},"bonus":1.4000000000000008},{"rt":1909.1000000238419,"stimulus":"bees-with-color/bee-B1DF.svg","response":0,"trial_type":"image-button-response","trial_index":140,"time_elapsed":397787,"internal_node_id":"0.0-6.0-0.4","subject_id":"60feaca2d504b502493dcf5b","study_id":"6197b3f67c2b5cd3b6d9596a","session_id":"6197b9e6f073b53ee3a215bd","condition":"contingent","relevant_dimensions":["pattern","legs"],"bee_group":{"antennae":"X","wings":"X","pattern":"D","legs":"M"},"bonus":1.4000000000000008},{"rt":1213.1000000238419,"stimulus":"bees-with-color/bee-A1DM.svg","response":1,"trial_type":"image-button-response","trial_index":141,"time_elapsed":399003,"internal_node_id":"0.0-6.0-0.5","subject_id":"60feaca2d504b502493dcf5b","study_id":"6197b3f67c2b5cd3b6d9596a","session_id":"6197b9e6f073b53ee3a215bd","condition":"contingent","relevant_dimensions":["pattern","legs"],"bee_group":{"antennae":"X","wings":"X","pattern":"D","legs":"M"},"bonus":1.4000000000000008},{"rt":548.5999999046326,"stimulus":"bees-with-color/bee-B1DM.svg","response":1,"trial_type":"image-button-response","trial_index":142,"time_elapsed":399555,"internal_node_id":"0.0-6.0-0.6","subject_id":"60feaca2d504b502493dcf5b","study_id":"6197b3f67c2b5cd3b6d9596a","session_id":"6197b9e6f073b53ee3a215bd","condition":"contingent","relevant_dimensions":["pattern","legs"],"bee_group":{"antennae":"X","wings":"X","pattern":"D","legs":"M"},"bonus":1.4000000000000008},{"rt":780.8999999761581,"stimulus":"bees-with-color/bee-A2SM.svg","response":1,"trial_type":"image-button-response","trial_index":143,"time_elapsed":400339,"internal_node_id":"0.0-6.0-0.7","subject_id":"60feaca2d504b502493dcf5b","study_id":"6197b3f67c2b5cd3b6d9596a","session_id":"6197b9e6f073b53ee3a215bd","condition":"contingent","relevant_dimensions":["pattern","legs"],"bee_group":{"antennae":"X","wings":"X","pattern":"D","legs":"M"},"bonus":1.4000000000000008},{"rt":804.7000000476837,"stimulus":"bees-with-color/bee-B2SF.svg","response":0,"trial_type":"image-button-response","trial_index":144,"time_elapsed":401147,"internal_node_id":"0.0-6.0-0.8","subject_id":"60feaca2d504b502493dcf5b","study_id":"6197b3f67c2b5cd3b6d9596a","session_id":"6197b9e6f073b53ee3a215bd","condition":"contingent","relevant_dimensions":["pattern","legs"],"bee_group":{"antennae":"X","wings":"X","pattern":"D","legs":"M"},"bonus":1.4000000000000008},{"rt":925,"stimulus":"bees-with-color/bee-A2DM.svg","response":1,"trial_type":"image-button-response","trial_index":145,"time_elapsed":402075,"internal_node_id":"0.0-6.0-0.9","subject_id":"60feaca2d504b502493dcf5b","study_id":"6197b3f67c2b5cd3b6d9596a","session_id":"6197b9e6f073b53ee3a215bd","condition":"contingent","relevant_dimensions":["pattern","legs"],"bee_group":{"antennae":"X","wings":"X","pattern":"D","legs":"M"},"bonus":1.4000000000000008},{"rt":2485,"stimulus":"bees-with-color/bee-B2DF.svg","response":0,"trial_type":"image-button-response","trial_index":146,"time_elapsed":404563,"internal_node_id":"0.0-6.0-0.10","subject_id":"60feaca2d504b502493dcf5b","study_id":"6197b3f67c2b5cd3b6d9596a","session_id":"6197b9e6f073b53ee3a215bd","condition":"contingent","relevant_dimensions":["pattern","legs"],"bee_group":{"antennae":"X","wings":"X","pattern":"D","legs":"M"},"bonus":1.4000000000000008},{"rt":772.7999999523163,"stimulus":"bees-with-color/bee-A1DF.svg","response":0,"trial_type":"image-button-response","trial_index":147,"time_elapsed":405339,"internal_node_id":"0.0-6.0-0.11","subject_id":"60feaca2d504b502493dcf5b","study_id":"6197b3f67c2b5cd3b6d9596a","session_id":"6197b9e6f073b53ee3a215bd","condition":"contingent","relevant_dimensions":["pattern","legs"],"bee_group":{"antennae":"X","wings":"X","pattern":"D","legs":"M"},"bonus":1.4000000000000008},{"rt":988.8999999761581,"stimulus":"bees-with-color/bee-A2SF.svg","response":0,"trial_type":"image-button-response","trial_index":148,"time_elapsed":406331,"internal_node_id":"0.0-6.0-0.12","subject_id":"60feaca2d504b502493dcf5b","study_id":"6197b3f67c2b5cd3b6d9596a","session_id":"6197b9e6f073b53ee3a215bd","condition":"contingent","relevant_dimensions":["pattern","legs"],"bee_group":{"antennae":"X","wings":"X","pattern":"D","legs":"M"},"bonus":1.4000000000000008},{"rt":892.8999999761581,"stimulus":"bees-with-color/bee-B2DM.svg","response":1,"trial_type":"image-button-response","trial_index":149,"time_elapsed":407227,"internal_node_id":"0.0-6.0-0.13","subject_id":"60feaca2d504b502493dcf5b","study_id":"6197b3f67c2b5cd3b6d9596a","session_id":"6197b9e6f073b53ee3a215bd","condition":"contingent","relevant_dimensions":["pattern","legs"],"bee_group":{"antennae":"X","wings":"X","pattern":"D","legs":"M"},"bonus":1.4000000000000008},{"rt":572.5,"stimulus":"bees-with-color/bee-B1SF.svg","response":0,"trial_type":"image-button-response","trial_index":150,"time_elapsed":407803,"internal_node_id":"0.0-6.0-0.14","subject_id":"60feaca2d504b502493dcf5b","study_id":"6197b3f67c2b5cd3b6d9596a","session_id":"6197b9e6f073b53ee3a215bd","condition":"contingent","relevant_dimensions":["pattern","legs"],"bee_group":{"antennae":"X","wings":"X","pattern":"D","legs":"M"},"bonus":1.4000000000000008},{"rt":652.7999999523163,"stimulus":"bees-with-color/bee-A2DF.svg","response":0,"trial_type":"image-button-response","trial_index":151,"time_elapsed":408459,"internal_node_id":"0.0-6.0-0.15","subject_id":"60feaca2d504b502493dcf5b","study_id":"6197b3f67c2b5cd3b6d9596a","session_id":"6197b9e6f073b53ee3a215bd","condition":"contingent","relevant_dimensions":["pattern","legs"],"bee_group":{"antennae":"X","wings":"X","pattern":"D","legs":"M"},"bonus":1.4000000000000008},{"rt":933.1999999284744,"stimulus":"bees-with-color/bee-A2DF.svg","response":0,"trial_type":"image-button-response","trial_index":152,"time_elapsed":409395,"internal_node_id":"0.0-6.0-0.16","subject_id":"60feaca2d504b502493dcf5b","study_id":"6197b3f67c2b5cd3b6d9596a","session_id":"6197b9e6f073b53ee3a215bd","condition":"contingent","relevant_dimensions":["pattern","legs"],"bee_group":{"antennae":"X","wings":"X","pattern":"D","legs":"M"},"bonus":1.4000000000000008},{"rt":821,"stimulus":"bees-with-color/bee-A2DM.svg","response":1,"trial_type":"image-button-response","trial_index":153,"time_elapsed":410219,"internal_node_id":"0.0-6.0-0.17","subject_id":"60feaca2d504b502493dcf5b","study_id":"6197b3f67c2b5cd3b6d9596a","session_id":"6197b9e6f073b53ee3a215bd","condition":"contingent","relevant_dimensions":["pattern","legs"],"bee_group":{"antennae":"X","wings":"X","pattern":"D","legs":"M"},"bonus":1.4000000000000008},{"rt":956.8999999761581,"stimulus":"bees-with-color/bee-B1SM.svg","response":1,"trial_type":"image-button-response","trial_index":154,"time_elapsed":411179,"internal_node_id":"0.0-6.0-0.18","subject_id":"60feaca2d504b502493dcf5b","study_id":"6197b3f67c2b5cd3b6d9596a","session_id":"6197b9e6f073b53ee3a215bd","condition":"contingent","relevant_dimensions":["pattern","legs"],"bee_group":{"antennae":"X","wings":"X","pattern":"D","legs":"M"},"bonus":1.4000000000000008},{"rt":757.5,"stimulus":"bees-with-color/bee-B2SM.svg","response":1,"trial_type":"image-button-response","trial_index":155,"time_elapsed":411939,"internal_node_id":"0.0-6.0-0.19","subject_id":"60feaca2d504b502493dcf5b","study_id":"6197b3f67c2b5cd3b6d9596a","session_id":"6197b9e6f073b53ee3a215bd","condition":"contingent","relevant_dimensions":["pattern","legs"],"bee_group":{"antennae":"X","wings":"X","pattern":"D","legs":"M"},"bonus":1.4000000000000008},{"rt":805.3999999761581,"stimulus":"bees-with-color/bee-B2SF.svg","response":0,"trial_type":"image-button-response","trial_index":156,"time_elapsed":412747,"internal_node_id":"0.0-6.0-0.20","subject_id":"60feaca2d504b502493dcf5b","study_id":"6197b3f67c2b5cd3b6d9596a","session_id":"6197b9e6f073b53ee3a215bd","condition":"contingent","relevant_dimensions":["pattern","legs"],"bee_group":{"antennae":"X","wings":"X","pattern":"D","legs":"M"},"bonus":1.4000000000000008},{"rt":1037.5,"stimulus":"bees-with-color/bee-A1SM.svg","response":1,"trial_type":"image-button-response","trial_index":157,"time_elapsed":413787,"internal_node_id":"0.0-6.0-0.21","subject_id":"60feaca2d504b502493dcf5b","study_id":"6197b3f67c2b5cd3b6d9596a","session_id":"6197b9e6f073b53ee3a215bd","condition":"contingent","relevant_dimensions":["pattern","legs"],"bee_group":{"antennae":"X","wings":"X","pattern":"D","legs":"M"},"bonus":1.4000000000000008},{"rt":941.3000000715256,"stimulus":"bees-with-color/bee-B2DM.svg","response":1,"trial_type":"image-button-response","trial_index":158,"time_elapsed":414731,"internal_node_id":"0.0-6.0-0.22","subject_id":"60feaca2d504b502493dcf5b","study_id":"6197b3f67c2b5cd3b6d9596a","session_id":"6197b9e6f073b53ee3a215bd","condition":"contingent","relevant_dimensions":["pattern","legs"],"bee_group":{"antennae":"X","wings":"X","pattern":"D","legs":"M"},"bonus":1.4000000000000008},{"rt":581.1000000238419,"stimulus":"bees-with-color/bee-B1SF.svg","response":0,"trial_type":"image-button-response","trial_index":159,"time_elapsed":415315,"internal_node_id":"0.0-6.0-0.23","subject_id":"60feaca2d504b502493dcf5b","study_id":"6197b3f67c2b5cd3b6d9596a","session_id":"6197b9e6f073b53ee3a215bd","condition":"contingent","relevant_dimensions":["pattern","legs"],"bee_group":{"antennae":"X","wings":"X","pattern":"D","legs":"M"},"bonus":1.4000000000000008},{"rt":781.3999999761581,"stimulus":"bees-with-color/bee-A1DM.svg","response":1,"trial_type":"image-button-response","trial_index":160,"time_elapsed":416099,"internal_node_id":"0.0-6.0-0.24","subject_id":"60feaca2d504b502493dcf5b","study_id":"6197b3f67c2b5cd3b6d9596a","session_id":"6197b9e6f073b53ee3a215bd","condition":"contingent","relevant_dimensions":["pattern","legs"],"bee_group":{"antennae":"X","wings":"X","pattern":"D","legs":"M"},"bonus":1.4000000000000008},{"rt":645.2000000476837,"stimulus":"bees-with-color/bee-B1DF.svg","response":0,"trial_type":"image-button-response","trial_index":161,"time_elapsed":416747,"internal_node_id":"0.0-6.0-0.25","subject_id":"60feaca2d504b502493dcf5b","study_id":"6197b3f67c2b5cd3b6d9596a","session_id":"6197b9e6f073b53ee3a215bd","condition":"contingent","relevant_dimensions":["pattern","legs"],"bee_group":{"antennae":"X","wings":"X","pattern":"D","legs":"M"},"bonus":1.4000000000000008},{"rt":1253.3999999761581,"stimulus":"bees-with-color/bee-A1DF.svg","response":0,"trial_type":"image-button-response","trial_index":162,"time_elapsed":418003,"internal_node_id":"0.0-6.0-0.26","subject_id":"60feaca2d504b502493dcf5b","study_id":"6197b3f67c2b5cd3b6d9596a","session_id":"6197b9e6f073b53ee3a215bd","condition":"contingent","relevant_dimensions":["pattern","legs"],"bee_group":{"antennae":"X","wings":"X","pattern":"D","legs":"M"},"bonus":1.4000000000000008},{"rt":909.3000000715256,"stimulus":"bees-with-color/bee-A2SF.svg","response":0,"trial_type":"image-button-response","trial_index":163,"time_elapsed":418915,"internal_node_id":"0.0-6.0-0.27","subject_id":"60feaca2d504b502493dcf5b","study_id":"6197b3f67c2b5cd3b6d9596a","session_id":"6197b9e6f073b53ee3a215bd","condition":"contingent","relevant_dimensions":["pattern","legs"],"bee_group":{"antennae":"X","wings":"X","pattern":"D","legs":"M"},"bonus":1.4000000000000008},{"rt":677.1000000238419,"stimulus":"bees-with-color/bee-A2SM.svg","response":1,"trial_type":"image-button-response","trial_index":164,"time_elapsed":419595,"internal_node_id":"0.0-6.0-0.28","subject_id":"60feaca2d504b502493dcf5b","study_id":"6197b3f67c2b5cd3b6d9596a","session_id":"6197b9e6f073b53ee3a215bd","condition":"contingent","relevant_dimension