[{"success":true,"trial_type":"fullscreen","trial_index":0,"time_elapsed":3927,"internal_node_id":"0.0-0.0","subject_id":"5fbb7aae04da87a3fe5f129c","study_id":"6197b3f67c2b5cd3b6d9596a","session_id":"619be3210bcf6c3cdbfeb161","condition":"full-information","relevant_dimensions":["antennae","wings"],"bee_group":{"antennae":"A","wings":"1","pattern":"X","legs":"X"},"bonus":1.7000000000000013},{"success":true,"timeout":false,"failed_images":[],"failed_audio":[],"failed_video":[],"trial_type":"preload","trial_index":1,"time_elapsed":8999,"internal_node_id":"0.0-1.0","subject_id":"5fbb7aae04da87a3fe5f129c","study_id":"6197b3f67c2b5cd3b6d9596a","session_id":"619be3210bcf6c3cdbfeb161","condition":"full-information","relevant_dimensions":["antennae","wings"],"bee_group":{"antennae":"A","wings":"1","pattern":"X","legs":"X"},"bonus":1.7000000000000013},{"rt":1854.2000000178814,"stimulus":"Welcome! Press any key to begin.","response":" ","trial_type":"html-keyboard-response","trial_index":2,"time_elapsed":10854,"internal_node_id":"0.0-2.0","subject_id":"5fbb7aae04da87a3fe5f129c","study_id":"6197b3f67c2b5cd3b6d9596a","session_id":"619be3210bcf6c3cdbfeb161","condition":"full-information","relevant_dimensions":["antennae","wings"],"bee_group":{"antennae":"A","wings":"1","pattern":"X","legs":"X"},"bonus":1.7000000000000013},{"view_history":[{"page_index":0,"viewing_time":4458.0999999940395},{"page_index":1,"viewing_time":1478},{"page_index":0,"viewing_time":1131.9000000059605},{"page_index":1,"viewing_time":11579.699999988079},{"page_index":2,"viewing_time":17706},{"page_index":3,"viewing_time":25234.09999999404},{"page_index":4,"viewing_time":7274.5999999940395},{"page_index":5,"viewing_time":9541.5},{"page_index":6,"viewing_time":16306},{"page_index":7,"viewing_time":6142},{"page_index":8,"viewing_time":2812},{"page_index":7,"viewing_time":1394},{"page_index":8,"viewing_time":2951.9000000059605},{"page_index":9,"viewing_time":1944.2000000178814},{"page_index":10,"viewing_time":2299.899999976158},{"page_index":11,"viewing_time":24472},{"page_index":12,"viewing_time":12432.5},{"page_index":13,"viewing_time":1091.5},{"page_index":14,"viewing_time":4090}],"rt":154340.19999998808,"trial_type":"instructions","trial_index":3,"time_elapsed":165194,"internal_node_id":"0.0-3.0-0.0","subject_id":"5fbb7aae04da87a3fe5f129c","study_id":"6197b3f67c2b5cd3b6d9596a","session_id":"619be3210bcf6c3cdbfeb161","condition":"full-information","relevant_dimensions":["antennae","wings"],"bee_group":{"antennae":"A","wings":"1","pattern":"X","legs":"X"},"bonus":1.7000000000000013},{"rt":15535,"response":{"Q0":["Two or six legs","Stripes or spots on body","Single or double wings","Antennae or no antennae"]},"question_order":[0],"trial_type":"survey-multi-select","trial_index":4,"time_elapsed":180733,"internal_node_id":"0.0-3.0-1.0","subject_id":"5fbb7aae04da87a3fe5f129c","study_id":"6197b3f67c2b5cd3b6d9596a","session_id":"619be3210bcf6c3cdbfeb161","condition":"full-information","relevant_dimensions":["antennae","wings"],"bee_group":{"antennae":"A","wings":"1","pattern":"X","legs":"X"},"correct":true,"bonus":1.7000000000000013},{"rt":34641.19999998808,"response":{"Q1":"No.","Q2":"Based on the four features of the bee.","Q3":"You learn if it was friendly or dangerous, but do not alter your bonus."},"question_order":[0,1,2],"trial_type":"survey-multi-choice","trial_index":5,"time_elapsed":215378,"internal_node_id":"0.0-3.0-2.0","subject_id":"5fbb7aae04da87a3fe5f129c","study_id":"6197b3f67c2b5cd3b6d9596a","session_id":"619be3210bcf6c3cdbfeb161","condition":"full-information","relevant_dimensions":["antennae","wings"],"bee_group":{"antennae":"A","wings":"1","pattern":"X","legs":"X"},"correct":true,"bonus":1.7000000000000013},{"rt":2637.5999999940395,"stimulus":"<p>Congrats, you got everything right<br>When you're ready, click the button below to continue to the experiment.</p>","response":0,"trial_type":"html-button-response","trial_index":6,"time_elapsed":218020,"internal_node_id":"0.0-3.0-3.0","subject_id":"5fbb7aae04da87a3fe5f129c","study_id":"6197b3f67c2b5cd3b6d9596a","session_id":"619be3210bcf6c3cdbfeb161","condition":"full-information","relevant_dimensions":["antennae","wings"],"bee_group":{"antennae":"A","wings":"1","pattern":"X","legs":"X"},"bonus":1.7000000000000013},{"rt":4250.0999999940395,"stimulus":"bees-with-color/bee-A1DF.svg","response":1,"trial_type":"image-button-response","trial_index":7,"time_elapsed":222272,"internal_node_id":"0.0-4.0-0.0","subject_id":"5fbb7aae04da87a3fe5f129c","study_id":"6197b3f67c2b5cd3b6d9596a","session_id":"619be3210bcf6c3cdbfeb161","condition":"full-information","relevant_dimensions":["antennae","wings"],"bee_group":{"antennae":"A","wings":"1","pattern":"X","legs":"X"},"action":"avoid","summary":"good-avoid","bonus":1.7000000000000013},{"rt":116551.89999997616,"stimulus":"\n                    <p><b>Action: <em>avoid</em></b></p>\n                    <p>This is the bee that you just saw.</p>\n                    <img src=\"bees-with-color/bee-A1DF.svg\" width=\"200\">\n                    <p><span class=\"greenText\">Good choice!</span>  This bee would have stung you.<br>Your bonus pay is unchanged, and remains at $0.54.</p>\n            ","response":0,"trial_type":"html-button-response","trial_index":8,"time_elapsed":338827,"internal_node_id":"0.0-4.0-1.0","subject_id":"5fbb7aae04da87a3fe5f129c","study_id":"6197b3f67c2b5cd3b6d9596a","session_id":"619be3210bcf6c3cdbfeb161","condition":"full-information","relevant_dimensions":["antennae","wings"],"bee_group":{"antennae":"A","wings":"1","pattern":"X","legs":"X"},"bonus":1.7000000000000013},{"rt":4783.5,"stimulus":"bees-with-color/bee-B2SF.svg","response":0,"trial_type":"image-button-response","trial_index":9,"time_elapsed":343612,"internal_node_id":"0.0-4.0-0.1","subject_id":"5fbb7aae04da87a3fe5f129c","study_id":"6197b3f67c2b5cd3b6d9596a","session_id":"619be3210bcf6c3cdbfeb161","condition":"full-information","relevant_dimensions":["antennae","wings"],"bee_group":{"antennae":"A","wings":"1","pattern":"X","legs":"X"},"action":"harvest","summary":"good-harvest","bonus":1.7000000000000013},{"rt":32808.19999998808,"stimulus":"\n                    <p><b>Action: <em>harvest</em></b></p>\n                    <p>This is the bee that you just saw.</p>\n                    <img src=\"bees-with-color/bee-B2SF.svg\" width=\"200\">\n                    <p><span class=\"greenText\"><b>Successful harvest!</b></span><br>Your pay has increased by $0.02. Your bonus pay is now $0.56.</p>\n            ","response":0,"trial_type":"html-button-response","trial_index":10,"time_elapsed":376423,"internal_node_id":"0.0-4.0-1.1","subject_id":"5fbb7aae04da87a3fe5f129c","study_id":"6197b3f67c2b5cd3b6d9596a","session_id":"619be3210bcf6c3cdbfeb161","condition":"full-information","relevant_dimensions":["antennae","wings"],"bee_group":{"antennae":"A","wings":"1","pattern":"X","legs":"X"},"bonus":1.7000000000000013},{"rt":4530,"stimulus":"bees-with-color/bee-A2DM.svg","response":1,"trial_type":"image-button-response","trial_index":11,"time_elapsed":380955,"internal_node_id":"0.0-4.0-0.2","subject_id":"5fbb7aae04da87a3fe5f129c","study_id":"6197b3f67c2b5cd3b6d9596a","session_id":"619be3210bcf6c3cdbfeb161","condition":"full-information","relevant_dimensions":["antennae","wings"],"bee_group":{"antennae":"A","wings":"1","pattern":"X","legs":"X"},"action":"avoid","summary":"bad-avoid","bonus":1.7000000000000013},{"rt":24506.19999998808,"stimulus":"\n                    <p><b>Action: <em>avoid</em></b></p>\n                    <p>This is the bee that you just saw.</p>\n                    <img src=\"bees-with-color/bee-A2DM.svg\" width=\"200\">\n                    <p><span class=\"redText\">Bad choice,</span> the bee was friendly.<br>Your bonus pay is unchanged, and remains at $0.56.</p>\n            ","response":0,"trial_type":"html-button-response","trial_index":12,"time_elapsed":405462,"internal_node_id":"0.0-4.0-1.2","subject_id":"5fbb7aae04da87a3fe5f129c","study_id":"6197b3f67c2b5cd3b6d9596a","session_id":"619be3210bcf6c3cdbfeb161","condition":"full-information","relevant_dimensions":["antennae","wings"],"bee_group":{"antennae":"A","wings":"1","pattern":"X","legs":"X"},"bonus":1.7000000000000013},{"rt":8416,"stimulus":"bees-with-color/bee-A1SF.svg","response":1,"trial_type":"image-button-response","trial_index":13,"time_elapsed":413880,"internal_node_id":"0.0-4.0-0.3","subject_id":"5fbb7aae04da87a3fe5f129c","study_id":"6197b3f67c2b5cd3b6d9596a","session_id":"619be3210bcf6c3cdbfeb161","condition":"full-information","relevant_dimensions":["antennae","wings"],"bee_group":{"antennae":"A","wings":"1","pattern":"X","legs":"X"},"action":"avoid","summary":"good-avoid","bonus":1.7000000000000013},{"rt":42775.69999998808,"stimulus":"\n                    <p><b>Action: <em>avoid</em></b></p>\n                    <p>This is the bee that you just saw.</p>\n                    <img src=\"bees-with-color/bee-A1SF.svg\" width=\"200\">\n                    <p><span class=\"greenText\">Good choice!</span>  This bee would have stung you.<br>Your bonus pay is unchanged, and remains at $0.56.</p>\n            ","response":0,"trial_type":"html-button-response","trial_index":14,"time_elapsed":456658,"internal_node_id":"0.0-4.0-1.3","subject_id":"5fbb7aae04da87a3fe5f129c","study_id":"6197b3f67c2b5cd3b6d9596a","session_id":"619be3210bcf6c3cdbfeb161","condition":"full-information","relevant_dimensions":["antennae","wings"],"bee_group":{"antennae":"A","wings":"1","pattern":"X","legs":"X"},"bonus":1.7000000000000013},{"rt":19372.09999999404,"stimulus":"bees-with-color/bee-B2DF.svg","response":0,"trial_type":"image-button-response","trial_index":15,"time_elapsed":476032,"internal_node_id":"0.0-4.0-0.4","subject_id":"5fbb7aae04da87a3fe5f129c","study_id":"6197b3f67c2b5cd3b6d9596a","session_id":"619be3210bcf6c3cdbfeb161","condition":"full-information","relevant_dimensions":["antennae","wings"],"bee_group":{"antennae":"A","wings":"1","pattern":"X","legs":"X"},"action":"harvest","summary":"good-harvest","bonus":1.7000000000000013},{"rt":27509.59999999404,"stimulus":"\n                    <p><b>Action: <em>harvest</em></b></p>\n                    <p>This is the bee that you just saw.</p>\n                    <img src=\"bees-with-color/bee-B2DF.svg\" width=\"200\">\n                    <p><span class=\"greenText\"><b>Successful harvest!</b></span><br>Your pay has increased by $0.02. Your bonus pay is now $0.58.</p>\n            ","response":0,"trial_type":"html-button-response","trial_index":16,"time_elapsed":503544,"internal_node_id":"0.0-4.0-1.4","subject_id":"5fbb7aae04da87a3fe5f129c","study_id":"6197b3f67c2b5cd3b6d9596a","session_id":"619be3210bcf6c3cdbfeb161","condition":"full-information","relevant_dimensions":["antennae","wings"],"bee_group":{"antennae":"A","wings":"1","pattern":"X","legs":"X"},"bonus":1.7000000000000013},{"rt":44100.69999998808,"stimulus":"bees-with-color/bee-A2SF.svg","response":0,"trial_type":"image-button-response","trial_index":17,"time_elapsed":547646,"internal_node_id":"0.0-4.0-0.5","subject_id":"5fbb7aae04da87a3fe5f129c","study_id":"6197b3f67c2b5cd3b6d9596a","session_id":"619be3210bcf6c3cdbfeb161","condition":"full-information","relevant_dimensions":["antennae","wings"],"bee_group":{"antennae":"A","wings":"1","pattern":"X","legs":"X"},"action":"harvest","summary":"good-harvest","bonus":1.7000000000000013},{"rt":30404.600000023842,"stimulus":"\n                    <p><b>Action: <em>harvest</em></b></p>\n                    <p>This is the bee that you just saw.</p>\n                    <img src=\"bees-with-color/bee-A2SF.svg\" width=\"200\">\n                    <p><span class=\"greenText\"><b>Successful harvest!</b></span><br>Your pay has increased by $0.02. Your bonus pay is now $0.60.</p>\n            ","response":0,"trial_type":"html-button-response","trial_index":18,"time_elapsed":578052,"internal_node_id":"0.0-4.0-1.5","subject_id":"5fbb7aae04da87a3fe5f129c","study_id":"6197b3f67c2b5cd3b6d9596a","session_id":"619be3210bcf6c3cdbfeb161","condition":"full-information","relevant_dimensions":["antennae","wings"],"bee_group":{"antennae":"A","wings":"1","pattern":"X","legs":"X"},"bonus":1.7000000000000013},{"rt":5844.4000000059605,"stimulus":"bees-with-color/bee-B2SM.svg","response":0,"trial_type":"image-button-response","trial_index":19,"time_elapsed":583898,"internal_node_id":"0.0-4.0-0.6","subject_id":"5fbb7aae04da87a3fe5f129c","study_id":"6197b3f67c2b5cd3b6d9596a","session_id":"619be3210bcf6c3cdbfeb161","condition":"full-information","relevant_dimensions":["antennae","wings"],"bee_group":{"antennae":"A","wings":"1","pattern":"X","legs":"X"},"action":"harvest","summary":"good-harvest","bonus":1.7000000000000013},{"rt":15594.5,"stimulus":"\n                    <p><b>Action: <em>harvest</em></b></p>\n                    <p>This is the bee that you just saw.</p>\n                    <img src=\"bees-with-color/bee-B2SM.svg\" width=\"200\">\n                    <p><span class=\"greenText\"><b>Successful harvest!</b></span><br>Your pay has increased by $0.02. Your bonus pay is now $0.62.</p>\n            ","response":0,"trial_type":"html-button-response","trial_index":20,"time_elapsed":599494,"internal_node_id":"0.0-4.0-1.6","subject_id":"5fbb7aae04da87a3fe5f129c","study_id":"6197b3f67c2b5cd3b6d9596a","session_id":"619be3210bcf6c3cdbfeb161","condition":"full-information","relevant_dimensions":["antennae","wings"],"bee_group":{"antennae":"A","wings":"1","pattern":"X","legs":"X"},"bonus":1.7000000000000013},{"rt":39814.5,"stimulus":"bees-with-color/bee-B2DM.svg","response":0,"trial_type":"image-button-response","trial_index":21,"time_elapsed":639311,"internal_node_id":"0.0-4.0-0.7","subject_id":"5fbb7aae04da87a3fe5f129c","study_id":"6197b3f67c2b5cd3b6d9596a","session_id":"619be3210bcf6c3cdbfeb161","condition":"full-information","relevant_dimensions":["antennae","wings"],"bee_group":{"antennae":"A","wings":"1","pattern":"X","legs":"X"},"action":"harvest","summary":"good-harvest","bonus":1.7000000000000013},{"rt":1820.1000000238419,"stimulus":"\n                    <p><b>Action: <em>harvest</em></b></p>\n                    <p>This is the bee that you just saw.</p>\n                    <img src=\"bees-with-color/bee-B2DM.svg\" width=\"200\">\n                    <p><span class=\"greenText\"><b>Successful harvest!</b></span><br>Your pay has increased by $0.02. Your bonus pay is now $0.64.</p>\n            ","response":0,"trial_type":"html-button-response","trial_index":22,"time_elapsed":641133,"internal_node_id":"0.0-4.0-1.7","subject_id":"5fbb7aae04da87a3fe5f129c","study_id":"6197b3f67c2b5cd3b6d9596a","session_id":"619be3210bcf6c3cdbfeb161","condition":"full-information","relevant_dimensions":["antennae","wings"],"bee_group":{"antennae":"A","wings":"1","pattern":"X","legs":"X"},"bonus":1.7000000000000013},{"rt":23048,"stimulus":"bees-with-color/bee-B1DF.svg","response":1,"trial_type":"image-button-response","trial_index":23,"time_elapsed":664183,"internal_node_id":"0.0-4.0-0.8","subject_id":"5fbb7aae04da87a3fe5f129c","study_id":"6197b3f67c2b5cd3b6d9596a","session_id":"619be3210bcf6c3cdbfeb161","condition":"full-information","relevant_dimensions":["antennae","wings"],"bee_group":{"antennae":"A","wings":"1","pattern":"X","legs":"X"},"action":"avoid","summary":"bad-avoid","bonus":1.7000000000000013},{"rt":5759.9000000059605,"stimulus":"\n                    <p><b>Action: <em>avoid</em></b></p>\n                    <p>This is the bee that you just saw.</p>\n                    <img src=\"bees-with-color/bee-B1DF.svg\" width=\"200\">\n                    <p><span class=\"redText\">Bad choice,</span> the bee was friendly.<br>Your bonus pay is unchanged, and remains at $0.64.</p>\n            ","response":0,"trial_type":"html-button-response","trial_index":24,"time_elapsed":669945,"internal_node_id":"0.0-4.0-1.8","subject_id":"5fbb7aae04da87a3fe5f129c","study_id":"6197b3f67c2b5cd3b6d9596a","session_id":"619be3210bcf6c3cdbfeb161","condition":"full-information","relevant_dimensions":["antennae","wings"],"bee_group":{"antennae":"A","wings":"1","pattern":"X","legs":"X"},"bonus":1.7000000000000013},{"rt":6100.200000017881,"stimulus":"bees-with-color/bee-A2SM.svg","response":0,"trial_type":"image-button-response","trial_index":25,"time_elapsed":676047,"internal_node_id":"0.0-4.0-0.9","subject_id":"5fbb7aae04da87a3fe5f129c","study_id":"6197b3f67c2b5cd3b6d9596a","session_id":"619be3210bcf6c3cdbfeb161","condition":"full-information","relevant_dimensions":["antennae","wings"],"bee_group":{"antennae":"A","wings":"1","pattern":"X","legs":"X"},"action":"harvest","summary":"good-harvest","bonus":1.7000000000000013},{"rt":989.9000000059605,"stimulus":"\n                    <p><b>Action: <em>harvest</em></b></p>\n                    <p>This is the bee that you just saw.</p>\n                    <img src=\"bees-with-color/bee-A2SM.svg\" width=\"200\">\n                    <p><span class=\"greenText\"><b>Successful harvest!</b></span><br>Your pay has increased by $0.02. Your bonus pay is now $0.66.</p>\n            ","response":0,"trial_type":"html-button-response","trial_index":26,"time_elapsed":677039,"internal_node_id":"0.0-4.0-1.9","subject_id":"5fbb7aae04da87a3fe5f129c","study_id":"6197b3f67c2b5cd3b6d9596a","session_id":"619be3210bcf6c3cdbfeb161","condition":"full-information","relevant_dimensions":["antennae","wings"],"bee_group":{"antennae":"A","wings":"1","pattern":"X","legs":"X"},"bonus":1.7000000000000013},{"rt":45335.90000000596,"stimulus":"bees-with-color/bee-B1SM.svg","response":1,"trial_type":"image-button-response","trial_index":27,"time_elapsed":722378,"internal_node_id":"0.0-4.0-0.10","subject_id":"5fbb7aae04da87a3fe5f129c","study_id":"6197b3f67c2b5cd3b6d9596a","session_id":"619be3210bcf6c3cdbfeb161","condition":"full-information","relevant_dimensions":["antennae","wings"],"bee_group":{"antennae":"A","wings":"1","pattern":"X","legs":"X"},"action":"avoid","summary":"bad-avoid","bonus":1.7000000000000013},{"rt":3395.9000000059605,"stimulus":"\n                    <p><b>Action: <em>avoid</em></b></p>\n                    <p>This is the bee that you just saw.</p>\n                    <img src=\"bees-with-color/bee-B1SM.svg\" width=\"200\">\n                    <p><span class=\"redText\">Bad choice,</span> the bee was friendly.<br>Your bonus pay is unchanged, and remains at $0.66.</p>\n            ","response":0,"trial_type":"html-button-response","trial_index":28,"time_elapsed":725778,"internal_node_id":"0.0-4.0-1.10","subject_id":"5fbb7aae04da87a3fe5f129c","study_id":"6197b3f67c2b5cd3b6d9596a","session_id":"619be3210bcf6c3cdbfeb161","condition":"full-information","relevant_dimensions":["antennae","wings"],"bee_group":{"antennae":"A","wings":"1","pattern":"X","legs":"X"},"bonus":1.7000000000000013},{"rt":40837.90000000596,"stimulus":"bees-with-color/bee-A2DF.svg","response":1,"trial_type":"image-button-response","trial_index":29,"time_elapsed":766617,"internal_node_id":"0.0-4.0-0.11","subject_id":"5fbb7aae04da87a3fe5f129c","study_id":"6197b3f67c2b5cd3b6d9596a","session_id":"619be3210bcf6c3cdbfeb161","condition":"full-information","relevant_dimensions":["antennae","wings"],"bee_group":{"antennae":"A","wings":"1","pattern":"X","legs":"X"},"action":"avoid","summary":"bad-avoid","bonus":1.7000000000000013},{"rt":6194.699999988079,"stimulus":"\n                    <p><b>Action: <em>avoid</em></b></p>\n                    <p>This is the bee that you just saw.</p>\n                    <img src=\"bees-with-color/bee-A2DF.svg\" width=\"200\">\n                    <p><span class=\"redText\">Bad choice,</span> the bee was friendly.<br>Your bonus pay is unchanged, and remains at $0.66.</p>\n            ","response":0,"trial_type":"html-button-response","trial_index":30,"time_elapsed":772813,"internal_node_id":"0.0-4.0-1.11","subject_id":"5fbb7aae04da87a3fe5f129c","study_id":"6197b3f67c2b5cd3b6d9596a","session_id":"619be3210bcf6c3cdbfeb161","condition":"full-information","relevant_dimensions":["antennae","wings"],"bee_group":{"antennae":"A","wings":"1","pattern":"X","legs":"X"},"bonus":1.7000000000000013},{"rt":3398.699999988079,"stimulus":"bees-with-color/bee-A1DM.svg","response":0,"trial_type":"image-button-response","trial_index":31,"time_elapsed":776213,"internal_node_id":"0.0-4.0-0.12","subject_id":"5fbb7aae04da87a3fe5f129c","study_id":"6197b3f67c2b5cd3b6d9596a","session_id":"619be3210bcf6c3cdbfeb161","condition":"full-information","relevant_dimensions":["antennae","wings"],"bee_group":{"antennae":"A","wings":"1","pattern":"X","legs":"X"},"action":"harvest","summary":"bad-harvest","bonus":1.7000000000000013},{"rt":26374.59999999404,"stimulus":"\n                    <p><b>Action: <em>harvest</em></b></p>\n                    <p>This is the bee that you just saw.</p>\n                    <img src=\"bees-with-color/bee-A1DM.svg\" width=\"200\">\n                    <p><span class=\"redText\">Bad choice, the bee was angry.</span><br><b>You have been stung!</b><br>Your pay has been decreased by $0.10. Your bonus pay is now $0.56.</p>\n            ","response":0,"trial_type":"html-button-response","trial_index":32,"time_elapsed":802589,"internal_node_id":"0.0-4.0-1.12","subject_id":"5fbb7aae04da87a3fe5f129c","study_id":"6197b3f67c2b5cd3b6d9596a","session_id":"619be3210bcf6c3cdbfeb161","condition":"full-information","relevant_dimensions":["antennae","wings"],"bee_group":{"antennae":"A","wings":"1","pattern":"X","legs":"X"},"bonus":1.7000000000000013},{"rt":185174.80000001192,"stimulus":"bees-with-color/bee-B1DM.svg","response":0,"trial_type":"image-button-response","trial_index":33,"time_elapsed":987766,"internal_node_id":"0.0-4.0-0.13","subject_id":"5fbb7aae04da87a3fe5f129c","study_id":"6197b3f67c2b5cd3b6d9596a","session_id":"619be3210bcf6c3cdbfeb161","condition":"full-information","relevant_dimensions":["antennae","wings"],"bee_group":{"antennae":"A","wings":"1","pattern":"X","legs":"X"},"action":"harvest","summary":"good-harvest","bonus":1.7000000000000013},{"rt":3296.300000011921,"stimulus":"\n                    <p><b>Action: <em>harvest</em></b></p>\n                    <p>This is the bee that you just saw.</p>\n                    <img src=\"bees-with-color/bee-B1DM.svg\" width=\"200\">\n                    <p><span class=\"greenText\"><b>Successful harvest!</b></span><br>Your pay has increased by $0.02. Your bonus pay is now $0.58.</p>\n            ","response":0,"trial_type":"html-button-response","trial_index":34,"time_elapsed":991064,"internal_node_id":"0.0-4.0-1.13","subject_id":"5fbb7aae04da87a3fe5f129c","study_id":"6197b3f67c2b5cd3b6d9596a","session_id":"619be3210bcf6c3cdbfeb161","condition":"full-information","relevant_dimensions":["antennae","wings"],"bee_group":{"antennae":"A","wings":"1","pattern":"X","legs":"X"},"bonus":1.7000000000000013},{"rt":18540.30000001192,"stimulus":"bees-with-color/bee-A1SM.svg","response":0,"trial_type":"image-button-response","trial_index":35,"time_elapsed":1009606,"internal_node_id":"0.0-4.0-0.14","subject_id":"5fbb7aae04da87a3fe5f129c","study_id":"6197b3f67c2b5cd3b6d9596a","session_id":"619be3210bcf6c3cdbfeb161","condition":"full-information","relevant_dimensions":["antennae","wings"],"bee_group":{"antennae":"A","wings":"1","pattern":"X","legs":"X"},"action":"harvest","summary":"bad-harvest","bonus":1.7000000000000013},{"rt":5650,"stimulus":"\n                    <p><b>Action: <em>harvest</em></b></p>\n                    <p>This is the bee that you just saw.</p>\n                    <img src=\"bees-with-color/bee-A1SM.svg\" width=\"200\">\n                    <p><span class=\"redText\">Bad choice, the bee was angry.</span><br><b>You have been stung!</b><br>Your pay has been decreased by $0.10. Your bonus pay is now $0.48.</p>\n            ","response":0,"trial_type":"html-button-response","trial_index":36,"time_elapsed":1015258,"internal_node_id":"0.0-4.0-1.14","subject_id":"5fbb7aae04da87a3fe5f129c","study_id":"6197b3f67c2b5cd3b6d9596a","session_id":"619be3210bcf6c3cdbfeb161","condition":"full-information","relevant_dimensions":["antennae","wings"],"bee_group":{"antennae":"A","wings":"1","pattern":"X","legs":"X"},"bonus":1.7000000000000013},{"rt":13604.200000017881,"stimulus":"bees-with-color/bee-B1SF.svg","response":0,"trial_type":"image-button-response","trial_index":37,"time_elapsed":1028864,"internal_node_id":"0.0-4.0-0.15","subject_id":"5fbb7aae04da87a3fe5f129c","study_id":"6197b3f67c2b5cd3b6d9596a","session_id":"619be3210bcf6c3cdbfeb161","condition":"full-information","relevant_dimensions":["antennae","wings"],"bee_group":{"antennae":"A","wings":"1","pattern":"X","legs":"X"},"action":"harvest","summary":"good-harvest","bonus":1.7000000000000013},{"rt":3445.9000000059605,"stimulus":"\n                    <p><b>Action: <em>harvest</em></b></p>\n                    <p>This is the bee that you just saw.</p>\n                    <img src=\"bees-with-color/bee-B1SF.svg\" width=\"200\">\n                    <p><span class=\"greenText\"><b>Successful harvest!</b></span><br>Your pay has increased by $0.02. Your bonus pay is now $0.50.</p>\n            ","response":0,"trial_type":"html-button-response","trial_index":38,"time_elapsed":1032312,"internal_node_id":"0.0-4.0-1.15","subject_id":"5fbb7aae04da87a3fe5f129c","study_id":"6197b3f67c2b5cd3b6d9596a","session_id":"619be3210bcf6c3cdbfeb161","condition":"full-information","relevant_dimensions":["antennae","wings"],"bee_group":{"antennae":"A","wings":"1","pattern":"X","legs":"X"},"bonus":1.7000000000000013},{"rt":10908.09999999404,"stimulus":"bees-with-color/bee-A1SF.svg","response":1,"trial_type":"image-button-response","trial_index":39,"time_elapsed":1043222,"internal_node_id":"0.0-4.0-0.16","subject_id":"5fbb7aae04da87a3fe5f129c","study_id":"6197b3f67c2b5cd3b6d9596a","session_id":"619be3210bcf6c3cdbfeb161","condition":"full-information","relevant_dimensions":["antennae","wings"],"bee_group":{"antennae":"A","wings":"1","pattern":"X","legs":"X"},"action":"avoid","summary":"good-avoid","bonus":1.7000000000000013},{"rt":1192.5,"stimulus":"\n                    <p><b>Action: <em>avoid</em></b></p>\n                    <p>This is the bee that you just saw.</p>\n                    <img src=\"bees-with-color/bee-A1SF.svg\" width=\"200\">\n                    <p><span class=\"greenText\">Good choice!</span>  This bee would have stung you.<br>Your bonus pay is unchanged, and remains at $0.50.</p>\n            ","response":0,"trial_type":"html-button-response","trial_index":40,"time_elapsed":1044416,"internal_node_id":"0.0-4.0-1.16","subject_id":"5fbb7aae04da87a3fe5f129c","study_id":"6197b3f67c2b5cd3b6d9596a","session_id":"619be3210bcf6c3cdbfeb161","condition":"full-information","relevant_dimensions":["antennae","wings"],"bee_group":{"antennae":"A","wings":"1","pattern":"X","legs":"X"},"bonus":1.7000000000000013},{"rt":12792.700000017881,"stimulus":"bees-with-color/bee-A1DM.svg","response":1,"trial_type":"image-button-response","trial_index":41,"time_elapsed":1057210,"internal_node_id":"0.0-4.0-0.17","subject_id":"5fbb7aae04da87a3fe5f129c","study_id":"6197b3f67c2b5cd3b6d9596a","session_id":"619be3210bcf6c3cdbfeb161","condition":"full-information","relevant_dimensions":["antennae","wings"],"bee_group":{"antennae":"A","wings":"1","pattern":"X","legs":"X"},"action":"avoid","summary":"good-avoid","bonus":1.7000000000000013},{"rt":810.5,"stimulus":"\n                    <p><b>Action: <em>avoid</em></b></p>\n                    <p>This is the bee that you just saw.</p>\n                    <img src=\"bees-with-color/bee-A1DM.svg\" width=\"200\">\n                    <p><span class=\"greenText\">Good choice!</span>  This bee would have stung you.<br>Your bonus pay is unchanged, and remains at $0.50.</p>\n            ","response":0,"trial_type":"html-button-response","trial_index":42,"time_elapsed":1058022,"internal_node_id":"0.0-4.0-1.17","subject_id":"5fbb7aae04da87a3fe5f129c","study_id":"6197b3f67c2b5cd3b6d9596a","session_id":"619be3210bcf6c3cdbfeb161","condition":"full-information","relevant_dimensions":["antennae","wings"],"bee_group":{"antennae":"A","wings":"1","pattern":"X","legs":"X"},"bonus":1.7000000000000013},{"rt":9670.59999999404,"stimulus":"bees-with-color/bee-B2DM.svg","response":0,"trial_type":"image-button-response","trial_index":43,"time_elapsed":1067694,"internal_node_id":"0.0-4.0-0.18","subject_id":"5fbb7aae04da87a3fe5f129c","study_id":"6197b3f67c2b5cd3b6d9596a","session_id":"619be3210bcf6c3cdbfeb161","condition":"full-information","relevant_dimensions":["antennae","wings"],"bee_group":{"antennae":"A","wings":"1","pattern":"X","legs":"X"},"action":"harvest","summary":"good-harvest","bonus":1.7000000000000013},{"rt":3104.4000000059605,"stimulus":"\n                    <p><b>Action: <em>harvest</em></b></p>\n                    <p>This is the bee that you just saw.</p>\n                    <img src=\"bees-with-color/bee-B2DM.svg\" width=\"200\">\n                    <p><span class=\"greenText\"><b>Successful harvest!</b></span><br>Your pay has increased by $0.02. Your bonus pay is now $0.52.</p>\n            ","response":0,"trial_type":"html-button-response","trial_index":44,"time_elapsed":1070800,"internal_node_id":"0.0-4.0-1.18","subject_id":"5fbb7aae04da87a3fe5f129c","study_id":"6197b3f67c2b5cd3b6d9596a","session_id":"619be3210bcf6c3cdbfeb161","condition":"full-information","relevant_dimensions":["antennae","wings"],"bee_group":{"antennae":"A","wings":"1","pattern":"X","legs":"X"},"bonus":1.7000000000000013},{"rt":5248.699999988079,"stimulus":"bees-with-color/bee-B1DF.svg","response":0,"trial_type":"image-button-response","trial_index":45,"time_elapsed":1076050,"internal_node_id":"0.0-4.0-0.19","subject_id":"5fbb7aae04da87a3fe5f129c","study_id":"6197b3f67c2b5cd3b6d9596a","session_id":"619be3210bcf6c3cdbfeb161","condition":"full-information","relevant_dimensions":["antennae","wings"],"bee_group":{"antennae":"A","wings":"1","pattern":"X","legs":"X"},"action":"harvest","summary":"good-harvest","bonus":1.7000000000000013},{"rt":766.0999999940395,"stimulus":"\n                    <p><b>Action: <em>harvest</em></b></p>\n                    <p>This is the bee that you just saw.</p>\n                    <img src=\"bees-with-color/bee-B1DF.svg\" width=\"200\">\n                    <p><span class=\"greenText\"><b>Successful harvest!</b></span><br>Your pay has increased by $0.02. Your bonus pay is now $0.54.</p>\n            ","response":0,"trial_type":"html-button-response","trial_index":46,"time_elapsed":1076818,"internal_node_id":"0.0-4.0-1.19","subject_id":"5fbb7aae04da87a3fe5f129c","study_id":"6197b3f67c2b5cd3b6d9596a","session_id":"619be3210bcf6c3cdbfeb161","condition":"full-information","relevant_dimensions":["antennae","wings"],"bee_group":{"antennae":"A","wings":"1","pattern":"X","legs":"X"},"bonus":1.7000000000000013},{"rt":8678.59999999404,"stimulus":"bees-with-color/bee-B1SM.svg","response":0,"trial_type":"image-button-response","trial_index":47,"time_elapsed":1085498,"internal_node_id":"0.0-4.0-0.20","subject_id":"5fbb7aae04da87a3fe5f129c","study_id":"6197b3f67c2b5cd3b6d9596a","session_id":"619be3210bcf6c3cdbfeb161","condition":"full-information","relevant_dimensions":["antennae","wings"],"bee_group":{"antennae":"A","wings":"1","pattern":"X","legs":"X"},"action":"harvest","summary":"good-harvest","bonus":1.7000000000000013},{"rt":896.4000000059605,"stimulus":"\n                    <p><b>Action: <em>harvest</em></b></p>\n                    <p>This is the bee that you just saw.</p>\n                    <img src=\"bees-with-color/bee-B1SM.svg\" width=\"200\">\n                    <p><span class=\"greenText\"><b>Successful harvest!</b></span><br>Your pay has increased by $0.02. Your bonus pay is now $0.56.</p>\n            ","response":0,"trial_type":"html-button-response","trial_index":48,"time_elapsed":1086396,"internal_node_id":"0.0-4.0-1.20","subject_id":"5fbb7aae04da87a3fe5f129c","study_id":"6197b3f67c2b5cd3b6d9596a","session_id":"619be3210bcf6c3cdbfeb161","condition":"full-information","relevant_dimensions":["antennae","wings"],"bee_group":{"antennae":"A","wings":"1","pattern":"X","legs":"X"},"bonus":1.7000000000000013},{"rt":8486.09999999404,"stimulus":"bees-with-color/bee-A2DF.svg","response":0,"trial_type":"image-button-response","trial_index":49,"time_elapsed":1094884,"internal_node_id":"0.0-4.0-0.21","subject_id":"5fbb7aae04da87a3fe5f129c","study_id":"6197b3f67c2b5cd3b6d9596a","session_id":"619be3210bcf6c3cdbfeb161","condition":"full-information","relevant_dimensions":["antennae","wings"],"bee_group":{"antennae":"A","wings":"1","pattern":"X","legs":"X"},"action":"harvest","summary":"good-harvest","bonus":1.7000000000000013},{"rt":957.8000000119209,"stimulus":"\n                    <p><b>Action: <em>harvest</em></b></p>\n                    <p>This is the bee that you just saw.</p>\n                    <img src=\"bees-with-color/bee-A2DF.svg\" width=\"200\">\n                    <p><span class=\"greenText\"><b>Successful harvest!</b></span><br>Your pay has increased by $0.02. Your bonus pay is now $0.58.</p>\n            ","response":0,"trial_type":"html-button-response","trial_index":50,"time_elapsed":1095844,"internal_node_id":"0.0-4.0-1.21","subject_id":"5fbb7aae04da87a3fe5f129c","study_id":"6197b3f67c2b5cd3b6d9596a","session_id":"619be3210bcf6c3cdbfeb161","condition":"full-information","relevant_dimensions":["antennae","wings"],"bee_group":{"antennae":"A","wings":"1","pattern":"X","legs":"X"},"bonus":1.7000000000000013},{"rt":14076.300000011921,"stimulus":"bees-with-color/bee-A2SM.svg","response":0,"trial_type":"image-button-response","trial_index":51,"time_elapsed":1109922,"internal_node_id":"0.0-4.0-0.22","subject_id":"5fbb7aae04da87a3fe5f129c","study_id":"6197b3f67c2b5cd3b6d9596a","session_id":"619be3210bcf6c3cdbfeb161","condition":"full-information","relevant_dimensions":["antennae","wings"],"bee_group":{"antennae":"A","wings":"1","pattern":"X","legs":"X"},"action":"harvest","summary":"good-harvest","bonus":1.7000000000000013},{"rt":618.6999999880791,"stimulus":"\n                    <p><b>Action: <em>harvest</em></b></p>\n                    <p>This is the bee that you just saw.</p>\n                    <img src=\"bees-with-color/bee-A2SM.svg\" width=\"200\">\n                    <p><span class=\"greenText\"><b>Successful harvest!</b></span><br>Your pay has increased by $0.02. Your bonus pay is now $0.60.</p>\n            ","response":0,"trial_type":"html-button-response","trial_index":52,"time_elapsed":1110542,"internal_node_id":"0.0-4.0-1.22","subject_id":"5fbb7aae04da87a3fe5f129c","study_id":"6197b3f67c2b5cd3b6d9596a","session_id":"619be3210bcf6c3cdbfeb161","condition":"full-information","relevant_dimensions":["antennae","wings"],"bee_group":{"antennae":"A","wings":"1","pattern":"X","legs":"X"},"bonus":1.7000000000000013},{"rt":8802.699999988079,"stimulus":"bees-with-color/bee-A2SF.svg","response":0,"trial_type":"image-button-response","trial_index":53,"time_elapsed":1119346,"internal_node_id":"0.0-4.0-0.23","subject_id":"5fbb7aae04da87a3fe5f129c","study_id":"6197b3f67c2b5cd3b6d9596a","session_id":"619be3210bcf6c3cdbfeb161","condition":"full-information","relevant_dimensions":["antennae","wings"],"bee_group":{"antennae":"A","wings":"1","pattern":"X","legs":"X"},"action":"harvest","summary":"good-harvest","bonus":1.7000000000000013},{"rt":1276.5,"stimulus":"\n                    <p><b>Action: <em>harvest</em></b></p>\n                    <p>This is the bee that you just saw.</p>\n                    <img src=\"bees-with-color/bee-A2SF.svg\" width=\"200\">\n                    <p><span class=\"greenText\"><b>Successful harvest!</b></span><br>Your pay has increased by $0.02. Your bonus pay is now $0.62.</p>\n            ","response":0,"trial_type":"html-button-response","trial_index":54,"time_elapsed":1120624,"internal_node_id":"0.0-4.0-1.23","subject_id":"5fbb7aae04da87a3fe5f129c","study_id":"6197b3f67c2b5cd3b6d9596a","session_id":"619be3210bcf6c3cdbfeb161","condition":"full-information","relevant_dimensions":["antennae","wings"],"bee_group":{"antennae":"A","wings":"1","pattern":"X","legs":"X"},"bonus":1.7000000000000013},{"rt":13952.59999999404,"stimulus":"bees-with-color/bee-B2DF.svg","response":0,"trial_type":"image-button-response","trial_index":55,"time_elapsed":1134577,"internal_node_id":"0.0-4.0-0.24","subject_id":"5fbb7aae04da87a3fe5f129c","study_id":"6197b3f67c2b5cd3b6d9596a","session_id":"619be3210bcf6c3cdbfeb161","condition":"full-information","relevant_dimensions":["antennae","wings"],"bee_group":{"antennae":"A","wings":"1","pattern":"X","legs":"X"},"action":"harvest","summary":"good-harvest","bonus":1.7000000000000013},{"rt":1090.5,"stimulus":"\n                    <p><b>Action: <em>harvest</em></b></p>\n                    <p>This is the bee that you just saw.</p>\n                    <img src=\"bees-with-color/bee-B2DF.svg\" width=\"200\">\n                    <p><span class=\"greenText\"><b>Successful harvest!</b></span><br>Your pay has increased by $0.02. Your bonus pay is now $0.64.</p>\n            ","response":0,"trial_type":"html-button-response","trial_index":56,"time_elapsed":1135670,"internal_node_id":"0.0-4.0-1.24","subject_id":"5fbb7aae04da87a3fe5f129c","study_id":"6197b3f67c2b5cd3b6d9596a","session_id":"619be3210bcf6c3cdbfeb161","condition":"full-information","relevant_dimensions":["antennae","wings"],"bee_group":{"antennae":"A","wings":"1","pattern":"X","legs":"X"},"bonus":1.7000000000000013},{"rt":18884.30000001192,"stimulus":"bees-with-color/bee-B1SF.svg","response":0,"trial_type":"image-button-response","trial_index":57,"time_elapsed":1154556,"internal_node_id":"0.0-4.0-0.25","subject_id":"5fbb7aae04da87a3fe5f129c","study_id":"6197b3f67c2b5cd3b6d9596a","session_id":"619be3210bcf6c3cdbfeb161","condition":"full-information","relevant_dimensions":["antennae","wings"],"bee_group":{"antennae":"A","wings":"1","pattern":"X","legs":"X"},"action":"harvest","summary":"good-harvest","bonus":1.7000000000000013},{"rt":726,"stimulus":"\n                    <p><b>Action: <em>harvest</em></b></p>\n                    <p>This is the bee that you just saw.</p>\n                    <img src=\"bees-with-color/bee-B1SF.svg\" width=\"200\">\n                    <p><span class=\"greenText\"><b>Successful harvest!</b></span><br>Your pay has increased by $0.02. Your bonus pay is now $0.66.</p>\n            ","response":0,"trial_type":"html-button-response","trial_index":58,"time_elapsed":1155284,"internal_node_id":"0.0-4.0-1.25","subject_id":"5fbb7aae04da87a3fe5f129c","study_id":"6197b3f67c2b5cd3b6d9596a","session_id":"619be3210bcf6c3cdbfeb161","condition":"full-information","relevant_dimensions":["antennae","wings"],"bee_group":{"antennae":"A","wings":"1","pattern":"X","legs":"X"},"bonus":1.7000000000000013},{"rt":850.1999999880791,"stimulus":"bees-with-color/bee-B2SM.svg","response":0,"trial_type":"image-button-response","trial_index":59,"time_elapsed":1156136,"internal_node_id":"0.0-4.0-0.26","subject_id":"5fbb7aae04da87a3fe5f129c","study_id":"6197b3f67c2b5cd3b6d9596a","session_id":"619be3210bcf6c3cdbfeb161","condition":"full-information","relevant_dimensions":["antennae","wings"],"bee_group":{"antennae":"A","wings":"1","pattern":"X","legs":"X"},"action":"harvest","summary":"good-harvest","bonus":1.7000000000000013},{"rt":594,"stimulus":"\n                    <p><b>Action: <em>harvest</em></b></p>\n                    <p>This is the bee that you just saw.</p>\n                    <img src=\"bees-with-color/bee-B2SM.svg\" width=\"200\">\n                    <p><span class=\"greenText\"><b>Successful harvest!</b></span><br>Your pay has increased by $0.02. Your bonus pay is now $0.68.</p>\n            ","response":0,"trial_type":"html-button-response","trial_index":60,"time_elapsed":1156731,"internal_node_id":"0.0-4.0-1.26","subject_id":"5fbb7aae04da87a3fe5f129c","study_id":"6197b3f67c2b5cd3b6d9596a","session_id":"619be3210bcf6c3cdbfeb161","condition":"full-information","relevant_dimensions":["antennae","wings"],"bee_group":{"antennae":"A","wings":"1","pattern":"X","legs":"X"},"bonus":1.7000000000000013},{"rt":26682.69999998808,"stimulus":"bees-with-color/bee-A1SM.svg","response":1,"trial_type":"image-button-response","trial_index":61,"time_elapsed":1183416,"internal_node_id":"0.0-4.0-0.27","subject_id":"5fbb7aae04da87a3fe5f129c","study_id":"6197b3f67c2b5cd3b6d9596a","session_id":"619be3210bcf6c3cdbfeb161","condition":"full-information","relevant_dimensions":["antennae","wings"],"bee_group":{"antennae":"A","wings":"1","pattern":"X","legs":"X"},"action":"avoid","summary":"good-avoid","bonus":1.7000000000000013},{"rt":1842.199999988079,"stimulus":"\n                    <p><b>Action: <em>avoid</em></b></p>\n                    <p>This is the bee that you just saw.</p>\n                    <img src=\"bees-with-color/bee-A1SM.svg\" width=\"200\">\n                    <p><span class=\"greenText\">Good choice!</span>  This bee would have stung you.<br>Your bonus pay is unchanged, and remains at $0.68.</p>\n            ","response":0,"trial_type":"html-button-response","trial_index":62,"time_elapsed":1185260,"internal_node_id":"0.0-4.0-1.27","subject_id":"5fbb7aae04da87a3fe5f129c","study_id":"6197b3f67c2b5cd3b6d9596a","session_id":"619be3210bcf6c3cdbfeb161","condition":"full-information","relevant_dimensions":["antennae","wings"],"bee_group":{"antennae":"A","wings":"1","pattern":"X","legs":"X"},"bonus":1.7000000000000013},{"rt":3055.9000000059605,"stimulus":"bees-with-color/bee-A2DM.svg","response":0,"trial_type":"image-button-response","trial_index":63,"time_elapsed":1188318,"internal_node_id":"0.0-4.0-0.28","subject_id":"5fbb7aae04da87a3fe5f129c","study_id":"6197b3f67c2b5cd3b6d9596a","session_id":"619be3210bcf6c3cdbfeb161","condition":"full-information","relevant_dimensions":["antennae","wings"],"bee_group":{"antennae":"A","wings":"1","pattern":"X","legs":"X"},"action":"harvest","summary":"good-harvest","bonus":1.7000000000000013},{"rt":889.5999999940395,"stimulus":"\n                    <p><b>Action: <em>harvest</em></b></p>\n                    <p>This is the bee that you just saw.</p>\n                    <img src=\"bees-with-color/bee-A2DM.svg\" width=\"200\">\n                    <p><span class=\"greenText\"><b>Successful harvest!</b></span><br>Your pay has increased by $0.02. Your bonus pay is now $0.70.</p>\n            ","response":0,"trial_type":"html-button-response","trial_index":64,"time_elapsed":1189209,"internal_node_id":"0.0-4.0-1.28","subject_id":"5fbb7aae04da87a3fe5f129c","study_id":"6197b3f67c2b5cd3b6d9596a","session_id":"619be3210bcf6c3cdbfeb161","condition":"full-information","relevant_dimensions":["antennae","wings"],"bee_group":{"antennae":"A","wings":"1","pattern":"X","legs":"X"},"bonus":1.7000000000000013},{"rt":3274.5,"stimulus":"bees-with-color/bee-A1DF.svg","response":1,"trial_type":"image-button-response","trial_index":65,"time_elapsed":1192486,"internal_node_id":"0.0-4.0-0.29","subject_id":"5fbb7aae04da87a3fe5f129c","study_id":"6197b3f67c2b5cd3b6d9596a","session_id":"619be3210bcf6c3cdbfeb161","condition":"full-information","relevant_dimensions":["antennae","wings"],"bee_group":{"antennae":"A","wings":"1","pattern":"X","legs":"X"},"action":"avoid","summary":"good-avoid","bonus":1.7000000000000013},{"rt":895.6999999880791,"stimulus":"\n                    <p><b>Action: <em>avoid</em></b></p>\n                    <p>This is the bee that you just saw.</p>\n                    <img src=\"bees-with-color/bee-A1DF.svg\" width=\"200\">\n                    <p><span class=\"greenText\">Good choice!</span>  This bee would have stung you.<br>Your bonus pay is unchanged, and remains at $0.70.</p>\n            ","response":0,"trial_type":"html-button-response","trial_index":66,"time_elapsed":1193383,"internal_node_id":"0.0-4.0-1.29","subject_id":"5fbb7aae04da87a3fe5f129c","study_id":"6197b3f67c2b5cd3b6d9596a","session_id":"619be3210bcf6c3cdbfeb161","condition":"full-information","relevant_dimensions":["antennae","wings"],"bee_group":{"antennae":"A","wings":"1","pattern":"X","legs":"X"},"bonus":1.7000000000000013},{"rt":3226.7999999821186,"stimulus":"bees-with-color/bee-B2SF.svg","response":0,"trial_type":"image-button-response","trial_index":67,"time_elapsed":1196611,"internal_node_id":"0.0-4.0-0.30","subject_id":"5fbb7aae04da87a3fe5f129c","study_id":"6197b3f67c2b5cd3b6d9596a","session_id":"619be3210bcf6c3cdbfeb161","condition":"full-information","relevant_dimensions":["antennae","wings"],"bee_group":{"antennae":"A","wings":"1","pattern":"X","legs":"X"},"action":"harvest","summary":"good-harvest","bonus":1.7000000000000013},{"rt":1951.199999988079,"stimulus":"\n                    <p><b>Action: <em>harvest</em></b></p>\n                    <p>This is the bee that you just saw.</p>\n                    <img src=\"bees-with-color/bee-B2SF.svg\" width=\"200\">\n                    <p><span class=\"greenText\"><b>Successful harvest!</b></span><br>Your pay has increased by $0.02. Your bonus pay is now $0.72.</p>\n            ","response":0,"trial_type":"html-button-response","trial_index":68,"time_elapsed":1198564,"internal_node_id":"0.0-4.0-1.30","subject_id":"5fbb7aae04da87a3fe5f129c","study_id":"6197b3f67c2b5cd3b6d9596a","session_id":"619be3210bcf6c3cdbfeb161","condition":"full-information","relevant_dimensions":["antennae","wings"],"bee_group":{"antennae":"A","wings":"1","pattern":"X","legs":"X"},"bonus":1.7000000000000013},{"rt":1337.9000000059605,"stimulus":"bees-with-color/bee-B1DM.svg","response":0,"trial_type":"image-button-response","trial_index":69,"time_elapsed":1199903,"internal_node_id":"0.0-4.0-0.31","subject_id":"5fbb7aae04da87a3fe5f129c","study_id":"6197b3f67c2b5cd3b6d9596a","session_id":"619be3210bcf6c3cdbfeb161","condition":"full-information","relevant_dimensions":["antennae","wings"],"bee_group":{"antennae":"A","wings":"1","pattern":"X","legs":"X"},"action":"harvest","summary":"good-harvest","bonus":1.7000000000000013},{"rt":710.5999999940395,"stimulus":"\n                    <p><b>Action: <em>harvest</em></b></p>\n                    <p>This is the bee that you just saw.</p>\n                    <img src=\"bees-with-color/bee-B1DM.svg\" width=\"200\">\n                    <p><span class=\"greenText\"><b>Successful harvest!</b></span><br>Your pay has increased by $0.02. Your bonus pay is now $0.74.</p>\n            ","response":0,"trial_type":"html-button-response","trial_index":70,"time_elapsed":1200615,"internal_node_id":"0.0-4.0-1.31","subject_id":"5fbb7aae04da87a3fe5f129c","study_id":"6197b3f67c2b5cd3b6d9596a","session_id":"619be3210bcf6c3cdbfeb161","condition":"full-information","relevant_dimensions":["antennae","wings"],"bee_group":{"antennae":"A","wings":"1","pattern":"X","legs":"X"},"bonus":1.7000000000000013},{"rt":4034.9000000059605,"stimulus":"bees-with-color/bee-A2SM.svg","response":0,"trial_type":"image-button-response","trial_index":71,"time_elapsed":1204651,"internal_node_id":"0.0-4.0-0.32","subject_id":"5fbb7aae04da87a3fe5f129c","study_id":"6197b3f67c2b5cd3b6d9596a","session_id":"619be3210bcf6c3cdbfeb161","condition":"full-information","relevant_dimensions":["antennae","wings"],"bee_group":{"antennae":"A","wings":"1","pattern":"X","legs":"X"},"action":"harvest","summary":"good-harvest","bonus":1.7000000000000013},{"rt":772.4000000059605,"stimulus":"\n                    <p><b>Action: <em>harvest</em></b></p>\n                    <p>This is the bee that you just saw.</p>\n                    <img src=\"bees-with-color/bee-A2SM.svg\" width=\"200\">\n                    <p><span class=\"greenText\"><b>Successful harvest!</b></span><br>Your pay has increased by $0.02. Your bonus pay is now $0.76.</p>\n            ","response":0,"trial_type":"html-button-response","trial_index":72,"time_elapsed":1205425,"internal_node_id":"0.0-4.0-1.32","subject_id":"5fbb7aae04da87a3fe5f129c","study_id":"6197b3f67c2b5cd3b6d9596a","session_id":"619be3210bcf6c3cdbfeb161","condition":"full-information","relevant_dimensions":["antennae","wings"],"bee_group":{"antennae":"A","wings":"1","pattern":"X","legs":"X"},"bonus":1.7000000000000013},{"rt":1252.5999999940395,"stimulus":"bees-with-color/bee-A2DM.svg","response":0,"trial_type":"image-button-response","trial_index":73,"time_elapsed":1206679,"internal_node_id":"0.0-4.0-0.33","subject_id":"5fbb7aae04da87a3fe5f129c","study_id":"6197b3f67c2b5cd3b6d9596a","session_id":"619be3210bcf6c3cdbfeb161","condition":"full-information","relevant_dimensions":["antennae","wings"],"bee_group":{"antennae":"A","wings":"1","pattern":"X","legs":"X"},"action":"harvest","summary":"good-harvest","bonus":1.7000000000000013},{"rt":502.40000000596046,"stimulus":"\n                    <p><b>Action: <em>harvest</em></b></p>\n                    <p>This is the bee that you just saw.</p>\n                    <img src=\"bees-with-color/bee-A2DM.svg\" width=\"200\">\n                    <p><span class=\"greenText\"><b>Successful harvest!</b></span><br>Your pay has increased by $0.02. Your bonus pay is now $0.78.</p>\n            ","response":0,"trial_type":"html-button-response","trial_index":74,"time_elapsed":1207183,"internal_node_id":"0.0-4.0-1.33","subject_id":"5fbb7aae04da87a3fe5f129c","study_id":"6197b3f67c2b5cd3b6d9596a","session_id":"619be3210bcf6c3cdbfeb161","condition":"full-information","relevant_dimensions":["antennae","wings"],"bee_group":{"antennae":"A","wings":"1","pattern":"X","legs":"X"},"bonus":1.7000000000000013},{"rt":2051.4000000059605,"stimulus":"bees-with-color/bee-B1SF.svg","response":0,"trial_type":"image-button-response","trial_index":75,"time_elapsed":1209236,"internal_node_id":"0.0-4.0-0.34","subject_id":"5fbb7aae04da87a3fe5f129c","study_id":"6197b3f67c2b5cd3b6d9596a","session_id":"619be3210bcf6c3cdbfeb161","condition":"full-information","relevant_dimensions":["antennae","wings"],"bee_group":{"antennae":"A","wings":"1","pattern":"X","legs":"X"},"action":"harvest","summary":"good-harvest","bonus":1.7000000000000013},{"rt":679.9000000059605,"stimulus":"\n                    <p><b>Action: <em>harvest</em></b></p>\n                    <p>This is the bee that you just saw.</p>\n                    <img src=\"bees-with-color/bee-B1SF.svg\" width=\"200\">\n                    <p><span class=\"greenText\"><b>Successful harvest!</b></span><br>Your pay has increased by $0.02. Your bonus pay is now $0.80.</p>\n            ","response":0,"trial_type":"html-button-response","trial_index":76,"time_elapsed":1209917,"internal_node_id":"0.0-4.0-1.34","subject_id":"5fbb7aae04da87a3fe5f129c","study_id":"6197b3f67c2b5cd3b6d9596a","session_id":"619be3210bcf6c3cdbfeb161","condition":"full-information","relevant_dimensions":["antennae","wings"],"bee_group":{"antennae":"A","wings":"1","pattern":"X","legs":"X"},"bonus":1.7000000000000013},{"rt":1112.6000000238419,"stimulus":"bees-with-color/bee-A2SF.svg","response":0,"trial_type":"image-button-response","trial_index":77,"time_elapsed":1211032,"internal_node_id":"0.0-4.0-0.35","subject_id":"5fbb7aae04da87a3fe5f129c","study_id":"6197b3f67c2b5cd3b6d9596a","session_id":"619be3210bcf6c3cdbfeb161","condition":"full-information","relevant_dimensions":["antennae","wings"],"bee_group":{"antennae":"A","wings":"1","pattern":"X","legs":"X"},"action":"harvest","summary":"good-harvest","bonus":1.7000000000000013},{"rt":478.09999999403954,"stimulus":"\n                    <p><b>Action: <em>harvest</em></b></p>\n                    <p>This is the bee that you just saw.</p>\n                    <img src=\"bees-with-color/bee-A2SF.svg\" width=\"200\">\n                    <p><span class=\"greenText\"><b>Successful harvest!</b></span><br>Your pay has increased by $0.02. Your bonus pay is now $0.82.</p>\n            ","response":0,"trial_type":"html-button-response","trial_index":78,"time_elapsed":1211511,"internal_node_id":"0.0-4.0-1.35","subject_id":"5fbb7aae04da87a3fe5f129c","study_id":"6197b3f67c2b5cd3b6d9596a","session_id":"619be3210bcf6c3cdbfeb161","condition":"full-information","relevant_dimensions":["antennae","wings"],"bee_group":{"antennae":"A","wings":"1","pattern":"X","legs":"X"},"bonus":1.7000000000000013},{"rt":1300.699999988079,"stimulus":"bees-with-color/bee-A1SF.svg","response":1,"trial_type":"image-button-response","trial_index":79,"time_elapsed":1212813,"internal_node_id":"0.0-4.0-0.36","subject_id":"5fbb7aae04da87a3fe5f129c","study_id":"6197b3f67c2b5cd3b6d9596a","session_id":"619be3210bcf6c3cdbfeb161","condition":"full-information","relevant_dimensions":["antennae","wings"],"bee_group":{"antennae":"A","wings":"1","pattern":"X","legs":"X"},"action":"avoid","summary":"good-avoid","bonus":1.7000000000000013},{"rt":1090.0999999940395,"stimulus":"\n                    <p><b>Action: <em>avoid</em></b></p>\n                    <p>This is the bee that you just saw.</p>\n                    <img src=\"bees-with-color/bee-A1SF.svg\" width=\"200\">\n                    <p><span class=\"greenText\">Good choice!</span>  This bee would have stung you.<br>Your bonus pay is unchanged, and remains at $0.82.</p>\n            ","response":0,"trial_type":"html-button-response","trial_index":80,"time_elapsed":1213905,"internal_node_id":"0.0-4.0-1.36","subject_id":"5fbb7aae04da87a3fe5f129c","study_id":"6197b3f67c2b5cd3b6d9596a","session_id":"619be3210bcf6c3cdbfeb161","condition":"full-information","relevant_dimensions":["antennae","wings"],"bee_group":{"antennae":"A","wings":"1","pattern":"X","legs":"X"},"bonus":1.7000000000000013},{"rt":1733,"stimulus":"bees-with-color/bee-A1DM.svg","response":1,"trial_type":"image-button-response","trial_index":81,"time_elapsed":1215640,"internal_node_id":"0.0-4.0-0.37","subject_id":"5fbb7aae04da87a3fe5f129c","study_id":"6197b3f67c2b5cd3b6d9596a","session_id":"619be3210bcf6c3cdbfeb161","condition":"full-information","relevant_dimensions":["antennae","wings"],"bee_group":{"antennae":"A","wings":"1","pattern":"X","legs":"X"},"action":"avoid","summary":"good-avoid","bonus":1.7000000000000013},{"rt":562,"stimulus":"\n                    <p><b>Action: <em>avoid</em></b></p>\n                    <p>This is the bee that you just saw.</p>\n                    <img src=\"bees-with-color/bee-A1DM.svg\" width=\"200\">\n                    <p><span class=\"greenText\">Good choice!</span>  This bee would have stung you.<br>Your bonus pay is unchanged, and remains at $0.82.</p>\n            ","response":0,"trial_type":"html-button-response","trial_index":82,"time_elapsed":1216203,"internal_node_id":"0.0-4.0-1.37","subject_id":"5fbb7aae04da87a3fe5f129c","study_id":"6197b3f67c2b5cd3b6d9596a","session_id":"619be3210bcf6c3cdbfeb161","condition":"full-information","relevant_dimensions":["antennae","wings"],"bee_group":{"antennae":"A","wings":"1","pattern":"X","legs":"X"},"bonus":1.7000000000000013},{"rt":1478.7999999821186,"stimulus":"bees-with-color/bee-B2SM.svg","response":0,"trial_type":"image-button-response","trial_index":83,"time_elapsed":1217684,"internal_node_id":"0.0-4.0-0.38","subject_id":"5fbb7aae04da87a3fe5f129c","study_id":"6197b3f67c2b5cd3b6d9596a","session_id":"619be3210bcf6c3cdbfeb161","condition":"full-information","relevant_dimensions":["antennae","wings"],"bee_group":{"antennae":"A","wings":"1","pattern":"X","legs":"X"},"action":"harvest","summary":"good-harvest","bonus":1.7000000000000013},{"rt":453.90000000596046,"stimulus":"\n                    <p><b>Action: <em>harvest</em></b></p>\n                    <p>This is the bee that you just saw.</p>\n                    <img src=\"bees-with-color/bee-B2SM.svg\" width=\"200\">\n                    <p><span class=\"greenText\"><b>Successful harvest!</b></span><br>Your pay has increased by $0.02. Your bonus pay is now $0.84.</p>\n            ","response":0,"trial_type":"html-button-response","trial_index":84,"time_elapsed":1218139,"internal_node_id":"0.0-4.0-1.38","subject_id":"5fbb7aae04da87a3fe5f129c","study_id":"6197b3f67c2b5cd3b6d9596a","session_id":"619be3210bcf6c3cdbfeb161","condition":"full-information","relevant_dimensions":["antennae","wings"],"bee_group":{"antennae":"A","wings":"1","pattern":"X","legs":"X"},"bonus":1.7000000000000013},{"rt":1462.5999999940395,"stimulus":"bees-with-color/bee-B1DM.svg","response":0,"trial_type":"image-button-response","trial_index":85,"time_elapsed":1219604,"internal_node_id":"0.0-4.0-0.39","subject_id":"5fbb7aae04da87a3fe5f129c","study_id":"6197b3f67c2b5cd3b6d9596a","session_id":"619be3210bcf6c3cdbfeb161","condition":"full-information","relevant_dimensions":["antennae","wings"],"bee_group":{"antennae":"A","wings":"1","pattern":"X","legs":"X"},"action":"harvest","summary":"good-harvest","bonus":1.7000000000000013},{"rt":896.5,"stimulus":"\n                    <p><b>Action: <em>harvest</em></b></p>\n                    <p>This is the bee that you just saw.</p>\n                    <img src=\"bees-with-color/bee-B1DM.svg\" width=\"200\">\n                    <p><span class=\"greenText\"><b>Successful harvest!</b></span><br>Your pay has increased by $0.02. Your bonus pay is now $0.86.</p>\n            ","response":0,"trial_type":"html-button-response","trial_index":86,"time_elapsed":1220502,"internal_node_id":"0.0-4.0-1.39","subject_id":"5fbb7aae04da87a3fe5f129c","study_id":"6197b3f67c2b5cd3b6d9596a","session_id":"619be3210bcf6c3cdbfeb161","condition":"full-information","relevant_dimensions":["antennae","wings"],"bee_group":{"antennae":"A","wings":"1","pattern":"X","legs":"X"},"bonus":1.7000000000000013},{"rt":780.4000000059605,"stimulus":"bees-with-color/bee-B2DF.svg","response":0,"trial_type":"image-button-response","trial_index":87,"time_elapsed":1221284,"internal_node_id":"0.0-4.0-0.40","subject_id":"5fbb7aae04da87a3fe5f129c","study_id":"6197b3f67c2b5cd3b6d9596a","session_id":"619be3210bcf6c3cdbfeb161","condition":"full-information","relevant_dimensions":["antennae","wings"],"bee_group":{"antennae":"A","wings":"1","pattern":"X","legs":"X"},"action":"harvest","summary":"good-harvest","bonus":1.7000000000000013},{"rt":493.59999999403954,"stimulus":"\n                    <p><b>Action: <em>harvest</em></b></p>\n                    <p>This is the bee that you just saw.</p>\n                    <img src=\"bees-with-color/bee-B2DF.svg\" width=\"200\">\n                    <p><span class=\"greenText\"><b>Successful harvest!</b></span><br>Your pay has increased by $0.02. Your bonus pay is now $0.88.</p>\n            ","response":0,"trial_type":"html-button-response","trial_index":88,"time_elapsed":1221779,"internal_node_id":"0.0-4.0-1.40","subject_id":"5fbb7aae04da87a3fe5f129c","study_id":"6197b3f67c2b5cd3b6d9596a","session_id":"619be3210bcf6c3cdbfeb161","condition":"full-information","relevant_dimensions":["antennae","wings"],"bee_group":{"antennae":"A","wings":"1","pattern":"X","legs":"X"},"bonus":1.7000000000000013},{"rt":904.5999999940395,"stimulus":"bees-with-color/bee-A2DF.svg","response":0,"trial_type":"image-button-response","trial_index":89,"time_elapsed":1222686,"internal_node_id":"0.0-4.0-0.41","subject_id":"5fbb7aae04da87a3fe5f129c","study_id":"6197b3f67c2b5cd3b6d9596a","session_id":"619be3210bcf6c3cdbfeb161","condition":"full-information","relevant_dimensions":["antennae","wings"],"bee_group":{"antennae":"A","wings":"1","pattern":"X","legs":"X"},"action":"harvest","summary":"good-harvest","bonus":1.7000000000000013},{"rt":477.69999998807907,"stimulus":"\n                    <p><b>Action: <em>harvest</em></b></p>\n                    <p>This is the bee that you just saw.</p>\n                    <img src=\"bees-with-color/bee-A2DF.svg\" width=\"200\">\n                    <p><span class=\"greenText\"><b>Successful harvest!</b></span><br>Your pay has increased by $0.02. Your bonus pay is now $0.90.</p>\n            ","response":0,"trial_type":"html-button-response","trial_index":90,"time_elapsed":1223166,"internal_node_id":"0.0-4.0-1.41","subject_id":"5fbb7aae04da87a3fe5f129c","study_id":"6197b3f67c2b5cd3b6d9596a","session_id":"619be3210bcf6c3cdbfeb161","condition":"full-information","relevant_dimensions":["antennae","wings"],"bee_group":{"antennae":"A","wings":"1","pattern":"X","legs":"X"},"bonus":1.7000000000000013},{"rt":734.4000000059605,"stimulus":"bees-with-color/bee-B2DM.svg","response":0,"trial_type":"image-button-response","trial_index":91,"time_elapsed":1223902,"internal_node_id":"0.0-4.0-0.42","subject_id":"5fbb7aae04da87a3fe5f129c","study_id":"6197b3f67c2b5cd3b6d9596a","session_id":"619be3210bcf6c3cdbfeb161","condition":"full-information","relevant_dimensions":["antennae","wings"],"bee_group":{"antennae":"A","wings":"1","pattern":"X","legs":"X"},"action":"harvest","summary":"good-harvest","bonus":1.7000000000000013},{"rt":610,"stimulus":"\n                    <p><b>Action: <em>harvest</em></b></p>\n                    <p>This is the bee that you just saw.</p>\n                    <img src=\"bees-with-color/bee-B2DM.svg\" width=\"200\">\n                    <p><span class=\"greenText\"><b>Successful harvest!</b></span><br>Your pay has increased by $0.02. Your bonus pay is now $0.92.</p>\n            ","response":0,"trial_type":"html-button-response","trial_index":92,"time_elapsed":1224513,"internal_node_id":"0.0-4.0-1.42","subject_id":"5fbb7aae04da87a3fe5f129c","study_id":"6197b3f67c2b5cd3b6d9596a","session_id":"619be3210bcf6c3cdbfeb161","condition":"full-information","relevant_dimensions":["antennae","wings"],"bee_group":{"antennae":"A","wings":"1","pattern":"X","legs":"X"},"bonus":1.7000000000000013},{"rt":1306.9000000059605,"stimulus":"bees-with-color/bee-A1DF.svg","response":1,"trial_type":"image-button-response","trial_index":93,"time_elapsed":1225821,"internal_node_id":"0.0-4.0-0.43","subject_id":"5fbb7aae04da87a3fe5f129c","study_id":"6197b3f67c2b5cd3b6d9596a","session_id":"619be3210bcf6c3cdbfeb161","condition":"full-information","relevant_dimensions":["antennae","wings"],"bee_group":{"antennae":"A","wings":"1","pattern":"X","legs":"X"},"action":"avoid","summary":"good-avoid","bonus":1.7000000000000013},{"rt":788.5999999940395,"stimulus":"\n                    <p><b>Action: <em>avoid</em></b></p>\n                    <p>This is the bee that you just saw.</p>\n                    <img src=\"bees-with-color/bee-A1DF.svg\" width=\"200\">\n                    <p><span class=\"greenText\">Good choice!</span>  This bee would have stung you.<br>Your bonus pay is unchanged, and remains at $0.92.</p>\n            ","response":0,"trial_type":"html-button-response","trial_index":94,"time_elapsed":1226611,"internal_node_id":"0.0-4.0-1.43","subject_id":"5fbb7aae04da87a3fe5f129c","study_id":"6197b3f67c2b5cd3b6d9596a","session_id":"619be3210bcf6c3cdbfeb161","condition":"full-information","relevant_dimensions":["antennae","wings"],"bee_group":{"antennae":"A","wings":"1","pattern":"X","legs":"X"},"bonus":1.7000000000000013},{"rt":1037,"stimulus":"bees-with-color/bee-B1DF.svg","response":0,"trial_type":"image-button-response","trial_index":95,"time_elapsed":1227649,"internal_node_id":"0.0-4.0-0.44","subject_id":"5fbb7aae04da87a3fe5f129c","study_id":"6197b3f67c2b5cd3b6d9596a","session_id":"619be3210bcf6c3cdbfeb161","condition":"full-information","relevant_dimensions":["antennae","wings"],"bee_group":{"antennae":"A","wings":"1","pattern":"X","legs":"X"},"action":"harvest","summary":"good-harvest","bonus":1.7000000000000013},{"rt":441,"stimulus":"\n                    <p><b>Action: <em>harvest</em></b></p>\n                    <p>This is the bee that you just saw.</p>\n                    <img src=\"bees-with-color/bee-B1DF.svg\" width=\"200\">\n                    <p><span class=\"greenText\"><b>Successful harvest!</b></span><br>Your pay has increased by $0.02. Your bonus pay is now $0.94.</p>\n            ","response":0,"trial_type":"html-button-response","trial_index":96,"time_elapsed":1228092,"internal_node_id":"0.0-4.0-1.44","subject_id":"5fbb7aae04da87a3fe5f129c","study_id":"6197b3f67c2b5cd3b6d9596a","session_id":"619be3210bcf6c3cdbfeb161","condition":"full-information","relevant_dimensions":["antennae","wings"],"bee_group":{"antennae":"A","wings":"1","pattern":"X","legs":"X"},"bonus":1.7000000000000013},{"rt":718.6999999880791,"stimulus":"bees-with-color/bee-B1SM.svg","response":0,"trial_type":"image-button-response","trial_index":97,"time_elapsed":1228811,"internal_node_id":"0.0-4.0-0.45","subject_id":"5fbb7aae04da87a3fe5f129c","study_id":"6197b3f67c2b5cd3b6d9596a","session_id":"619be3210bcf6c3cdbfeb161","condition":"full-information","relevant_dimensions":["antennae","wings"],"bee_group":{"antennae":"A","wings":"1","pattern":"X","legs":"X"},"action":"harvest","summary":"good-harvest","bonus":1.7000000000000013},{"rt":438.69999998807907,"stimulus":"\n                    <p><b>Action: <em>harvest</em></b></p>\n                    <p>This is the bee that you just saw.</p>\n                    <img src=\"bees-with-color/bee-B1SM.svg\" width=\"200\">\n                    <p><span class=\"greenText\"><b>Successful harvest!</b></span><br>Your pay has increased by $0.02. Your bonus pay is now $0.96.</p>\n            ","response":0,"trial_type":"html-button-response","trial_index":98,"time_elapsed":1229251,"internal_node_id":"0.0-4.0-1.45","subject_id":"5fbb7aae04da87a3fe5f129c","study_id":"6197b3f67c2b5cd3b6d9596a","session_id":"619be3210bcf6c3cdbfeb161","condition":"full-information","relevant_dimensions":["antennae","wings"],"bee_group":{"antennae":"A","wings":"1","pattern":"X","legs":"X"},"bonus":1.7000000000000013},{"rt":1958.7999999821186,"stimulus":"bees-with-color/bee-A1SM.svg","response":1,"trial_type":"image-button-response","trial_index":99,"time_elapsed":1231211,"internal_node_id":"0.0-4.0-0.46","subject_id":"5fbb7aae04da87a3fe5f129c","study_id":"6197b3f67c2b5cd3b6d9596a","session_id":"619be3210bcf6c3cdbfeb161","condition":"full-information","relevant_dimensions":["antennae","wings"],"bee_group":{"antennae":"A","wings":"1","pattern":"X","legs":"X"},"action":"avoid","summary":"good-avoid","bonus":1.7000000000000013},{"rt":494.80000001192093,"stimulus":"\n                    <p><b>Action: <em>avoid</em></b></p>\n                    <p>This is the bee that you just saw.</p>\n                    <img src=\"bees-with-color/bee-A1SM.svg\" width=\"200\">\n                    <p><span class=\"greenText\">Good choice!</span>  This bee would have stung you.<br>Your bonus pay is unchanged, and remains at $0.96.</p>\n            ","response":0,"trial_type":"html-button-response","trial_index":100,"time_elapsed":1231708,"internal_node_id":"0.0-4.0-1.46","subject_id":"5fbb7aae04da87a3fe5f129c","study_id":"6197b3f67c2b5cd3b6d9596a","session_id":"619be3210bcf6c3cdbfeb161","condition":"full-information","relevant_dimensions":["antennae","wings"],"bee_group":{"antennae":"A","wings":"1","pattern":"X","legs":"X"},"bonus":1.7000000000000013},{"rt":2252.5,"stimulus":"bees-with-color/bee-B2SF.svg","response":0,"trial_type":"image-button-response","trial_index":101,"time_elapsed":1233961,"internal_node_id":"0.0-4.0-0.47","subject_id":"5fbb7aae04da87a3fe5f129c","study_id":"6197b3f67c2b5cd3b6d9596a","session_id":"619be3210bcf6c3cdbfeb161","condition":"full-information","relevant_dimensions":["antennae","wings"],"bee_group":{"antennae":"A","wings":"1","pattern":"X","legs":"X"},"action":"harvest","summary":"good-harvest","bonus":1.7000000000000013},{"rt":570.4000000059605,"stimulus":"\n                    <p><b>Action: <em>harvest</em></b></p>\n                    <p>This is the bee that you just saw.</p>\n                    <img src=\"bees-with-color/bee-B2SF.svg\" width=\"200\">\n                    <p><span class=\"greenText\"><b>Successful harvest!</b></span><br>Your pay has increased by $0.02. Your bonus pay is now $0.98.</p>\n            ","response":0,"trial_type":"html-button-response","trial_index":102,"time_elapsed":1234533,"internal_node_id":"0.0-4.0-1.47","subject_id":"5fbb7aae04da87a3fe5f129c","study_id":"6197b3f67c2b5cd3b6d9596a","session_id":"619be3210bcf6c3cdbfeb161","condition":"full-information","relevant_dimensions":["antennae","wings"],"bee_group":{"antennae":"A","wings":"1","pattern":"X","legs":"X"},"bonus":1.7000000000000013},{"rt":549,"stimulus":"bees-with-color/bee-B1DM.svg","response":0,"trial_type":"image-button-response","trial_index":103,"time_elapsed":1235083,"internal_node_id":"0.0-4.0-0.48","subject_id":"5fbb7aae04da87a3fe5f129c","study_id":"6197b3f67c2b5cd3b6d9596a","session_id":"619be3210bcf6c3cdbfeb161","condition":"full-information","relevant_dimensions":["antennae","wings"],"bee_group":{"antennae":"A","wings":"1","pattern":"X","legs":"X"},"action":"harvest","summary":"good-harvest","bonus":1.7000000000000013},{"rt":462.5,"stimulus":"\n                    <p><b>Action: <em>harvest</em></b></p>\n                    <p>This is the bee that you just saw.</p>\n                    <img src=\"bees-with-color/bee-B1DM.svg\" width=\"200\">\n                    <p><span class=\"greenText\"><b>Successful harvest!</b></span><br>Your pay has increased by $0.02. Your bonus pay is now $1.00.</p>\n            ","response":0,"trial_type":"html-button-response","trial_index":104,"time_elapsed":1235547,"internal_node_id":"0.0-4.0-1.48","subject_id":"5fbb7aae04da87a3fe5f129c","study_id":"6197b3f67c2b5cd3b6d9596a","session_id":"619be3210bcf6c3cdbfeb161","condition":"full-information","relevant_dimensions":["antennae","wings"],"bee_group":{"antennae":"A","wings":"1","pattern":"X","legs":"X"},"bonus":1.7000000000000013},{"rt":518.8999999761581,"stimulus":"bees-with-color/bee-B1SM.svg","response":0,"trial_type":"image-button-response","trial_index":105,"time_elapsed":1236067,"internal_node_id":"0.0-4.0-0.49","subject_id":"5fbb7aae04da87a3fe5f129c","study_id":"6197b3f67c2b5cd3b6d9596a","session_id":"619be3210bcf6c3cdbfeb161","condition":"full-information","relevant_dimensions":["antennae","wings"],"bee_group":{"antennae":"A","wings":"1","pattern":"X","legs":"X"},"action":"harvest","summary":"good-harvest","bonus":1.7000000000000013},{"rt":416.2999999821186,"stimulus":"\n                    <p><b>Action: <em>harvest</em></b></p>\n                    <p>This is the bee that you just saw.</p>\n                    <img src=\"bees-with-color/bee-B1SM.svg\" width=\"200\">\n                    <p><span class=\"greenText\"><b>Successful harvest!</b></span><br>Your pay has increased by $0.02. Your bonus pay is now $1.02.</p>\n            ","response":0,"trial_type":"html-button-response","trial_index":106,"time_elapsed":1236485,"internal_node_id":"0.0-4.0-1.49","subject_id":"5fbb7aae04da87a3fe5f129c","study_id":"6197b3f67c2b5cd3b6d9596a","session_id":"619be3210bcf6c3cdbfeb161","condition":"full-information","relevant_dimensions":["antennae","wings"],"bee_group":{"antennae":"A","wings":"1","pattern":"X","legs":"X"},"bonus":1.7000000000000013},{"rt":897.2999999821186,"stimulus":"bees-with-color/bee-A2DM.svg","response":0,"trial_type":"image-button-response","trial_index":107,"time_elapsed":1237384,"internal_node_id":"0.0-4.0-0.50","subject_id":"5fbb7aae04da87a3fe5f129c","study_id":"6197b3f67c2b5cd3b6d9596a","session_id":"619be3210bcf6c3cdbfeb161","condition":"full-information","relevant_dimensions":["antennae","wings"],"bee_group":{"antennae":"A","wings":"1","pattern":"X","legs":"X"},"action":"harvest","summary":"good-harvest","bonus":1.7000000000000013},{"rt":416,"stimulus":"\n                    <p><b>Action: <em>harvest</em></b></p>\n                    <p>This is the bee that you just saw.</p>\n                    <img src=\"bees-with-color/bee-A2DM.svg\" width=\"200\">\n                    <p><span class=\"greenText\"><b>Successful harvest!</b></span><br>Your pay has increased by $0.02. Your bonus pay is now $1.04.</p>\n            ","response":0,"trial_type":"html-button-response","trial_index":108,"time_elapsed":1237802,"internal_node_id":"0.0-4.0-1.50","subject_id":"5fbb7aae04da87a3fe5f129c","study_id":"6197b3f67c2b5cd3b6d9596a","session_id":"619be3210bcf6c3cdbfeb161","condition":"full-information","relevant_dimensions":["antennae","wings"],"bee_group":{"antennae":"A","wings":"1","pattern":"X","legs":"X"},"bonus":1.7000000000000013},{"rt":2212.699999988079,"stimulus":"bees-with-color/bee-A1DM.svg","response":1,"trial_type":"image-button-response","trial_index":109,"time_elapsed":1240015,"internal_node_id":"0.0-4.0-0.51","subject_id":"5fbb7aae04da87a3fe5f129c","study_id":"6197b3f67c2b5cd3b6d9596a","session_id":"619be3210bcf6c3cdbfeb161","condition":"full-information","relevant_dimensions":["antennae","wings"],"bee_group":{"antennae":"A","wings":"1","pattern":"X","legs":"X"},"action":"avoid","summary":"good-avoid","bonus":1.7000000000000013},{"rt":486.5,"stimulus":"\n                    <p><b>Action: <em>avoid</em></b></p>\n                    <p>This is the bee that you just saw.</p>\n                    <img src=\"bees-with-color/bee-A1DM.svg\" width=\"200\">\n                    <p><span class=\"greenText\">Good choice!</span>  This bee would have stung you.<br>Your bonus pay is unchanged, and remains at $1.04.</p>\n            ","response":0,"trial_type":"html-button-response","trial_index":110,"time_elapsed":1240504,"internal_node_id":"0.0-4.0-1.51","subject_id":"5fbb7aae04da87a3fe5f129c","study_id":"6197b3f67c2b5cd3b6d9596a","session_id":"619be3210bcf6c3cdbfeb161","condition":"full-information","relevant_dimensions":["antennae","wings"],"bee_group":{"antennae":"A","wings":"1","pattern":"X","legs":"X"},"bonus":1.7000000000000013},{"rt":750.7999999821186,"stimulus":"bees-with-color/bee-B2SM.svg","response":0,"trial_type":"image-button-response","trial_index":111,"time_elapsed":1241256,"internal_node_id":"0.0-4.0-0.52","subject_id":"5fbb7aae04da87a3fe5f129c","study_id":"6197b3f67c2b5cd3b6d9596a","session_id":"619be3210bcf6c3cdbfeb161","condition":"full-information","relevant_dimensions":["antennae","wings"],"bee_group":{"antennae":"A","wings":"1","pattern":"X","legs":"X"},"action":"harvest","summary":"good-harvest","bonus":1.7000000000000013},{"rt":416.2999999821186,"stimulus":"\n                    <p><b>Action: <em>harvest</em></b></p>\n                    <p>This is the bee that you just saw.</p>\n                    <img src=\"bees-with-color/bee-B2SM.svg\" width=\"200\">\n                    <p><span class=\"greenText\"><b>Successful harvest!</b></span><br>Your pay has increased by $0.02. Your bonus pay is now $1.06.</p>\n            ","response":0,"trial_type":"html-button-response","trial_index":112,"time_elapsed":1241674,"internal_node_id":"0.0-4.0-1.52","subject_id":"5fbb7aae04da87a3fe5f129c","study_id":"6197b3f67c2b5cd3b6d9596a","session_id":"619be3210bcf6c3cdbfeb161","condition":"full-information","relevant_dimensions":["antennae","wings"],"bee_group":{"antennae":"A","wings":"1","pattern":"X","legs":"X"},"bonus":1.7000000000000013},{"rt":1190.699999988079,"stimulus":"bees-with-color/bee-A1SF.svg","response":1,"trial_type":"image-button-response","trial_index":113,"time_elapsed":1242866,"internal_node_id":"0.0-4.0-0.53","subject_id":"5fbb7aae04da87a3fe5f129c","study_id":"6197b3f67c2b5cd3b6d9596a","session_id":"619be3210bcf6c3cdbfeb161","condition":"full-information","relevant_dimensions":["antennae","wings"],"bee_group":{"antennae":"A","wings":"1","pattern":"X","legs":"X"},"action":"avoid","summary":"good-avoid","bonus":1.7000000000000013},{"rt":456.30000001192093,"stimulus":"\n                    <p><b>Action: <em>avoid</em></b></p>\n                    <p>This is the bee that you just saw.</p>\n                    <img src=\"bees-with-color/bee-A1SF.svg\" width=\"200\">\n                    <p><span class=\"greenText\">Good choice!</span>  This bee would have stung you.<br>Your bonus pay is unchanged, and remains at $1.06.</p>\n            ","response":0,"trial_type":"html-button-response","trial_index":114,"time_elapsed":1243324,"internal_node_id":"0.0-4.0-1.53","subject_id":"5fbb7aae04da87a3fe5f129c","study_id":"6197b3f67c2b5cd3b6d9596a","session_id":"619be3210bcf6c3cdbfeb161","condition":"full-information","relevant_dimensions":["antennae","wings"],"bee_group":{"antennae":"A","wings":"1","pattern":"X","legs":"X"},"bonus":1.7000000000000013},{"rt":818.4000000059605,"stimulus":"bees-with-color/bee-B1SF.svg","response":0,"trial_type":"image-button-response","trial_index":115,"time_elapsed":1244143,"internal_node_id":"0.0-4.0-0.54","subject_id":"5fbb7aae04da87a3fe5f129c","study_id":"6197b3f67c2b5cd3b6d9596a","session_id":"619be3210bcf6c3cdbfeb161","condition":"full-information","relevant_dimensions":["antennae","wings"],"bee_group":{"antennae":"A","wings":"1","pattern":"X","legs":"X"},"action":"harvest","summary":"good-harvest","bonus":1.7000000000000013},{"rt":384.80000001192093,"stimulus":"\n                    <p><b>Action: <em>harvest</em></b></p>\n                    <p>This is the bee that you just saw.</p>\n                    <img src=\"bees-with-color/bee-B1SF.svg\" width=\"200\">\n                    <p><span class=\"greenText\"><b>Successful harvest!</b></span><br>Your pay has increased by $0.02. Your bonus pay is now $1.08.</p>\n            ","response":0,"trial_type":"html-button-response","trial_index":116,"time_elapsed":1244530,"internal_node_id":"0.0-4.0-1.54","subject_id":"5fbb7aae04da87a3fe5f129c","study_id":"6197b3f67c2b5cd3b6d9596a","session_id":"619be3210bcf6c3cdbfeb161","condition":"full-information","relevant_dimensions":["antennae","wings"],"bee_group":{"antennae":"A","wings":"1","pattern":"X","legs":"X"},"bonus":1.7000000000000013},{"rt":626.5,"stimulus":"bees-with-color/bee-B1DF.svg","response":0,"trial_type":"image-button-response","trial_index":117,"time_elapsed":1245158,"internal_node_id":"0.0-4.0-0.55","subject_id":"5fbb7aae04da87a3fe5f129c","study_id":"6197b3f67c2b5cd3b6d9596a","session_id":"619be3210bcf6c3cdbfeb161","condition":"full-information","relevant_dimensions":["antennae","wings"],"bee_group":{"antennae":"A","wings":"1","pattern":"X","legs":"X"},"action":"harvest","summary":"good-harvest","bonus":1.7000000000000013},{"rt":370.09999999403954,"stimulus":"\n                    <p><b>Action: <em>harvest</em></b></p>\n                    <p>This is the bee that you just saw.</p>\n                    <img src=\"bees-with-color/bee-B1DF.svg\" width=\"200\">\n                    <p><span class=\"greenText\"><b>Successful harvest!</b></span><br>Your pay has increased by $0.02. Your bonus pay is now $1.10.</p>\n            ","response":0,"trial_type":"html-button-response","trial_index":118,"time_elapsed":1245530,"internal_node_id":"0.0-4.0-1.55","subject_id":"5fbb7aae04da87a3fe5f129c","study_id":"6197b3f67c2b5cd3b6d9596a","session_id":"619be3210bcf6c3cdbfeb161","condition":"full-information","relevant_dimensions":["antennae","wings"],"bee_group":{"antennae":"A","wings":"1","pattern":"X","legs":"X"},"bonus":1.7000000000000013},{"rt":1011.8000000119209,"stimulus":"bees-with-color/bee-A2SM.svg","response":0,"trial_type":"image-button-response","trial_index":119,"time_elapsed":1246544,"internal_node_id":"0.0-4.0-0.56","subject_id":"5fbb7aae04da87a3fe5f129c","study_id":"6197b3f67c2b5cd3b6d9596a","session_id":"619be3210bcf6c3cdbfeb161","condition":"full-information","relevant_dimensions":["antennae","wings"],"bee_group":{"antennae":"A","wings":"1","pattern":"X","legs":"X"},"action":"harvest","summary":"good-harvest","bonus":1.7000000000000013},{"rt":416,"stimulus":"\n                    <p><b>Action: <em>harvest</em></b></p>\n                    <p>This is the bee that you just saw.</p>\n                    <img src=\"bees-with-color/bee-A2SM.svg\" width=\"200\">\n                    <p><span class=\"greenText\"><b>Successful harvest!</b></span><br>Your pay has increased by $0.02. Your bonus pay is now $1.12.</p>\n            ","response":0,"trial_type":"html-button-response","trial_index":120,"time_elapsed":1246962,"internal_node_id":"0.0-4.0-1.56","subject_id":"5fbb7aae04da87a3fe5f129c","study_id":"6197b3f67c2b5cd3b6d9596a","session_id":"619be3210bcf6c3cdbfeb161","condition":"full-information","relevant_dimensions":["antennae","wings"],"bee_group":{"antennae":"A","wings":"1","pattern":"X","legs":"X"},"bonus":1.7000000000000013},{"rt":595,"stimulus":"bees-with-color/bee-B2DF.svg","response":0,"trial_type":"image-button-response","trial_index":121,"time_elapsed":1247558,"internal_node_id":"0.0-4.0-0.57","subject_id":"5fbb7aae04da87a3fe5f129c","study_id":"6197b3f67c2b5cd3b6d9596a","session_id":"619be3210bcf6c3cdbfeb161","condition":"full-information","relevant_dimensions":["antennae","wings"],"bee_group":{"antennae":"A","wings":"1","pattern":"X","legs":"X"},"action":"harvest","summary":"good-harvest","bonus":1.7000000000000013},{"rt":385.59999999403954,"stimulus":"\n                    <p><b>Action: <em>harvest</em></b></p>\n                    <p>This is the bee that you just saw.</p>\n                    <img src=\"bees-with-color/bee-B2DF.svg\" width=\"200\">\n                    <p><span class=\"greenText\"><b>Successful harvest!</b></span><br>Your pay has increased by $0.02. Your bonus pay is now $1.14.</p>\n            ","response":0,"trial_type":"html-button-response","trial_index":122,"time_elapsed":1247945,"internal_node_id":"0.0-4.0-1.57","subject_id":"5fbb7aae04da87a3fe5f129c","study_id":"6197b3f67c2b5cd3b6d9596a","session_id":"619be3210bcf6c3cdbfeb161","condition":"full-information","relevant_dimensions":["antennae","wings"],"bee_group":{"antennae":"A","wings":"1","pattern":"X","legs":"X"},"bonus":1.7000000000000013},{"rt":1082.5999999940395,"stimulus":"bees-with-color/bee-A1DF.svg","response":1,"trial_type":"image-button-response","trial_index":123,"time_elapsed":1249030,"internal_node_id":"0.0-4.0-0.58","subject_id":"5fbb7aae04da87a3fe5f129c","study_id":"6197b3f67c2b5cd3b6d9596a","session_id":"619be3210bcf6c3cdbfeb161","condition":"full-information","relevant_dimensions":["antennae","wings"],"bee_group":{"antennae":"A","wings":"1","pattern":"X","legs":"X"},"action":"avoid","summary":"good-avoid","bonus":1.7000000000000013},{"rt":378.2000000178814,"stimulus":"\n                    <p><b>Action: <em>avoid</em></b></p>\n                    <p>This is the bee that you just saw.</p>\n                    <img src=\"bees-with-color/bee-A1DF.svg\" width=\"200\">\n                    <p><span class=\"greenText\">Good choice!</span>  This bee would have stung you.<br>Your bonus pay is unchanged, and remains at $1.14.</p>\n            ","response":0,"trial_type":"html-button-response","trial_index":124,"time_elapsed":1249410,"internal_node_id":"0.0-4.0-1.58","subject_id":"5fbb7aae04da87a3fe5f129c","study_id":"6197b3f67c2b5cd3b6d9596a","session_id":"619be3210bcf6c3cdbfeb161","condition":"full-information","relevant_dimensions":["antennae","wings"],"bee_group":{"antennae":"A","wings":"1","pattern":"X","legs":"X"},"bonus":1.7000000000000013},{"rt":1500.4000000059605,"stimulus":"bees-with-color/bee-A2SF.svg","response":0,"trial_type":"image-button-response","trial_index":125,"time_elapsed":1250912,"internal_node_id":"0.0-4.0-0.59","subject_id":"5fbb7aae04da87a3fe5f129c","study_id":"6197b3f67c2b5cd3b6d9596a","session_id":"619be3210bcf6c3cdbfeb161","condition":"full-information","relevant_dimensions":["antennae","wings"],"bee_group":{"antennae":"A","wings":"1","pattern":"X","legs":"X"},"action":"harvest","summary":"good-harvest","bonus":1.7000000000000013},{"rt":982.5,"stimulus":"\n                    <p><b>Action: <em>harvest</em></b></p>\n                    <p>This is the bee that you just saw.</p>\n                    <img src=\"bees-with-color/bee-A2SF.svg\" width=\"200\">\n                    <p><span class=\"greenText\"><b>Successful harvest!</b></span><br>Your pay has increased by $0.02. Your bonus pay is now $1.16.</p>\n            ","response":0,"trial_type":"html-button-response","trial_index":126,"time_elapsed":1251896,"internal_node_id":"0.0-4.0-1.59","subject_id":"5fbb7aae04da87a3fe5f129c","study_id":"6197b3f67c2b5cd3b6d9596a","session_id":"619be3210bcf6c3cdbfeb161","condition":"full-information","relevant_dimensions":["antennae","wings"],"bee_group":{"antennae":"A","wings":"1","pattern":"X","legs":"X"},"bonus":1.7000000000000013},{"rt":1112,"stimulus":"bees-with-color/bee-B2SF.svg","response":0,"trial_type":"image-button-response","trial_index":127,"time_elapsed":1253010,"internal_node_id":"0.0-4.0-0.60","subject_id":"5fbb7aae04da87a3fe5f129c","study_id":"6197b3f67c2b5cd3b6d9596a","session_id":"619be3210bcf6c3cdbfeb161","condition":"full-information","relevant_dimensions":["antennae","wings"],"bee_group":{"antennae":"A","wings":"1","pattern":"X","legs":"X"},"action":"harvest","summary":"good-harvest","bonus":1.7000000000000013},{"rt":407.7000000178814,"stimulus":"\n                    <p><b>Action: <em>harvest</em></b></p>\n                    <p>This is the bee that you just saw.</p>\n                    <img src=\"bees-with-color/bee-B2SF.svg\" width=\"200\">\n                    <p><span class=\"greenText\"><b>Successful harvest!</b></span><br>Your pay has increased by $0.02. Your bonus pay is now $1.18.</p>\n            ","response":0,"trial_type":"html-button-response","trial_index":128,"time_elapsed":1253419,"internal_node_id":"0.0-4.0-1.60","subject_id":"5fbb7aae04da87a3fe5f129c","study_id":"6197b3f67c2b5cd3b6d9596a","session_id":"619be3210bcf6c3cdbfeb161","condition":"full-information","relevant_dimensions":["antennae","wings"],"bee_group":{"antennae":"A","wings":"1","pattern":"X","legs":"X"},"bonus":1.7000000000000013},{"rt":1222.699999988079,"stimulus":"bees-with-color/bee-A1SM.svg","response":1,"trial_type":"image-button-response","trial_index":129,"time_elapsed":1254644,"internal_node_id":"0.0-4.0-0.61","subject_id":"5fbb7aae04da87a3fe5f129c","study_id":"6197b3f67c2b5cd3b6d9596a","session_id":"619be3210bcf6c3cdbfeb161","condition":"full-information","relevant_dimensions":["antennae","wings"],"bee_group":{"antennae":"A","wings":"1","pattern":"X","legs":"X"},"action":"avoid","summary":"good-avoid","bonus":1.7000000000000013},{"rt":370,"stimulus":"\n                    <p><b>Action: <em>avoid</em></b></p>\n                    <p>This is the bee that you just saw.</p>\n                    <img src=\"bees-with-color/bee-A1SM.svg\" width=\"200\">\n                    <p><span class=\"greenText\">Good choice!</span>  This bee would have stung you.<br>Your bonus pay is unchanged, and remains at $1.18.</p>\n            ","response":0,"trial_type":"html-button-response","trial_index":130,"time_elapsed":1255015,"internal_node_id":"0.0-4.0-1.61","subject_id":"5fbb7aae04da87a3fe5f129c","study_id":"6197b3f67c2b5cd3b6d9596a","session_id":"619be3210bcf6c3cdbfeb161","condition":"full-information","relevant_dimensions":["antennae","wings"],"bee_group":{"antennae":"A","wings":"1","pattern":"X","legs":"X"},"bonus":1.7000000000000013},{"rt":649.4000000059605,"stimulus":"bees-with-color/bee-B2DM.svg","response":0,"trial_type":"image-button-response","trial_index":131,"time_elapsed":1255666,"internal_node_id":"0.0-4.0-0.62","subject_id":"5fbb7aae04da87a3fe5f129c","study_id":"6197b3f67c2b5cd3b6d9596a","session_id":"619be3210bcf6c3cdbfeb161","condition":"full-information","relevant_dimensions":["antennae","wings"],"bee_group":{"antennae":"A","wings":"1","pattern":"X","legs":"X"},"action":"harvest","summary":"good-harvest","bonus":1.7000000000000013},{"rt":1006.3999999761581,"stimulus":"\n                    <p><b>Action: <em>harvest</em></b></p>\n                    <p>This is the bee that you just saw.</p>\n                    <img src=\"bees-with-color/bee-B2DM.svg\" width=\"200\">\n                    <p><span class=\"greenText\"><b>Successful harvest!</b></span><br>Your pay has increased by $0.02. Your bonus pay is now $1.20.</p>\n            ","response":0,"trial_type":"html-button-response","trial_index":132,"time_elapsed":1256673,"internal_node_id":"0.0-4.0-1.62","subject_id":"5fbb7aae04da87a3fe5f129c","study_id":"6197b3f67c2b5cd3b6d9596a","session_id":"619be3210bcf6c3cdbfeb161","condition":"full-information","relevant_dimensions":["antennae","wings"],"bee_group":{"antennae":"A","wings":"1","pattern":"X","legs":"X"},"bonus":1.7000000000000013},{"rt":857,"stimulus":"bees-with-color/bee-A2DF.svg","response":0,"trial_type":"image-button-response","trial_index":133,"time_elapsed":1257531,"internal_node_id":"0.0-4.0-0.63","subject_id":"5fbb7aae04da87a3fe5f129c","study_id":"6197b3f67c2b5cd3b6d9596a","session_id":"619be3210bcf6c3cdbfeb161","condition":"full-information","relevant_dimensions":["antennae","wings"],"bee_group":{"antennae":"A","wings":"1","pattern":"X","legs":"X"},"action":"harvest","summary":"good-harvest","bonus":1.7000000000000013},{"rt":362.69999998807907,"stimulus":"\n                    <p><b>Action: <em>harvest</em></b></p>\n                    <p>This is the bee that you just saw.</p>\n                    <img src=\"bees-with-color/bee-A2DF.svg\" width=\"200\">\n                    <p><span class=\"greenText\"><b>Successful harvest!</b></span><br>Your pay has increased by $0.02. Your bonus pay is now $1.22.</p>\n            ","response":0,"trial_type":"html-button-response","trial_index":134,"time_elapsed":1257895,"internal_node_id":"0.0-4.0-1.63","subject_id":"5fbb7aae04da87a3fe5f129c","study_id":"6197b3f67c2b5cd3b6d9596a","session_id":"619be3210bcf6c3cdbfeb161","condition":"full-information","relevant_dimensions":["antennae","wings"],"bee_group":{"antennae":"A","wings":"1","pattern":"X","legs":"X"},"bonus":1.7000000000000013},{"rt":2653.7999999821186,"stimulus":"You have completed the first part of this experiment.<br><br>You will now begin a shorter second part, in which you will receive no feedback.<br>The same rules regarding bonus pay apply.<br><br>Press any key to begin.","response":" ","trial_type":"html-keyboard-response","trial_index":135,"time_elapsed":1260550,"internal_node_id":"0.0-5.0","subject_id":"5fbb7aae04da87a3fe5f129c","study_id":"6197b3f67c2b5cd3b6d9596a","session_id":"619be3210bcf6c3cdbfeb161","condition":"full-information","relevant_dimensions":["antennae","wings"],"bee_group":{"antennae":"A","wings":"1","pattern":"X","legs":"X"},"bonus":1.7000000000000013},{"rt":6500.5999999940395,"stimulus":"bees-with-color/bee-B2DM.svg","response":0,"trial_type":"image-button-response","trial_index":136,"time_elapsed":1267057,"internal_node_id":"0.0-6.0-0.0","subject_id":"5fbb7aae04da87a3fe5f129c","study_id":"6197b3f67c2b5cd3b6d9596a","session_id":"619be3210bcf6c3cdbfeb161","condition":"full-information","relevant_dimensions":["antennae","wings"],"bee_group":{"antennae":"A","wings":"1","pattern":"X","legs":"X"},"bonus":1.7000000000000013},{"rt":2902.199999988079,"stimulus":"bees-with-color/bee-B2DF.svg","response":0,"trial_type":"image-button-response","trial_index":137,"time_elapsed":1269961,"internal_node_id":"0.0-6.0-0.1","subject_id":"5fbb7aae04da87a3fe5f129c","study_id":"6197b3f67c2b5cd3b6d9596a","session_id":"619be3210bcf6c3cdbfeb161","condition":"full-information","relevant_dimensions":["antennae","wings"],"bee_group":{"antennae":"A","wings":"1","pattern":"X","legs":"X"},"bonus":1.7000000000000013},{"rt":1130.0999999940395,"stimulus":"bees-with-color/bee-B2SM.svg","response":0,"trial_type":"image-button-response","trial_index":138,"time_elapsed":1271093,"internal_node_id":"0.0-6.0-0.2","subject_id":"5fbb7aae04da87a3fe5f129c","study_id":"6197b3f67c2b5cd3b6d9596a","session_id":"619be3210bcf6c3cdbfeb161","condition":"full-information","relevant_dimensions":["antennae","wings"],"bee_group":{"antennae":"A","wings":"1","pattern":"X","legs":"X"},"bonus":1.7000000000000013},{"rt":1508.5,"stimulus":"bees-with-color/bee-A1DM.svg","response":1,"trial_type":"image-button-response","trial_index":139,"time_elapsed":1272604,"internal_node_id":"0.0-6.0-0.3","subject_id":"5fbb7aae04da87a3fe5f129c","study_id":"6197b3f67c2b5cd3b6d9596a","session_id":"619be3210bcf6c3cdbfeb161","condition":"full-information","relevant_dimensions":["antennae","wings"],"bee_group":{"antennae":"A","wings":"1","pattern":"X","legs":"X"},"bonus":1.7000000000000013},{"rt":1268.199999988079,"stimulus":"bees-with-color/bee-B1DF.svg","response":0,"trial_type":"image-button-response","trial_index":140,"time_elapsed":1273874,"internal_node_id":"0.0-6.0-0.4","subject_id":"5fbb7aae04da87a3fe5f129c","study_id":"6197b3f67c2b5cd3b6d9596a","session_id":"619be3210bcf6c3cdbfeb161","condition":"full-information","relevant_dimensions":["antennae","wings"],"bee_group":{"antennae":"A","wings":"1","pattern":"X","legs":"X"},"bonus":1.7000000000000013},{"rt":1290.199999988079,"stimulus":"bees-with-color/bee-A1DF.svg","response":1,"trial_type":"image-button-response","trial_index":141,"time_elapsed":1275166,"internal_node_id":"0.0-6.0-0.5","subject_id":"5fbb7aae04da87a3fe5f129c","study_id":"6197b3f67c2b5cd3b6d9596a","session_id":"619be3210bcf6c3cdbfeb161","condition":"full-information","relevant_dimensions":["antennae","wings"],"bee_group":{"antennae":"A","wings":"1","pattern":"X","legs":"X"},"bonus":1.7000000000000013},{"rt":1446.199999988079,"stimulus":"bees-with-color/bee-B1SM.svg","response":0,"trial_type":"image-button-response","trial_index":142,"time_elapsed":1276614,"internal_node_id":"0.0-6.0-0.6","subject_id":"5fbb7aae04da87a3fe5f129c","study_id":"6197b3f67c2b5cd3b6d9596a","session_id":"619be3210bcf6c3cdbfeb161","condition":"full-information","relevant_dimensions":["antennae","wings"],"bee_group":{"antennae":"A","wings":"1","pattern":"X","legs":"X"},"bonus":1.7000000000000013},{"rt":836.1999999880791,"stimulus":"bees-with-color/bee-B2SF.svg","response":0,"trial_type":"image-button-response","trial_index":143,"time_elapsed":1277452,"internal_node_id":"0.0-6.0-0.7","subject_id":"5fbb7aae04da87a3fe5f129c","study_id":"6197b3f67c2b5cd3b6d9596a","session_id":"619be3210bcf6c3cdbfeb161","condition":"full-information","relevant_dimensions":["antennae","wings"],"bee_group":{"antennae":"A","wings":"1","pattern":"X","legs":"X"},"bonus":1.7000000000000013},{"rt":918.1999999880791,"stimulus":"bees-with-color/bee-A1SF.svg","response":1,"trial_type":"image-button-response","trial_index":144,"time_elapsed":1278371,"internal_node_id":"0.0-6.0-0.8","subject_id":"5fbb7aae04da87a3fe5f129c","study_id":"6197b3f67c2b5cd3b6d9596a","session_id":"619be3210bcf6c3cdbfeb161","condition":"full-information","relevant_dimensions":["antennae","wings"],"bee_group":{"antennae":"A","wings":"1","pattern":"X","legs":"X"},"bonus":1.7000000000000013},{"rt":1330.4000000059605,"stimulus":"bees-with-color/bee-A1SM.svg","response":1,"trial_type":"image-button-response","trial_index":145,"time_elapsed":1279703,"internal_node_id":"0.0-6.0-0.9","subject_id":"5fbb7aae04da87a3fe5f129c","study_id":"6197b3f67c2b5cd3b6d9596a","session_id":"619be3210bcf6c3cdbfeb161","condition":"full-information","relevant_dimensions":["antennae","wings"],"bee_group":{"antennae":"A","wings":"1","pattern":"X","legs":"X"},"bonus":1.7000000000000013},{"rt":1648.2999999821186,"stimulus":"bees-with-color/bee-A2DF.svg","response":0,"trial_type":"image-button-response","trial_index":146,"time_elapsed":1281353,"internal_node_id":"0.0-6.0-0.10","subject_id":"5fbb7aae04da87a3fe5f129c","study_id":"6197b3f67c2b5cd3b6d9596a","session_id":"619be3210bcf6c3cdbfeb161","condition":"full-information","relevant_dimensions":["antennae","wings"],"bee_group":{"antennae":"A","wings":"1","pattern":"X","legs":"X"},"bonus":1.7000000000000013},{"rt":710.5,"stimulus":"bees-with-color/bee-A2DM.svg","response":0,"trial_type":"image-button-response","trial_index":147,"time_elapsed":1282065,"internal_node_id":"0.0-6.0-0.11","subject_id":"5fbb7aae04da87a3fe5f129c","study_id":"6197b3f67c2b5cd3b6d9596a","session_id":"619be3210bcf6c3cdbfeb161","condition":"full-information","relevant_dimensions":["antennae","wings"],"bee_group":{"antennae":"A","wings":"1","pattern":"X","legs":"X"},"bonus":1.7000000000000013},{"rt":3390.5,"stimulus":"bees-with-color/bee-B1SF.svg","response":0,"trial_type":"image-button-response","trial_index":148,"time_elapsed":1285458,"internal_node_id":"0.0-6.0-0.12","subject_id":"5fbb7aae04da87a3fe5f129c","study_id":"6197b3f67c2b5cd3b6d9596a","session_id":"619be3210bcf6c3cdbfeb161","condition":"full-information","relevant_dimensions":["antennae","wings"],"bee_group":{"antennae":"A","wings":"1","pattern":"X","legs":"X"},"bonus":1.7000000000000013},{"rt":881.9000000059605,"stimulus":"bees-with-color/bee-A2SM.svg","response":0,"trial_type":"image-button-response","trial_index":149,"time_elapsed":1286341,"internal_node_id":"0.0-6.0-0.13","subject_id":"5fbb7aae04da87a3fe5f129c","study_id":"6197b3f67c2b5cd3b6d9596a","session_id":"619be3210bcf6c3cdbfeb161","condition":"full-information","relevant_dimensions":["antennae","wings"],"bee_group":{"antennae":"A","wings":"1","pattern":"X","legs":"X"},"bonus":1.7000000000000013},{"rt":850.4000000059605,"stimulus":"bees-with-color/bee-A2SF.svg","response":0,"trial_type":"image-button-response","trial_index":150,"time_elapsed":1287194,"internal_node_id":"0.0-6.0-0.14","subject_id":"5fbb7aae04da87a3fe5f129c","study_id":"6197b3f67c2b5cd3b6d9596a","session_id":"619be3210bcf6c3cdbfeb161","condition":"full-information","relevant_dimensions":["antennae","wings"],"bee_group":{"antennae":"A","wings":"1","pattern":"X","legs":"X"},"bonus":1.7000000000000013},{"rt":1406.5999999940395,"stimulus":"bees-with-color/bee-B1DM.svg","response":0,"trial_type":"image-button-response","trial_index":151,"time_elapsed":1288602,"internal_node_id":"0.0-6.0-0.15","subject_id":"5fbb7aae04da87a3fe5f129c","study_id":"6197b3f67c2b5cd3b6d9596a","session_id":"619be3210bcf6c3cdbfeb161","condition":"full-information","relevant_dimensions":["antennae","wings"],"bee_group":{"antennae":"A","wings":"1","pattern":"X","legs":"X"},"bonus":1.7000000000000013},{"rt":1122.199999988079,"stimulus":"bees-with-color/bee-B1DM.svg","response":0,"trial_type":"image-button-response","trial_index":152,"time_elapsed":1289725,"internal_node_id":"0.0-6.0-0.16","subject_id":"5fbb7aae04da87a3fe5f129c","study_id":"6197b3f67c2b5cd3b6d9596a","session_id":"619be3210bcf6c3cdbfeb161","condition":"full-information","relevant_dimensions":["antennae","wings"],"bee_group":{"antennae":"A","wings":"1","pattern":"X","legs":"X"},"bonus":1.7000000000000013},{"rt":1144.5999999940395,"stimulus":"bees-with-color/bee-A2DF.svg","response":0,"trial_type":"image-button-response","trial_index":153,"time_elapsed":1290872,"internal_node_id":"0.0-6.0-0.17","subject_id":"5fbb7aae04da87a3fe5f129c","study_id":"6197b3f67c2b5cd3b6d9596a","session_id":"619be3210bcf6c3cdbfeb161","condition":"full-information","relevant_dimensions":["antennae","wings"],"bee_group":{"antennae":"A","wings":"1","pattern":"X","legs":"X"},"bonus":1.7000000000000013},{"rt":888.6000000238419,"stimulus":"bees-with-color/bee-A2SM.svg","response":0,"trial_type":"image-button-response","trial_index":154,"time_elapsed":1291762,"internal_node_id":"0.0-6.0-0.18","subject_id":"5fbb7aae04da87a3fe5f129c","study_id":"6197b3f67c2b5cd3b6d9596a","session_id":"619be3210bcf6c3cdbfeb161","condition":"full-information","relevant_dimensions":["antennae","wings"],"bee_group":{"antennae":"A","wings":"1","pattern":"X","legs":"X"},"bonus":1.7000000000000013},{"rt":1044.2999999821186,"stimulus":"bees-with-color/bee-A1SF.svg","response":1,"trial_type":"image-button-response","trial_index":155,"time_elapsed":1292808,"internal_node_id":"0.0-6.0-0.19","subject_id":"5fbb7aae04da87a3fe5f129c","study_id":"6197b3f67c2b5cd3b6d9596a","session_id":"619be3210bcf6c3cdbfeb161","condition":"full-information","relevant_dimensions":["antennae","wings"],"bee_group":{"antennae":"A","wings":"1","pattern":"X","legs":"X"},"bonus":1.7000000000000013},{"rt":1556.800000011921,"stimulus":"bees-with-color/bee-B1SF.svg","response":0,"trial_type":"image-button-response","trial_index":156,"time_elapsed":1294366,"internal_node_id":"0.0-6.0-0.20","subject_id":"5fbb7aae04da87a3fe5f129c","study_id":"6197b3f67c2b5cd3b6d9596a","session_id":"619be3210bcf6c3cdbfeb161","condition":"full-information","relevant_dimensions":["antennae","wings"],"bee_group":{"antennae":"A","wings":"1","pat