[{"success":true,"trial_type":"fullscreen","trial_index":0,"time_elapsed":3138,"internal_node_id":"0.0-0.0","subject_id":"5b7b22a5b5727c0001de1369","study_id":"6197b3f67c2b5cd3b6d9596a","session_id":"619be326fd676aea0c78eeb1","condition":"full-information","relevant_dimensions":["antennae","wings"],"bee_group":{"antennae":"B","wings":"1","pattern":"X","legs":"X"},"bonus":1.440000000000001},{"success":true,"timeout":false,"failed_images":[],"failed_audio":[],"failed_video":[],"trial_type":"preload","trial_index":1,"time_elapsed":5231,"internal_node_id":"0.0-1.0","subject_id":"5b7b22a5b5727c0001de1369","study_id":"6197b3f67c2b5cd3b6d9596a","session_id":"619be326fd676aea0c78eeb1","condition":"full-information","relevant_dimensions":["antennae","wings"],"bee_group":{"antennae":"B","wings":"1","pattern":"X","legs":"X"},"bonus":1.440000000000001},{"rt":4293.199999988079,"stimulus":"Welcome! Press any key to begin.","response":" ","trial_type":"html-keyboard-response","trial_index":2,"time_elapsed":9525,"internal_node_id":"0.0-2.0","subject_id":"5b7b22a5b5727c0001de1369","study_id":"6197b3f67c2b5cd3b6d9596a","session_id":"619be326fd676aea0c78eeb1","condition":"full-information","relevant_dimensions":["antennae","wings"],"bee_group":{"antennae":"B","wings":"1","pattern":"X","legs":"X"},"bonus":1.440000000000001},{"view_history":[{"page_index":0,"viewing_time":6223.4000000059605},{"page_index":1,"viewing_time":18814.90000000596},{"page_index":2,"viewing_time":8831.899999976158},{"page_index":3,"viewing_time":18407},{"page_index":4,"viewing_time":8632.200000017881},{"page_index":5,"viewing_time":4677.799999982119},{"page_index":6,"viewing_time":4692.9000000059605},{"page_index":7,"viewing_time":7722.800000011921},{"page_index":8,"viewing_time":10347.09999999404},{"page_index":9,"viewing_time":2631},{"page_index":10,"viewing_time":3769.4000000059605},{"page_index":11,"viewing_time":9008.5},{"page_index":12,"viewing_time":16958.19999998808},{"page_index":13,"viewing_time":2150.4000000059605},{"page_index":14,"viewing_time":2401.9000000059605}],"rt":125269.69999998808,"trial_type":"instructions","trial_index":3,"time_elapsed":134796,"internal_node_id":"0.0-3.0-0.0","subject_id":"5b7b22a5b5727c0001de1369","study_id":"6197b3f67c2b5cd3b6d9596a","session_id":"619be326fd676aea0c78eeb1","condition":"full-information","relevant_dimensions":["antennae","wings"],"bee_group":{"antennae":"B","wings":"1","pattern":"X","legs":"X"},"bonus":1.440000000000001},{"rt":20460.90000000596,"response":{"Q0":["Two or six legs","Stripes or spots on body","Single or double wings","Antennae or no antennae"]},"question_order":[0],"trial_type":"survey-multi-select","trial_index":4,"time_elapsed":155263,"internal_node_id":"0.0-3.0-1.0","subject_id":"5b7b22a5b5727c0001de1369","study_id":"6197b3f67c2b5cd3b6d9596a","session_id":"619be326fd676aea0c78eeb1","condition":"full-information","relevant_dimensions":["antennae","wings"],"bee_group":{"antennae":"B","wings":"1","pattern":"X","legs":"X"},"correct":true,"bonus":1.440000000000001},{"rt":24861.69999998808,"response":{"Q1":"No.","Q2":"Based on the four features of the bee.","Q3":"You learn if it was friendly or dangerous and alter your bonus."},"question_order":[0,1,2],"trial_type":"survey-multi-choice","trial_index":5,"time_elapsed":180127,"internal_node_id":"0.0-3.0-2.0","subject_id":"5b7b22a5b5727c0001de1369","study_id":"6197b3f67c2b5cd3b6d9596a","session_id":"619be326fd676aea0c78eeb1","condition":"full-information","relevant_dimensions":["antennae","wings"],"bee_group":{"antennae":"B","wings":"1","pattern":"X","legs":"X"},"correct":false,"bonus":1.440000000000001},{"rt":7212.799999982119,"stimulus":"<p>You did not answer all comprehension questions correctly.<br>Press <b>continue</b> to review the instructions again.</p>","response":0,"trial_type":"html-button-response","trial_index":6,"time_elapsed":187341,"internal_node_id":"0.0-3.0-3.0","subject_id":"5b7b22a5b5727c0001de1369","study_id":"6197b3f67c2b5cd3b6d9596a","session_id":"619be326fd676aea0c78eeb1","condition":"full-information","relevant_dimensions":["antennae","wings"],"bee_group":{"antennae":"B","wings":"1","pattern":"X","legs":"X"},"bonus":1.440000000000001},{"view_history":[{"page_index":0,"viewing_time":3161.5},{"page_index":1,"viewing_time":33137.40000000596},{"page_index":2,"viewing_time":10642.09999999404},{"page_index":3,"viewing_time":10184.5},{"page_index":4,"viewing_time":88780},{"page_index":5,"viewing_time":9805.59999999404},{"page_index":6,"viewing_time":15664.90000000596},{"page_index":7,"viewing_time":8419.300000011921},{"page_index":8,"viewing_time":6290},{"page_index":9,"viewing_time":5321.899999976158},{"page_index":10,"viewing_time":3237.300000011921},{"page_index":11,"viewing_time":82414.59999999404},{"page_index":12,"viewing_time":8501.09999999404},{"page_index":13,"viewing_time":1988.4000000059605},{"page_index":14,"viewing_time":1071.800000011921}],"rt":288620.6999999881,"trial_type":"instructions","trial_index":7,"time_elapsed":475963,"internal_node_id":"0.0-3.0-4.0-0.0","subject_id":"5b7b22a5b5727c0001de1369","study_id":"6197b3f67c2b5cd3b6d9596a","session_id":"619be326fd676aea0c78eeb1","condition":"full-information","relevant_dimensions":["antennae","wings"],"bee_group":{"antennae":"B","wings":"1","pattern":"X","legs":"X"},"bonus":1.440000000000001},{"rt":64673.59999999404,"response":{"Q0":["Two or six legs","Stripes or spots on body","Single or double wings","Antennae or no antennae"]},"question_order":[0],"trial_type":"survey-multi-select","trial_index":8,"time_elapsed":540640,"internal_node_id":"0.0-3.0-4.0-1.0","subject_id":"5b7b22a5b5727c0001de1369","study_id":"6197b3f67c2b5cd3b6d9596a","session_id":"619be326fd676aea0c78eeb1","condition":"full-information","relevant_dimensions":["antennae","wings"],"bee_group":{"antennae":"B","wings":"1","pattern":"X","legs":"X"},"correct":true,"bonus":1.440000000000001},{"rt":24465.100000023842,"response":{"Q1":"No.","Q2":"Based on the four features of the bee.","Q3":"You learn if it was friendly or dangerous, but do not alter your bonus."},"question_order":[0,1,2],"trial_type":"survey-multi-choice","trial_index":9,"time_elapsed":565106,"internal_node_id":"0.0-3.0-4.0-2.0","subject_id":"5b7b22a5b5727c0001de1369","study_id":"6197b3f67c2b5cd3b6d9596a","session_id":"619be326fd676aea0c78eeb1","condition":"full-information","relevant_dimensions":["antennae","wings"],"bee_group":{"antennae":"B","wings":"1","pattern":"X","legs":"X"},"correct":true,"bonus":1.440000000000001},{"rt":2149.5,"stimulus":"<p>Congrats, you got everything right<br>When you're ready, click the button below to continue to the experiment.</p>","response":0,"trial_type":"html-button-response","trial_index":10,"time_elapsed":567257,"internal_node_id":"0.0-3.0-4.0-3.0","subject_id":"5b7b22a5b5727c0001de1369","study_id":"6197b3f67c2b5cd3b6d9596a","session_id":"619be326fd676aea0c78eeb1","condition":"full-information","relevant_dimensions":["antennae","wings"],"bee_group":{"antennae":"B","wings":"1","pattern":"X","legs":"X"},"bonus":1.440000000000001},{"rt":25595.80000001192,"stimulus":"bees-with-color/bee-B2DF.svg","response":0,"trial_type":"image-button-response","trial_index":11,"time_elapsed":592856,"internal_node_id":"0.0-4.0-0.0","subject_id":"5b7b22a5b5727c0001de1369","study_id":"6197b3f67c2b5cd3b6d9596a","session_id":"619be326fd676aea0c78eeb1","condition":"full-information","relevant_dimensions":["antennae","wings"],"bee_group":{"antennae":"B","wings":"1","pattern":"X","legs":"X"},"action":"harvest","summary":"good-harvest","bonus":1.440000000000001},{"rt":12864.90000000596,"stimulus":"\n                    <p><b>Action: <em>harvest</em></b></p>\n                    <p>This is the bee that you just saw.</p>\n                    <img src=\"bees-with-color/bee-B2DF.svg\" width=\"200\">\n                    <p><span class=\"greenText\"><b>Successful harvest!</b></span><br>Your pay has increased by $0.02. Your bonus pay is now $0.56.</p>\n            ","response":0,"trial_type":"html-button-response","trial_index":12,"time_elapsed":605724,"internal_node_id":"0.0-4.0-1.0","subject_id":"5b7b22a5b5727c0001de1369","study_id":"6197b3f67c2b5cd3b6d9596a","session_id":"619be326fd676aea0c78eeb1","condition":"full-information","relevant_dimensions":["antennae","wings"],"bee_group":{"antennae":"B","wings":"1","pattern":"X","legs":"X"},"bonus":1.440000000000001},{"rt":7026.299999982119,"stimulus":"bees-with-color/bee-A1DF.svg","response":1,"trial_type":"image-button-response","trial_index":13,"time_elapsed":612753,"internal_node_id":"0.0-4.0-0.1","subject_id":"5b7b22a5b5727c0001de1369","study_id":"6197b3f67c2b5cd3b6d9596a","session_id":"619be326fd676aea0c78eeb1","condition":"full-information","relevant_dimensions":["antennae","wings"],"bee_group":{"antennae":"B","wings":"1","pattern":"X","legs":"X"},"action":"avoid","summary":"bad-avoid","bonus":1.440000000000001},{"rt":27788.20000001788,"stimulus":"\n                    <p><b>Action: <em>avoid</em></b></p>\n                    <p>This is the bee that you just saw.</p>\n                    <img src=\"bees-with-color/bee-A1DF.svg\" width=\"200\">\n                    <p><span class=\"redText\">Bad choice,</span> the bee was friendly.<br>Your bonus pay is unchanged, and remains at $0.56.</p>\n            ","response":0,"trial_type":"html-button-response","trial_index":14,"time_elapsed":640543,"internal_node_id":"0.0-4.0-1.1","subject_id":"5b7b22a5b5727c0001de1369","study_id":"6197b3f67c2b5cd3b6d9596a","session_id":"619be326fd676aea0c78eeb1","condition":"full-information","relevant_dimensions":["antennae","wings"],"bee_group":{"antennae":"B","wings":"1","pattern":"X","legs":"X"},"bonus":1.440000000000001},{"rt":3966.2999999821186,"stimulus":"bees-with-color/bee-B2DM.svg","response":1,"trial_type":"image-button-response","trial_index":15,"time_elapsed":644512,"internal_node_id":"0.0-4.0-0.2","subject_id":"5b7b22a5b5727c0001de1369","study_id":"6197b3f67c2b5cd3b6d9596a","session_id":"619be326fd676aea0c78eeb1","condition":"full-information","relevant_dimensions":["antennae","wings"],"bee_group":{"antennae":"B","wings":"1","pattern":"X","legs":"X"},"action":"avoid","summary":"bad-avoid","bonus":1.440000000000001},{"rt":19864.5,"stimulus":"\n                    <p><b>Action: <em>avoid</em></b></p>\n                    <p>This is the bee that you just saw.</p>\n                    <img src=\"bees-with-color/bee-B2DM.svg\" width=\"200\">\n                    <p><span class=\"redText\">Bad choice,</span> the bee was friendly.<br>Your bonus pay is unchanged, and remains at $0.56.</p>\n            ","response":0,"trial_type":"html-button-response","trial_index":16,"time_elapsed":664378,"internal_node_id":"0.0-4.0-1.2","subject_id":"5b7b22a5b5727c0001de1369","study_id":"6197b3f67c2b5cd3b6d9596a","session_id":"619be326fd676aea0c78eeb1","condition":"full-information","relevant_dimensions":["antennae","wings"],"bee_group":{"antennae":"B","wings":"1","pattern":"X","legs":"X"},"bonus":1.440000000000001},{"rt":8505.699999988079,"stimulus":"bees-with-color/bee-A1SM.svg","response":0,"trial_type":"image-button-response","trial_index":17,"time_elapsed":672886,"internal_node_id":"0.0-4.0-0.3","subject_id":"5b7b22a5b5727c0001de1369","study_id":"6197b3f67c2b5cd3b6d9596a","session_id":"619be326fd676aea0c78eeb1","condition":"full-information","relevant_dimensions":["antennae","wings"],"bee_group":{"antennae":"B","wings":"1","pattern":"X","legs":"X"},"action":"harvest","summary":"good-harvest","bonus":1.440000000000001},{"rt":20116.09999999404,"stimulus":"\n                    <p><b>Action: <em>harvest</em></b></p>\n                    <p>This is the bee that you just saw.</p>\n                    <img src=\"bees-with-color/bee-A1SM.svg\" width=\"200\">\n                    <p><span class=\"greenText\"><b>Successful harvest!</b></span><br>Your pay has increased by $0.02. Your bonus pay is now $0.58.</p>\n            ","response":0,"trial_type":"html-button-response","trial_index":18,"time_elapsed":693004,"internal_node_id":"0.0-4.0-1.3","subject_id":"5b7b22a5b5727c0001de1369","study_id":"6197b3f67c2b5cd3b6d9596a","session_id":"619be326fd676aea0c78eeb1","condition":"full-information","relevant_dimensions":["antennae","wings"],"bee_group":{"antennae":"B","wings":"1","pattern":"X","legs":"X"},"bonus":1.440000000000001},{"rt":4447.9000000059605,"stimulus":"bees-with-color/bee-B1SF.svg","response":1,"trial_type":"image-button-response","trial_index":19,"time_elapsed":697454,"internal_node_id":"0.0-4.0-0.4","subject_id":"5b7b22a5b5727c0001de1369","study_id":"6197b3f67c2b5cd3b6d9596a","session_id":"619be326fd676aea0c78eeb1","condition":"full-information","relevant_dimensions":["antennae","wings"],"bee_group":{"antennae":"B","wings":"1","pattern":"X","legs":"X"},"action":"avoid","summary":"good-avoid","bonus":1.440000000000001},{"rt":22984.40000000596,"stimulus":"\n                    <p><b>Action: <em>avoid</em></b></p>\n                    <p>This is the bee that you just saw.</p>\n                    <img src=\"bees-with-color/bee-B1SF.svg\" width=\"200\">\n                    <p><span class=\"greenText\">Good choice!</span>  This bee would have stung you.<br>Your bonus pay is unchanged, and remains at $0.58.</p>\n            ","response":0,"trial_type":"html-button-response","trial_index":20,"time_elapsed":720441,"internal_node_id":"0.0-4.0-1.4","subject_id":"5b7b22a5b5727c0001de1369","study_id":"6197b3f67c2b5cd3b6d9596a","session_id":"619be326fd676aea0c78eeb1","condition":"full-information","relevant_dimensions":["antennae","wings"],"bee_group":{"antennae":"B","wings":"1","pattern":"X","legs":"X"},"bonus":1.440000000000001},{"rt":6244,"stimulus":"bees-with-color/bee-B1DF.svg","response":1,"trial_type":"image-button-response","trial_index":21,"time_elapsed":726687,"internal_node_id":"0.0-4.0-0.5","subject_id":"5b7b22a5b5727c0001de1369","study_id":"6197b3f67c2b5cd3b6d9596a","session_id":"619be326fd676aea0c78eeb1","condition":"full-information","relevant_dimensions":["antennae","wings"],"bee_group":{"antennae":"B","wings":"1","pattern":"X","legs":"X"},"action":"avoid","summary":"good-avoid","bonus":1.440000000000001},{"rt":9068.40000000596,"stimulus":"\n                    <p><b>Action: <em>avoid</em></b></p>\n                    <p>This is the bee that you just saw.</p>\n                    <img src=\"bees-with-color/bee-B1DF.svg\" width=\"200\">\n                    <p><span class=\"greenText\">Good choice!</span>  This bee would have stung you.<br>Your bonus pay is unchanged, and remains at $0.58.</p>\n            ","response":0,"trial_type":"html-button-response","trial_index":22,"time_elapsed":735757,"internal_node_id":"0.0-4.0-1.5","subject_id":"5b7b22a5b5727c0001de1369","study_id":"6197b3f67c2b5cd3b6d9596a","session_id":"619be326fd676aea0c78eeb1","condition":"full-information","relevant_dimensions":["antennae","wings"],"bee_group":{"antennae":"B","wings":"1","pattern":"X","legs":"X"},"bonus":1.440000000000001},{"rt":2259,"stimulus":"bees-with-color/bee-B2SM.svg","response":0,"trial_type":"image-button-response","trial_index":23,"time_elapsed":738019,"internal_node_id":"0.0-4.0-0.6","subject_id":"5b7b22a5b5727c0001de1369","study_id":"6197b3f67c2b5cd3b6d9596a","session_id":"619be326fd676aea0c78eeb1","condition":"full-information","relevant_dimensions":["antennae","wings"],"bee_group":{"antennae":"B","wings":"1","pattern":"X","legs":"X"},"action":"harvest","summary":"good-harvest","bonus":1.440000000000001},{"rt":3901.899999976158,"stimulus":"\n                    <p><b>Action: <em>harvest</em></b></p>\n                    <p>This is the bee that you just saw.</p>\n                    <img src=\"bees-with-color/bee-B2SM.svg\" width=\"200\">\n                    <p><span class=\"greenText\"><b>Successful harvest!</b></span><br>Your pay has increased by $0.02. Your bonus pay is now $0.60.</p>\n            ","response":0,"trial_type":"html-button-response","trial_index":24,"time_elapsed":741922,"internal_node_id":"0.0-4.0-1.6","subject_id":"5b7b22a5b5727c0001de1369","study_id":"6197b3f67c2b5cd3b6d9596a","session_id":"619be326fd676aea0c78eeb1","condition":"full-information","relevant_dimensions":["antennae","wings"],"bee_group":{"antennae":"B","wings":"1","pattern":"X","legs":"X"},"bonus":1.440000000000001},{"rt":1890.300000011921,"stimulus":"bees-with-color/bee-A2SF.svg","response":1,"trial_type":"image-button-response","trial_index":25,"time_elapsed":743814,"internal_node_id":"0.0-4.0-0.7","subject_id":"5b7b22a5b5727c0001de1369","study_id":"6197b3f67c2b5cd3b6d9596a","session_id":"619be326fd676aea0c78eeb1","condition":"full-information","relevant_dimensions":["antennae","wings"],"bee_group":{"antennae":"B","wings":"1","pattern":"X","legs":"X"},"action":"avoid","summary":"bad-avoid","bonus":1.440000000000001},{"rt":3444.4000000059605,"stimulus":"\n                    <p><b>Action: <em>avoid</em></b></p>\n                    <p>This is the bee that you just saw.</p>\n                    <img src=\"bees-with-color/bee-A2SF.svg\" width=\"200\">\n                    <p><span class=\"redText\">Bad choice,</span> the bee was friendly.<br>Your bonus pay is unchanged, and remains at $0.60.</p>\n            ","response":0,"trial_type":"html-button-response","trial_index":26,"time_elapsed":747260,"internal_node_id":"0.0-4.0-1.7","subject_id":"5b7b22a5b5727c0001de1369","study_id":"6197b3f67c2b5cd3b6d9596a","session_id":"619be326fd676aea0c78eeb1","condition":"full-information","relevant_dimensions":["antennae","wings"],"bee_group":{"antennae":"B","wings":"1","pattern":"X","legs":"X"},"bonus":1.440000000000001},{"rt":3457.800000011921,"stimulus":"bees-with-color/bee-A2DF.svg","response":1,"trial_type":"image-button-response","trial_index":27,"time_elapsed":750720,"internal_node_id":"0.0-4.0-0.8","subject_id":"5b7b22a5b5727c0001de1369","study_id":"6197b3f67c2b5cd3b6d9596a","session_id":"619be326fd676aea0c78eeb1","condition":"full-information","relevant_dimensions":["antennae","wings"],"bee_group":{"antennae":"B","wings":"1","pattern":"X","legs":"X"},"action":"avoid","summary":"bad-avoid","bonus":1.440000000000001},{"rt":1854.300000011921,"stimulus":"\n                    <p><b>Action: <em>avoid</em></b></p>\n                    <p>This is the bee that you just saw.</p>\n                    <img src=\"bees-with-color/bee-A2DF.svg\" width=\"200\">\n                    <p><span class=\"redText\">Bad choice,</span> the bee was friendly.<br>Your bonus pay is unchanged, and remains at $0.60.</p>\n            ","response":0,"trial_type":"html-button-response","trial_index":28,"time_elapsed":752575,"internal_node_id":"0.0-4.0-1.8","subject_id":"5b7b22a5b5727c0001de1369","study_id":"6197b3f67c2b5cd3b6d9596a","session_id":"619be326fd676aea0c78eeb1","condition":"full-information","relevant_dimensions":["antennae","wings"],"bee_group":{"antennae":"B","wings":"1","pattern":"X","legs":"X"},"bonus":1.440000000000001},{"rt":1521.5999999940395,"stimulus":"bees-with-color/bee-B1DM.svg","response":0,"trial_type":"image-button-response","trial_index":29,"time_elapsed":754099,"internal_node_id":"0.0-4.0-0.9","subject_id":"5b7b22a5b5727c0001de1369","study_id":"6197b3f67c2b5cd3b6d9596a","session_id":"619be326fd676aea0c78eeb1","condition":"full-information","relevant_dimensions":["antennae","wings"],"bee_group":{"antennae":"B","wings":"1","pattern":"X","legs":"X"},"action":"harvest","summary":"bad-harvest","bonus":1.440000000000001},{"rt":5100,"stimulus":"\n                    <p><b>Action: <em>harvest</em></b></p>\n                    <p>This is the bee that you just saw.</p>\n                    <img src=\"bees-with-color/bee-B1DM.svg\" width=\"200\">\n                    <p><span class=\"redText\">Bad choice, the bee was angry.</span><br><b>You have been stung!</b><br>Your pay has been decreased by $0.10. Your bonus pay is now $0.50.</p>\n            ","response":0,"trial_type":"html-button-response","trial_index":30,"time_elapsed":759200,"internal_node_id":"0.0-4.0-1.9","subject_id":"5b7b22a5b5727c0001de1369","study_id":"6197b3f67c2b5cd3b6d9596a","session_id":"619be326fd676aea0c78eeb1","condition":"full-information","relevant_dimensions":["antennae","wings"],"bee_group":{"antennae":"B","wings":"1","pattern":"X","legs":"X"},"bonus":1.440000000000001},{"rt":2511.699999988079,"stimulus":"bees-with-color/bee-A2DM.svg","response":0,"trial_type":"image-button-response","trial_index":31,"time_elapsed":761714,"internal_node_id":"0.0-4.0-0.10","subject_id":"5b7b22a5b5727c0001de1369","study_id":"6197b3f67c2b5cd3b6d9596a","session_id":"619be326fd676aea0c78eeb1","condition":"full-information","relevant_dimensions":["antennae","wings"],"bee_group":{"antennae":"B","wings":"1","pattern":"X","legs":"X"},"action":"harvest","summary":"good-harvest","bonus":1.440000000000001},{"rt":4862.5999999940395,"stimulus":"\n                    <p><b>Action: <em>harvest</em></b></p>\n                    <p>This is the bee that you just saw.</p>\n                    <img src=\"bees-with-color/bee-A2DM.svg\" width=\"200\">\n                    <p><span class=\"greenText\"><b>Successful harvest!</b></span><br>Your pay has increased by $0.02. Your bonus pay is now $0.52.</p>\n            ","response":0,"trial_type":"html-button-response","trial_index":32,"time_elapsed":766577,"internal_node_id":"0.0-4.0-1.10","subject_id":"5b7b22a5b5727c0001de1369","study_id":"6197b3f67c2b5cd3b6d9596a","session_id":"619be326fd676aea0c78eeb1","condition":"full-information","relevant_dimensions":["antennae","wings"],"bee_group":{"antennae":"B","wings":"1","pattern":"X","legs":"X"},"bonus":1.440000000000001},{"rt":11338.700000017881,"stimulus":"bees-with-color/bee-A1SF.svg","response":1,"trial_type":"image-button-response","trial_index":33,"time_elapsed":777918,"internal_node_id":"0.0-4.0-0.11","subject_id":"5b7b22a5b5727c0001de1369","study_id":"6197b3f67c2b5cd3b6d9596a","session_id":"619be326fd676aea0c78eeb1","condition":"full-information","relevant_dimensions":["antennae","wings"],"bee_group":{"antennae":"B","wings":"1","pattern":"X","legs":"X"},"action":"avoid","summary":"bad-avoid","bonus":1.440000000000001},{"rt":1432.9000000059605,"stimulus":"\n                    <p><b>Action: <em>avoid</em></b></p>\n                    <p>This is the bee that you just saw.</p>\n                    <img src=\"bees-with-color/bee-A1SF.svg\" width=\"200\">\n                    <p><span class=\"redText\">Bad choice,</span> the bee was friendly.<br>Your bonus pay is unchanged, and remains at $0.52.</p>\n            ","response":0,"trial_type":"html-button-response","trial_index":34,"time_elapsed":779352,"internal_node_id":"0.0-4.0-1.11","subject_id":"5b7b22a5b5727c0001de1369","study_id":"6197b3f67c2b5cd3b6d9596a","session_id":"619be326fd676aea0c78eeb1","condition":"full-information","relevant_dimensions":["antennae","wings"],"bee_group":{"antennae":"B","wings":"1","pattern":"X","legs":"X"},"bonus":1.440000000000001},{"rt":2393.399999976158,"stimulus":"bees-with-color/bee-A2SM.svg","response":0,"trial_type":"image-button-response","trial_index":35,"time_elapsed":781747,"internal_node_id":"0.0-4.0-0.12","subject_id":"5b7b22a5b5727c0001de1369","study_id":"6197b3f67c2b5cd3b6d9596a","session_id":"619be326fd676aea0c78eeb1","condition":"full-information","relevant_dimensions":["antennae","wings"],"bee_group":{"antennae":"B","wings":"1","pattern":"X","legs":"X"},"action":"harvest","summary":"good-harvest","bonus":1.440000000000001},{"rt":1543.5,"stimulus":"\n                    <p><b>Action: <em>harvest</em></b></p>\n                    <p>This is the bee that you just saw.</p>\n                    <img src=\"bees-with-color/bee-A2SM.svg\" width=\"200\">\n                    <p><span class=\"greenText\"><b>Successful harvest!</b></span><br>Your pay has increased by $0.02. Your bonus pay is now $0.54.</p>\n            ","response":0,"trial_type":"html-button-response","trial_index":36,"time_elapsed":783292,"internal_node_id":"0.0-4.0-1.12","subject_id":"5b7b22a5b5727c0001de1369","study_id":"6197b3f67c2b5cd3b6d9596a","session_id":"619be326fd676aea0c78eeb1","condition":"full-information","relevant_dimensions":["antennae","wings"],"bee_group":{"antennae":"B","wings":"1","pattern":"X","legs":"X"},"bonus":1.440000000000001},{"rt":9209.299999982119,"stimulus":"bees-with-color/bee-B2SF.svg","response":1,"trial_type":"image-button-response","trial_index":37,"time_elapsed":792503,"internal_node_id":"0.0-4.0-0.13","subject_id":"5b7b22a5b5727c0001de1369","study_id":"6197b3f67c2b5cd3b6d9596a","session_id":"619be326fd676aea0c78eeb1","condition":"full-information","relevant_dimensions":["antennae","wings"],"bee_group":{"antennae":"B","wings":"1","pattern":"X","legs":"X"},"action":"avoid","summary":"bad-avoid","bonus":1.440000000000001},{"rt":1358.5999999940395,"stimulus":"\n                    <p><b>Action: <em>avoid</em></b></p>\n                    <p>This is the bee that you just saw.</p>\n                    <img src=\"bees-with-color/bee-B2SF.svg\" width=\"200\">\n                    <p><span class=\"redText\">Bad choice,</span> the bee was friendly.<br>Your bonus pay is unchanged, and remains at $0.54.</p>\n            ","response":0,"trial_type":"html-button-response","trial_index":38,"time_elapsed":793863,"internal_node_id":"0.0-4.0-1.13","subject_id":"5b7b22a5b5727c0001de1369","study_id":"6197b3f67c2b5cd3b6d9596a","session_id":"619be326fd676aea0c78eeb1","condition":"full-information","relevant_dimensions":["antennae","wings"],"bee_group":{"antennae":"B","wings":"1","pattern":"X","legs":"X"},"bonus":1.440000000000001},{"rt":6214.5,"stimulus":"bees-with-color/bee-A1DM.svg","response":1,"trial_type":"image-button-response","trial_index":39,"time_elapsed":800079,"internal_node_id":"0.0-4.0-0.14","subject_id":"5b7b22a5b5727c0001de1369","study_id":"6197b3f67c2b5cd3b6d9596a","session_id":"619be326fd676aea0c78eeb1","condition":"full-information","relevant_dimensions":["antennae","wings"],"bee_group":{"antennae":"B","wings":"1","pattern":"X","legs":"X"},"action":"avoid","summary":"bad-avoid","bonus":1.440000000000001},{"rt":1447.1000000238419,"stimulus":"\n                    <p><b>Action: <em>avoid</em></b></p>\n                    <p>This is the bee that you just saw.</p>\n                    <img src=\"bees-with-color/bee-A1DM.svg\" width=\"200\">\n                    <p><span class=\"redText\">Bad choice,</span> the bee was friendly.<br>Your bonus pay is unchanged, and remains at $0.54.</p>\n            ","response":0,"trial_type":"html-button-response","trial_index":40,"time_elapsed":801528,"internal_node_id":"0.0-4.0-1.14","subject_id":"5b7b22a5b5727c0001de1369","study_id":"6197b3f67c2b5cd3b6d9596a","session_id":"619be326fd676aea0c78eeb1","condition":"full-information","relevant_dimensions":["antennae","wings"],"bee_group":{"antennae":"B","wings":"1","pattern":"X","legs":"X"},"bonus":1.440000000000001},{"rt":3635.0999999940395,"stimulus":"bees-with-color/bee-B1SM.svg","response":0,"trial_type":"image-button-response","trial_index":41,"time_elapsed":805165,"internal_node_id":"0.0-4.0-0.15","subject_id":"5b7b22a5b5727c0001de1369","study_id":"6197b3f67c2b5cd3b6d9596a","session_id":"619be326fd676aea0c78eeb1","condition":"full-information","relevant_dimensions":["antennae","wings"],"bee_group":{"antennae":"B","wings":"1","pattern":"X","legs":"X"},"action":"harvest","summary":"bad-harvest","bonus":1.440000000000001},{"rt":1757.9000000059605,"stimulus":"\n                    <p><b>Action: <em>harvest</em></b></p>\n                    <p>This is the bee that you just saw.</p>\n                    <img src=\"bees-with-color/bee-B1SM.svg\" width=\"200\">\n                    <p><span class=\"redText\">Bad choice, the bee was angry.</span><br><b>You have been stung!</b><br>Your pay has been decreased by $0.10. Your bonus pay is now $0.44.</p>\n            ","response":0,"trial_type":"html-button-response","trial_index":42,"time_elapsed":806924,"internal_node_id":"0.0-4.0-1.15","subject_id":"5b7b22a5b5727c0001de1369","study_id":"6197b3f67c2b5cd3b6d9596a","session_id":"619be326fd676aea0c78eeb1","condition":"full-information","relevant_dimensions":["antennae","wings"],"bee_group":{"antennae":"B","wings":"1","pattern":"X","legs":"X"},"bonus":1.440000000000001},{"rt":2356,"stimulus":"bees-with-color/bee-B2SF.svg","response":0,"trial_type":"image-button-response","trial_index":43,"time_elapsed":809282,"internal_node_id":"0.0-4.0-0.16","subject_id":"5b7b22a5b5727c0001de1369","study_id":"6197b3f67c2b5cd3b6d9596a","session_id":"619be326fd676aea0c78eeb1","condition":"full-information","relevant_dimensions":["antennae","wings"],"bee_group":{"antennae":"B","wings":"1","pattern":"X","legs":"X"},"action":"harvest","summary":"good-harvest","bonus":1.440000000000001},{"rt":1299.3999999761581,"stimulus":"\n                    <p><b>Action: <em>harvest</em></b></p>\n                    <p>This is the bee that you just saw.</p>\n                    <img src=\"bees-with-color/bee-B2SF.svg\" width=\"200\">\n                    <p><span class=\"greenText\"><b>Successful harvest!</b></span><br>Your pay has increased by $0.02. Your bonus pay is now $0.46.</p>\n            ","response":0,"trial_type":"html-button-response","trial_index":44,"time_elapsed":810583,"internal_node_id":"0.0-4.0-1.16","subject_id":"5b7b22a5b5727c0001de1369","study_id":"6197b3f67c2b5cd3b6d9596a","session_id":"619be326fd676aea0c78eeb1","condition":"full-information","relevant_dimensions":["antennae","wings"],"bee_group":{"antennae":"B","wings":"1","pattern":"X","legs":"X"},"bonus":1.440000000000001},{"rt":9785.59999999404,"stimulus":"bees-with-color/bee-A1DM.svg","response":0,"trial_type":"image-button-response","trial_index":45,"time_elapsed":820370,"internal_node_id":"0.0-4.0-0.17","subject_id":"5b7b22a5b5727c0001de1369","study_id":"6197b3f67c2b5cd3b6d9596a","session_id":"619be326fd676aea0c78eeb1","condition":"full-information","relevant_dimensions":["antennae","wings"],"bee_group":{"antennae":"B","wings":"1","pattern":"X","legs":"X"},"action":"harvest","summary":"good-harvest","bonus":1.440000000000001},{"rt":1499.4000000059605,"stimulus":"\n                    <p><b>Action: <em>harvest</em></b></p>\n                    <p>This is the bee that you just saw.</p>\n                    <img src=\"bees-with-color/bee-A1DM.svg\" width=\"200\">\n                    <p><span class=\"greenText\"><b>Successful harvest!</b></span><br>Your pay has increased by $0.02. Your bonus pay is now $0.48.</p>\n            ","response":0,"trial_type":"html-button-response","trial_index":46,"time_elapsed":821871,"internal_node_id":"0.0-4.0-1.17","subject_id":"5b7b22a5b5727c0001de1369","study_id":"6197b3f67c2b5cd3b6d9596a","session_id":"619be326fd676aea0c78eeb1","condition":"full-information","relevant_dimensions":["antennae","wings"],"bee_group":{"antennae":"B","wings":"1","pattern":"X","legs":"X"},"bonus":1.440000000000001},{"rt":7672.299999982119,"stimulus":"bees-with-color/bee-A1SF.svg","response":0,"trial_type":"image-button-response","trial_index":47,"time_elapsed":829545,"internal_node_id":"0.0-4.0-0.18","subject_id":"5b7b22a5b5727c0001de1369","study_id":"6197b3f67c2b5cd3b6d9596a","session_id":"619be326fd676aea0c78eeb1","condition":"full-information","relevant_dimensions":["antennae","wings"],"bee_group":{"antennae":"B","wings":"1","pattern":"X","legs":"X"},"action":"harvest","summary":"good-harvest","bonus":1.440000000000001},{"rt":16575.80000001192,"stimulus":"\n                    <p><b>Action: <em>harvest</em></b></p>\n                    <p>This is the bee that you just saw.</p>\n                    <img src=\"bees-with-color/bee-A1SF.svg\" width=\"200\">\n                    <p><span class=\"greenText\"><b>Successful harvest!</b></span><br>Your pay has increased by $0.02. Your bonus pay is now $0.50.</p>\n            ","response":0,"trial_type":"html-button-response","trial_index":48,"time_elapsed":846123,"internal_node_id":"0.0-4.0-1.18","subject_id":"5b7b22a5b5727c0001de1369","study_id":"6197b3f67c2b5cd3b6d9596a","session_id":"619be326fd676aea0c78eeb1","condition":"full-information","relevant_dimensions":["antennae","wings"],"bee_group":{"antennae":"B","wings":"1","pattern":"X","legs":"X"},"bonus":1.440000000000001},{"rt":2703.4000000059605,"stimulus":"bees-with-color/bee-B1SF.svg","response":1,"trial_type":"image-button-response","trial_index":49,"time_elapsed":848828,"internal_node_id":"0.0-4.0-0.19","subject_id":"5b7b22a5b5727c0001de1369","study_id":"6197b3f67c2b5cd3b6d9596a","session_id":"619be326fd676aea0c78eeb1","condition":"full-information","relevant_dimensions":["antennae","wings"],"bee_group":{"antennae":"B","wings":"1","pattern":"X","legs":"X"},"action":"avoid","summary":"good-avoid","bonus":1.440000000000001},{"rt":10406.40000000596,"stimulus":"\n                    <p><b>Action: <em>avoid</em></b></p>\n                    <p>This is the bee that you just saw.</p>\n                    <img src=\"bees-with-color/bee-B1SF.svg\" width=\"200\">\n                    <p><span class=\"greenText\">Good choice!</span>  This bee would have stung you.<br>Your bonus pay is unchanged, and remains at $0.50.</p>\n            ","response":0,"trial_type":"html-button-response","trial_index":50,"time_elapsed":859236,"internal_node_id":"0.0-4.0-1.19","subject_id":"5b7b22a5b5727c0001de1369","study_id":"6197b3f67c2b5cd3b6d9596a","session_id":"619be326fd676aea0c78eeb1","condition":"full-information","relevant_dimensions":["antennae","wings"],"bee_group":{"antennae":"B","wings":"1","pattern":"X","legs":"X"},"bonus":1.440000000000001},{"rt":2208.5,"stimulus":"bees-with-color/bee-A2DF.svg","response":0,"trial_type":"image-button-response","trial_index":51,"time_elapsed":861446,"internal_node_id":"0.0-4.0-0.20","subject_id":"5b7b22a5b5727c0001de1369","study_id":"6197b3f67c2b5cd3b6d9596a","session_id":"619be326fd676aea0c78eeb1","condition":"full-information","relevant_dimensions":["antennae","wings"],"bee_group":{"antennae":"B","wings":"1","pattern":"X","legs":"X"},"action":"harvest","summary":"good-harvest","bonus":1.440000000000001},{"rt":16679.600000023842,"stimulus":"\n                    <p><b>Action: <em>harvest</em></b></p>\n                    <p>This is the bee that you just saw.</p>\n                    <img src=\"bees-with-color/bee-A2DF.svg\" width=\"200\">\n                    <p><span class=\"greenText\"><b>Successful harvest!</b></span><br>Your pay has increased by $0.02. Your bonus pay is now $0.52.</p>\n            ","response":0,"trial_type":"html-button-response","trial_index":52,"time_elapsed":878128,"internal_node_id":"0.0-4.0-1.20","subject_id":"5b7b22a5b5727c0001de1369","study_id":"6197b3f67c2b5cd3b6d9596a","session_id":"619be326fd676aea0c78eeb1","condition":"full-information","relevant_dimensions":["antennae","wings"],"bee_group":{"antennae":"B","wings":"1","pattern":"X","legs":"X"},"bonus":1.440000000000001},{"rt":3782.5999999940395,"stimulus":"bees-with-color/bee-B1SM.svg","response":0,"trial_type":"image-button-response","trial_index":53,"time_elapsed":881912,"internal_node_id":"0.0-4.0-0.21","subject_id":"5b7b22a5b5727c0001de1369","study_id":"6197b3f67c2b5cd3b6d9596a","session_id":"619be326fd676aea0c78eeb1","condition":"full-information","relevant_dimensions":["antennae","wings"],"bee_group":{"antennae":"B","wings":"1","pattern":"X","legs":"X"},"action":"harvest","summary":"bad-harvest","bonus":1.440000000000001},{"rt":11752,"stimulus":"\n                    <p><b>Action: <em>harvest</em></b></p>\n                    <p>This is the bee that you just saw.</p>\n                    <img src=\"bees-with-color/bee-B1SM.svg\" width=\"200\">\n                    <p><span class=\"redText\">Bad choice, the bee was angry.</span><br><b>You have been stung!</b><br>Your pay has been decreased by $0.10. Your bonus pay is now $0.42.</p>\n            ","response":0,"trial_type":"html-button-response","trial_index":54,"time_elapsed":893666,"internal_node_id":"0.0-4.0-1.21","subject_id":"5b7b22a5b5727c0001de1369","study_id":"6197b3f67c2b5cd3b6d9596a","session_id":"619be326fd676aea0c78eeb1","condition":"full-information","relevant_dimensions":["antennae","wings"],"bee_group":{"antennae":"B","wings":"1","pattern":"X","legs":"X"},"bonus":1.440000000000001},{"rt":1809.0999999940395,"stimulus":"bees-with-color/bee-A1SM.svg","response":0,"trial_type":"image-button-response","trial_index":55,"time_elapsed":895477,"internal_node_id":"0.0-4.0-0.22","subject_id":"5b7b22a5b5727c0001de1369","study_id":"6197b3f67c2b5cd3b6d9596a","session_id":"619be326fd676aea0c78eeb1","condition":"full-information","relevant_dimensions":["antennae","wings"],"bee_group":{"antennae":"B","wings":"1","pattern":"X","legs":"X"},"action":"harvest","summary":"good-harvest","bonus":1.440000000000001},{"rt":1365.800000011921,"stimulus":"\n                    <p><b>Action: <em>harvest</em></b></p>\n                    <p>This is the bee that you just saw.</p>\n                    <img src=\"bees-with-color/bee-A1SM.svg\" width=\"200\">\n                    <p><span class=\"greenText\"><b>Successful harvest!</b></span><br>Your pay has increased by $0.02. Your bonus pay is now $0.44.</p>\n            ","response":0,"trial_type":"html-button-response","trial_index":56,"time_elapsed":896844,"internal_node_id":"0.0-4.0-1.22","subject_id":"5b7b22a5b5727c0001de1369","study_id":"6197b3f67c2b5cd3b6d9596a","session_id":"619be326fd676aea0c78eeb1","condition":"full-information","relevant_dimensions":["antennae","wings"],"bee_group":{"antennae":"B","wings":"1","pattern":"X","legs":"X"},"bonus":1.440000000000001},{"rt":5787,"stimulus":"bees-with-color/bee-A2DM.svg","response":1,"trial_type":"image-button-response","trial_index":57,"time_elapsed":902633,"internal_node_id":"0.0-4.0-0.23","subject_id":"5b7b22a5b5727c0001de1369","study_id":"6197b3f67c2b5cd3b6d9596a","session_id":"619be326fd676aea0c78eeb1","condition":"full-information","relevant_dimensions":["antennae","wings"],"bee_group":{"antennae":"B","wings":"1","pattern":"X","legs":"X"},"action":"avoid","summary":"bad-avoid","bonus":1.440000000000001},{"rt":15675.90000000596,"stimulus":"\n                    <p><b>Action: <em>avoid</em></b></p>\n                    <p>This is the bee that you just saw.</p>\n                    <img src=\"bees-with-color/bee-A2DM.svg\" width=\"200\">\n                    <p><span class=\"redText\">Bad choice,</span> the bee was friendly.<br>Your bonus pay is unchanged, and remains at $0.44.</p>\n            ","response":0,"trial_type":"html-button-response","trial_index":58,"time_elapsed":918310,"internal_node_id":"0.0-4.0-1.23","subject_id":"5b7b22a5b5727c0001de1369","study_id":"6197b3f67c2b5cd3b6d9596a","session_id":"619be326fd676aea0c78eeb1","condition":"full-information","relevant_dimensions":["antennae","wings"],"bee_group":{"antennae":"B","wings":"1","pattern":"X","legs":"X"},"bonus":1.440000000000001},{"rt":2606.4000000059605,"stimulus":"bees-with-color/bee-B1DF.svg","response":1,"trial_type":"image-button-response","trial_index":59,"time_elapsed":920918,"internal_node_id":"0.0-4.0-0.24","subject_id":"5b7b22a5b5727c0001de1369","study_id":"6197b3f67c2b5cd3b6d9596a","session_id":"619be326fd676aea0c78eeb1","condition":"full-information","relevant_dimensions":["antennae","wings"],"bee_group":{"antennae":"B","wings":"1","pattern":"X","legs":"X"},"action":"avoid","summary":"good-avoid","bonus":1.440000000000001},{"rt":8626.200000017881,"stimulus":"\n                    <p><b>Action: <em>avoid</em></b></p>\n                    <p>This is the bee that you just saw.</p>\n                    <img src=\"bees-with-color/bee-B1DF.svg\" width=\"200\">\n                    <p><span class=\"greenText\">Good choice!</span>  This bee would have stung you.<br>Your bonus pay is unchanged, and remains at $0.44.</p>\n            ","response":0,"trial_type":"html-button-response","trial_index":60,"time_elapsed":929546,"internal_node_id":"0.0-4.0-1.24","subject_id":"5b7b22a5b5727c0001de1369","study_id":"6197b3f67c2b5cd3b6d9596a","session_id":"619be326fd676aea0c78eeb1","condition":"full-information","relevant_dimensions":["antennae","wings"],"bee_group":{"antennae":"B","wings":"1","pattern":"X","legs":"X"},"bonus":1.440000000000001},{"rt":1823.8999999761581,"stimulus":"bees-with-color/bee-B1DM.svg","response":1,"trial_type":"image-button-response","trial_index":61,"time_elapsed":931372,"internal_node_id":"0.0-4.0-0.25","subject_id":"5b7b22a5b5727c0001de1369","study_id":"6197b3f67c2b5cd3b6d9596a","session_id":"619be326fd676aea0c78eeb1","condition":"full-information","relevant_dimensions":["antennae","wings"],"bee_group":{"antennae":"B","wings":"1","pattern":"X","legs":"X"},"action":"avoid","summary":"good-avoid","bonus":1.440000000000001},{"rt":1631.4000000059605,"stimulus":"\n                    <p><b>Action: <em>avoid</em></b></p>\n                    <p>This is the bee that you just saw.</p>\n                    <img src=\"bees-with-color/bee-B1DM.svg\" width=\"200\">\n                    <p><span class=\"greenText\">Good choice!</span>  This bee would have stung you.<br>Your bonus pay is unchanged, and remains at $0.44.</p>\n            ","response":0,"trial_type":"html-button-response","trial_index":62,"time_elapsed":933005,"internal_node_id":"0.0-4.0-1.25","subject_id":"5b7b22a5b5727c0001de1369","study_id":"6197b3f67c2b5cd3b6d9596a","session_id":"619be326fd676aea0c78eeb1","condition":"full-information","relevant_dimensions":["antennae","wings"],"bee_group":{"antennae":"B","wings":"1","pattern":"X","legs":"X"},"bonus":1.440000000000001},{"rt":1197.4000000059605,"stimulus":"bees-with-color/bee-A2SM.svg","response":0,"trial_type":"image-button-response","trial_index":63,"time_elapsed":934203,"internal_node_id":"0.0-4.0-0.26","subject_id":"5b7b22a5b5727c0001de1369","study_id":"6197b3f67c2b5cd3b6d9596a","session_id":"619be326fd676aea0c78eeb1","condition":"full-information","relevant_dimensions":["antennae","wings"],"bee_group":{"antennae":"B","wings":"1","pattern":"X","legs":"X"},"action":"harvest","summary":"good-harvest","bonus":1.440000000000001},{"rt":1447.7000000178814,"stimulus":"\n                    <p><b>Action: <em>harvest</em></b></p>\n                    <p>This is the bee that you just saw.</p>\n                    <img src=\"bees-with-color/bee-A2SM.svg\" width=\"200\">\n                    <p><span class=\"greenText\"><b>Successful harvest!</b></span><br>Your pay has increased by $0.02. Your bonus pay is now $0.46.</p>\n            ","response":0,"trial_type":"html-button-response","trial_index":64,"time_elapsed":935652,"internal_node_id":"0.0-4.0-1.26","subject_id":"5b7b22a5b5727c0001de1369","study_id":"6197b3f67c2b5cd3b6d9596a","session_id":"619be326fd676aea0c78eeb1","condition":"full-information","relevant_dimensions":["antennae","wings"],"bee_group":{"antennae":"B","wings":"1","pattern":"X","legs":"X"},"bonus":1.440000000000001},{"rt":1254.800000011921,"stimulus":"bees-with-color/bee-B2DF.svg","response":0,"trial_type":"image-button-response","trial_index":65,"time_elapsed":936909,"internal_node_id":"0.0-4.0-0.27","subject_id":"5b7b22a5b5727c0001de1369","study_id":"6197b3f67c2b5cd3b6d9596a","session_id":"619be326fd676aea0c78eeb1","condition":"full-information","relevant_dimensions":["antennae","wings"],"bee_group":{"antennae":"B","wings":"1","pattern":"X","legs":"X"},"action":"harvest","summary":"good-harvest","bonus":1.440000000000001},{"rt":1247.9000000059605,"stimulus":"\n                    <p><b>Action: <em>harvest</em></b></p>\n                    <p>This is the bee that you just saw.</p>\n                    <img src=\"bees-with-color/bee-B2DF.svg\" width=\"200\">\n                    <p><span class=\"greenText\"><b>Successful harvest!</b></span><br>Your pay has increased by $0.02. Your bonus pay is now $0.48.</p>\n            ","response":0,"trial_type":"html-button-response","trial_index":66,"time_elapsed":938158,"internal_node_id":"0.0-4.0-1.27","subject_id":"5b7b22a5b5727c0001de1369","study_id":"6197b3f67c2b5cd3b6d9596a","session_id":"619be326fd676aea0c78eeb1","condition":"full-information","relevant_dimensions":["antennae","wings"],"bee_group":{"antennae":"B","wings":"1","pattern":"X","legs":"X"},"bonus":1.440000000000001},{"rt":1153,"stimulus":"bees-with-color/bee-B2SM.svg","response":0,"trial_type":"image-button-response","trial_index":67,"time_elapsed":939312,"internal_node_id":"0.0-4.0-0.28","subject_id":"5b7b22a5b5727c0001de1369","study_id":"6197b3f67c2b5cd3b6d9596a","session_id":"619be326fd676aea0c78eeb1","condition":"full-information","relevant_dimensions":["antennae","wings"],"bee_group":{"antennae":"B","wings":"1","pattern":"X","legs":"X"},"action":"harvest","summary":"good-harvest","bonus":1.440000000000001},{"rt":1247.300000011921,"stimulus":"\n                    <p><b>Action: <em>harvest</em></b></p>\n                    <p>This is the bee that you just saw.</p>\n                    <img src=\"bees-with-color/bee-B2SM.svg\" width=\"200\">\n                    <p><span class=\"greenText\"><b>Successful harvest!</b></span><br>Your pay has increased by $0.02. Your bonus pay is now $0.50.</p>\n            ","response":0,"trial_type":"html-button-response","trial_index":68,"time_elapsed":940560,"internal_node_id":"0.0-4.0-1.28","subject_id":"5b7b22a5b5727c0001de1369","study_id":"6197b3f67c2b5cd3b6d9596a","session_id":"619be326fd676aea0c78eeb1","condition":"full-information","relevant_dimensions":["antennae","wings"],"bee_group":{"antennae":"B","wings":"1","pattern":"X","legs":"X"},"bonus":1.440000000000001},{"rt":1285.300000011921,"stimulus":"bees-with-color/bee-B2DM.svg","response":0,"trial_type":"image-button-response","trial_index":69,"time_elapsed":941847,"internal_node_id":"0.0-4.0-0.29","subject_id":"5b7b22a5b5727c0001de1369","study_id":"6197b3f67c2b5cd3b6d9596a","session_id":"619be326fd676aea0c78eeb1","condition":"full-information","relevant_dimensions":["antennae","wings"],"bee_group":{"antennae":"B","wings":"1","pattern":"X","legs":"X"},"action":"harvest","summary":"good-harvest","bonus":1.440000000000001},{"rt":1284.5,"stimulus":"\n                    <p><b>Action: <em>harvest</em></b></p>\n                    <p>This is the bee that you just saw.</p>\n                    <img src=\"bees-with-color/bee-B2DM.svg\" width=\"200\">\n                    <p><span class=\"greenText\"><b>Successful harvest!</b></span><br>Your pay has increased by $0.02. Your bonus pay is now $0.52.</p>\n            ","response":0,"trial_type":"html-button-response","trial_index":70,"time_elapsed":943133,"internal_node_id":"0.0-4.0-1.29","subject_id":"5b7b22a5b5727c0001de1369","study_id":"6197b3f67c2b5cd3b6d9596a","session_id":"619be326fd676aea0c78eeb1","condition":"full-information","relevant_dimensions":["antennae","wings"],"bee_group":{"antennae":"B","wings":"1","pattern":"X","legs":"X"},"bonus":1.440000000000001},{"rt":1211.699999988079,"stimulus":"bees-with-color/bee-A2SF.svg","response":0,"trial_type":"image-button-response","trial_index":71,"time_elapsed":944346,"internal_node_id":"0.0-4.0-0.30","subject_id":"5b7b22a5b5727c0001de1369","study_id":"6197b3f67c2b5cd3b6d9596a","session_id":"619be326fd676aea0c78eeb1","condition":"full-information","relevant_dimensions":["antennae","wings"],"bee_group":{"antennae":"B","wings":"1","pattern":"X","legs":"X"},"action":"harvest","summary":"good-harvest","bonus":1.440000000000001},{"rt":1233.2999999821186,"stimulus":"\n                    <p><b>Action: <em>harvest</em></b></p>\n                    <p>This is the bee that you just saw.</p>\n                    <img src=\"bees-with-color/bee-A2SF.svg\" width=\"200\">\n                    <p><span class=\"greenText\"><b>Successful harvest!</b></span><br>Your pay has increased by $0.02. Your bonus pay is now $0.54.</p>\n            ","response":0,"trial_type":"html-button-response","trial_index":72,"time_elapsed":945580,"internal_node_id":"0.0-4.0-1.30","subject_id":"5b7b22a5b5727c0001de1369","study_id":"6197b3f67c2b5cd3b6d9596a","session_id":"619be326fd676aea0c78eeb1","condition":"full-information","relevant_dimensions":["antennae","wings"],"bee_group":{"antennae":"B","wings":"1","pattern":"X","legs":"X"},"bonus":1.440000000000001},{"rt":1284.6000000238419,"stimulus":"bees-with-color/bee-A1DF.svg","response":1,"trial_type":"image-button-response","trial_index":73,"time_elapsed":946866,"internal_node_id":"0.0-4.0-0.31","subject_id":"5b7b22a5b5727c0001de1369","study_id":"6197b3f67c2b5cd3b6d9596a","session_id":"619be326fd676aea0c78eeb1","condition":"full-information","relevant_dimensions":["antennae","wings"],"bee_group":{"antennae":"B","wings":"1","pattern":"X","legs":"X"},"action":"avoid","summary":"bad-avoid","bonus":1.440000000000001},{"rt":22085.30000001192,"stimulus":"\n                    <p><b>Action: <em>avoid</em></b></p>\n                    <p>This is the bee that you just saw.</p>\n                    <img src=\"bees-with-color/bee-A1DF.svg\" width=\"200\">\n                    <p><span class=\"redText\">Bad choice,</span> the bee was friendly.<br>Your bonus pay is unchanged, and remains at $0.54.</p>\n            ","response":0,"trial_type":"html-button-response","trial_index":74,"time_elapsed":968953,"internal_node_id":"0.0-4.0-1.31","subject_id":"5b7b22a5b5727c0001de1369","study_id":"6197b3f67c2b5cd3b6d9596a","session_id":"619be326fd676aea0c78eeb1","condition":"full-information","relevant_dimensions":["antennae","wings"],"bee_group":{"antennae":"B","wings":"1","pattern":"X","legs":"X"},"bonus":1.440000000000001},{"rt":2008.8999999761581,"stimulus":"bees-with-color/bee-A2SM.svg","response":0,"trial_type":"image-button-response","trial_index":75,"time_elapsed":970964,"internal_node_id":"0.0-4.0-0.32","subject_id":"5b7b22a5b5727c0001de1369","study_id":"6197b3f67c2b5cd3b6d9596a","session_id":"619be326fd676aea0c78eeb1","condition":"full-information","relevant_dimensions":["antennae","wings"],"bee_group":{"antennae":"B","wings":"1","pattern":"X","legs":"X"},"action":"harvest","summary":"good-harvest","bonus":1.440000000000001},{"rt":1373.7000000178814,"stimulus":"\n                    <p><b>Action: <em>harvest</em></b></p>\n                    <p>This is the bee that you just saw.</p>\n                    <img src=\"bees-with-color/bee-A2SM.svg\" width=\"200\">\n                    <p><span class=\"greenText\"><b>Successful harvest!</b></span><br>Your pay has increased by $0.02. Your bonus pay is now $0.56.</p>\n            ","response":0,"trial_type":"html-button-response","trial_index":76,"time_elapsed":972339,"internal_node_id":"0.0-4.0-1.32","subject_id":"5b7b22a5b5727c0001de1369","study_id":"6197b3f67c2b5cd3b6d9596a","session_id":"619be326fd676aea0c78eeb1","condition":"full-information","relevant_dimensions":["antennae","wings"],"bee_group":{"antennae":"B","wings":"1","pattern":"X","legs":"X"},"bonus":1.440000000000001},{"rt":2911.699999988079,"stimulus":"bees-with-color/bee-B1DF.svg","response":1,"trial_type":"image-button-response","trial_index":77,"time_elapsed":975252,"internal_node_id":"0.0-4.0-0.33","subject_id":"5b7b22a5b5727c0001de1369","study_id":"6197b3f67c2b5cd3b6d9596a","session_id":"619be326fd676aea0c78eeb1","condition":"full-information","relevant_dimensions":["antennae","wings"],"bee_group":{"antennae":"B","wings":"1","pattern":"X","legs":"X"},"action":"avoid","summary":"good-avoid","bonus":1.440000000000001},{"rt":1225.7000000178814,"stimulus":"\n                    <p><b>Action: <em>avoid</em></b></p>\n                    <p>This is the bee that you just saw.</p>\n                    <img src=\"bees-with-color/bee-B1DF.svg\" width=\"200\">\n                    <p><span class=\"greenText\">Good choice!</span>  This bee would have stung you.<br>Your bonus pay is unchanged, and remains at $0.56.</p>\n            ","response":0,"trial_type":"html-button-response","trial_index":78,"time_elapsed":976479,"internal_node_id":"0.0-4.0-1.33","subject_id":"5b7b22a5b5727c0001de1369","study_id":"6197b3f67c2b5cd3b6d9596a","session_id":"619be326fd676aea0c78eeb1","condition":"full-information","relevant_dimensions":["antennae","wings"],"bee_group":{"antennae":"B","wings":"1","pattern":"X","legs":"X"},"bonus":1.440000000000001},{"rt":5024.700000017881,"stimulus":"bees-with-color/bee-B1SM.svg","response":1,"trial_type":"image-button-response","trial_index":79,"time_elapsed":981506,"internal_node_id":"0.0-4.0-0.34","subject_id":"5b7b22a5b5727c0001de1369","study_id":"6197b3f67c2b5cd3b6d9596a","session_id":"619be326fd676aea0c78eeb1","condition":"full-information","relevant_dimensions":["antennae","wings"],"bee_group":{"antennae":"B","wings":"1","pattern":"X","legs":"X"},"action":"avoid","summary":"good-avoid","bonus":1.440000000000001},{"rt":1107.5999999940395,"stimulus":"\n                    <p><b>Action: <em>avoid</em></b></p>\n                    <p>This is the bee that you just saw.</p>\n                    <img src=\"bees-with-color/bee-B1SM.svg\" width=\"200\">\n                    <p><span class=\"greenText\">Good choice!</span>  This bee would have stung you.<br>Your bonus pay is unchanged, and remains at $0.56.</p>\n            ","response":0,"trial_type":"html-button-response","trial_index":80,"time_elapsed":982615,"internal_node_id":"0.0-4.0-1.34","subject_id":"5b7b22a5b5727c0001de1369","study_id":"6197b3f67c2b5cd3b6d9596a","session_id":"619be326fd676aea0c78eeb1","condition":"full-information","relevant_dimensions":["antennae","wings"],"bee_group":{"antennae":"B","wings":"1","pattern":"X","legs":"X"},"bonus":1.440000000000001},{"rt":8092.5999999940395,"stimulus":"bees-with-color/bee-A1SF.svg","response":0,"trial_type":"image-button-response","trial_index":81,"time_elapsed":990709,"internal_node_id":"0.0-4.0-0.35","subject_id":"5b7b22a5b5727c0001de1369","study_id":"6197b3f67c2b5cd3b6d9596a","session_id":"619be326fd676aea0c78eeb1","condition":"full-information","relevant_dimensions":["antennae","wings"],"bee_group":{"antennae":"B","wings":"1","pattern":"X","legs":"X"},"action":"harvest","summary":"good-harvest","bonus":1.440000000000001},{"rt":1218,"stimulus":"\n                    <p><b>Action: <em>harvest</em></b></p>\n                    <p>This is the bee that you just saw.</p>\n                    <img src=\"bees-with-color/bee-A1SF.svg\" width=\"200\">\n                    <p><span class=\"greenText\"><b>Successful harvest!</b></span><br>Your pay has increased by $0.02. Your bonus pay is now $0.58.</p>\n            ","response":0,"trial_type":"html-button-response","trial_index":82,"time_elapsed":991929,"internal_node_id":"0.0-4.0-1.35","subject_id":"5b7b22a5b5727c0001de1369","study_id":"6197b3f67c2b5cd3b6d9596a","session_id":"619be326fd676aea0c78eeb1","condition":"full-information","relevant_dimensions":["antennae","wings"],"bee_group":{"antennae":"B","wings":"1","pattern":"X","legs":"X"},"bonus":1.440000000000001},{"rt":2408.199999988079,"stimulus":"bees-with-color/bee-A1DF.svg","response":1,"trial_type":"image-button-response","trial_index":83,"time_elapsed":994339,"internal_node_id":"0.0-4.0-0.36","subject_id":"5b7b22a5b5727c0001de1369","study_id":"6197b3f67c2b5cd3b6d9596a","session_id":"619be326fd676aea0c78eeb1","condition":"full-information","relevant_dimensions":["antennae","wings"],"bee_group":{"antennae":"B","wings":"1","pattern":"X","legs":"X"},"action":"avoid","summary":"bad-avoid","bonus":1.440000000000001},{"rt":2297.5999999940395,"stimulus":"\n                    <p><b>Action: <em>avoid</em></b></p>\n                    <p>This is the bee that you just saw.</p>\n                    <img src=\"bees-with-color/bee-A1DF.svg\" width=\"200\">\n                    <p><span class=\"redText\">Bad choice,</span> the bee was friendly.<br>Your bonus pay is unchanged, and remains at $0.58.</p>\n            ","response":0,"trial_type":"html-button-response","trial_index":84,"time_elapsed":996638,"internal_node_id":"0.0-4.0-1.36","subject_id":"5b7b22a5b5727c0001de1369","study_id":"6197b3f67c2b5cd3b6d9596a","session_id":"619be326fd676aea0c78eeb1","condition":"full-information","relevant_dimensions":["antennae","wings"],"bee_group":{"antennae":"B","wings":"1","pattern":"X","legs":"X"},"bonus":1.440000000000001},{"rt":1809.5,"stimulus":"bees-with-color/bee-A1SM.svg","response":1,"trial_type":"image-button-response","trial_index":85,"time_elapsed":998449,"internal_node_id":"0.0-4.0-0.37","subject_id":"5b7b22a5b5727c0001de1369","study_id":"6197b3f67c2b5cd3b6d9596a","session_id":"619be326fd676aea0c78eeb1","condition":"full-information","relevant_dimensions":["antennae","wings"],"bee_group":{"antennae":"B","wings":"1","pattern":"X","legs":"X"},"action":"avoid","summary":"bad-avoid","bonus":1.440000000000001},{"rt":1181.300000011921,"stimulus":"\n                    <p><b>Action: <em>avoid</em></b></p>\n                    <p>This is the bee that you just saw.</p>\n                    <img src=\"bees-with-color/bee-A1SM.svg\" width=\"200\">\n                    <p><span class=\"redText\">Bad choice,</span> the bee was friendly.<br>Your bonus pay is unchanged, and remains at $0.58.</p>\n            ","response":0,"trial_type":"html-button-response","trial_index":86,"time_elapsed":999632,"internal_node_id":"0.0-4.0-1.37","subject_id":"5b7b22a5b5727c0001de1369","study_id":"6197b3f67c2b5cd3b6d9596a","session_id":"619be326fd676aea0c78eeb1","condition":"full-information","relevant_dimensions":["antennae","wings"],"bee_group":{"antennae":"B","wings":"1","pattern":"X","legs":"X"},"bonus":1.440000000000001},{"rt":1824.7000000178814,"stimulus":"bees-with-color/bee-A2DF.svg","response":0,"trial_type":"image-button-response","trial_index":87,"time_elapsed":1001458,"internal_node_id":"0.0-4.0-0.38","subject_id":"5b7b22a5b5727c0001de1369","study_id":"6197b3f67c2b5cd3b6d9596a","session_id":"619be326fd676aea0c78eeb1","condition":"full-information","relevant_dimensions":["antennae","wings"],"bee_group":{"antennae":"B","wings":"1","pattern":"X","legs":"X"},"action":"harvest","summary":"good-harvest","bonus":1.440000000000001},{"rt":1927.5,"stimulus":"\n                    <p><b>Action: <em>harvest</em></b></p>\n                    <p>This is the bee that you just saw.</p>\n                    <img src=\"bees-with-color/bee-A2DF.svg\" width=\"200\">\n                    <p><span class=\"greenText\"><b>Successful harvest!</b></span><br>Your pay has increased by $0.02. Your bonus pay is now $0.60.</p>\n            ","response":0,"trial_type":"html-button-response","trial_index":88,"time_elapsed":1003387,"internal_node_id":"0.0-4.0-1.38","subject_id":"5b7b22a5b5727c0001de1369","study_id":"6197b3f67c2b5cd3b6d9596a","session_id":"619be326fd676aea0c78eeb1","condition":"full-information","relevant_dimensions":["antennae","wings"],"bee_group":{"antennae":"B","wings":"1","pattern":"X","legs":"X"},"bonus":1.440000000000001},{"rt":1188.4000000059605,"stimulus":"bees-with-color/bee-B2SM.svg","response":0,"trial_type":"image-button-response","trial_index":89,"time_elapsed":1004577,"internal_node_id":"0.0-4.0-0.39","subject_id":"5b7b22a5b5727c0001de1369","study_id":"6197b3f67c2b5cd3b6d9596a","session_id":"619be326fd676aea0c78eeb1","condition":"full-information","relevant_dimensions":["antennae","wings"],"bee_group":{"antennae":"B","wings":"1","pattern":"X","legs":"X"},"action":"harvest","summary":"good-harvest","bonus":1.440000000000001},{"rt":1203.5999999940395,"stimulus":"\n                    <p><b>Action: <em>harvest</em></b></p>\n                    <p>This is the bee that you just saw.</p>\n                    <img src=\"bees-with-color/bee-B2SM.svg\" width=\"200\">\n                    <p><span class=\"greenText\"><b>Successful harvest!</b></span><br>Your pay has increased by $0.02. Your bonus pay is now $0.62.</p>\n            ","response":0,"trial_type":"html-button-response","trial_index":90,"time_elapsed":1005782,"internal_node_id":"0.0-4.0-1.39","subject_id":"5b7b22a5b5727c0001de1369","study_id":"6197b3f67c2b5cd3b6d9596a","session_id":"619be326fd676aea0c78eeb1","condition":"full-information","relevant_dimensions":["antennae","wings"],"bee_group":{"antennae":"B","wings":"1","pattern":"X","legs":"X"},"bonus":1.440000000000001},{"rt":8750.59999999404,"stimulus":"bees-with-color/bee-B1DM.svg","response":1,"trial_type":"image-button-response","trial_index":91,"time_elapsed":1014534,"internal_node_id":"0.0-4.0-0.40","subject_id":"5b7b22a5b5727c0001de1369","study_id":"6197b3f67c2b5cd3b6d9596a","session_id":"619be326fd676aea0c78eeb1","condition":"full-information","relevant_dimensions":["antennae","wings"],"bee_group":{"antennae":"B","wings":"1","pattern":"X","legs":"X"},"action":"avoid","summary":"good-avoid","bonus":1.440000000000001},{"rt":1092.5,"stimulus":"\n                    <p><b>Action: <em>avoid</em></b></p>\n                    <p>This is the bee that you just saw.</p>\n                    <img src=\"bees-with-color/bee-B1DM.svg\" width=\"200\">\n                    <p><span class=\"greenText\">Good choice!</span>  This bee would have stung you.<br>Your bonus pay is unchanged, and remains at $0.62.</p>\n            ","response":0,"trial_type":"html-button-response","trial_index":92,"time_elapsed":1015628,"internal_node_id":"0.0-4.0-1.40","subject_id":"5b7b22a5b5727c0001de1369","study_id":"6197b3f67c2b5cd3b6d9596a","session_id":"619be326fd676aea0c78eeb1","condition":"full-information","relevant_dimensions":["antennae","wings"],"bee_group":{"antennae":"B","wings":"1","pattern":"X","legs":"X"},"bonus":1.440000000000001},{"rt":1735.199999988079,"stimulus":"bees-with-color/bee-B2DF.svg","response":0,"trial_type":"image-button-response","trial_index":93,"time_elapsed":1017365,"internal_node_id":"0.0-4.0-0.41","subject_id":"5b7b22a5b5727c0001de1369","study_id":"6197b3f67c2b5cd3b6d9596a","session_id":"619be326fd676aea0c78eeb1","condition":"full-information","relevant_dimensions":["antennae","wings"],"bee_group":{"antennae":"B","wings":"1","pattern":"X","legs":"X"},"action":"harvest","summary":"good-harvest","bonus":1.440000000000001},{"rt":1447.2000000178814,"stimulus":"\n                    <p><b>Action: <em>harvest</em></b></p>\n                    <p>This is the bee that you just saw.</p>\n                    <img src=\"bees-with-color/bee-B2DF.svg\" width=\"200\">\n                    <p><span class=\"greenText\"><b>Successful harvest!</b></span><br>Your pay has increased by $0.02. Your bonus pay is now $0.64.</p>\n            ","response":0,"trial_type":"html-button-response","trial_index":94,"time_elapsed":1018814,"internal_node_id":"0.0-4.0-1.41","subject_id":"5b7b22a5b5727c0001de1369","study_id":"6197b3f67c2b5cd3b6d9596a","session_id":"619be326fd676aea0c78eeb1","condition":"full-information","relevant_dimensions":["antennae","wings"],"bee_group":{"antennae":"B","wings":"1","pattern":"X","legs":"X"},"bonus":1.440000000000001},{"rt":2275.4000000059605,"stimulus":"bees-with-color/bee-A2SF.svg","response":0,"trial_type":"image-button-response","trial_index":95,"time_elapsed":1021091,"internal_node_id":"0.0-4.0-0.42","subject_id":"5b7b22a5b5727c0001de1369","study_id":"6197b3f67c2b5cd3b6d9596a","session_id":"619be326fd676aea0c78eeb1","condition":"full-information","relevant_dimensions":["antennae","wings"],"bee_group":{"antennae":"B","wings":"1","pattern":"X","legs":"X"},"action":"harvest","summary":"good-harvest","bonus":1.440000000000001},{"rt":1875.800000011921,"stimulus":"\n                    <p><b>Action: <em>harvest</em></b></p>\n                    <p>This is the bee that you just saw.</p>\n                    <img src=\"bees-with-color/bee-A2SF.svg\" width=\"200\">\n                    <p><span class=\"greenText\"><b>Successful harvest!</b></span><br>Your pay has increased by $0.02. Your bonus pay is now $0.66.</p>\n            ","response":0,"trial_type":"html-button-response","trial_index":96,"time_elapsed":1022968,"internal_node_id":"0.0-4.0-1.42","subject_id":"5b7b22a5b5727c0001de1369","study_id":"6197b3f67c2b5cd3b6d9596a","session_id":"619be326fd676aea0c78eeb1","condition":"full-information","relevant_dimensions":["antennae","wings"],"bee_group":{"antennae":"B","wings":"1","pattern":"X","legs":"X"},"bonus":1.440000000000001},{"rt":1602.0999999940395,"stimulus":"bees-with-color/bee-B2DM.svg","response":0,"trial_type":"image-button-response","trial_index":97,"time_elapsed":1024572,"internal_node_id":"0.0-4.0-0.43","subject_id":"5b7b22a5b5727c0001de1369","study_id":"6197b3f67c2b5cd3b6d9596a","session_id":"619be326fd676aea0c78eeb1","condition":"full-information","relevant_dimensions":["antennae","wings"],"bee_group":{"antennae":"B","wings":"1","pattern":"X","legs":"X"},"action":"harvest","summary":"good-harvest","bonus":1.440000000000001},{"rt":1129.5,"stimulus":"\n                    <p><b>Action: <em>harvest</em></b></p>\n                    <p>This is the bee that you just saw.</p>\n                    <img src=\"bees-with-color/bee-B2DM.svg\" width=\"200\">\n                    <p><span class=\"greenText\"><b>Successful harvest!</b></span><br>Your pay has increased by $0.02. Your bonus pay is now $0.68.</p>\n            ","response":0,"trial_type":"html-button-response","trial_index":98,"time_elapsed":1025703,"internal_node_id":"0.0-4.0-1.43","subject_id":"5b7b22a5b5727c0001de1369","study_id":"6197b3f67c2b5cd3b6d9596a","session_id":"619be326fd676aea0c78eeb1","condition":"full-information","relevant_dimensions":["antennae","wings"],"bee_group":{"antennae":"B","wings":"1","pattern":"X","legs":"X"},"bonus":1.440000000000001},{"rt":4987.699999988079,"stimulus":"bees-with-color/bee-B1SF.svg","response":1,"trial_type":"image-button-response","trial_index":99,"time_elapsed":1030693,"internal_node_id":"0.0-4.0-0.44","subject_id":"5b7b22a5b5727c0001de1369","study_id":"6197b3f67c2b5cd3b6d9596a","session_id":"619be326fd676aea0c78eeb1","condition":"full-information","relevant_dimensions":["antennae","wings"],"bee_group":{"antennae":"B","wings":"1","pattern":"X","legs":"X"},"action":"avoid","summary":"good-avoid","bonus":1.440000000000001},{"rt":2068.2999999821186,"stimulus":"\n                    <p><b>Action: <em>avoid</em></b></p>\n                    <p>This is the bee that you just saw.</p>\n                    <img src=\"bees-with-color/bee-B1SF.svg\" width=\"200\">\n                    <p><span class=\"greenText\">Good choice!</span>  This bee would have stung you.<br>Your bonus pay is unchanged, and remains at $0.68.</p>\n            ","response":0,"trial_type":"html-button-response","trial_index":100,"time_elapsed":1032763,"internal_node_id":"0.0-4.0-1.44","subject_id":"5b7b22a5b5727c0001de1369","study_id":"6197b3f67c2b5cd3b6d9596a","session_id":"619be326fd676aea0c78eeb1","condition":"full-information","relevant_dimensions":["antennae","wings"],"bee_group":{"antennae":"B","wings":"1","pattern":"X","legs":"X"},"bonus":1.440000000000001},{"rt":1469.199999988079,"stimulus":"bees-with-color/bee-A2DM.svg","response":0,"trial_type":"image-button-response","trial_index":101,"time_elapsed":1034234,"internal_node_id":"0.0-4.0-0.45","subject_id":"5b7b22a5b5727c0001de1369","study_id":"6197b3f67c2b5cd3b6d9596a","session_id":"619be326fd676aea0c78eeb1","condition":"full-information","relevant_dimensions":["antennae","wings"],"bee_group":{"antennae":"B","wings":"1","pattern":"X","legs":"X"},"action":"harvest","summary":"good-harvest","bonus":1.440000000000001},{"rt":1461.5,"stimulus":"\n                    <p><b>Action: <em>harvest</em></b></p>\n                    <p>This is the bee that you just saw.</p>\n                    <img src=\"bees-with-color/bee-A2DM.svg\" width=\"200\">\n                    <p><span class=\"greenText\"><b>Successful harvest!</b></span><br>Your pay has increased by $0.02. Your bonus pay is now $0.70.</p>\n            ","response":0,"trial_type":"html-button-response","trial_index":102,"time_elapsed":1035697,"internal_node_id":"0.0-4.0-1.45","subject_id":"5b7b22a5b5727c0001de1369","study_id":"6197b3f67c2b5cd3b6d9596a","session_id":"619be326fd676aea0c78eeb1","condition":"full-information","relevant_dimensions":["antennae","wings"],"bee_group":{"antennae":"B","wings":"1","pattern":"X","legs":"X"},"bonus":1.440000000000001},{"rt":6859.4000000059605,"stimulus":"bees-with-color/bee-A1DM.svg","response":0,"trial_type":"image-button-response","trial_index":103,"time_elapsed":1042558,"internal_node_id":"0.0-4.0-0.46","subject_id":"5b7b22a5b5727c0001de1369","study_id":"6197b3f67c2b5cd3b6d9596a","session_id":"619be326fd676aea0c78eeb1","condition":"full-information","relevant_dimensions":["antennae","wings"],"bee_group":{"antennae":"B","wings":"1","pattern":"X","legs":"X"},"action":"harvest","summary":"good-harvest","bonus":1.440000000000001},{"rt":1588.0999999940395,"stimulus":"\n                    <p><b>Action: <em>harvest</em></b></p>\n                    <p>This is the bee that you just saw.</p>\n                    <img src=\"bees-with-color/bee-A1DM.svg\" width=\"200\">\n                    <p><span class=\"greenText\"><b>Successful harvest!</b></span><br>Your pay has increased by $0.02. Your bonus pay is now $0.72.</p>\n            ","response":0,"trial_type":"html-button-response","trial_index":104,"time_elapsed":1044148,"internal_node_id":"0.0-4.0-1.46","subject_id":"5b7b22a5b5727c0001de1369","study_id":"6197b3f67c2b5cd3b6d9596a","session_id":"619be326fd676aea0c78eeb1","condition":"full-information","relevant_dimensions":["antennae","wings"],"bee_group":{"antennae":"B","wings":"1","pattern":"X","legs":"X"},"bonus":1.440000000000001},{"rt":1559.6000000238419,"stimulus":"bees-with-color/bee-B2SF.svg","response":0,"trial_type":"image-button-response","trial_index":105,"time_elapsed":1045709,"internal_node_id":"0.0-4.0-0.47","subject_id":"5b7b22a5b5727c0001de1369","study_id":"6197b3f67c2b5cd3b6d9596a","session_id":"619be326fd676aea0c78eeb1","condition":"full-information","relevant_dimensions":["antennae","wings"],"bee_group":{"antennae":"B","wings":"1","pattern":"X","legs":"X"},"action":"harvest","summary":"good-harvest","bonus":1.440000000000001},{"rt":1165.9000000059605,"stimulus":"\n                    <p><b>Action: <em>harvest</em></b></p>\n                    <p>This is the bee that you just saw.</p>\n                    <img src=\"bees-with-color/bee-B2SF.svg\" width=\"200\">\n                    <p><span class=\"greenText\"><b>Successful harvest!</b></span><br>Your pay has increased by $0.02. Your bonus pay is now $0.74.</p>\n            ","response":0,"trial_type":"html-button-response","trial_index":106,"time_elapsed":1046876,"internal_node_id":"0.0-4.0-1.47","subject_id":"5b7b22a5b5727c0001de1369","study_id":"6197b3f67c2b5cd3b6d9596a","session_id":"619be326fd676aea0c78eeb1","condition":"full-information","relevant_dimensions":["antennae","wings"],"bee_group":{"antennae":"B","wings":"1","pattern":"X","legs":"X"},"bonus":1.440000000000001},{"rt":1307.800000011921,"stimulus":"bees-with-color/bee-B2SF.svg","response":0,"trial_type":"image-button-response","trial_index":107,"time_elapsed":1048185,"internal_node_id":"0.0-4.0-0.48","subject_id":"5b7b22a5b5727c0001de1369","study_id":"6197b3f67c2b5cd3b6d9596a","session_id":"619be326fd676aea0c78eeb1","condition":"full-information","relevant_dimensions":["antennae","wings"],"bee_group":{"antennae":"B","wings":"1","pattern":"X","legs":"X"},"action":"harvest","summary":"good-harvest","bonus":1.440000000000001},{"rt":1122.300000011921,"stimulus":"\n                    <p><b>Action: <em>harvest</em></b></p>\n                    <p>This is the bee that you just saw.</p>\n                    <img src=\"bees-with-color/bee-B2SF.svg\" width=\"200\">\n                    <p><span class=\"greenText\"><b>Successful harvest!</b></span><br>Your pay has increased by $0.02. Your bonus pay is now $0.76.</p>\n            ","response":0,"trial_type":"html-button-response","trial_index":108,"time_elapsed":1049308,"internal_node_id":"0.0-4.0-1.48","subject_id":"5b7b22a5b5727c0001de1369","study_id":"6197b3f67c2b5cd3b6d9596a","session_id":"619be326fd676aea0c78eeb1","condition":"full-information","relevant_dimensions":["antennae","wings"],"bee_group":{"antennae":"B","wings":"1","pattern":"X","legs":"X"},"bonus":1.440000000000001},{"rt":2128.4000000059605,"stimulus":"bees-with-color/bee-B2DM.svg","response":0,"trial_type":"image-button-response","trial_index":109,"time_elapsed":1051438,"internal_node_id":"0.0-4.0-0.49","subject_id":"5b7b22a5b5727c0001de1369","study_id":"6197b3f67c2b5cd3b6d9596a","session_id":"619be326fd676aea0c78eeb1","condition":"full-information","relevant_dimensions":["antennae","wings"],"bee_group":{"antennae":"B","wings":"1","pattern":"X","legs":"X"},"action":"harvest","summary":"good-harvest","bonus":1.440000000000001},{"rt":996.5999999940395,"stimulus":"\n                    <p><b>Action: <em>harvest</em></b></p>\n                    <p>This is the bee that you just saw.</p>\n                    <img src=\"bees-with-color/bee-B2DM.svg\" width=\"200\">\n                    <p><span class=\"greenText\"><b>Successful harvest!</b></span><br>Your pay has increased by $0.02. Your bonus pay is now $0.78.</p>\n            ","response":0,"trial_type":"html-button-response","trial_index":110,"time_elapsed":1052436,"internal_node_id":"0.0-4.0-1.49","subject_id":"5b7b22a5b5727c0001de1369","study_id":"6197b3f67c2b5cd3b6d9596a","session_id":"619be326fd676aea0c78eeb1","condition":"full-information","relevant_dimensions":["antennae","wings"],"bee_group":{"antennae":"B","wings":"1","pattern":"X","legs":"X"},"bonus":1.440000000000001},{"rt":1137.0999999940395,"stimulus":"bees-with-color/bee-A2SM.svg","response":0,"trial_type":"image-button-response","trial_index":111,"time_elapsed":1053575,"internal_node_id":"0.0-4.0-0.50","subject_id":"5b7b22a5b5727c0001de1369","study_id":"6197b3f67c2b5cd3b6d9596a","session_id":"619be326fd676aea0c78eeb1","condition":"full-information","relevant_dimensions":["antennae","wings"],"bee_group":{"antennae":"B","wings":"1","pattern":"X","legs":"X"},"action":"harvest","summary":"good-harvest","bonus":1.440000000000001},{"rt":1255.699999988079,"stimulus":"\n                    <p><b>Action: <em>harvest</em></b></p>\n                    <p>This is the bee that you just saw.</p>\n                    <img src=\"bees-with-color/bee-A2SM.svg\" width=\"200\">\n                    <p><span class=\"greenText\"><b>Successful harvest!</b></span><br>Your pay has increased by $0.02. Your bonus pay is now $0.80.</p>\n            ","response":0,"trial_type":"html-button-response","trial_index":112,"time_elapsed":1054832,"internal_node_id":"0.0-4.0-1.50","subject_id":"5b7b22a5b5727c0001de1369","study_id":"6197b3f67c2b5cd3b6d9596a","session_id":"619be326fd676aea0c78eeb1","condition":"full-information","relevant_dimensions":["antennae","wings"],"bee_group":{"antennae":"B","wings":"1","pattern":"X","legs":"X"},"bonus":1.440000000000001},{"rt":4759.9000000059605,"stimulus":"bees-with-color/bee-A1DF.svg","response":0,"trial_type":"image-button-response","trial_index":113,"time_elapsed":1059593,"internal_node_id":"0.0-4.0-0.51","subject_id":"5b7b22a5b5727c0001de1369","study_id":"6197b3f67c2b5cd3b6d9596a","session_id":"619be326fd676aea0c78eeb1","condition":"full-information","relevant_dimensions":["antennae","wings"],"bee_group":{"antennae":"B","wings":"1","pattern":"X","legs":"X"},"action":"harvest","summary":"good-harvest","bonus":1.440000000000001},{"rt":1107.699999988079,"stimulus":"\n                    <p><b>Action: <em>harvest</em></b></p>\n                    <p>This is the bee that you just saw.</p>\n                    <img src=\"bees-with-color/bee-A1DF.svg\" width=\"200\">\n                    <p><span class=\"greenText\"><b>Successful harvest!</b></span><br>Your pay has increased by $0.02. Your bonus pay is now $0.82.</p>\n            ","response":0,"trial_type":"html-button-response","trial_index":114,"time_elapsed":1060702,"internal_node_id":"0.0-4.0-1.51","subject_id":"5b7b22a5b5727c0001de1369","study_id":"6197b3f67c2b5cd3b6d9596a","session_id":"619be326fd676aea0c78eeb1","condition":"full-information","relevant_dimensions":["antennae","wings"],"bee_group":{"antennae":"B","wings":"1","pattern":"X","legs":"X"},"bonus":1.440000000000001},{"rt":2179.199999988079,"stimulus":"bees-with-color/bee-B1DM.svg","response":1,"trial_type":"image-button-response","trial_index":115,"time_elapsed":1062883,"internal_node_id":"0.0-4.0-0.52","subject_id":"5b7b22a5b5727c0001de1369","study_id":"6197b3f67c2b5cd3b6d9596a","session_id":"619be326fd676aea0c78eeb1","condition":"full-information","relevant_dimensions":["antennae","wings"],"bee_group":{"antennae":"B","wings":"1","pattern":"X","legs":"X"},"action":"avoid","summary":"good-avoid","bonus":1.440000000000001},{"rt":1121.5999999940395,"stimulus":"\n                    <p><b>Action: <em>avoid</em></b></p>\n                    <p>This is the bee that you just saw.</p>\n                    <img src=\"bees-with-color/bee-B1DM.svg\" width=\"200\">\n                    <p><span class=\"greenText\">Good choice!</span>  This bee would have stung you.<br>Your bonus pay is unchanged, and remains at $0.82.</p>\n            ","response":0,"trial_type":"html-button-response","trial_index":116,"time_elapsed":1064005,"internal_node_id":"0.0-4.0-1.52","subject_id":"5b7b22a5b5727c0001de1369","study_id":"6197b3f67c2b5cd3b6d9596a","session_id":"619be326fd676aea0c78eeb1","condition":"full-information","relevant_dimensions":["antennae","wings"],"bee_group":{"antennae":"B","wings":"1","pattern":"X","legs":"X"},"bonus":1.440000000000001},{"rt":1670.0999999940395,"stimulus":"bees-with-color/bee-A2SF.svg","response":0,"trial_type":"image-button-response","trial_index":117,"time_elapsed":1065677,"internal_node_id":"0.0-4.0-0.53","subject_id":"5b7b22a5b5727c0001de1369","study_id":"6197b3f67c2b5cd3b6d9596a","session_id":"619be326fd676aea0c78eeb1","condition":"full-information","relevant_dimensions":["antennae","wings"],"bee_group":{"antennae":"B","wings":"1","pattern":"X","legs":"X"},"action":"harvest","summary":"good-harvest","bonus":1.440000000000001},{"rt":1552,"stimulus":"\n                    <p><b>Action: <em>harvest</em></b></p>\n                    <p>This is the bee that you just saw.</p>\n                    <img src=\"bees-with-color/bee-A2SF.svg\" width=\"200\">\n                    <p><span class=\"greenText\"><b>Successful harvest!</b></span><br>Your pay has increased by $0.02. Your bonus pay is now $0.84.</p>\n            ","response":0,"trial_type":"html-button-response","trial_index":118,"time_elapsed":1067230,"internal_node_id":"0.0-4.0-1.53","subject_id":"5b7b22a5b5727c0001de1369","study_id":"6197b3f67c2b5cd3b6d9596a","session_id":"619be326fd676aea0c78eeb1","condition":"full-information","relevant_dimensions":["antennae","wings"],"bee_group":{"antennae":"B","wings":"1","pattern":"X","legs":"X"},"bonus":1.440000000000001},{"rt":2282.9000000059605,"stimulus":"bees-with-color/bee-B1SF.svg","response":1,"trial_type":"image-button-response","trial_index":119,"time_elapsed":1069514,"internal_node_id":"0.0-4.0-0.54","subject_id":"5b7b22a5b5727c0001de1369","study_id":"6197b3f67c2b5cd3b6d9596a","session_id":"619be326fd676aea0c78eeb1","condition":"full-information","relevant_dimensions":["antennae","wings"],"bee_group":{"antennae":"B","wings":"1","pattern":"X","legs":"X"},"action":"avoid","summary":"good-avoid","bonus":1.440000000000001},{"rt":1203.5999999940395,"stimulus":"\n                    <p><b>Action: <em>avoid</em></b></p>\n                    <p>This is the bee that you just saw.</p>\n                    <img src=\"bees-with-color/bee-B1SF.svg\" width=\"200\">\n                    <p><span class=\"greenText\">Good choice!</span>  This bee would have stung you.<br>Your bonus pay is unchanged, and remains at $0.84.</p>\n            ","response":0,"trial_type":"html-button-response","trial_index":120,"time_elapsed":1070719,"internal_node_id":"0.0-4.0-1.54","subject_id":"5b7b22a5b5727c0001de1369","study_id":"6197b3f67c2b5cd3b6d9596a","session_id":"619be326fd676aea0c78eeb1","condition":"full-information","relevant_dimensions":["antennae","wings"],"bee_group":{"antennae":"B","wings":"1","pattern":"X","legs":"X"},"bonus":1.440000000000001},{"rt":1683.8999999761581,"stimulus":"bees-with-color/bee-A1SF.svg","response":0,"trial_type":"image-button-response","trial_index":121,"time_elapsed":1072405,"internal_node_id":"0.0-4.0-0.55","subject_id":"5b7b22a5b5727c0001de1369","study_id":"6197b3f67c2b5cd3b6d9596a","session_id":"619be326fd676aea0c78eeb1","condition":"full-information","relevant_dimensions":["antennae","wings"],"bee_group":{"antennae":"B","wings":"1","pattern":"X","legs":"X"},"action":"harvest","summary":"good-harvest","bonus":1.440000000000001},{"rt":1248,"stimulus":"\n                    <p><b>Action: <em>harvest</em></b></p>\n                    <p>This is the bee that you just saw.</p>\n                    <img src=\"bees-with-color/bee-A1SF.svg\" width=\"200\">\n                    <p><span class=\"greenText\"><b>Successful harvest!</b></span><br>Your pay has increased by $0.02. Your bonus pay is now $0.86.</p>\n            ","response":0,"trial_type":"html-button-response","trial_index":122,"time_elapsed":1073654,"internal_node_id":"0.0-4.0-1.55","subject_id":"5b7b22a5b5727c0001de1369","study_id":"6197b3f67c2b5cd3b6d9596a","session_id":"619be326fd676aea0c78eeb1","condition":"full-information","relevant_dimensions":["antennae","wings"],"bee_group":{"antennae":"B","wings":"1","pattern":"X","legs":"X"},"bonus":1.440000000000001},{"rt":2882.4000000059605,"stimulus":"bees-with-color/bee-B1SM.svg","response":1,"trial_type":"image-button-response","trial_index":123,"time_elapsed":1076538,"internal_node_id":"0.0-4.0-0.56","subject_id":"5b7b22a5b5727c0001de1369","study_id":"6197b3f67c2b5cd3b6d9596a","session_id":"619be326fd676aea0c78eeb1","condition":"full-information","relevant_dimensions":["antennae","wings"],"bee_group":{"antennae":"B","wings":"1","pattern":"X","legs":"X"},"action":"avoid","summary":"good-avoid","bonus":1.440000000000001},{"rt":1211.0999999940395,"stimulus":"\n                    <p><b>Action: <em>avoid</em></b></p>\n                    <p>This is the bee that you just saw.</p>\n                    <img src=\"bees-with-color/bee-B1SM.svg\" width=\"200\">\n                    <p><span class=\"greenText\">Good choice!</span>  This bee would have stung you.<br>Your bonus pay is unchanged, and remains at $0.86.</p>\n            ","response":0,"trial_type":"html-button-response","trial_index":124,"time_elapsed":1077750,"internal_node_id":"0.0-4.0-1.56","subject_id":"5b7b22a5b5727c0001de1369","study_id":"6197b3f67c2b5cd3b6d9596a","session_id":"619be326fd676aea0c78eeb1","condition":"full-information","relevant_dimensions":["antennae","wings"],"bee_group":{"antennae":"B","wings":"1","pattern":"X","legs":"X"},"bonus":1.440000000000001},{"rt":1735.7999999821186,"stimulus":"bees-with-color/bee-B2DF.svg","response":0,"trial_type":"image-button-response","trial_index":125,"time_elapsed":1079488,"internal_node_id":"0.0-4.0-0.57","subject_id":"5b7b22a5b5727c0001de1369","study_id":"6197b3f67c2b5cd3b6d9596a","session_id":"619be326fd676aea0c78eeb1","condition":"full-information","relevant_dimensions":["antennae","wings"],"bee_group":{"antennae":"B","wings":"1","pattern":"X","legs":"X"},"action":"harvest","summary":"good-harvest","bonus":1.440000000000001},{"rt":1373.5999999940395,"stimulus":"\n                    <p><b>Action: <em>harvest</em></b></p>\n                    <p>This is the bee that you just saw.</p>\n                    <img src=\"bees-with-color/bee-B2DF.svg\" width=\"200\">\n                    <p><span class=\"greenText\"><b>Successful harvest!</b></span><br>Your pay has increased by $0.02. Your bonus pay is now $0.88.</p>\n            ","response":0,"trial_type":"html-button-response","trial_index":126,"time_elapsed":1080863,"internal_node_id":"0.0-4.0-1.57","subject_id":"5b7b22a5b5727c0001de1369","study_id":"6197b3f67c2b5cd3b6d9596a","session_id":"619be326fd676aea0c78eeb1","condition":"full-information","relevant_dimensions":["antennae","wings"],"bee_group":{"antennae":"B","wings":"1","pattern":"X","legs":"X"},"bonus":1.440000000000001},{"rt":2697.0999999940395,"stimulus":"bees-with-color/bee-A1DM.svg","response":0,"trial_type":"image-button-response","trial_index":127,"time_elapsed":1083562,"internal_node_id":"0.0-4.0-0.58","subject_id":"5b7b22a5b5727c0001de1369","study_id":"6197b3f67c2b5cd3b6d9596a","session_id":"619be326fd676aea0c78eeb1","condition":"full-information","relevant_dimensions":["antennae","wings"],"bee_group":{"antennae":"B","wings":"1","pattern":"X","legs":"X"},"action":"harvest","summary":"good-harvest","bonus":1.440000000000001},{"rt":1033.5999999940395,"stimulus":"\n                    <p><b>Action: <em>harvest</em></b></p>\n                    <p>This is the bee that you just saw.</p>\n                    <img src=\"bees-with-color/bee-A1DM.svg\" width=\"200\">\n                    <p><span class=\"greenText\"><b>Successful harvest!</b></span><br>Your pay has increased by $0.02. Your bonus pay is now $0.90.</p>\n            ","response":0,"trial_type":"html-button-response","trial_index":128,"time_elapsed":1084597,"internal_node_id":"0.0-4.0-1.58","subject_id":"5b7b22a5b5727c0001de1369","study_id":"6197b3f67c2b5cd3b6d9596a","session_id":"619be326fd676aea0c78eeb1","condition":"full-information","relevant_dimensions":["antennae","wings"],"bee_group":{"antennae":"B","wings":"1","pattern":"X","legs":"X"},"bonus":1.440000000000001},{"rt":1617.5999999940395,"stimulus":"bees-with-color/bee-B2SM.svg","response":0,"trial_type":"image-button-response","trial_index":129,"time_elapsed":1086216,"internal_node_id":"0.0-4.0-0.59","subject_id":"5b7b22a5b5727c0001de1369","study_id":"6197b3f67c2b5cd3b6d9596a","session_id":"619be326fd676aea0c78eeb1","condition":"full-information","relevant_dimensions":["antennae","wings"],"bee_group":{"antennae":"B","wings":"1","pattern":"X","legs":"X"},"action":"harvest","summary":"good-harvest","bonus":1.440000000000001},{"rt":1225.5,"stimulus":"\n                    <p><b>Action: <em>harvest</em></b></p>\n                    <p>This is the bee that you just saw.</p>\n                    <img src=\"bees-with-color/bee-B2SM.svg\" width=\"200\">\n                    <p><span class=\"greenText\"><b>Successful harvest!</b></span><br>Your pay has increased by $0.02. Your bonus pay is now $0.92.</p>\n            ","response":0,"trial_type":"html-button-response","trial_index":130,"time_elapsed":1087443,"internal_node_id":"0.0-4.0-1.59","subject_id":"5b7b22a5b5727c0001de1369","study_id":"6197b3f67c2b5cd3b6d9596a","session_id":"619be326fd676aea0c78eeb1","condition":"full-information","relevant_dimensions":["antennae","wings"],"bee_group":{"antennae":"B","wings":"1","pattern":"X","legs":"X"},"bonus":1.440000000000001},{"rt":2076.899999976158,"stimulus":"bees-with-color/bee-B1DF.svg","response":1,"trial_type":"image-button-response","trial_index":131,"time_elapsed":1089521,"internal_node_id":"0.0-4.0-0.60","subject_id":"5b7b22a5b5727c0001de1369","study_id":"6197b3f67c2b5cd3b6d9596a","session_id":"619be326fd676aea0c78eeb1","condition":"full-information","relevant_dimensions":["antennae","wings"],"bee_group":{"antennae":"B","wings":"1","pattern":"X","legs":"X"},"action":"avoid","summary":"good-avoid","bonus":1.440000000000001},{"rt":1070.4000000059605,"stimulus":"\n                    <p><b>Action: <em>avoid</em></b></p>\n                    <p>This is the bee that you just saw.</p>\n                    <img src=\"bees-with-color/bee-B1DF.svg\" width=\"200\">\n                    <p><span class=\"greenText\">Good choice!</span>  This bee would have stung you.<br>Your bonus pay is unchanged, and remains at $0.92.</p>\n            ","response":0,"trial_type":"html-button-response","trial_index":132,"time_elapsed":1090593,"internal_node_id":"0.0-4.0-1.60","subject_id":"5b7b22a5b5727c0001de1369","study_id":"6197b3f67c2b5cd3b6d9596a","session_id":"619be326fd676aea0c78eeb1","condition":"full-information","relevant_dimensions":["antennae","wings"],"bee_group":{"antennae":"B","wings":"1","pattern":"X","legs":"X"},"bonus":1.440000000000001},{"rt":1469.5999999940395,"stimulus":"bees-with-color/bee-A2DM.svg","response":0,"trial_type":"image-button-response","trial_index":133,"time_elapsed":1092064,"internal_node_id":"0.0-4.0-0.61","subject_id":"5b7b22a5b5727c0001de1369","study_id":"6197b3f67c2b5cd3b6d9596a","session_id":"619be326fd676aea0c78eeb1","condition":"full-information","relevant_dimensions":["antennae","wings"],"bee_group":{"antennae":"B","wings":"1","pattern":"X","legs":"X"},"action":"harvest","summary":"good-harvest","bonus":1.440000000000001},{"rt":1218.300000011921,"stimulus":"\n                    <p><b>Action: <em>harvest</em></b></p>\n                    <p>This is the bee that you just saw.</p>\n                    <img src=\"bees-with-color/bee-A2DM.svg\" width=\"200\">\n                    <p><span class=\"greenText\"><b>Successful harvest!</b></span><br>Your pay has increased by $0.02. Your bonus pay is now $0.94.</p>\n            ","response":0,"trial_type":"html-button-response","trial_index":134,"time_elapsed":1093284,"internal_node_id":"0.0-4.0-1.61","subject_id":"5b7b22a5b5727c0001de1369","study_id":"6197b3f67c2b5cd3b6d9596a","session_id":"619be326fd676aea0c78eeb1","condition":"full-information","relevant_dimensions":["antennae","wings"],"bee_group":{"antennae":"B","wings":"1","pattern":"X","legs":"X"},"bonus":1.440000000000001},{"rt":1477.4000000059605,"stimulus":"bees-with-color/bee-A1SM.svg","response":0,"trial_type":"image-button-response","trial_index":135,"time_elapsed":1094763,"internal_node_id":"0.0-4.0-0.62","subject_id":"5b7b22a5b5727c0001de1369","study_id":"6197b3f67c2b5cd3b6d9596a","session_id":"619be326fd676aea0c78eeb1","condition":"full-information","relevant_dimensions":["antennae","wings"],"bee_group":{"antennae":"B","wings":"1","pattern":"X","legs":"X"},"action":"harvest","summary":"good-harvest","bonus":1.440000000000001},{"rt":1321.4000000059605,"stimulus":"\n                    <p><b>Action: <em>harvest</em></b></p>\n                    <p>This is the bee that you just saw.</p>\n                    <img src=\"bees-with-color/bee-A1SM.svg\" width=\"200\">\n                    <p><span class=\"greenText\"><b>Successful harvest!</b></span><br>Your pay has increased by $0.02. Your bonus pay is now $0.96.</p>\n            ","response":0,"trial_type":"html-button-response","trial_index":136,"time_elapsed":1096086,"internal_node_id":"0.0-4.0-1.62","subject_id":"5b7b22a5b5727c0001de1369","study_id":"6197b3f67c2b5cd3b6d9596a","session_id":"619be326fd676aea0c78eeb1","condition":"full-information","relevant_dimensions":["antennae","wings"],"bee_group":{"antennae":"B","wings":"1","pattern":"X","legs":"X"},"bonus":1.440000000000001},{"rt":1751.199999988079,"stimulus":"bees-with-color/bee-A2DF.svg","response":0,"trial_type":"image-button-response","trial_index":137,"time_elapsed":1097838,"internal_node_id":"0.0-4.0-0.63","subject_id":"5b7b22a5b5727c0001de1369","study_id":"6197b3f67c2b5cd3b6d9596a","session_id":"619be326fd676aea0c78eeb1","condition":"full-information","relevant_dimensions":["antennae","wings"],"bee_group":{"antennae":"B","wings":"1","pattern":"X","legs":"X"},"action":"harvest","summary":"good-harvest","bonus":1.440000000000001},{"rt":1285,"stimulus":"\n                    <p><b>Action: <em>harvest</em></b></p>\n                    <p>This is the bee that you just saw.</p>\n                    <img src=\"bees-with-color/bee-A2DF.svg\" width=\"200\">\n                    <p><span class=\"greenText\"><b>Successful harvest!</b></span><br>Your pay has increased by $0.02. Your bonus pay is now $0.98.</p>\n            ","response":0,"trial_type":"html-button-response","trial_index":138,"time_elapsed":1099124,"internal_node_id":"0.0-4.0-1.63","subject_id":"5b7b22a5b5727c0001de1369","study_id":"6197b3f67c2b5cd3b6d9596a","session_id":"619be326fd676aea0c78eeb1","condition":"full-information","relevant_dimensions":["antennae","wings"],"bee_group":{"antennae":"B","wings":"1","pattern":"X","legs":"X"},"bonus":1.440000000000001},{"rt":2362.800000011921,"stimulus":"You have completed the first part of this experiment.<br><br>You will now begin a shorter second part, in which you will receive no feedback.<br>The same rules regarding bonus pay apply.<br><br>Press any key to begin.","response":" ","trial_type":"html-keyboard-response","trial_index":139,"time_elapsed":1101489,"internal_node_id":"0.0-5.0","subject_id":"5b7b22a5b5727c0001de1369","study_id":"6197b3f67c2b5cd3b6d9596a","session_id":"619be326fd676aea0c78eeb1","condition":"full-information","relevant_dimensions":["antennae","wings"],"bee_group":{"antennae":"B","wings":"1","pattern":"X","legs":"X"},"bonus":1.440000000000001},{"rt":3052.699999988079,"stimulus":"bees-with-color/bee-B2DM.svg","response":0,"trial_type":"image-button-response","trial_index":140,"time_elapsed":1104552,"internal_node_id":"0.0-6.0-0.0","subject_id":"5b7b22a5b5727c0001de1369","study_id":"6197b3f67c2b5cd3b6d9596a","session_id":"619be326fd676aea0c78eeb1","condition":"full-information","relevant_dimensions":["antennae","wings"],"bee_group":{"antennae":"B","wings":"1","pattern":"X","legs":"X"},"bonus":1.440000000000001},{"rt":3612.5999999940395,"stimulus":"bees-with-color/bee-B1SM.svg","response":1,"trial_type":"image-button-response","trial_index":141,"time_elapsed":1108167,"internal_node_id":"0.0-6.0-0.1","subject_id":"5b7b22a5b5727c0001de1369","study_id":"6197b3f67c2b5cd3b6d9596a","session_id":"619be326fd676aea0c78eeb1","condition":"full-information","relevant_dimensions":["antennae","wings"],"bee_group":{"antennae":"B","wings":"1","pattern":"X","legs":"X"},"bonus":1.440000000000001},{"rt":2000.3999999761581,"stimulus":"bees-with-color/bee-B1DM.svg","response":1,"trial_type":"image-button-response","trial_index":142,"time_elapsed":1110170,"internal_node_id":"0.0-6.0-0.2","subject_id":"5b7b22a5b5727c0001de1369","study_id":"6197b3f67c2b5cd3b6d9596a","session_id":"619be326fd676aea0c78eeb1","condition":"full-information","relevant_dimensions":["antennae","wings"],"bee_group":{"antennae":"B","wings":"1","pattern":"X","legs":"X"},"bonus":1.440000000000001},{"rt":1092,"stimulus":"bees-with-color/bee-A2DF.svg","response":0,"trial_type":"image-button-response","trial_index":143,"time_elapsed":1111264,"internal_node_id":"0.0-6.0-0.3","subject_id":"5b7b22a5b5727c0001de1369","study_id":"6197b3f67c2b5cd3b6d9596a","session_id":"619be326fd676aea0c78eeb1","condition":"full-information","relevant_dimensions":["antennae","wings"],"bee_group":{"antennae":"B","wings":"1","pattern":"X","legs":"X"},"bonus":1.440000000000001},{"rt":973.2999999821186,"stimulus":"bees-with-color/bee-A1DF.svg","response":0,"trial_type":"image-button-response","trial_index":144,"time_elapsed":1112240,"internal_node_id":"0.0-6.0-0.4","subject_id":"5b7b22a5b5727c0001de1369","study_id":"6197b3f67c2b5cd3b6d9596a","session_id":"619be326fd676aea0c78eeb1","condition":"full-information","relevant_dimensions":["antennae","wings"],"bee_group":{"antennae":"B","wings":"1","pattern":"X","legs":"X"},"bonus":1.440000000000001},{"rt":1616.5999999940395,"stimulus":"bees-with-color/bee-B2DF.svg","response":0,"trial_type":"image-button-response","trial_index":145,"time_elapsed":1113859,"internal_node_id":"0.0-6.0-0.5","subject_id":"5b7b22a5b5727c0001de1369","study_id":"6197b3f67c2b5cd3b6d9596a","session_id":"619be326fd676aea0c78eeb1","condition":"full-information","relevant_dimensions":["antennae","wings"],"bee_group":{"antennae":"B","wings":"1","pattern":"X","legs":"X"},"bonus":1.440000000000001},{"rt":1469.5,"stimulus":"bees-with-color/bee-A1SF.svg","response":0,"trial_type":"image-button-response","trial_index":146,"time_elapsed":1115331,"internal_node_id":"0.0-6.0-0.6","subject_id":"5b7b22a5b5727c0001de1369","study_id":"6197b3f67c2b5cd3b6d9596a","session_id":"619be326fd676aea0c78eeb1","condition":"full-information","relevant_dimensions":["antennae","wings"],"bee_group":{"antennae":"B","wings":"1","pattern":"X","legs":"X"},"bonus":1.440000000000001},{"rt":1209.7999999821186,"stimulus":"bees-with-color/bee-B2SF.svg","response":0,"trial_type":"image-button-response","trial_index":147,"time_elapsed":1116542,"internal_node_id":"0.0-6.0-0.7","subject_id":"5b7b22a5b5727c0001de1369","study_id":"6197b3f67c2b5cd3b6d9596a","session_id":"619be326fd676aea0c78eeb1","condition":"full-information","relevant_dimensions":["antennae","wings"],"bee_group":{"antennae":"B","wings":"1","pattern":"X","legs":"X"},"bonus":1.440000000000001},{"rt":2401,"stimulus":"bees-with-color/bee-B1DF.svg","response":1,"trial_type":"image-button-response","trial_index":148,"time_elapsed":1118945,"internal_node_id":"0.0-6.0-0.8","subject_id":"5b7b22a5b5727c0001de1369","study_id":"6197b3f67c2b5cd3b6d9596a","session_id":"619be326fd676aea0c78eeb1","condition":"full-information","relevant_dimensions":["antennae","wings"],"bee_group":{"antennae":"B","wings":"1","pattern":"X","legs":"X"},"bonus":1.440000000000001},{"rt":1432.0999999940395,"stimulus":"bees-with-color/bee-B1SF.svg","response":1,"trial_type":"image-button-response","trial_index":149,"time_elapsed":1120379,"internal_node_id":"0.0-6.0-0.9","subject_id":"5b7b22a5b5727c0001de1369","study_id":"6197b3f67c2b5cd3b6d9596a","session_id":"619be326fd676aea0c78eeb1","condition":"full-information","relevant_dimensions":["antennae","wings"],"bee_group":{"antennae":"B","wings":"1","pattern":"X","legs":"X"},"bonus":1.440000000000001},{"rt":1129.4000000059605,"stimulus":"bees-with-color/bee-A2DM.svg","response":0,"trial_type":"image-button-response","trial_index":150,"time_elapsed":1121510,"internal_node_id":"0.0-6.0-0.10","subject_id":"5b7b22a5b5727c0001de1369","study_id":"6197b3f67c2b5cd3b6d9596a","session_id":"619be326fd676aea0c78eeb1","condition":"full-information","relevant_dimensions":["antennae","wings"],"bee_group":{"antennae":"B","wings":"1","pattern":"X","legs":"X"},"bonus":1.440000000000001},{"rt":1461.5,"stimulus":"bees-with-color/bee-A1SM.svg","response":0,"trial_type":"image-button-response","trial_index":151,"time_elapsed":1122974,"internal_node_id":"0.0-6.0-0.11","subject_id":"5b7b22a5b5727c0001de1369","study_id":"6197b3f67c2b5cd3b6d9596a","session_id":"619be326fd676aea0c78eeb1","condition":"full-information","relevant_dimensions":["antennae","wings"],"bee_group":{"antennae":"B","wings":"1","pattern":"X","legs":"X"},"bonus":1.440000000000001},{"rt":1055.2999999821186,"stimulus":"bees-with-color/bee-B2SM.svg","response":0,"trial_type":"image-button-response","trial_index":152,"time_elapsed":1124031,"internal_node_id":"0.0-6.0-0.12","subject_id":"5b7b22a5b5727c0001de1369","study_id":"6197b3f67c2b5cd3b6d9596a","session_id":"619be326fd676aea0c78eeb1","condition":"full-information","relevant_dimensions":["antennae","wings"],"bee_group":{"antennae":"B","wings":"1","pattern":"X","legs":"X"},"bonus":1.440000000000001},{"rt":1203,"stimulus":"bees-with-color/bee-A2SM.svg","response":0,"trial_type":"image-button-response","trial_index":153,"time_elapsed":1125236,"internal_node_id":"0.0-6.0-0.13","subject_id":"5b7b22a5b5727c0001de1369","study_id":"6197b3f67c2b5cd3b6d9596a","session_id":"619be326fd676aea0c78eeb1","condition":"full-information","relevant_dimensions":["antennae","wings"],"bee_group":{"antennae":"B","wings":"1","pattern":"X","legs":"X"},"bonus":1.440000000000001},{"rt":1498.800000011921,"stimulus":"bees-with-color/bee-A2SF.svg","response":0,"trial_type":"image-button-response","trial_index":154,"time_elapsed":1126736,"internal_node_id":"0.0-6.0-0.14","subject_id":"5b7b22a5b5727c0001de1369","study_id":"6197b3f67c2b5cd3b6d9596a","session_id":"619be326fd676aea0c78eeb1","condition":"full-information","relevant_dimensions":["antennae","wings"],"bee_group":{"antennae":"B","wings":"1","pattern":"X","legs":"X"},"bonus":1.440000000000001},{"rt":1469.300000011921,"stimulus":"bees-with-color/bee-A1DM.svg","response":0,"trial_type":"image-button-response","trial_index":155,"time_elapsed":112