[{"success":true,"trial_type":"fullscreen","trial_index":0,"time_elapsed":4547,"internal_node_id":"0.0-0.0","subject_id":"60fd5adad03767cff6dddda8","study_id":"60edd13110225f80f9f3709b","session_id":"6196c49e38985e008ceee24e","condition":"full-information","relevant_dimensions":["wings","legs"],"bee_group":{"antennae":"X","wings":"2","pattern":"X","legs":"M"},"bonus":0.9400000000000011},{"success":true,"timeout":false,"failed_images":[],"failed_audio":[],"failed_video":[],"trial_type":"preload","trial_index":1,"time_elapsed":6140,"internal_node_id":"0.0-1.0","subject_id":"60fd5adad03767cff6dddda8","study_id":"60edd13110225f80f9f3709b","session_id":"6196c49e38985e008ceee24e","condition":"full-information","relevant_dimensions":["wings","legs"],"bee_group":{"antennae":"X","wings":"2","pattern":"X","legs":"M"},"bonus":0.9400000000000011},{"rt":1594.6999999284744,"stimulus":"Welcome! Press any key to begin.","response":"control","trial_type":"html-keyboard-response","trial_index":2,"time_elapsed":7735,"internal_node_id":"0.0-2.0","subject_id":"60fd5adad03767cff6dddda8","study_id":"60edd13110225f80f9f3709b","session_id":"6196c49e38985e008ceee24e","condition":"full-information","relevant_dimensions":["wings","legs"],"bee_group":{"antennae":"X","wings":"2","pattern":"X","legs":"M"},"bonus":0.9400000000000011},{"view_history":[{"page_index":0,"viewing_time":6834},{"page_index":1,"viewing_time":14006},{"page_index":2,"viewing_time":10098},{"page_index":3,"viewing_time":11988},{"page_index":4,"viewing_time":6760},{"page_index":5,"viewing_time":11866},{"page_index":6,"viewing_time":11878},{"page_index":7,"viewing_time":5292},{"page_index":8,"viewing_time":4530},{"page_index":9,"viewing_time":2658.100000023842},{"page_index":10,"viewing_time":2278.0999999046326},{"page_index":11,"viewing_time":7081.800000071526},{"page_index":12,"viewing_time":10722},{"page_index":13,"viewing_time":1260},{"page_index":14,"viewing_time":3094}],"rt":110346.39999997616,"trial_type":"instructions","trial_index":3,"time_elapsed":118082,"internal_node_id":"0.0-3.0-0.0","subject_id":"60fd5adad03767cff6dddda8","study_id":"60edd13110225f80f9f3709b","session_id":"6196c49e38985e008ceee24e","condition":"full-information","relevant_dimensions":["wings","legs"],"bee_group":{"antennae":"X","wings":"2","pattern":"X","legs":"M"},"bonus":0.9400000000000011},{"rt":28196,"response":{"Q0":["Two or six legs","Stripes or spots on body","Single or double wings","Antennae or no antennae"]},"question_order":[0],"trial_type":"survey-multi-select","trial_index":4,"time_elapsed":146281,"internal_node_id":"0.0-3.0-1.0","subject_id":"60fd5adad03767cff6dddda8","study_id":"60edd13110225f80f9f3709b","session_id":"6196c49e38985e008ceee24e","condition":"full-information","relevant_dimensions":["wings","legs"],"bee_group":{"antennae":"X","wings":"2","pattern":"X","legs":"M"},"correct":true,"bonus":0.9400000000000011},{"rt":25373.899999976158,"response":{"Q1":"No.","Q2":"Based on the four features of the bee.","Q3":"You learn if it was friendly or dangerous, but do not alter your bonus."},"question_order":[0,1,2],"trial_type":"survey-multi-choice","trial_index":5,"time_elapsed":171657,"internal_node_id":"0.0-3.0-2.0","subject_id":"60fd5adad03767cff6dddda8","study_id":"60edd13110225f80f9f3709b","session_id":"6196c49e38985e008ceee24e","condition":"full-information","relevant_dimensions":["wings","legs"],"bee_group":{"antennae":"X","wings":"2","pattern":"X","legs":"M"},"correct":true,"bonus":0.9400000000000011},{"rt":3704.899999976158,"stimulus":"<p>Congrats, you got everything right<br>When you're ready, click the button below to continue to the experiment.</p>","response":0,"trial_type":"html-button-response","trial_index":6,"time_elapsed":175362,"internal_node_id":"0.0-3.0-3.0","subject_id":"60fd5adad03767cff6dddda8","study_id":"60edd13110225f80f9f3709b","session_id":"6196c49e38985e008ceee24e","condition":"full-information","relevant_dimensions":["wings","legs"],"bee_group":{"antennae":"X","wings":"2","pattern":"X","legs":"M"},"bonus":0.9400000000000011},{"rt":3322,"stimulus":"bees-with-color/bee-A2SF.svg","response":0,"trial_type":"image-button-response","trial_index":7,"time_elapsed":178687,"internal_node_id":"0.0-4.0-0.0","subject_id":"60fd5adad03767cff6dddda8","study_id":"60edd13110225f80f9f3709b","session_id":"6196c49e38985e008ceee24e","condition":"full-information","relevant_dimensions":["wings","legs"],"bee_group":{"antennae":"X","wings":"2","pattern":"X","legs":"M"},"action":"harvest","summary":"good-harvest","bonus":0.9400000000000011},{"rt":7720.200000047684,"stimulus":"\n                    <p><b>Action: <em>harvest</em></b></p>\n                    <p>This is the bee that you just saw.</p>\n                    <img src=\"bees-with-color/bee-A2SF.svg\" width=\"200\">\n                    <p><span class=\"greenText\"><b>Successful harvest!</b></span><br>Your pay has increased by $0.02. Your bonus pay is now $0.56.</p>\n            ","response":0,"trial_type":"html-button-response","trial_index":8,"time_elapsed":186409,"internal_node_id":"0.0-4.0-1.0","subject_id":"60fd5adad03767cff6dddda8","study_id":"60edd13110225f80f9f3709b","session_id":"6196c49e38985e008ceee24e","condition":"full-information","relevant_dimensions":["wings","legs"],"bee_group":{"antennae":"X","wings":"2","pattern":"X","legs":"M"},"bonus":0.9400000000000011},{"rt":1966.5999999046326,"stimulus":"bees-with-color/bee-B2SF.svg","response":0,"trial_type":"image-button-response","trial_index":9,"time_elapsed":188377,"internal_node_id":"0.0-4.0-0.1","subject_id":"60fd5adad03767cff6dddda8","study_id":"60edd13110225f80f9f3709b","session_id":"6196c49e38985e008ceee24e","condition":"full-information","relevant_dimensions":["wings","legs"],"bee_group":{"antennae":"X","wings":"2","pattern":"X","legs":"M"},"action":"harvest","summary":"good-harvest","bonus":0.9400000000000011},{"rt":3074.5,"stimulus":"\n                    <p><b>Action: <em>harvest</em></b></p>\n                    <p>This is the bee that you just saw.</p>\n                    <img src=\"bees-with-color/bee-B2SF.svg\" width=\"200\">\n                    <p><span class=\"greenText\"><b>Successful harvest!</b></span><br>Your pay has increased by $0.02. Your bonus pay is now $0.58.</p>\n            ","response":0,"trial_type":"html-button-response","trial_index":10,"time_elapsed":191453,"internal_node_id":"0.0-4.0-1.1","subject_id":"60fd5adad03767cff6dddda8","study_id":"60edd13110225f80f9f3709b","session_id":"6196c49e38985e008ceee24e","condition":"full-information","relevant_dimensions":["wings","legs"],"bee_group":{"antennae":"X","wings":"2","pattern":"X","legs":"M"},"bonus":0.9400000000000011},{"rt":2510,"stimulus":"bees-with-color/bee-A1SF.svg","response":0,"trial_type":"image-button-response","trial_index":11,"time_elapsed":193964,"internal_node_id":"0.0-4.0-0.2","subject_id":"60fd5adad03767cff6dddda8","study_id":"60edd13110225f80f9f3709b","session_id":"6196c49e38985e008ceee24e","condition":"full-information","relevant_dimensions":["wings","legs"],"bee_group":{"antennae":"X","wings":"2","pattern":"X","legs":"M"},"action":"harvest","summary":"good-harvest","bonus":0.9400000000000011},{"rt":3055.5,"stimulus":"\n                    <p><b>Action: <em>harvest</em></b></p>\n                    <p>This is the bee that you just saw.</p>\n                    <img src=\"bees-with-color/bee-A1SF.svg\" width=\"200\">\n                    <p><span class=\"greenText\"><b>Successful harvest!</b></span><br>Your pay has increased by $0.02. Your bonus pay is now $0.60.</p>\n            ","response":0,"trial_type":"html-button-response","trial_index":12,"time_elapsed":197021,"internal_node_id":"0.0-4.0-1.2","subject_id":"60fd5adad03767cff6dddda8","study_id":"60edd13110225f80f9f3709b","session_id":"6196c49e38985e008ceee24e","condition":"full-information","relevant_dimensions":["wings","legs"],"bee_group":{"antennae":"X","wings":"2","pattern":"X","legs":"M"},"bonus":0.9400000000000011},{"rt":2476.7000000476837,"stimulus":"bees-with-color/bee-B2SM.svg","response":1,"trial_type":"image-button-response","trial_index":13,"time_elapsed":199499,"internal_node_id":"0.0-4.0-0.3","subject_id":"60fd5adad03767cff6dddda8","study_id":"60edd13110225f80f9f3709b","session_id":"6196c49e38985e008ceee24e","condition":"full-information","relevant_dimensions":["wings","legs"],"bee_group":{"antennae":"X","wings":"2","pattern":"X","legs":"M"},"action":"avoid","summary":"good-avoid","bonus":0.9400000000000011},{"rt":3685,"stimulus":"\n                    <p><b>Action: <em>avoid</em></b></p>\n                    <p>This is the bee that you just saw.</p>\n                    <img src=\"bees-with-color/bee-B2SM.svg\" width=\"200\">\n                    <p><span class=\"greenText\">Good choice!</span>  This bee would have stung you.<br>Your bonus pay is unchanged, and remains at $0.60.</p>\n            ","response":0,"trial_type":"html-button-response","trial_index":14,"time_elapsed":203185,"internal_node_id":"0.0-4.0-1.3","subject_id":"60fd5adad03767cff6dddda8","study_id":"60edd13110225f80f9f3709b","session_id":"6196c49e38985e008ceee24e","condition":"full-information","relevant_dimensions":["wings","legs"],"bee_group":{"antennae":"X","wings":"2","pattern":"X","legs":"M"},"bonus":0.9400000000000011},{"rt":1632.7000000476837,"stimulus":"bees-with-color/bee-B2DM.svg","response":0,"trial_type":"image-button-response","trial_index":15,"time_elapsed":204819,"internal_node_id":"0.0-4.0-0.4","subject_id":"60fd5adad03767cff6dddda8","study_id":"60edd13110225f80f9f3709b","session_id":"6196c49e38985e008ceee24e","condition":"full-information","relevant_dimensions":["wings","legs"],"bee_group":{"antennae":"X","wings":"2","pattern":"X","legs":"M"},"action":"harvest","summary":"bad-harvest","bonus":0.9400000000000011},{"rt":2168.899999976158,"stimulus":"\n                    <p><b>Action: <em>harvest</em></b></p>\n                    <p>This is the bee that you just saw.</p>\n                    <img src=\"bees-with-color/bee-B2DM.svg\" width=\"200\">\n                    <p><span class=\"redText\">Bad choice, the bee was angry.</span><br><b>You have been stung!</b><br>Your pay has been decreased by $0.10. Your bonus pay is now $0.50.</p>\n            ","response":0,"trial_type":"html-button-response","trial_index":16,"time_elapsed":206989,"internal_node_id":"0.0-4.0-1.4","subject_id":"60fd5adad03767cff6dddda8","study_id":"60edd13110225f80f9f3709b","session_id":"6196c49e38985e008ceee24e","condition":"full-information","relevant_dimensions":["wings","legs"],"bee_group":{"antennae":"X","wings":"2","pattern":"X","legs":"M"},"bonus":0.9400000000000011},{"rt":1328.8000000715256,"stimulus":"bees-with-color/bee-B1SF.svg","response":0,"trial_type":"image-button-response","trial_index":17,"time_elapsed":208319,"internal_node_id":"0.0-4.0-0.5","subject_id":"60fd5adad03767cff6dddda8","study_id":"60edd13110225f80f9f3709b","session_id":"6196c49e38985e008ceee24e","condition":"full-information","relevant_dimensions":["wings","legs"],"bee_group":{"antennae":"X","wings":"2","pattern":"X","legs":"M"},"action":"harvest","summary":"good-harvest","bonus":0.9400000000000011},{"rt":1038.8999999761581,"stimulus":"\n                    <p><b>Action: <em>harvest</em></b></p>\n                    <p>This is the bee that you just saw.</p>\n                    <img src=\"bees-with-color/bee-B1SF.svg\" width=\"200\">\n                    <p><span class=\"greenText\"><b>Successful harvest!</b></span><br>Your pay has increased by $0.02. Your bonus pay is now $0.52.</p>\n            ","response":0,"trial_type":"html-button-response","trial_index":18,"time_elapsed":209358,"internal_node_id":"0.0-4.0-1.5","subject_id":"60fd5adad03767cff6dddda8","study_id":"60edd13110225f80f9f3709b","session_id":"6196c49e38985e008ceee24e","condition":"full-information","relevant_dimensions":["wings","legs"],"bee_group":{"antennae":"X","wings":"2","pattern":"X","legs":"M"},"bonus":0.9400000000000011},{"rt":1225,"stimulus":"bees-with-color/bee-B2DF.svg","response":0,"trial_type":"image-button-response","trial_index":19,"time_elapsed":210585,"internal_node_id":"0.0-4.0-0.6","subject_id":"60fd5adad03767cff6dddda8","study_id":"60edd13110225f80f9f3709b","session_id":"6196c49e38985e008ceee24e","condition":"full-information","relevant_dimensions":["wings","legs"],"bee_group":{"antennae":"X","wings":"2","pattern":"X","legs":"M"},"action":"harvest","summary":"good-harvest","bonus":0.9400000000000011},{"rt":878.8999999761581,"stimulus":"\n                    <p><b>Action: <em>harvest</em></b></p>\n                    <p>This is the bee that you just saw.</p>\n                    <img src=\"bees-with-color/bee-B2DF.svg\" width=\"200\">\n                    <p><span class=\"greenText\"><b>Successful harvest!</b></span><br>Your pay has increased by $0.02. Your bonus pay is now $0.54.</p>\n            ","response":0,"trial_type":"html-button-response","trial_index":20,"time_elapsed":211464,"internal_node_id":"0.0-4.0-1.6","subject_id":"60fd5adad03767cff6dddda8","study_id":"60edd13110225f80f9f3709b","session_id":"6196c49e38985e008ceee24e","condition":"full-information","relevant_dimensions":["wings","legs"],"bee_group":{"antennae":"X","wings":"2","pattern":"X","legs":"M"},"bonus":0.9400000000000011},{"rt":1423.3000000715256,"stimulus":"bees-with-color/bee-A1SM.svg","response":1,"trial_type":"image-button-response","trial_index":21,"time_elapsed":212889,"internal_node_id":"0.0-4.0-0.7","subject_id":"60fd5adad03767cff6dddda8","study_id":"60edd13110225f80f9f3709b","session_id":"6196c49e38985e008ceee24e","condition":"full-information","relevant_dimensions":["wings","legs"],"bee_group":{"antennae":"X","wings":"2","pattern":"X","legs":"M"},"action":"avoid","summary":"bad-avoid","bonus":0.9400000000000011},{"rt":5066.299999952316,"stimulus":"\n                    <p><b>Action: <em>avoid</em></b></p>\n                    <p>This is the bee that you just saw.</p>\n                    <img src=\"bees-with-color/bee-A1SM.svg\" width=\"200\">\n                    <p><span class=\"redText\">Bad choice,</span> the bee was friendly.<br>Your bonus pay is unchanged, and remains at $0.54.</p>\n            ","response":0,"trial_type":"html-button-response","trial_index":22,"time_elapsed":217956,"internal_node_id":"0.0-4.0-1.7","subject_id":"60fd5adad03767cff6dddda8","study_id":"60edd13110225f80f9f3709b","session_id":"6196c49e38985e008ceee24e","condition":"full-information","relevant_dimensions":["wings","legs"],"bee_group":{"antennae":"X","wings":"2","pattern":"X","legs":"M"},"bonus":0.9400000000000011},{"rt":1114.8000000715256,"stimulus":"bees-with-color/bee-A2DM.svg","response":1,"trial_type":"image-button-response","trial_index":23,"time_elapsed":219072,"internal_node_id":"0.0-4.0-0.8","subject_id":"60fd5adad03767cff6dddda8","study_id":"60edd13110225f80f9f3709b","session_id":"6196c49e38985e008ceee24e","condition":"full-information","relevant_dimensions":["wings","legs"],"bee_group":{"antennae":"X","wings":"2","pattern":"X","legs":"M"},"action":"avoid","summary":"good-avoid","bonus":0.9400000000000011},{"rt":2131,"stimulus":"\n                    <p><b>Action: <em>avoid</em></b></p>\n                    <p>This is the bee that you just saw.</p>\n                    <img src=\"bees-with-color/bee-A2DM.svg\" width=\"200\">\n                    <p><span class=\"greenText\">Good choice!</span>  This bee would have stung you.<br>Your bonus pay is unchanged, and remains at $0.54.</p>\n            ","response":0,"trial_type":"html-button-response","trial_index":24,"time_elapsed":221205,"internal_node_id":"0.0-4.0-1.8","subject_id":"60fd5adad03767cff6dddda8","study_id":"60edd13110225f80f9f3709b","session_id":"6196c49e38985e008ceee24e","condition":"full-information","relevant_dimensions":["wings","legs"],"bee_group":{"antennae":"X","wings":"2","pattern":"X","legs":"M"},"bonus":0.9400000000000011},{"rt":2642.7000000476837,"stimulus":"bees-with-color/bee-B1SM.svg","response":0,"trial_type":"image-button-response","trial_index":25,"time_elapsed":223849,"internal_node_id":"0.0-4.0-0.9","subject_id":"60fd5adad03767cff6dddda8","study_id":"60edd13110225f80f9f3709b","session_id":"6196c49e38985e008ceee24e","condition":"full-information","relevant_dimensions":["wings","legs"],"bee_group":{"antennae":"X","wings":"2","pattern":"X","legs":"M"},"action":"harvest","summary":"good-harvest","bonus":0.9400000000000011},{"rt":1258.8999999761581,"stimulus":"\n                    <p><b>Action: <em>harvest</em></b></p>\n                    <p>This is the bee that you just saw.</p>\n                    <img src=\"bees-with-color/bee-B1SM.svg\" width=\"200\">\n                    <p><span class=\"greenText\"><b>Successful harvest!</b></span><br>Your pay has increased by $0.02. Your bonus pay is now $0.56.</p>\n            ","response":0,"trial_type":"html-button-response","trial_index":26,"time_elapsed":225109,"internal_node_id":"0.0-4.0-1.9","subject_id":"60fd5adad03767cff6dddda8","study_id":"60edd13110225f80f9f3709b","session_id":"6196c49e38985e008ceee24e","condition":"full-information","relevant_dimensions":["wings","legs"],"bee_group":{"antennae":"X","wings":"2","pattern":"X","legs":"M"},"bonus":0.9400000000000011},{"rt":1350.7000000476837,"stimulus":"bees-with-color/bee-A1DM.svg","response":1,"trial_type":"image-button-response","trial_index":27,"time_elapsed":226461,"internal_node_id":"0.0-4.0-0.10","subject_id":"60fd5adad03767cff6dddda8","study_id":"60edd13110225f80f9f3709b","session_id":"6196c49e38985e008ceee24e","condition":"full-information","relevant_dimensions":["wings","legs"],"bee_group":{"antennae":"X","wings":"2","pattern":"X","legs":"M"},"action":"avoid","summary":"bad-avoid","bonus":0.9400000000000011},{"rt":2036.9000000953674,"stimulus":"\n                    <p><b>Action: <em>avoid</em></b></p>\n                    <p>This is the bee that you just saw.</p>\n                    <img src=\"bees-with-color/bee-A1DM.svg\" width=\"200\">\n                    <p><span class=\"redText\">Bad choice,</span> the bee was friendly.<br>Your bonus pay is unchanged, and remains at $0.56.</p>\n            ","response":0,"trial_type":"html-button-response","trial_index":28,"time_elapsed":228499,"internal_node_id":"0.0-4.0-1.10","subject_id":"60fd5adad03767cff6dddda8","study_id":"60edd13110225f80f9f3709b","session_id":"6196c49e38985e008ceee24e","condition":"full-information","relevant_dimensions":["wings","legs"],"bee_group":{"antennae":"X","wings":"2","pattern":"X","legs":"M"},"bonus":0.9400000000000011},{"rt":950.6000000238419,"stimulus":"bees-with-color/bee-A2SM.svg","response":1,"trial_type":"image-button-response","trial_index":29,"time_elapsed":229450,"internal_node_id":"0.0-4.0-0.11","subject_id":"60fd5adad03767cff6dddda8","study_id":"60edd13110225f80f9f3709b","session_id":"6196c49e38985e008ceee24e","condition":"full-information","relevant_dimensions":["wings","legs"],"bee_group":{"antennae":"X","wings":"2","pattern":"X","legs":"M"},"action":"avoid","summary":"good-avoid","bonus":0.9400000000000011},{"rt":1393.1000000238419,"stimulus":"\n                    <p><b>Action: <em>avoid</em></b></p>\n                    <p>This is the bee that you just saw.</p>\n                    <img src=\"bees-with-color/bee-A2SM.svg\" width=\"200\">\n                    <p><span class=\"greenText\">Good choice!</span>  This bee would have stung you.<br>Your bonus pay is unchanged, and remains at $0.56.</p>\n            ","response":0,"trial_type":"html-button-response","trial_index":30,"time_elapsed":230845,"internal_node_id":"0.0-4.0-1.11","subject_id":"60fd5adad03767cff6dddda8","study_id":"60edd13110225f80f9f3709b","session_id":"6196c49e38985e008ceee24e","condition":"full-information","relevant_dimensions":["wings","legs"],"bee_group":{"antennae":"X","wings":"2","pattern":"X","legs":"M"},"bonus":0.9400000000000011},{"rt":1056.8999999761581,"stimulus":"bees-with-color/bee-A2DF.svg","response":1,"trial_type":"image-button-response","trial_index":31,"time_elapsed":231902,"internal_node_id":"0.0-4.0-0.12","subject_id":"60fd5adad03767cff6dddda8","study_id":"60edd13110225f80f9f3709b","session_id":"6196c49e38985e008ceee24e","condition":"full-information","relevant_dimensions":["wings","legs"],"bee_group":{"antennae":"X","wings":"2","pattern":"X","legs":"M"},"action":"avoid","summary":"bad-avoid","bonus":0.9400000000000011},{"rt":4275.200000047684,"stimulus":"\n                    <p><b>Action: <em>avoid</em></b></p>\n                    <p>This is the bee that you just saw.</p>\n                    <img src=\"bees-with-color/bee-A2DF.svg\" width=\"200\">\n                    <p><span class=\"redText\">Bad choice,</span> the bee was friendly.<br>Your bonus pay is unchanged, and remains at $0.56.</p>\n            ","response":0,"trial_type":"html-button-response","trial_index":32,"time_elapsed":236179,"internal_node_id":"0.0-4.0-1.12","subject_id":"60fd5adad03767cff6dddda8","study_id":"60edd13110225f80f9f3709b","session_id":"6196c49e38985e008ceee24e","condition":"full-information","relevant_dimensions":["wings","legs"],"bee_group":{"antennae":"X","wings":"2","pattern":"X","legs":"M"},"bonus":0.9400000000000011},{"rt":2526.7000000476837,"stimulus":"bees-with-color/bee-B1DF.svg","response":0,"trial_type":"image-button-response","trial_index":33,"time_elapsed":238707,"internal_node_id":"0.0-4.0-0.13","subject_id":"60fd5adad03767cff6dddda8","study_id":"60edd13110225f80f9f3709b","session_id":"6196c49e38985e008ceee24e","condition":"full-information","relevant_dimensions":["wings","legs"],"bee_group":{"antennae":"X","wings":"2","pattern":"X","legs":"M"},"action":"harvest","summary":"good-harvest","bonus":0.9400000000000011},{"rt":1566.8000000715256,"stimulus":"\n                    <p><b>Action: <em>harvest</em></b></p>\n                    <p>This is the bee that you just saw.</p>\n                    <img src=\"bees-with-color/bee-B1DF.svg\" width=\"200\">\n                    <p><span class=\"greenText\"><b>Successful harvest!</b></span><br>Your pay has increased by $0.02. Your bonus pay is now $0.58.</p>\n            ","response":0,"trial_type":"html-button-response","trial_index":34,"time_elapsed":240275,"internal_node_id":"0.0-4.0-1.13","subject_id":"60fd5adad03767cff6dddda8","study_id":"60edd13110225f80f9f3709b","session_id":"6196c49e38985e008ceee24e","condition":"full-information","relevant_dimensions":["wings","legs"],"bee_group":{"antennae":"X","wings":"2","pattern":"X","legs":"M"},"bonus":0.9400000000000011},{"rt":1644.5,"stimulus":"bees-with-color/bee-A1DF.svg","response":0,"trial_type":"image-button-response","trial_index":35,"time_elapsed":241920,"internal_node_id":"0.0-4.0-0.14","subject_id":"60fd5adad03767cff6dddda8","study_id":"60edd13110225f80f9f3709b","session_id":"6196c49e38985e008ceee24e","condition":"full-information","relevant_dimensions":["wings","legs"],"bee_group":{"antennae":"X","wings":"2","pattern":"X","legs":"M"},"action":"harvest","summary":"good-harvest","bonus":0.9400000000000011},{"rt":1073.1000000238419,"stimulus":"\n                    <p><b>Action: <em>harvest</em></b></p>\n                    <p>This is the bee that you just saw.</p>\n                    <img src=\"bees-with-color/bee-A1DF.svg\" width=\"200\">\n                    <p><span class=\"greenText\"><b>Successful harvest!</b></span><br>Your pay has increased by $0.02. Your bonus pay is now $0.60.</p>\n            ","response":0,"trial_type":"html-button-response","trial_index":36,"time_elapsed":242995,"internal_node_id":"0.0-4.0-1.14","subject_id":"60fd5adad03767cff6dddda8","study_id":"60edd13110225f80f9f3709b","session_id":"6196c49e38985e008ceee24e","condition":"full-information","relevant_dimensions":["wings","legs"],"bee_group":{"antennae":"X","wings":"2","pattern":"X","legs":"M"},"bonus":0.9400000000000011},{"rt":3320.7000000476837,"stimulus":"bees-with-color/bee-B1DM.svg","response":1,"trial_type":"image-button-response","trial_index":37,"time_elapsed":246316,"internal_node_id":"0.0-4.0-0.15","subject_id":"60fd5adad03767cff6dddda8","study_id":"60edd13110225f80f9f3709b","session_id":"6196c49e38985e008ceee24e","condition":"full-information","relevant_dimensions":["wings","legs"],"bee_group":{"antennae":"X","wings":"2","pattern":"X","legs":"M"},"action":"avoid","summary":"bad-avoid","bonus":0.9400000000000011},{"rt":1472.9000000953674,"stimulus":"\n                    <p><b>Action: <em>avoid</em></b></p>\n                    <p>This is the bee that you just saw.</p>\n                    <img src=\"bees-with-color/bee-B1DM.svg\" width=\"200\">\n                    <p><span class=\"redText\">Bad choice,</span> the bee was friendly.<br>Your bonus pay is unchanged, and remains at $0.60.</p>\n            ","response":0,"trial_type":"html-button-response","trial_index":38,"time_elapsed":247791,"internal_node_id":"0.0-4.0-1.15","subject_id":"60fd5adad03767cff6dddda8","study_id":"60edd13110225f80f9f3709b","session_id":"6196c49e38985e008ceee24e","condition":"full-information","relevant_dimensions":["wings","legs"],"bee_group":{"antennae":"X","wings":"2","pattern":"X","legs":"M"},"bonus":0.9400000000000011},{"rt":1678.7000000476837,"stimulus":"bees-with-color/bee-A1DF.svg","response":0,"trial_type":"image-button-response","trial_index":39,"time_elapsed":249471,"internal_node_id":"0.0-4.0-0.16","subject_id":"60fd5adad03767cff6dddda8","study_id":"60edd13110225f80f9f3709b","session_id":"6196c49e38985e008ceee24e","condition":"full-information","relevant_dimensions":["wings","legs"],"bee_group":{"antennae":"X","wings":"2","pattern":"X","legs":"M"},"action":"harvest","summary":"good-harvest","bonus":0.9400000000000011},{"rt":856.9000000953674,"stimulus":"\n                    <p><b>Action: <em>harvest</em></b></p>\n                    <p>This is the bee that you just saw.</p>\n                    <img src=\"bees-with-color/bee-A1DF.svg\" width=\"200\">\n                    <p><span class=\"greenText\"><b>Successful harvest!</b></span><br>Your pay has increased by $0.02. Your bonus pay is now $0.62.</p>\n            ","response":0,"trial_type":"html-button-response","trial_index":40,"time_elapsed":250329,"internal_node_id":"0.0-4.0-1.16","subject_id":"60fd5adad03767cff6dddda8","study_id":"60edd13110225f80f9f3709b","session_id":"6196c49e38985e008ceee24e","condition":"full-information","relevant_dimensions":["wings","legs"],"bee_group":{"antennae":"X","wings":"2","pattern":"X","legs":"M"},"bonus":0.9400000000000011},{"rt":920.6000000238419,"stimulus":"bees-with-color/bee-B1DF.svg","response":0,"trial_type":"image-button-response","trial_index":41,"time_elapsed":251250,"internal_node_id":"0.0-4.0-0.17","subject_id":"60fd5adad03767cff6dddda8","study_id":"60edd13110225f80f9f3709b","session_id":"6196c49e38985e008ceee24e","condition":"full-information","relevant_dimensions":["wings","legs"],"bee_group":{"antennae":"X","wings":"2","pattern":"X","legs":"M"},"action":"harvest","summary":"good-harvest","bonus":0.9400000000000011},{"rt":684.2999999523163,"stimulus":"\n                    <p><b>Action: <em>harvest</em></b></p>\n                    <p>This is the bee that you just saw.</p>\n                    <img src=\"bees-with-color/bee-B1DF.svg\" width=\"200\">\n                    <p><span class=\"greenText\"><b>Successful harvest!</b></span><br>Your pay has increased by $0.02. Your bonus pay is now $0.64.</p>\n            ","response":0,"trial_type":"html-button-response","trial_index":42,"time_elapsed":251936,"internal_node_id":"0.0-4.0-1.17","subject_id":"60fd5adad03767cff6dddda8","study_id":"60edd13110225f80f9f3709b","session_id":"6196c49e38985e008ceee24e","condition":"full-information","relevant_dimensions":["wings","legs"],"bee_group":{"antennae":"X","wings":"2","pattern":"X","legs":"M"},"bonus":0.9400000000000011},{"rt":897.7000000476837,"stimulus":"bees-with-color/bee-B1DM.svg","response":1,"trial_type":"image-button-response","trial_index":43,"time_elapsed":252835,"internal_node_id":"0.0-4.0-0.18","subject_id":"60fd5adad03767cff6dddda8","study_id":"60edd13110225f80f9f3709b","session_id":"6196c49e38985e008ceee24e","condition":"full-information","relevant_dimensions":["wings","legs"],"bee_group":{"antennae":"X","wings":"2","pattern":"X","legs":"M"},"action":"avoid","summary":"bad-avoid","bonus":0.9400000000000011},{"rt":972.8000000715256,"stimulus":"\n                    <p><b>Action: <em>avoid</em></b></p>\n                    <p>This is the bee that you just saw.</p>\n                    <img src=\"bees-with-color/bee-B1DM.svg\" width=\"200\">\n                    <p><span class=\"redText\">Bad choice,</span> the bee was friendly.<br>Your bonus pay is unchanged, and remains at $0.64.</p>\n            ","response":0,"trial_type":"html-button-response","trial_index":44,"time_elapsed":253809,"internal_node_id":"0.0-4.0-1.18","subject_id":"60fd5adad03767cff6dddda8","study_id":"60edd13110225f80f9f3709b","session_id":"6196c49e38985e008ceee24e","condition":"full-information","relevant_dimensions":["wings","legs"],"bee_group":{"antennae":"X","wings":"2","pattern":"X","legs":"M"},"bonus":0.9400000000000011},{"rt":1123,"stimulus":"bees-with-color/bee-A1SF.svg","response":0,"trial_type":"image-button-response","trial_index":45,"time_elapsed":254933,"internal_node_id":"0.0-4.0-0.19","subject_id":"60fd5adad03767cff6dddda8","study_id":"60edd13110225f80f9f3709b","session_id":"6196c49e38985e008ceee24e","condition":"full-information","relevant_dimensions":["wings","legs"],"bee_group":{"antennae":"X","wings":"2","pattern":"X","legs":"M"},"action":"harvest","summary":"good-harvest","bonus":0.9400000000000011},{"rt":724.8000000715256,"stimulus":"\n                    <p><b>Action: <em>harvest</em></b></p>\n                    <p>This is the bee that you just saw.</p>\n                    <img src=\"bees-with-color/bee-A1SF.svg\" width=\"200\">\n                    <p><span class=\"greenText\"><b>Successful harvest!</b></span><br>Your pay has increased by $0.02. Your bonus pay is now $0.66.</p>\n            ","response":0,"trial_type":"html-button-response","trial_index":46,"time_elapsed":255659,"internal_node_id":"0.0-4.0-1.19","subject_id":"60fd5adad03767cff6dddda8","study_id":"60edd13110225f80f9f3709b","session_id":"6196c49e38985e008ceee24e","condition":"full-information","relevant_dimensions":["wings","legs"],"bee_group":{"antennae":"X","wings":"2","pattern":"X","legs":"M"},"bonus":0.9400000000000011},{"rt":1132.8000000715256,"stimulus":"bees-with-color/bee-A1DM.svg","response":1,"trial_type":"image-button-response","trial_index":47,"time_elapsed":256793,"internal_node_id":"0.0-4.0-0.20","subject_id":"60fd5adad03767cff6dddda8","study_id":"60edd13110225f80f9f3709b","session_id":"6196c49e38985e008ceee24e","condition":"full-information","relevant_dimensions":["wings","legs"],"bee_group":{"antennae":"X","wings":"2","pattern":"X","legs":"M"},"action":"avoid","summary":"bad-avoid","bonus":0.9400000000000011},{"rt":1012.9000000953674,"stimulus":"\n                    <p><b>Action: <em>avoid</em></b></p>\n                    <p>This is the bee that you just saw.</p>\n                    <img src=\"bees-with-color/bee-A1DM.svg\" width=\"200\">\n                    <p><span class=\"redText\">Bad choice,</span> the bee was friendly.<br>Your bonus pay is unchanged, and remains at $0.66.</p>\n            ","response":0,"trial_type":"html-button-response","trial_index":48,"time_elapsed":257807,"internal_node_id":"0.0-4.0-1.20","subject_id":"60fd5adad03767cff6dddda8","study_id":"60edd13110225f80f9f3709b","session_id":"6196c49e38985e008ceee24e","condition":"full-information","relevant_dimensions":["wings","legs"],"bee_group":{"antennae":"X","wings":"2","pattern":"X","legs":"M"},"bonus":0.9400000000000011},{"rt":1306.3999999761581,"stimulus":"bees-with-color/bee-A1SM.svg","response":1,"trial_type":"image-button-response","trial_index":49,"time_elapsed":259114,"internal_node_id":"0.0-4.0-0.21","subject_id":"60fd5adad03767cff6dddda8","study_id":"60edd13110225f80f9f3709b","session_id":"6196c49e38985e008ceee24e","condition":"full-information","relevant_dimensions":["wings","legs"],"bee_group":{"antennae":"X","wings":"2","pattern":"X","legs":"M"},"action":"avoid","summary":"bad-avoid","bonus":0.9400000000000011},{"rt":905.7000000476837,"stimulus":"\n                    <p><b>Action: <em>avoid</em></b></p>\n                    <p>This is the bee that you just saw.</p>\n                    <img src=\"bees-with-color/bee-A1SM.svg\" width=\"200\">\n                    <p><span class=\"redText\">Bad choice,</span> the bee was friendly.<br>Your bonus pay is unchanged, and remains at $0.66.</p>\n            ","response":0,"trial_type":"html-button-response","trial_index":50,"time_elapsed":260021,"internal_node_id":"0.0-4.0-1.21","subject_id":"60fd5adad03767cff6dddda8","study_id":"60edd13110225f80f9f3709b","session_id":"6196c49e38985e008ceee24e","condition":"full-information","relevant_dimensions":["wings","legs"],"bee_group":{"antennae":"X","wings":"2","pattern":"X","legs":"M"},"bonus":0.9400000000000011},{"rt":1099.1000000238419,"stimulus":"bees-with-color/bee-A2DM.svg","response":1,"trial_type":"image-button-response","trial_index":51,"time_elapsed":261121,"internal_node_id":"0.0-4.0-0.22","subject_id":"60fd5adad03767cff6dddda8","study_id":"60edd13110225f80f9f3709b","session_id":"6196c49e38985e008ceee24e","condition":"full-information","relevant_dimensions":["wings","legs"],"bee_group":{"antennae":"X","wings":"2","pattern":"X","legs":"M"},"action":"avoid","summary":"good-avoid","bonus":0.9400000000000011},{"rt":1771,"stimulus":"\n                    <p><b>Action: <em>avoid</em></b></p>\n                    <p>This is the bee that you just saw.</p>\n                    <img src=\"bees-with-color/bee-A2DM.svg\" width=\"200\">\n                    <p><span class=\"greenText\">Good choice!</span>  This bee would have stung you.<br>Your bonus pay is unchanged, and remains at $0.66.</p>\n            ","response":0,"trial_type":"html-button-response","trial_index":52,"time_elapsed":262893,"internal_node_id":"0.0-4.0-1.22","subject_id":"60fd5adad03767cff6dddda8","study_id":"60edd13110225f80f9f3709b","session_id":"6196c49e38985e008ceee24e","condition":"full-information","relevant_dimensions":["wings","legs"],"bee_group":{"antennae":"X","wings":"2","pattern":"X","legs":"M"},"bonus":0.9400000000000011},{"rt":1142.6000000238419,"stimulus":"bees-with-color/bee-B2DM.svg","response":0,"trial_type":"image-button-response","trial_index":53,"time_elapsed":264037,"internal_node_id":"0.0-4.0-0.23","subject_id":"60fd5adad03767cff6dddda8","study_id":"60edd13110225f80f9f3709b","session_id":"6196c49e38985e008ceee24e","condition":"full-information","relevant_dimensions":["wings","legs"],"bee_group":{"antennae":"X","wings":"2","pattern":"X","legs":"M"},"action":"harvest","summary":"bad-harvest","bonus":0.9400000000000011},{"rt":810.7999999523163,"stimulus":"\n                    <p><b>Action: <em>harvest</em></b></p>\n                    <p>This is the bee that you just saw.</p>\n                    <img src=\"bees-with-color/bee-B2DM.svg\" width=\"200\">\n                    <p><span class=\"redText\">Bad choice, the bee was angry.</span><br><b>You have been stung!</b><br>Your pay has been decreased by $0.10. Your bonus pay is now $0.56.</p>\n            ","response":0,"trial_type":"html-button-response","trial_index":54,"time_elapsed":264848,"internal_node_id":"0.0-4.0-1.23","subject_id":"60fd5adad03767cff6dddda8","study_id":"60edd13110225f80f9f3709b","session_id":"6196c49e38985e008ceee24e","condition":"full-information","relevant_dimensions":["wings","legs"],"bee_group":{"antennae":"X","wings":"2","pattern":"X","legs":"M"},"bonus":0.9400000000000011},{"rt":993,"stimulus":"bees-with-color/bee-B2SF.svg","response":0,"trial_type":"image-button-response","trial_index":55,"time_elapsed":265842,"internal_node_id":"0.0-4.0-0.24","subject_id":"60fd5adad03767cff6dddda8","study_id":"60edd13110225f80f9f3709b","session_id":"6196c49e38985e008ceee24e","condition":"full-information","relevant_dimensions":["wings","legs"],"bee_group":{"antennae":"X","wings":"2","pattern":"X","legs":"M"},"action":"harvest","summary":"good-harvest","bonus":0.9400000000000011},{"rt":498.7999999523163,"stimulus":"\n                    <p><b>Action: <em>harvest</em></b></p>\n                    <p>This is the bee that you just saw.</p>\n                    <img src=\"bees-with-color/bee-B2SF.svg\" width=\"200\">\n                    <p><span class=\"greenText\"><b>Successful harvest!</b></span><br>Your pay has increased by $0.02. Your bonus pay is now $0.58.</p>\n            ","response":0,"trial_type":"html-button-response","trial_index":56,"time_elapsed":266342,"internal_node_id":"0.0-4.0-1.24","subject_id":"60fd5adad03767cff6dddda8","study_id":"60edd13110225f80f9f3709b","session_id":"6196c49e38985e008ceee24e","condition":"full-information","relevant_dimensions":["wings","legs"],"bee_group":{"antennae":"X","wings":"2","pattern":"X","legs":"M"},"bonus":0.9400000000000011},{"rt":1783.1000000238419,"stimulus":"bees-with-color/bee-A2SM.svg","response":1,"trial_type":"image-button-response","trial_index":57,"time_elapsed":268126,"internal_node_id":"0.0-4.0-0.25","subject_id":"60fd5adad03767cff6dddda8","study_id":"60edd13110225f80f9f3709b","session_id":"6196c49e38985e008ceee24e","condition":"full-information","relevant_dimensions":["wings","legs"],"bee_group":{"antennae":"X","wings":"2","pattern":"X","legs":"M"},"action":"avoid","summary":"good-avoid","bonus":0.9400000000000011},{"rt":947.2000000476837,"stimulus":"\n                    <p><b>Action: <em>avoid</em></b></p>\n                    <p>This is the bee that you just saw.</p>\n                    <img src=\"bees-with-color/bee-A2SM.svg\" width=\"200\">\n                    <p><span class=\"greenText\">Good choice!</span>  This bee would have stung you.<br>Your bonus pay is unchanged, and remains at $0.58.</p>\n            ","response":0,"trial_type":"html-button-response","trial_index":58,"time_elapsed":269075,"internal_node_id":"0.0-4.0-1.25","subject_id":"60fd5adad03767cff6dddda8","study_id":"60edd13110225f80f9f3709b","session_id":"6196c49e38985e008ceee24e","condition":"full-information","relevant_dimensions":["wings","legs"],"bee_group":{"antennae":"X","wings":"2","pattern":"X","legs":"M"},"bonus":0.9400000000000011},{"rt":1190.3999999761581,"stimulus":"bees-with-color/bee-B2DF.svg","response":0,"trial_type":"image-button-response","trial_index":59,"time_elapsed":270267,"internal_node_id":"0.0-4.0-0.26","subject_id":"60fd5adad03767cff6dddda8","study_id":"60edd13110225f80f9f3709b","session_id":"6196c49e38985e008ceee24e","condition":"full-information","relevant_dimensions":["wings","legs"],"bee_group":{"antennae":"X","wings":"2","pattern":"X","legs":"M"},"action":"harvest","summary":"good-harvest","bonus":0.9400000000000011},{"rt":604.8000000715256,"stimulus":"\n                    <p><b>Action: <em>harvest</em></b></p>\n                    <p>This is the bee that you just saw.</p>\n                    <img src=\"bees-with-color/bee-B2DF.svg\" width=\"200\">\n                    <p><span class=\"greenText\"><b>Successful harvest!</b></span><br>Your pay has increased by $0.02. Your bonus pay is now $0.60.</p>\n            ","response":0,"trial_type":"html-button-response","trial_index":60,"time_elapsed":270872,"internal_node_id":"0.0-4.0-1.26","subject_id":"60fd5adad03767cff6dddda8","study_id":"60edd13110225f80f9f3709b","session_id":"6196c49e38985e008ceee24e","condition":"full-information","relevant_dimensions":["wings","legs"],"bee_group":{"antennae":"X","wings":"2","pattern":"X","legs":"M"},"bonus":0.9400000000000011},{"rt":1297.1000000238419,"stimulus":"bees-with-color/bee-A2SF.svg","response":0,"trial_type":"image-button-response","trial_index":61,"time_elapsed":272171,"internal_node_id":"0.0-4.0-0.27","subject_id":"60fd5adad03767cff6dddda8","study_id":"60edd13110225f80f9f3709b","session_id":"6196c49e38985e008ceee24e","condition":"full-information","relevant_dimensions":["wings","legs"],"bee_group":{"antennae":"X","wings":"2","pattern":"X","legs":"M"},"action":"harvest","summary":"good-harvest","bonus":0.9400000000000011},{"rt":544.7000000476837,"stimulus":"\n                    <p><b>Action: <em>harvest</em></b></p>\n                    <p>This is the bee that you just saw.</p>\n                    <img src=\"bees-with-color/bee-A2SF.svg\" width=\"200\">\n                    <p><span class=\"greenText\"><b>Successful harvest!</b></span><br>Your pay has increased by $0.02. Your bonus pay is now $0.62.</p>\n            ","response":0,"trial_type":"html-button-response","trial_index":62,"time_elapsed":272716,"internal_node_id":"0.0-4.0-1.27","subject_id":"60fd5adad03767cff6dddda8","study_id":"60edd13110225f80f9f3709b","session_id":"6196c49e38985e008ceee24e","condition":"full-information","relevant_dimensions":["wings","legs"],"bee_group":{"antennae":"X","wings":"2","pattern":"X","legs":"M"},"bonus":0.9400000000000011},{"rt":1775.2000000476837,"stimulus":"bees-with-color/bee-B2SM.svg","response":0,"trial_type":"image-button-response","trial_index":63,"time_elapsed":274492,"internal_node_id":"0.0-4.0-0.28","subject_id":"60fd5adad03767cff6dddda8","study_id":"60edd13110225f80f9f3709b","session_id":"6196c49e38985e008ceee24e","condition":"full-information","relevant_dimensions":["wings","legs"],"bee_group":{"antennae":"X","wings":"2","pattern":"X","legs":"M"},"action":"harvest","summary":"bad-harvest","bonus":0.9400000000000011},{"rt":678.8999999761581,"stimulus":"\n                    <p><b>Action: <em>harvest</em></b></p>\n                    <p>This is the bee that you just saw.</p>\n                    <img src=\"bees-with-color/bee-B2SM.svg\" width=\"200\">\n                    <p><span class=\"redText\">Bad choice, the bee was angry.</span><br><b>You have been stung!</b><br>Your pay has been decreased by $0.10. Your bonus pay is now $0.52.</p>\n            ","response":0,"trial_type":"html-button-response","trial_index":64,"time_elapsed":275172,"internal_node_id":"0.0-4.0-1.28","subject_id":"60fd5adad03767cff6dddda8","study_id":"60edd13110225f80f9f3709b","session_id":"6196c49e38985e008ceee24e","condition":"full-information","relevant_dimensions":["wings","legs"],"bee_group":{"antennae":"X","wings":"2","pattern":"X","legs":"M"},"bonus":0.9400000000000011},{"rt":1432.8000000715256,"stimulus":"bees-with-color/bee-B1SM.svg","response":0,"trial_type":"image-button-response","trial_index":65,"time_elapsed":276606,"internal_node_id":"0.0-4.0-0.29","subject_id":"60fd5adad03767cff6dddda8","study_id":"60edd13110225f80f9f3709b","session_id":"6196c49e38985e008ceee24e","condition":"full-information","relevant_dimensions":["wings","legs"],"bee_group":{"antennae":"X","wings":"2","pattern":"X","legs":"M"},"action":"harvest","summary":"good-harvest","bonus":0.9400000000000011},{"rt":527.2000000476837,"stimulus":"\n                    <p><b>Action: <em>harvest</em></b></p>\n                    <p>This is the bee that you just saw.</p>\n                    <img src=\"bees-with-color/bee-B1SM.svg\" width=\"200\">\n                    <p><span class=\"greenText\"><b>Successful harvest!</b></span><br>Your pay has increased by $0.02. Your bonus pay is now $0.54.</p>\n            ","response":0,"trial_type":"html-button-response","trial_index":66,"time_elapsed":277135,"internal_node_id":"0.0-4.0-1.29","subject_id":"60fd5adad03767cff6dddda8","study_id":"60edd13110225f80f9f3709b","session_id":"6196c49e38985e008ceee24e","condition":"full-information","relevant_dimensions":["wings","legs"],"bee_group":{"antennae":"X","wings":"2","pattern":"X","legs":"M"},"bonus":0.9400000000000011},{"rt":1588.8999999761581,"stimulus":"bees-with-color/bee-B1SF.svg","response":0,"trial_type":"image-button-response","trial_index":67,"time_elapsed":278724,"internal_node_id":"0.0-4.0-0.30","subject_id":"60fd5adad03767cff6dddda8","study_id":"60edd13110225f80f9f3709b","session_id":"6196c49e38985e008ceee24e","condition":"full-information","relevant_dimensions":["wings","legs"],"bee_group":{"antennae":"X","wings":"2","pattern":"X","legs":"M"},"action":"harvest","summary":"good-harvest","bonus":0.9400000000000011},{"rt":542.8999999761581,"stimulus":"\n                    <p><b>Action: <em>harvest</em></b></p>\n                    <p>This is the bee that you just saw.</p>\n                    <img src=\"bees-with-color/bee-B1SF.svg\" width=\"200\">\n                    <p><span class=\"greenText\"><b>Successful harvest!</b></span><br>Your pay has increased by $0.02. Your bonus pay is now $0.56.</p>\n            ","response":0,"trial_type":"html-button-response","trial_index":68,"time_elapsed":279269,"internal_node_id":"0.0-4.0-1.30","subject_id":"60fd5adad03767cff6dddda8","study_id":"60edd13110225f80f9f3709b","session_id":"6196c49e38985e008ceee24e","condition":"full-information","relevant_dimensions":["wings","legs"],"bee_group":{"antennae":"X","wings":"2","pattern":"X","legs":"M"},"bonus":0.9400000000000011},{"rt":2284.7000000476837,"stimulus":"bees-with-color/bee-A2DF.svg","response":0,"trial_type":"image-button-response","trial_index":69,"time_elapsed":281555,"internal_node_id":"0.0-4.0-0.31","subject_id":"60fd5adad03767cff6dddda8","study_id":"60edd13110225f80f9f3709b","session_id":"6196c49e38985e008ceee24e","condition":"full-information","relevant_dimensions":["wings","legs"],"bee_group":{"antennae":"X","wings":"2","pattern":"X","legs":"M"},"action":"harvest","summary":"good-harvest","bonus":0.9400000000000011},{"rt":496.7000000476837,"stimulus":"\n                    <p><b>Action: <em>harvest</em></b></p>\n                    <p>This is the bee that you just saw.</p>\n                    <img src=\"bees-with-color/bee-A2DF.svg\" width=\"200\">\n                    <p><span class=\"greenText\"><b>Successful harvest!</b></span><br>Your pay has increased by $0.02. Your bonus pay is now $0.58.</p>\n            ","response":0,"trial_type":"html-button-response","trial_index":70,"time_elapsed":282053,"internal_node_id":"0.0-4.0-1.31","subject_id":"60fd5adad03767cff6dddda8","study_id":"60edd13110225f80f9f3709b","session_id":"6196c49e38985e008ceee24e","condition":"full-information","relevant_dimensions":["wings","legs"],"bee_group":{"antennae":"X","wings":"2","pattern":"X","legs":"M"},"bonus":0.9400000000000011},{"rt":3170.899999976158,"stimulus":"bees-with-color/bee-A2SF.svg","response":1,"trial_type":"image-button-response","trial_index":71,"time_elapsed":285225,"internal_node_id":"0.0-4.0-0.32","subject_id":"60fd5adad03767cff6dddda8","study_id":"60edd13110225f80f9f3709b","session_id":"6196c49e38985e008ceee24e","condition":"full-information","relevant_dimensions":["wings","legs"],"bee_group":{"antennae":"X","wings":"2","pattern":"X","legs":"M"},"action":"avoid","summary":"bad-avoid","bonus":0.9400000000000011},{"rt":902.8000000715256,"stimulus":"\n                    <p><b>Action: <em>avoid</em></b></p>\n                    <p>This is the bee that you just saw.</p>\n                    <img src=\"bees-with-color/bee-A2SF.svg\" width=\"200\">\n                    <p><span class=\"redText\">Bad choice,</span> the bee was friendly.<br>Your bonus pay is unchanged, and remains at $0.58.</p>\n            ","response":0,"trial_type":"html-button-response","trial_index":72,"time_elapsed":286129,"internal_node_id":"0.0-4.0-1.32","subject_id":"60fd5adad03767cff6dddda8","study_id":"60edd13110225f80f9f3709b","session_id":"6196c49e38985e008ceee24e","condition":"full-information","relevant_dimensions":["wings","legs"],"bee_group":{"antennae":"X","wings":"2","pattern":"X","legs":"M"},"bonus":0.9400000000000011},{"rt":1420.7000000476837,"stimulus":"bees-with-color/bee-B2DM.svg","response":0,"trial_type":"image-button-response","trial_index":73,"time_elapsed":287551,"internal_node_id":"0.0-4.0-0.33","subject_id":"60fd5adad03767cff6dddda8","study_id":"60edd13110225f80f9f3709b","session_id":"6196c49e38985e008ceee24e","condition":"full-information","relevant_dimensions":["wings","legs"],"bee_group":{"antennae":"X","wings":"2","pattern":"X","legs":"M"},"action":"harvest","summary":"bad-harvest","bonus":0.9400000000000011},{"rt":740.7000000476837,"stimulus":"\n                    <p><b>Action: <em>harvest</em></b></p>\n                    <p>This is the bee that you just saw.</p>\n                    <img src=\"bees-with-color/bee-B2DM.svg\" width=\"200\">\n                    <p><span class=\"redText\">Bad choice, the bee was angry.</span><br><b>You have been stung!</b><br>Your pay has been decreased by $0.10. Your bonus pay is now $0.48.</p>\n            ","response":0,"trial_type":"html-button-response","trial_index":74,"time_elapsed":288293,"internal_node_id":"0.0-4.0-1.33","subject_id":"60fd5adad03767cff6dddda8","study_id":"60edd13110225f80f9f3709b","session_id":"6196c49e38985e008ceee24e","condition":"full-information","relevant_dimensions":["wings","legs"],"bee_group":{"antennae":"X","wings":"2","pattern":"X","legs":"M"},"bonus":0.9400000000000011},{"rt":1067,"stimulus":"bees-with-color/bee-A1DF.svg","response":0,"trial_type":"image-button-response","trial_index":75,"time_elapsed":289361,"internal_node_id":"0.0-4.0-0.34","subject_id":"60fd5adad03767cff6dddda8","study_id":"60edd13110225f80f9f3709b","session_id":"6196c49e38985e008ceee24e","condition":"full-information","relevant_dimensions":["wings","legs"],"bee_group":{"antennae":"X","wings":"2","pattern":"X","legs":"M"},"action":"harvest","summary":"good-harvest","bonus":0.9400000000000011},{"rt":588.7000000476837,"stimulus":"\n                    <p><b>Action: <em>harvest</em></b></p>\n                    <p>This is the bee that you just saw.</p>\n                    <img src=\"bees-with-color/bee-A1DF.svg\" width=\"200\">\n                    <p><span class=\"greenText\"><b>Successful harvest!</b></span><br>Your pay has increased by $0.02. Your bonus pay is now $0.50.</p>\n            ","response":0,"trial_type":"html-button-response","trial_index":76,"time_elapsed":289951,"internal_node_id":"0.0-4.0-1.34","subject_id":"60fd5adad03767cff6dddda8","study_id":"60edd13110225f80f9f3709b","session_id":"6196c49e38985e008ceee24e","condition":"full-information","relevant_dimensions":["wings","legs"],"bee_group":{"antennae":"X","wings":"2","pattern":"X","legs":"M"},"bonus":0.9400000000000011},{"rt":2016.8999999761581,"stimulus":"bees-with-color/bee-B1SF.svg","response":0,"trial_type":"image-button-response","trial_index":77,"time_elapsed":291969,"internal_node_id":"0.0-4.0-0.35","subject_id":"60fd5adad03767cff6dddda8","study_id":"60edd13110225f80f9f3709b","session_id":"6196c49e38985e008ceee24e","condition":"full-information","relevant_dimensions":["wings","legs"],"bee_group":{"antennae":"X","wings":"2","pattern":"X","legs":"M"},"action":"harvest","summary":"good-harvest","bonus":0.9400000000000011},{"rt":800.5,"stimulus":"\n                    <p><b>Action: <em>harvest</em></b></p>\n                    <p>This is the bee that you just saw.</p>\n                    <img src=\"bees-with-color/bee-B1SF.svg\" width=\"200\">\n                    <p><span class=\"greenText\"><b>Successful harvest!</b></span><br>Your pay has increased by $0.02. Your bonus pay is now $0.52.</p>\n            ","response":0,"trial_type":"html-button-response","trial_index":78,"time_elapsed":292770,"internal_node_id":"0.0-4.0-1.35","subject_id":"60fd5adad03767cff6dddda8","study_id":"60edd13110225f80f9f3709b","session_id":"6196c49e38985e008ceee24e","condition":"full-information","relevant_dimensions":["wings","legs"],"bee_group":{"antennae":"X","wings":"2","pattern":"X","legs":"M"},"bonus":0.9400000000000011},{"rt":1864.7000000476837,"stimulus":"bees-with-color/bee-B1SM.svg","response":0,"trial_type":"image-button-response","trial_index":79,"time_elapsed":294637,"internal_node_id":"0.0-4.0-0.36","subject_id":"60fd5adad03767cff6dddda8","study_id":"60edd13110225f80f9f3709b","session_id":"6196c49e38985e008ceee24e","condition":"full-information","relevant_dimensions":["wings","legs"],"bee_group":{"antennae":"X","wings":"2","pattern":"X","legs":"M"},"action":"harvest","summary":"good-harvest","bonus":0.9400000000000011},{"rt":632.8000000715256,"stimulus":"\n                    <p><b>Action: <em>harvest</em></b></p>\n                    <p>This is the bee that you just saw.</p>\n                    <img src=\"bees-with-color/bee-B1SM.svg\" width=\"200\">\n                    <p><span class=\"greenText\"><b>Successful harvest!</b></span><br>Your pay has increased by $0.02. Your bonus pay is now $0.54.</p>\n            ","response":0,"trial_type":"html-button-response","trial_index":80,"time_elapsed":295271,"internal_node_id":"0.0-4.0-1.36","subject_id":"60fd5adad03767cff6dddda8","study_id":"60edd13110225f80f9f3709b","session_id":"6196c49e38985e008ceee24e","condition":"full-information","relevant_dimensions":["wings","legs"],"bee_group":{"antennae":"X","wings":"2","pattern":"X","legs":"M"},"bonus":0.9400000000000011},{"rt":1433,"stimulus":"bees-with-color/bee-A1DM.svg","response":1,"trial_type":"image-button-response","trial_index":81,"time_elapsed":296705,"internal_node_id":"0.0-4.0-0.37","subject_id":"60fd5adad03767cff6dddda8","study_id":"60edd13110225f80f9f3709b","session_id":"6196c49e38985e008ceee24e","condition":"full-information","relevant_dimensions":["wings","legs"],"bee_group":{"antennae":"X","wings":"2","pattern":"X","legs":"M"},"action":"avoid","summary":"bad-avoid","bonus":0.9400000000000011},{"rt":770.5,"stimulus":"\n                    <p><b>Action: <em>avoid</em></b></p>\n                    <p>This is the bee that you just saw.</p>\n                    <img src=\"bees-with-color/bee-A1DM.svg\" width=\"200\">\n                    <p><span class=\"redText\">Bad choice,</span> the bee was friendly.<br>Your bonus pay is unchanged, and remains at $0.54.</p>\n            ","response":0,"trial_type":"html-button-response","trial_index":82,"time_elapsed":297476,"internal_node_id":"0.0-4.0-1.37","subject_id":"60fd5adad03767cff6dddda8","study_id":"60edd13110225f80f9f3709b","session_id":"6196c49e38985e008ceee24e","condition":"full-information","relevant_dimensions":["wings","legs"],"bee_group":{"antennae":"X","wings":"2","pattern":"X","legs":"M"},"bonus":0.9400000000000011},{"rt":916.8999999761581,"stimulus":"bees-with-color/bee-B2SF.svg","response":0,"trial_type":"image-button-response","trial_index":83,"time_elapsed":298394,"internal_node_id":"0.0-4.0-0.38","subject_id":"60fd5adad03767cff6dddda8","study_id":"60edd13110225f80f9f3709b","session_id":"6196c49e38985e008ceee24e","condition":"full-information","relevant_dimensions":["wings","legs"],"bee_group":{"antennae":"X","wings":"2","pattern":"X","legs":"M"},"action":"harvest","summary":"good-harvest","bonus":0.9400000000000011},{"rt":694.8000000715256,"stimulus":"\n                    <p><b>Action: <em>harvest</em></b></p>\n                    <p>This is the bee that you just saw.</p>\n                    <img src=\"bees-with-color/bee-B2SF.svg\" width=\"200\">\n                    <p><span class=\"greenText\"><b>Successful harvest!</b></span><br>Your pay has increased by $0.02. Your bonus pay is now $0.56.</p>\n            ","response":0,"trial_type":"html-button-response","trial_index":84,"time_elapsed":299090,"internal_node_id":"0.0-4.0-1.38","subject_id":"60fd5adad03767cff6dddda8","study_id":"60edd13110225f80f9f3709b","session_id":"6196c49e38985e008ceee24e","condition":"full-information","relevant_dimensions":["wings","legs"],"bee_group":{"antennae":"X","wings":"2","pattern":"X","legs":"M"},"bonus":0.9400000000000011},{"rt":936.8000000715256,"stimulus":"bees-with-color/bee-A2DM.svg","response":1,"trial_type":"image-button-response","trial_index":85,"time_elapsed":300028,"internal_node_id":"0.0-4.0-0.39","subject_id":"60fd5adad03767cff6dddda8","study_id":"60edd13110225f80f9f3709b","session_id":"6196c49e38985e008ceee24e","condition":"full-information","relevant_dimensions":["wings","legs"],"bee_group":{"antennae":"X","wings":"2","pattern":"X","legs":"M"},"action":"avoid","summary":"good-avoid","bonus":0.9400000000000011},{"rt":754.9000000953674,"stimulus":"\n                    <p><b>Action: <em>avoid</em></b></p>\n                    <p>This is the bee that you just saw.</p>\n                    <img src=\"bees-with-color/bee-A2DM.svg\" width=\"200\">\n                    <p><span class=\"greenText\">Good choice!</span>  This bee would have stung you.<br>Your bonus pay is unchanged, and remains at $0.56.</p>\n            ","response":0,"trial_type":"html-button-response","trial_index":86,"time_elapsed":300784,"internal_node_id":"0.0-4.0-1.39","subject_id":"60fd5adad03767cff6dddda8","study_id":"60edd13110225f80f9f3709b","session_id":"6196c49e38985e008ceee24e","condition":"full-information","relevant_dimensions":["wings","legs"],"bee_group":{"antennae":"X","wings":"2","pattern":"X","legs":"M"},"bonus":0.9400000000000011},{"rt":1533,"stimulus":"bees-with-color/bee-B2SM.svg","response":0,"trial_type":"image-button-response","trial_index":87,"time_elapsed":302318,"internal_node_id":"0.0-4.0-0.40","subject_id":"60fd5adad03767cff6dddda8","study_id":"60edd13110225f80f9f3709b","session_id":"6196c49e38985e008ceee24e","condition":"full-information","relevant_dimensions":["wings","legs"],"bee_group":{"antennae":"X","wings":"2","pattern":"X","legs":"M"},"action":"harvest","summary":"bad-harvest","bonus":0.9400000000000011},{"rt":663.7000000476837,"stimulus":"\n                    <p><b>Action: <em>harvest</em></b></p>\n                    <p>This is the bee that you just saw.</p>\n                    <img src=\"bees-with-color/bee-B2SM.svg\" width=\"200\">\n                    <p><span class=\"redText\">Bad choice, the bee was angry.</span><br><b>You have been stung!</b><br>Your pay has been decreased by $0.10. Your bonus pay is now $0.46.</p>\n            ","response":0,"trial_type":"html-button-response","trial_index":88,"time_elapsed":302983,"internal_node_id":"0.0-4.0-1.40","subject_id":"60fd5adad03767cff6dddda8","study_id":"60edd13110225f80f9f3709b","session_id":"6196c49e38985e008ceee24e","condition":"full-information","relevant_dimensions":["wings","legs"],"bee_group":{"antennae":"X","wings":"2","pattern":"X","legs":"M"},"bonus":0.9400000000000011},{"rt":1250.7000000476837,"stimulus":"bees-with-color/bee-B2DF.svg","response":0,"trial_type":"image-button-response","trial_index":89,"time_elapsed":304234,"internal_node_id":"0.0-4.0-0.41","subject_id":"60fd5adad03767cff6dddda8","study_id":"60edd13110225f80f9f3709b","session_id":"6196c49e38985e008ceee24e","condition":"full-information","relevant_dimensions":["wings","legs"],"bee_group":{"antennae":"X","wings":"2","pattern":"X","legs":"M"},"action":"harvest","summary":"good-harvest","bonus":0.9400000000000011},{"rt":529,"stimulus":"\n                    <p><b>Action: <em>harvest</em></b></p>\n                    <p>This is the bee that you just saw.</p>\n                    <img src=\"bees-with-color/bee-B2DF.svg\" width=\"200\">\n                    <p><span class=\"greenText\"><b>Successful harvest!</b></span><br>Your pay has increased by $0.02. Your bonus pay is now $0.48.</p>\n            ","response":0,"trial_type":"html-button-response","trial_index":90,"time_elapsed":304764,"internal_node_id":"0.0-4.0-1.41","subject_id":"60fd5adad03767cff6dddda8","study_id":"60edd13110225f80f9f3709b","session_id":"6196c49e38985e008ceee24e","condition":"full-information","relevant_dimensions":["wings","legs"],"bee_group":{"antennae":"X","wings":"2","pattern":"X","legs":"M"},"bonus":0.9400000000000011},{"rt":933.2000000476837,"stimulus":"bees-with-color/bee-A2SM.svg","response":1,"trial_type":"image-button-response","trial_index":91,"time_elapsed":305699,"internal_node_id":"0.0-4.0-0.42","subject_id":"60fd5adad03767cff6dddda8","study_id":"60edd13110225f80f9f3709b","session_id":"6196c49e38985e008ceee24e","condition":"full-information","relevant_dimensions":["wings","legs"],"bee_group":{"antennae":"X","wings":"2","pattern":"X","legs":"M"},"action":"avoid","summary":"good-avoid","bonus":0.9400000000000011},{"rt":648.7000000476837,"stimulus":"\n                    <p><b>Action: <em>avoid</em></b></p>\n                    <p>This is the bee that you just saw.</p>\n                    <img src=\"bees-with-color/bee-A2SM.svg\" width=\"200\">\n                    <p><span class=\"greenText\">Good choice!</span>  This bee would have stung you.<br>Your bonus pay is unchanged, and remains at $0.48.</p>\n            ","response":0,"trial_type":"html-button-response","trial_index":92,"time_elapsed":306348,"internal_node_id":"0.0-4.0-1.42","subject_id":"60fd5adad03767cff6dddda8","study_id":"60edd13110225f80f9f3709b","session_id":"6196c49e38985e008ceee24e","condition":"full-information","relevant_dimensions":["wings","legs"],"bee_group":{"antennae":"X","wings":"2","pattern":"X","legs":"M"},"bonus":0.9400000000000011},{"rt":2223,"stimulus":"bees-with-color/bee-A1SF.svg","response":0,"trial_type":"image-button-response","trial_index":93,"time_elapsed":308572,"internal_node_id":"0.0-4.0-0.43","subject_id":"60fd5adad03767cff6dddda8","study_id":"60edd13110225f80f9f3709b","session_id":"6196c49e38985e008ceee24e","condition":"full-information","relevant_dimensions":["wings","legs"],"bee_group":{"antennae":"X","wings":"2","pattern":"X","legs":"M"},"action":"harvest","summary":"good-harvest","bonus":0.9400000000000011},{"rt":604.9000000953674,"stimulus":"\n                    <p><b>Action: <em>harvest</em></b></p>\n                    <p>This is the bee that you just saw.</p>\n                    <img src=\"bees-with-color/bee-A1SF.svg\" width=\"200\">\n                    <p><span class=\"greenText\"><b>Successful harvest!</b></span><br>Your pay has increased by $0.02. Your bonus pay is now $0.50.</p>\n            ","response":0,"trial_type":"html-button-response","trial_index":94,"time_elapsed":309178,"internal_node_id":"0.0-4.0-1.43","subject_id":"60fd5adad03767cff6dddda8","study_id":"60edd13110225f80f9f3709b","session_id":"6196c49e38985e008ceee24e","condition":"full-information","relevant_dimensions":["wings","legs"],"bee_group":{"antennae":"X","wings":"2","pattern":"X","legs":"M"},"bonus":0.9400000000000011},{"rt":1510.8000000715256,"stimulus":"bees-with-color/bee-B1DF.svg","response":0,"trial_type":"image-button-response","trial_index":95,"time_elapsed":310690,"internal_node_id":"0.0-4.0-0.44","subject_id":"60fd5adad03767cff6dddda8","study_id":"60edd13110225f80f9f3709b","session_id":"6196c49e38985e008ceee24e","condition":"full-information","relevant_dimensions":["wings","legs"],"bee_group":{"antennae":"X","wings":"2","pattern":"X","legs":"M"},"action":"harvest","summary":"good-harvest","bonus":0.9400000000000011},{"rt":544.8999999761581,"stimulus":"\n                    <p><b>Action: <em>harvest</em></b></p>\n                    <p>This is the bee that you just saw.</p>\n                    <img src=\"bees-with-color/bee-B1DF.svg\" width=\"200\">\n                    <p><span class=\"greenText\"><b>Successful harvest!</b></span><br>Your pay has increased by $0.02. Your bonus pay is now $0.52.</p>\n            ","response":0,"trial_type":"html-button-response","trial_index":96,"time_elapsed":311236,"internal_node_id":"0.0-4.0-1.44","subject_id":"60fd5adad03767cff6dddda8","study_id":"60edd13110225f80f9f3709b","session_id":"6196c49e38985e008ceee24e","condition":"full-information","relevant_dimensions":["wings","legs"],"bee_group":{"antennae":"X","wings":"2","pattern":"X","legs":"M"},"bonus":0.9400000000000011},{"rt":2701.100000023842,"stimulus":"bees-with-color/bee-B1DM.svg","response":1,"trial_type":"image-button-response","trial_index":97,"time_elapsed":313941,"internal_node_id":"0.0-4.0-0.45","subject_id":"60fd5adad03767cff6dddda8","study_id":"60edd13110225f80f9f3709b","session_id":"6196c49e38985e008ceee24e","condition":"full-information","relevant_dimensions":["wings","legs"],"bee_group":{"antennae":"X","wings":"2","pattern":"X","legs":"M"},"action":"avoid","summary":"bad-avoid","bonus":0.9400000000000011},{"rt":722.3999999761581,"stimulus":"\n                    <p><b>Action: <em>avoid</em></b></p>\n                    <p>This is the bee that you just saw.</p>\n                    <img src=\"bees-with-color/bee-B1DM.svg\" width=\"200\">\n                    <p><span class=\"redText\">Bad choice,</span> the bee was friendly.<br>Your bonus pay is unchanged, and remains at $0.52.</p>\n            ","response":0,"trial_type":"html-button-response","trial_index":98,"time_elapsed":314664,"internal_node_id":"0.0-4.0-1.45","subject_id":"60fd5adad03767cff6dddda8","study_id":"60edd13110225f80f9f3709b","session_id":"6196c49e38985e008ceee24e","condition":"full-information","relevant_dimensions":["wings","legs"],"bee_group":{"antennae":"X","wings":"2","pattern":"X","legs":"M"},"bonus":0.9400000000000011},{"rt":997.5,"stimulus":"bees-with-color/bee-A1SM.svg","response":1,"trial_type":"image-button-response","trial_index":99,"time_elapsed":315663,"internal_node_id":"0.0-4.0-0.46","subject_id":"60fd5adad03767cff6dddda8","study_id":"60edd13110225f80f9f3709b","session_id":"6196c49e38985e008ceee24e","condition":"full-information","relevant_dimensions":["wings","legs"],"bee_group":{"antennae":"X","wings":"2","pattern":"X","legs":"M"},"action":"avoid","summary":"bad-avoid","bonus":0.9400000000000011},{"rt":740.3999999761581,"stimulus":"\n                    <p><b>Action: <em>avoid</em></b></p>\n                    <p>This is the bee that you just saw.</p>\n                    <img src=\"bees-with-color/bee-A1SM.svg\" width=\"200\">\n                    <p><span class=\"redText\">Bad choice,</span> the bee was friendly.<br>Your bonus pay is unchanged, and remains at $0.52.</p>\n            ","response":0,"trial_type":"html-button-response","trial_index":100,"time_elapsed":316404,"internal_node_id":"0.0-4.0-1.46","subject_id":"60fd5adad03767cff6dddda8","study_id":"60edd13110225f80f9f3709b","session_id":"6196c49e38985e008ceee24e","condition":"full-information","relevant_dimensions":["wings","legs"],"bee_group":{"antennae":"X","wings":"2","pattern":"X","legs":"M"},"bonus":0.9400000000000011},{"rt":3923.100000023842,"stimulus":"bees-with-color/bee-A2DF.svg","response":1,"trial_type":"image-button-response","trial_index":101,"time_elapsed":320328,"internal_node_id":"0.0-4.0-0.47","subject_id":"60fd5adad03767cff6dddda8","study_id":"60edd13110225f80f9f3709b","session_id":"6196c49e38985e008ceee24e","condition":"full-information","relevant_dimensions":["wings","legs"],"bee_group":{"antennae":"X","wings":"2","pattern":"X","legs":"M"},"action":"avoid","summary":"bad-avoid","bonus":0.9400000000000011},{"rt":561,"stimulus":"\n                    <p><b>Action: <em>avoid</em></b></p>\n                    <p>This is the bee that you just saw.</p>\n                    <img src=\"bees-with-color/bee-A2DF.svg\" width=\"200\">\n                    <p><span class=\"redText\">Bad choice,</span> the bee was friendly.<br>Your bonus pay is unchanged, and remains at $0.52.</p>\n            ","response":0,"trial_type":"html-button-response","trial_index":102,"time_elapsed":320890,"internal_node_id":"0.0-4.0-1.47","subject_id":"60fd5adad03767cff6dddda8","study_id":"60edd13110225f80f9f3709b","session_id":"6196c49e38985e008ceee24e","condition":"full-information","relevant_dimensions":["wings","legs"],"bee_group":{"antennae":"X","wings":"2","pattern":"X","legs":"M"},"bonus":0.9400000000000011},{"rt":2216.8000000715256,"stimulus":"bees-with-color/bee-A1DF.svg","response":0,"trial_type":"image-button-response","trial_index":103,"time_elapsed":323108,"internal_node_id":"0.0-4.0-0.48","subject_id":"60fd5adad03767cff6dddda8","study_id":"60edd13110225f80f9f3709b","session_id":"6196c49e38985e008ceee24e","condition":"full-information","relevant_dimensions":["wings","legs"],"bee_group":{"antennae":"X","wings":"2","pattern":"X","legs":"M"},"action":"harvest","summary":"good-harvest","bonus":0.9400000000000011},{"rt":604.9000000953674,"stimulus":"\n                    <p><b>Action: <em>harvest</em></b></p>\n                    <p>This is the bee that you just saw.</p>\n                    <img src=\"bees-with-color/bee-A1DF.svg\" width=\"200\">\n                    <p><span class=\"greenText\"><b>Successful harvest!</b></span><br>Your pay has increased by $0.02. Your bonus pay is now $0.54.</p>\n            ","response":0,"trial_type":"html-button-response","trial_index":104,"time_elapsed":323714,"internal_node_id":"0.0-4.0-1.48","subject_id":"60fd5adad03767cff6dddda8","study_id":"60edd13110225f80f9f3709b","session_id":"6196c49e38985e008ceee24e","condition":"full-information","relevant_dimensions":["wings","legs"],"bee_group":{"antennae":"X","wings":"2","pattern":"X","legs":"M"},"bonus":0.9400000000000011},{"rt":1123,"stimulus":"bees-with-color/bee-B2DF.svg","response":0,"trial_type":"image-button-response","trial_index":105,"time_elapsed":324838,"internal_node_id":"0.0-4.0-0.49","subject_id":"60fd5adad03767cff6dddda8","study_id":"60edd13110225f80f9f3709b","session_id":"6196c49e38985e008ceee24e","condition":"full-information","relevant_dimensions":["wings","legs"],"bee_group":{"antennae":"X","wings":"2","pattern":"X","legs":"M"},"action":"harvest","summary":"good-harvest","bonus":0.9400000000000011},{"rt":498.90000009536743,"stimulus":"\n                    <p><b>Action: <em>harvest</em></b></p>\n                    <p>This is the bee that you just saw.</p>\n                    <img src=\"bees-with-color/bee-B2DF.svg\" width=\"200\">\n                    <p><span class=\"greenText\"><b>Successful harvest!</b></span><br>Your pay has increased by $0.02. Your bonus pay is now $0.56.</p>\n            ","response":0,"trial_type":"html-button-response","trial_index":106,"time_elapsed":325338,"internal_node_id":"0.0-4.0-1.49","subject_id":"60fd5adad03767cff6dddda8","study_id":"60edd13110225f80f9f3709b","session_id":"6196c49e38985e008ceee24e","condition":"full-information","relevant_dimensions":["wings","legs"],"bee_group":{"antennae":"X","wings":"2","pattern":"X","legs":"M"},"bonus":0.9400000000000011},{"rt":941.1000000238419,"stimulus":"bees-with-color/bee-A2DM.svg","response":1,"trial_type":"image-button-response","trial_index":107,"time_elapsed":326280,"internal_node_id":"0.0-4.0-0.50","subject_id":"60fd5adad03767cff6dddda8","study_id":"60edd13110225f80f9f3709b","session_id":"6196c49e38985e008ceee24e","condition":"full-information","relevant_dimensions":["wings","legs"],"bee_group":{"antennae":"X","wings":"2","pattern":"X","legs":"M"},"action":"avoid","summary":"good-avoid","bonus":0.9400000000000011},{"rt":482.8000000715256,"stimulus":"\n                    <p><b>Action: <em>avoid</em></b></p>\n                    <p>This is the bee that you just saw.</p>\n                    <img src=\"bees-with-color/bee-A2DM.svg\" width=\"200\">\n                    <p><span class=\"greenText\">Good choice!</span>  This bee would have stung you.<br>Your bonus pay is unchanged, and remains at $0.56.</p>\n            ","response":0,"trial_type":"html-button-response","trial_index":108,"time_elapsed":326764,"internal_node_id":"0.0-4.0-1.50","subject_id":"60fd5adad03767cff6dddda8","study_id":"60edd13110225f80f9f3709b","session_id":"6196c49e38985e008ceee24e","condition":"full-information","relevant_dimensions":["wings","legs"],"bee_group":{"antennae":"X","wings":"2","pattern":"X","legs":"M"},"bonus":0.9400000000000011},{"rt":3128.7000000476837,"stimulus":"bees-with-color/bee-B1SF.svg","response":0,"trial_type":"image-button-response","trial_index":109,"time_elapsed":329894,"internal_node_id":"0.0-4.0-0.51","subject_id":"60fd5adad03767cff6dddda8","study_id":"60edd13110225f80f9f3709b","session_id":"6196c49e38985e008ceee24e","condition":"full-information","relevant_dimensions":["wings","legs"],"bee_group":{"antennae":"X","wings":"2","pattern":"X","legs":"M"},"action":"harvest","summary":"good-harvest","bonus":0.9400000000000011},{"rt":480.6999999284744,"stimulus":"\n                    <p><b>Action: <em>harvest</em></b></p>\n                    <p>This is the bee that you just saw.</p>\n                    <img src=\"bees-with-color/bee-B1SF.svg\" width=\"200\">\n                    <p><span class=\"greenText\"><b>Successful harvest!</b></span><br>Your pay has increased by $0.02. Your bonus pay is now $0.58.</p>\n            ","response":0,"trial_type":"html-button-response","trial_index":110,"time_elapsed":330376,"internal_node_id":"0.0-4.0-1.51","subject_id":"60fd5adad03767cff6dddda8","study_id":"60edd13110225f80f9f3709b","session_id":"6196c49e38985e008ceee24e","condition":"full-information","relevant_dimensions":["wings","legs"],"bee_group":{"antennae":"X","wings":"2","pattern":"X","legs":"M"},"bonus":0.9400000000000011},{"rt":1175.2000000476837,"stimulus":"bees-with-color/bee-A2DF.svg","response":1,"trial_type":"image-button-response","trial_index":111,"time_elapsed":331552,"internal_node_id":"0.0-4.0-0.52","subject_id":"60fd5adad03767cff6dddda8","study_id":"60edd13110225f80f9f3709b","session_id":"6196c49e38985e008ceee24e","condition":"full-information","relevant_dimensions":["wings","legs"],"bee_group":{"antennae":"X","wings":"2","pattern":"X","legs":"M"},"action":"avoid","summary":"bad-avoid","bonus":0.9400000000000011},{"rt":496.7000000476837,"stimulus":"\n                    <p><b>Action: <em>avoid</em></b></p>\n                    <p>This is the bee that you just saw.</p>\n                    <img src=\"bees-with-color/bee-A2DF.svg\" width=\"200\">\n                    <p><span class=\"redText\">Bad choice,</span> the bee was friendly.<br>Your bonus pay is unchanged, and remains at $0.58.</p>\n            ","response":0,"trial_type":"html-button-response","trial_index":112,"time_elapsed":332050,"internal_node_id":"0.0-4.0-1.52","subject_id":"60fd5adad03767cff6dddda8","study_id":"60edd13110225f80f9f3709b","session_id":"6196c49e38985e008ceee24e","condition":"full-information","relevant_dimensions":["wings","legs"],"bee_group":{"antennae":"X","wings":"2","pattern":"X","legs":"M"},"bonus":0.9400000000000011},{"rt":1019.1000000238419,"stimulus":"bees-with-color/bee-A2SM.svg","response":1,"trial_type":"image-button-response","trial_index":113,"time_elapsed":333070,"internal_node_id":"0.0-4.0-0.53","subject_id":"60fd5adad03767cff6dddda8","study_id":"60edd13110225f80f9f3709b","session_id":"6196c49e38985e008ceee24e","condition":"full-information","relevant_dimensions":["wings","legs"],"bee_group":{"antennae":"X","wings":"2","pattern":"X","legs":"M"},"action":"avoid","summary":"good-avoid","bonus":0.9400000000000011},{"rt":844.5,"stimulus":"\n                    <p><b>Action: <em>avoid</em></b></p>\n                    <p>This is the bee that you just saw.</p>\n                    <img src=\"bees-with-color/bee-A2SM.svg\" width=\"200\">\n                    <p><span class=\"greenText\">Good choice!</span>  This bee would have stung you.<br>Your bonus pay is unchanged, and remains at $0.58.</p>\n            ","response":0,"trial_type":"html-button-response","trial_index":114,"time_elapsed":333916,"internal_node_id":"0.0-4.0-1.53","subject_id":"60fd5adad03767cff6dddda8","study_id":"60edd13110225f80f9f3709b","session_id":"6196c49e38985e008ceee24e","condition":"full-information","relevant_dimensions":["wings","legs"],"bee_group":{"antennae":"X","wings":"2","pattern":"X","legs":"M"},"bonus":0.9400000000000011},{"rt":1215,"stimulus":"bees-with-color/bee-A1DM.svg","response":1,"trial_type":"image-button-response","trial_index":115,"time_elapsed":335132,"internal_node_id":"0.0-4.0-0.54","subject_id":"60fd5adad03767cff6dddda8","study_id":"60edd13110225f80f9f3709b","session_id":"6196c49e38985e008ceee24e","condition":"full-information","relevant_dimensions":["wings","legs"],"bee_group":{"antennae":"X","wings":"2","pattern":"X","legs":"M"},"action":"avoid","summary":"bad-avoid","bonus":0.9400000000000011},{"rt":512.7999999523163,"stimulus":"\n                    <p><b>Action: <em>avoid</em></b></p>\n                    <p>This is the bee that you just saw.</p>\n                    <img src=\"bees-with-color/bee-A1DM.svg\" width=\"200\">\n                    <p><span class=\"redText\">Bad choice,</span> the bee was friendly.<br>Your bonus pay is unchanged, and remains at $0.58.</p>\n            ","response":0,"trial_type":"html-button-response","trial_index":116,"time_elapsed":335646,"internal_node_id":"0.0-4.0-1.54","subject_id":"60fd5adad03767cff6dddda8","study_id":"60edd13110225f80f9f3709b","session_id":"6196c49e38985e008ceee24e","condition":"full-information","relevant_dimensions":["wings","legs"],"bee_group":{"antennae":"X","wings":"2","pattern":"X","legs":"M"},"bonus":0.9400000000000011},{"rt":810.8999999761581,"stimulus":"bees-with-color/bee-B2SF.svg","response":0,"trial_type":"image-button-response","trial_index":117,"time_elapsed":336458,"internal_node_id":"0.0-4.0-0.55","subject_id":"60fd5adad03767cff6dddda8","study_id":"60edd13110225f80f9f3709b","session_id":"6196c49e38985e008ceee24e","condition":"full-information","relevant_dimensions":["wings","legs"],"bee_group":{"antennae":"X","wings":"2","pattern":"X","legs":"M"},"action":"harvest","summary":"good-harvest","bonus":0.9400000000000011},{"rt":499.3000000715256,"stimulus":"\n                    <p><b>Action: <em>harvest</em></b></p>\n                    <p>This is the bee that you just saw.</p>\n                    <img src=\"bees-with-color/bee-B2SF.svg\" width=\"200\">\n                    <p><span class=\"greenText\"><b>Successful harvest!</b></span><br>Your pay has increased by $0.02. Your bonus pay is now $0.60.</p>\n            ","response":0,"trial_type":"html-button-response","trial_index":118,"time_elapsed":336958,"internal_node_id":"0.0-4.0-1.55","subject_id":"60fd5adad03767cff6dddda8","study_id":"60edd13110225f80f9f3709b","session_id":"6196c49e38985e008ceee24e","condition":"full-information","relevant_dimensions":["wings","legs"],"bee_group":{"antennae":"X","wings":"2","pattern":"X","legs":"M"},"bonus":0.9400000000000011},{"rt":1132.9000000953674,"stimulus":"bees-with-color/bee-B1SM.svg","response":0,"trial_type":"image-button-response","trial_index":119,"time_elapsed":338092,"internal_node_id":"0.0-4.0-0.56","subject_id":"60fd5adad03767cff6dddda8","study_id":"60edd13110225f80f9f3709b","session_id":"6196c49e38985e008ceee24e","condition":"full-information","relevant_dimensions":["wings","legs"],"bee_group":{"antennae":"X","wings":"2","pattern":"X","legs":"M"},"action":"harvest","summary":"good-harvest","bonus":0.9400000000000011},{"rt":408.8000000715256,"stimulus":"\n                    <p><b>Action: <em>harvest</em></b></p>\n                    <p>This is the bee that you just saw.</p>\n                    <img src=\"bees-with-color/bee-B1SM.svg\" width=\"200\">\n                    <p><span class=\"greenText\"><b>Successful harvest!</b></span><br>Your pay has increased by $0.02. Your bonus pay is now $0.62.</p>\n            ","response":0,"trial_type":"html-button-response","trial_index":120,"time_elapsed":338502,"internal_node_id":"0.0-4.0-1.56","subject_id":"60fd5adad03767cff6dddda8","study_id":"60edd13110225f80f9f3709b","session_id":"6196c49e38985e008ceee24e","condition":"full-information","relevant_dimensions":["wings","legs"],"bee_group":{"antennae":"X","wings":"2","pattern":"X","legs":"M"},"bonus":0.9400000000000011},{"rt":2408.9000000953674,"stimulus":"bees-with-color/bee-A2SF.svg","response":1,"trial_type":"image-button-response","trial_index":121,"time_elapsed":340912,"internal_node_id":"0.0-4.0-0.57","subject_id":"60fd5adad03767cff6dddda8","study_id":"60edd13110225f80f9f3709b","session_id":"6196c49e38985e008ceee24e","condition":"full-information","relevant_dimensions":["wings","legs"],"bee_group":{"antennae":"X","wings":"2","pattern":"X","legs":"M"},"action":"avoid","summary":"bad-avoid","bonus":0.9400000000000011},{"rt":1108.6000000238419,"stimulus":"\n                    <p><b>Action: <em>avoid</em></b></p>\n                    <p>This is the bee that you just saw.</p>\n                    <img src=\"bees-with-color/bee-A2SF.svg\" width=\"200\">\n                    <p><span class=\"redText\">Bad choice,</span> the bee was friendly.<br>Your bonus pay is unchanged, and remains at $0.62.</p>\n            ","response":0,"trial_type":"html-button-response","trial_index":122,"time_elapsed":342023,"internal_node_id":"0.0-4.0-1.57","subject_id":"60fd5adad03767cff6dddda8","study_id":"60edd13110225f80f9f3709b","session_id":"6196c49e38985e008ceee24e","condition":"full-information","relevant_dimensions":["wings","legs"],"bee_group":{"antennae":"X","wings":"2","pattern":"X","legs":"M"},"bonus":0.9400000000000011},{"rt":2020.4000000953674,"stimulus":"bees-with-color/bee-B2SM.svg","response":1,"trial_type":"image-button-response","trial_index":123,"time_elapsed":344044,"internal_node_id":"0.0-4.0-0.58","subject_id":"60fd5adad03767cff6dddda8","study_id":"60edd13110225f80f9f3709b","session_id":"6196c49e38985e008ceee24e","condition":"full-information","relevant_dimensions":["wings","legs"],"bee_group":{"antennae":"X","wings":"2","pattern":"X","legs":"M"},"action":"avoid","summary":"good-avoid","bonus":0.9400000000000011},{"rt":911,"stimulus":"\n                    <p><b>Action: <em>avoid</em></b></p>\n                    <p>This is the bee that you just saw.</p>\n                    <img src=\"bees-with-color/bee-B2SM.svg\" width=\"200\">\n                    <p><span class=\"greenText\">Good choice!</span>  This bee would have stung you.<br>Your bonus pay is unchanged, and remains at $0.62.</p>\n            ","response":0,"trial_type":"html-button-response","trial_index":124,"time_elapsed":344956,"internal_node_id":"0.0-4.0-1.58","subject_id":"60fd5adad03767cff6dddda8","study_id":"60edd13110225f80f9f3709b","session_id":"6196c49e38985e008ceee24e","condition":"full-information","relevant_dimensions":["wings","legs"],"bee_group":{"antennae":"X","wings":"2","pattern":"X","legs":"M"},"bonus":0.9400000000000011},{"rt":1220.9000000953674,"stimulus":"bees-with-color/bee-A1SM.svg","response":1,"trial_type":"image-button-response","trial_index":125,"time_elapsed":346178,"internal_node_id":"0.0-4.0-0.59","subject_id":"60fd5adad03767cff6dddda8","study_id":"60edd13110225f80f9f3709b","session_id":"6196c49e38985e008ceee24e","condition":"full-information","relevant_dimensions":["wings","legs"],"bee_group":{"antennae":"X","wings":"2","pattern":"X","legs":"M"},"action":"avoid","summary":"bad-avoid","bonus":0.9400000000000011},{"rt":649.1000000238419,"stimulus":"\n                    <p><b>Action: <em>avoid</em></b></p>\n                    <p>This is the bee that you just saw.</p>\n                    <img src=\"bees-with-color/bee-A1SM.svg\" width=\"200\">\n                    <p><span class=\"redText\">Bad choice,</span> the bee was friendly.<br>Your bonus pay is unchanged, and remains at $0.62.</p>\n            ","response":0,"trial_type":"html-button-response","trial_index":126,"time_elapsed":346828,"internal_node_id":"0.0-4.0-1.59","subject_id":"60fd5adad03767cff6dddda8","study_id":"60edd13110225f80f9f3709b","session_id":"6196c49e38985e008ceee24e","condition":"full-information","relevant_dimensions":["wings","legs"],"bee_group":{"antennae":"X","wings":"2","pattern":"X","legs":"M"},"bonus":0.9400000000000011},{"rt":966.7999999523163,"stimulus":"bees-with-color/bee-B1DF.svg","response":0,"trial_type":"image-button-response","trial_index":127,"time_elapsed":347796,"internal_node_id":"0.0-4.0-0.60","subject_id":"60fd5adad03767cff6dddda8","study_id":"60edd13110225f80f9f3709b","session_id":"6196c49e38985e008ceee24e","condition":"full-information","relevant_dimensions":["wings","legs"],"bee_group":{"antennae":"X","wings":"2","pattern":"X","legs":"M"},"action":"harvest","summary":"good-harvest","bonus":0.9400000000000011},{"rt":631.4000000953674,"stimulus":"\n                    <p><b>Action: <em>harvest</em></b></p>\n                    <p>This is the bee that you just saw.</p>\n                    <img src=\"bees-with-color/bee-B1DF.svg\" width=\"200\">\n                    <p><span class=\"greenText\"><b>Successful harvest!</b></span><br>Your pay has increased by $0.02. Your bonus pay is now $0.64.</p>\n            ","response":0,"trial_type":"html-button-response","trial_index":128,"time_elapsed":348428,"internal_node_id":"0.0-4.0-1.60","subject_id":"60fd5adad03767cff6dddda8","study_id":"60edd13110225f80f9f3709b","session_id":"6196c49e38985e008ceee24e","condition":"full-information","relevant_dimensions":["wings","legs"],"bee_group":{"antennae":"X","wings":"2","pattern":"X","legs":"M"},"bonus":0.9400000000000011},{"rt":1047.1000000238419,"stimulus":"bees-with-color/bee-B1DM.svg","response":0,"trial_type":"image-button-response","trial_index":129,"time_elapsed":349476,"internal_node_id":"0.0-4.0-0.61","subject_id":"60fd5adad03767cff6dddda8","study_id":"60edd13110225f80f9f3709b","session_id":"6196c49e38985e008ceee24e","condition":"full-information","relevant_dimensions":["wings","legs"],"bee_group":{"antennae":"X","wings":"2","pattern":"X","legs":"M"},"action":"harvest","summary":"good-harvest","bonus":0.9400000000000011},{"rt":542.9000000953674,"stimulus":"\n                    <p><b>Action: <em>harvest</em></b></p>\n                    <p>This is the bee that you just saw.</p>\n                    <img src=\"bees-with-color/bee-B1DM.svg\" width=\"200\">\n                    <p><span class=\"greenText\"><b>Successful harvest!</b></span><br>Your pay has increased by $0.02. Your bonus pay is now $0.66.</p>\n            ","response":0,"trial_type":"html-button-response","trial_index":130,"time_elapsed":350020,"internal_node_id":"0.0-4.0-1.61","subject_id":"60fd5adad03767cff6dddda8","study_id":"60edd13110225f80f9f3709b","session_id":"6196c49e38985e008ceee24e","condition":"full-information","relevant_dimensions":["wings","legs"],"bee_group":{"antennae":"X","wings":"2","pattern":"X","legs":"M"},"bonus":0.9400000000000011},{"rt":1189,"stimulus":"bees-with-color/bee-A1SF.svg","response":0,"trial_type":"image-button-response","trial_index":131,"time_elapsed":351210,"internal_node_id":"0.0-4.0-0.62","subject_id":"60fd5adad03767cff6dddda8","study_id":"60edd13110225f80f9f3709b","session_id":"6196c49e38985e008ceee24e","condition":"full-information","relevant_dimensions":["wings","legs"],"bee_group":{"antennae":"X","wings":"2","pattern":"X","legs":"M"},"action":"harvest","summary":"good-harvest","bonus":0.9400000000000011},{"rt":500.90000009536743,"stimulus":"\n                    <p><b>Action: <em>harvest</em></b></p>\n                    <p>This is the bee that you just saw.</p>\n                    <img src=\"bees-with-color/bee-A1SF.svg\" width=\"200\">\n                    <p><span class=\"greenText\"><b>Successful harvest!</b></span><br>Your pay has increased by $0.02. Your bonus pay is now $0.68.</p>\n            ","response":0,"trial_type":"html-button-response","trial_index":132,"time_elapsed":351712,"internal_node_id":"0.0-4.0-1.62","subject_id":"60fd5adad03767cff6dddda8","study_id":"60edd13110225f80f9f3709b","session_id":"6196c49e38985e008ceee24e","condition":"full-information","relevant_dimensions":["wings","legs"],"bee_group":{"antennae":"X","wings":"2","pattern":"X","legs":"M"},"bonus":0.9400000000000011},{"rt":2131,"stimulus":"bees-with-color/bee-B2DM.svg","response":1,"trial_type":"image-button-response","trial_index":133,"time_elapsed":353844,"internal_node_id":"0.0-4.0-0.63","subject_id":"60fd5adad03767cff6dddda8","study_id":"60edd13110225f80f9f3709b","session_id":"6196c49e38985e008ceee24e","condition":"full-information","relevant_dimensions":["wings","legs"],"bee_group":{"antennae":"X","wings":"2","pattern":"X","legs":"M"},"action":"avoid","summary":"good-avoid","bonus":0.9400000000000011},{"rt":648.8000000715256,"stimulus":"\n                    <p><b>Action: <em>avoid</em></b></p>\n                    <p>This is the bee that you just saw.</p>\n                    <img src=\"bees-with-color/bee-B2DM.svg\" width=\"200\">\n                    <p><span class=\"greenText\">Good choice!</span>  This bee would have stung you.<br>Your bonus pay is unchanged, and remains at $0.68.</p>\n            ","response":0,"trial_type":"html-button-response","trial_index":134,"time_elapsed":354494,"internal_node_id":"0.0-4.0-1.63","subject_id":"60fd5adad03767cff6dddda8","study_id":"60edd13110225f80f9f3709b","session_id":"6196c49e38985e008ceee24e","condition":"full-information","relevant_dimensions":["wings","legs"],"bee_group":{"antennae":"X","wings":"2","pattern":"X","legs":"M"},"bonus":0.9400000000000011},{"rt":9730.099999904633,"stimulus":"You have completed the first part of this experiment.<br><br>You will now begin a shorter second part, in which you will receive no feedback.<br>The same rules regarding bonus pay apply.<br><br>Press any key to begin.","response":"","trial_type":"html-keyboard-response","trial_index":135,"time_elapsed":364225,"internal_node_id":"0.0-5.0","subject_id":"60fd5adad03767cff6dddda8","study_id":"60edd13110225f80f9f3709b","session_id":"6196c49e38985e008ceee24e","condition":"full-information","relevant_dimensions":["wings","legs"],"bee_group":{"antennae":"X","wings":"2","pattern":"X","legs":"M"},"bonus":0.9400000000000011},{"rt":2136.399999976158,"stimulus":"bees-with-color/bee-B1DF.svg","response":0,"trial_type":"image-button-response","trial_index":136,"time_elapsed":366368,"internal_node_id":"0.0-6.0-0.0","subject_id":"60fd5adad03767cff6dddda8","study_id":"60edd13110225f80f9f3709b","session_id":"6196c49e38985e008ceee24e","condition":"full-information","relevant_dimensions":["wings","legs"],"bee_group":{"antennae":"X","wings":"2","pattern":"X","legs":"M"},"bonus":0.9400000000000011},{"rt":4748.599999904633,"stimulus":"bees-with-color/bee-A2DM.svg","response":1,"trial_type":"image-button-response","trial_index":137,"time_elapsed":371119,"internal_node_id":"0.0-6.0-0.1","subject_id":"60fd5adad03767cff6dddda8","study_id":"60edd13110225f80f9f3709b","session_id":"6196c49e38985e008ceee24e","condition":"full-information","relevant_dimensions":["wings","legs"],"bee_group":{"antennae":"X","wings":"2","pattern":"X","legs":"M"},"bonus":0.9400000000000011},{"rt":1150.2000000476837,"stimulus":"bees-with-color/bee-B2SM.svg","response":0,"trial_type":"image-button-response","trial_index":138,"time_elapsed":372270,"internal_node_id":"0.0-6.0-0.2","subject_id":"60fd5adad03767cff6dddda8","study_id":"60edd13110225f80f9f3709b","session_id":"6196c49e38985e008ceee24e","condition":"full-information","relevant_dimensions":["wings","legs"],"bee_group":{"antennae":"X","wings":"2","pattern":"X","legs":"M"},"bonus":0.9400000000000011},{"rt":3694.6999999284744,"stimulus":"bees-with-color/bee-B2DF.svg","response":0,"trial_type":"image-button-response","trial_index":139,"time_elapsed":375967,"internal_node_id":"0.0-6.0-0.3","subject_id":"60fd5adad03767cff6dddda8","study_id":"60edd13110225f80f9f3709b","session_id":"6196c49e38985e008ceee24e","condition":"full-information","relevant_dimensions":["wings","legs"],"bee_group":{"antennae":"X","wings":"2","pattern":"X","legs":"M"},"bonus":0.9400000000000011},{"rt":1228.9000000953674,"stimulus":"bees-with-color/bee-A1SF.svg","response":0,"trial_type":"image-button-response","trial_index":140,"time_elapsed":377197,"internal_node_id":"0.0-6.0-0.4","subject_id":"60fd5adad03767cff6dddda8","study_id":"60edd13110225f80f9f3709b","session_id":"6196c49e38985e008ceee24e","condition":"full-information","relevant_dimensions":["wings","legs"],"bee_group":{"antennae":"X","wings":"2","pattern":"X","legs":"M"},"bonus":0.9400000000000011},{"rt":3398.100000023842,"stimulus":"bees-with-color/bee-A2SF.svg","response":0,"trial_type":"image-button-response","trial_index":141,"time_elapsed":380597,"internal_node_id":"0.0-6.0-0.5","subject_id":"60fd5adad03767cff6dddda8","study_id":"60edd13110225f80f9f3709b","session_id":"6196c49e38985e008ceee24e","condition":"full-information","relevant_dimensions":["wings","legs"],"bee_group":{"antennae":"X","wings":"2","pattern":"X","legs":"M"},"bonus":0.9400000000000011},{"rt":1784.1000000238419,"stimulus":"bees-with-color/bee-A1DF.svg","response":0,"trial_type":"image-button-response","trial_index":142,"time_elapsed":382383,"internal_node_id":"0.0-6.0-0.6","subject_id":"60fd5adad03767cff6dddda8","study_id":"60edd13110225f80f9f3709b","session_id":"6196c49e38985e008ceee24e","condition":"full-information","relevant_dimensions":["wings","legs"],"bee_group":{"antennae":"X","wings":"2","pattern":"X","legs":"M"},"bonus":0.9400000000000011},{"rt":1016.5,"stimulus":"bees-with-color/bee-A1DM.svg","response":1,"trial_type":"image-button-response","trial_index":143,"time_elapsed":383401,"internal_node_id":"0.0-6.0-0.7","subject_id":"60fd5adad03767cff6dddda8","study_id":"60edd13110225f80f9f3709b","session_id":"6196c49e38985e008ceee24e","condition":"full-information","relevant_dimensions":["wings","legs"],"bee_group":{"antennae":"X","wings":"2","pattern":"X","legs":"M"},"bonus":0.9400000000000011},{"rt":2500.5,"stimulus":"bees-with-color/bee-B2DM.svg","response":1,"trial_type":"image-button-response","trial_index":144,"time_elapsed":385903,"internal_node_id":"0.0-6.0-0.8","subject_id":"60fd5adad03767cff6dddda8","study_id":"60edd13110225f80f9f3709b","session_id":"6196c49e38985e008ceee24e","condition":"full-information","relevant_dimensions":["wings","legs"],"bee_group":{"antennae":"X","wings":"2","pattern":"X","legs":"M"},"bonus":0.9400000000000011},{"rt":1348.4000000953674,"stimulus":"bees-with-color/bee-B1SF.svg","response":0,"trial_type":"image-button-response","trial_index":145,"time_elapsed":387253,"internal_node_id":"0.0-6.0-0.9","subject_id":"60fd5adad03767cff6dddda8","study_id":"60edd13110225f80f9f3709b","session_id":"6196c49e38985e008ceee24e","condition":"full-information","relevant_dimensions":["wings","legs"],"bee_group":{"antennae":"X","wings":"2","pattern":"X","legs":"M"},"bonus":0.9400000000000011},{"rt":1578.5,"stimulus":"bees-with-color/bee-B1SM.svg","response":0,"trial_type":"image-button-response","trial_index":146,"time_elapsed":388833,"internal_node_id":"0.0-6.0-0.10","subject_id":"60fd5adad03767cff6dddda8","study_id":"60edd13110225f80f9f3709b","session_id":"6196c49e38985e008ceee24e","condition":"full-information","relevant_dimensions":["wings","legs"],"bee_group":{"antennae":"X","wings":"2","pattern":"X","legs":"M"},"bonus":0.9400000000000011},{"rt":1552.5,"stimulus":"bees-with-color/bee-B1DM.svg","response":1,"trial_type":"image-button-response","trial_index":147,"time_elapsed":390387,"internal_node_id":"0.0-6.0-0.11","subject_id":"60fd5adad03767cff6dddda8","study_id":"60edd13110225f80f9f3709b","session_id":"6196c49e38985e008ceee24e","condition":"full-information","relevant_dimensions":["wings","legs"],"bee_group":{"antennae":"X","wings":"2","pattern":"X","legs":"M"},"bonus":0.9400000000000011},{"rt":1734.3000000715256,"stimulus":"bees-with-color/bee-A2SM.svg","response":1,"trial_type":"image-button-response","trial_index":148,"time_elapsed":392123,"internal_node_id":"0.0-6.0-0.12","subject_id":"60fd5adad03767cff6dddda8","study_id":"60edd13110225f80f9f3709b","session_id":"6196c49e38985e008ceee24e","condition":"full-information","relevant_dimensions":["wings","legs"],"bee_group":{"antennae":"X","wings":"2","pattern":"X","legs":"M"},"bonus":0.9400000000000011},{"rt":2706.600000023842,"stimulus":"bees-with-color/bee-A1SM.svg","response":1,"trial_type":"image-button-response","trial_index":149,"time_elapsed":394831,"internal_node_id":"0.0-6.0-0.13","subject_id":"60fd5adad03767cff6dddda8","study_id":"60edd13110225f80f9f3709b","session_id":"6196c49e38985e008ceee24e","condition":"full-information","relevant_dimensions":["wings","legs"],"bee_group":{"antennae":"X","wings":"2","pattern":"X","legs":"M"},"bonus":0.9400000000000011},{"rt":1466,"stimulus":"bees-with-color/bee-B2SF.svg","response":0,"trial_type":"image-button-response","trial_index":150,"time_elapsed":396298,"internal_node_id":"0.0-6.0-0.14","subject_id":"60fd5adad03767cff6dddda8","study_id":"60edd13110225f80f9f3709b","session_id":"6196c49e38985e008ceee24e","condition":"full-information","relevant_dimensions":["wings","legs"],"bee_group":{"antennae":"X","wings":"2","pattern":"X","legs":"M"},"bonus":0.9400000000000011},{"rt":7280.800000071526,"stimulus":"bees-with-color/bee-A2DF.svg","response":1,"trial_type":"image-button-response","trial_index":151,"time_elapsed":403580,"internal_node_id":"0.0-6.0-0.15","subject_id":"60fd5adad03767cff6dddda8","study_id":"60edd13110225f80f9f3709b","session_id":"6196c49e38985e008ceee24e","condition":"full-information","relevant_dimensions":["wings","legs"],"bee_group":{"antennae":"X","wings":"2","pattern":"X","legs":"M"},"bonus":0.9400000000000011},{"rt":2040.6999999284744,"stimulus":"bees-with-color/bee-B2DF.svg","response":0,"trial_type":"image-button-response","trial_index":152,"time_elapsed":405623,"internal_node_id":"0.0-6.0-0.16","subject_id":"60fd5adad03767cff6dddda8","study_id":"60edd13110225f80f9f3709b","session_id":"6196c49e38985e008ceee24e","condition":"full-information","relevant_dimensions":["wings","legs"],"bee_group":{"antennae":"X","wings":"2","pattern":"X","legs":"M"},"bonus":0.9400000000000011},{"rt":1118.6999999284744,"stimulus":"bees-with-color/bee-A2SM.svg","response":1,"trial_type":"image-button-response","trial_index":153,"time_elapsed":406743,"internal_node_id":"0.0-6.0-0.17","subject_id":"60fd5adad03767cff6dddda8","study_id":"60edd13110225f80f9f3709b","session_id":"6196c49e38985e008ceee24e","condition":"full-information","relevant_dimensions":["wings","legs"],"bee_group":{"antennae":"X","wings":"2","pattern":"X","legs":"M"},"bonus":0.9400000000000011},{"rt":6696.700000047684,"stimulus":"bees-with-color/bee-A2DF.svg","response":0,"trial_type":"image-button-response","trial_index":154,"time_elapsed":413441,"internal_node_id":"0.0-6.0-0.18","subject_id":"60fd5adad03767cff6dddda8","study_id":"60edd13110225f80f9f3709b","session_id":"6196c49e38985e008ceee24e","condition":"full-information","relevant_dimensions":["wings","legs"],"bee_group":{"antennae":"X","wings":"2","pattern":"X","legs":"M"},"bonus":0.9400000000000011},{"rt":1290.5,"stimulus":"bees-with-color/bee-A1DM.svg","response":1,"trial_type":"image-button-response","trial_index":155,"time_elapsed":414733,"internal_node_id":"0.0-6.0-0.19","subject_id":"60fd5adad03767cff6dddda8","study_id":"60edd13110225f80f9f3709b","session_id":"6196c49e38985e008ceee24e","condition":"full-information","relevant_dimensions":["wings","legs"],"bee_group":{"antennae":"X","wings":"2","pattern":"X","legs":"M"},"bonus":0.9400000000000011},{"rt":1410.7000000476837,"stimulus":"bees-with-color/bee-A2SF.svg","response":0,"trial_type":"image-button-response","trial_index":156,"time_elapsed":416145,"internal_node_id":"0.0-6.0-0.20","subject_id":"60fd5adad03767cff6dddda8","study_id":"60edd13110225f80f9f3709b","session_id":"6196c49e38985e008ceee24e","condition":"full-information","relevant_dimensions":["wings","legs"],"bee_group":{"antennae":"X","wings":"2","pattern":"X","legs":"M"},"bonus":0.9400000000000011},{"rt":1400.7000000476837,"stimulus":"bees-with-color/bee-B1DF.svg","response":0,"trial_type":"image-button-response","trial_index":157,"time_elapsed":417547,"internal_node_id":"0.0-6.0-0.21","subject_id":"60fd5adad03767cff6dddda8","study_id":"60edd13110225f80f9f3709b","session_id":"6196c49e38985e008ceee24e","condition":"full-information","relevant_dimensions":["wings","legs"],"bee_group":{"antennae":"X","wings":"2","pattern":"X","legs":"M"},"bonus":0.9400000000000011},{"rt":1002.7000000476837,"stimulus":"bees-with-color/bee-B2SF.svg","response":0,"trial_type":"image-button-response","trial_index":158,"time_elapsed":418551,"internal_node_id":"0.0-6.0-0.22","subject_id":"60fd5adad03767cff6dddda8","study_id":"60edd13110225f80f9f3709b","session_id":"6196c49e38985e008ceee24e","condition":"full-information","relevant_dimensions":["wings","legs"],"bee_group":{"antennae":"X","wings":"2","pattern":"X","legs":"M"},"