[{"success":true,"trial_type":"fullscreen","trial_index":0,"time_elapsed":2973,"internal_node_id":"0.0-0.0","subject_id":"611fdc56b6ad06b50c2de059","study_id":"6197b3f67c2b5cd3b6d9596a","session_id":"6197b5d7424bd7bec6f2f31b","condition":"contingent","relevant_dimensions":["antennae","legs"],"bee_group":{"antennae":"B","wings":"X","pattern":"X","legs":"M"},"bonus":0.680000000000001},{"success":true,"timeout":false,"failed_images":[],"failed_audio":[],"failed_video":[],"trial_type":"preload","trial_index":1,"time_elapsed":3669,"internal_node_id":"0.0-1.0","subject_id":"611fdc56b6ad06b50c2de059","study_id":"6197b3f67c2b5cd3b6d9596a","session_id":"6197b5d7424bd7bec6f2f31b","condition":"contingent","relevant_dimensions":["antennae","legs"],"bee_group":{"antennae":"B","wings":"X","pattern":"X","legs":"M"},"bonus":0.680000000000001},{"rt":1200,"stimulus":"Welcome! Press any key to begin.","response":" ","trial_type":"html-keyboard-response","trial_index":2,"time_elapsed":4870,"internal_node_id":"0.0-2.0","subject_id":"611fdc56b6ad06b50c2de059","study_id":"6197b3f67c2b5cd3b6d9596a","session_id":"6197b5d7424bd7bec6f2f31b","condition":"contingent","relevant_dimensions":["antennae","legs"],"bee_group":{"antennae":"B","wings":"X","pattern":"X","legs":"M"},"bonus":0.680000000000001},{"view_history":[{"page_index":0,"viewing_time":1293},{"page_index":1,"viewing_time":3877},{"page_index":2,"viewing_time":2284},{"page_index":3,"viewing_time":2751},{"page_index":4,"viewing_time":3969.0000000000036},{"page_index":5,"viewing_time":611.9999999999964},{"page_index":6,"viewing_time":1209},{"page_index":7,"viewing_time":6744},{"page_index":8,"viewing_time":4879},{"page_index":9,"viewing_time":2570},{"page_index":10,"viewing_time":1757},{"page_index":11,"viewing_time":3108},{"page_index":12,"viewing_time":2077},{"page_index":13,"viewing_time":1344},{"page_index":14,"viewing_time":1379.0000000000073}],"rt":39854,"trial_type":"instructions","trial_index":3,"time_elapsed":44729,"internal_node_id":"0.0-3.0-0.0","subject_id":"611fdc56b6ad06b50c2de059","study_id":"6197b3f67c2b5cd3b6d9596a","session_id":"6197b5d7424bd7bec6f2f31b","condition":"contingent","relevant_dimensions":["antennae","legs"],"bee_group":{"antennae":"B","wings":"X","pattern":"X","legs":"M"},"bonus":0.680000000000001},{"rt":12894,"response":{"Q0":["Two or six legs","Stripes or spots on body","Single or double wings","Antennae or no antennae"]},"question_order":[0],"trial_type":"survey-multi-select","trial_index":4,"time_elapsed":57637,"internal_node_id":"0.0-3.0-1.0","subject_id":"611fdc56b6ad06b50c2de059","study_id":"6197b3f67c2b5cd3b6d9596a","session_id":"6197b5d7424bd7bec6f2f31b","condition":"contingent","relevant_dimensions":["antennae","legs"],"bee_group":{"antennae":"B","wings":"X","pattern":"X","legs":"M"},"correct":true,"bonus":0.680000000000001},{"rt":23038,"response":{"Q1":"Yes.","Q2":"Based on the four features of the bee.","Q3":"You learn if it was friendly or dangerous, but do not alter your bonus."},"question_order":[0,1,2],"trial_type":"survey-multi-choice","trial_index":5,"time_elapsed":80679,"internal_node_id":"0.0-3.0-2.0","subject_id":"611fdc56b6ad06b50c2de059","study_id":"6197b3f67c2b5cd3b6d9596a","session_id":"6197b5d7424bd7bec6f2f31b","condition":"contingent","relevant_dimensions":["antennae","legs"],"bee_group":{"antennae":"B","wings":"X","pattern":"X","legs":"M"},"correct":false,"bonus":0.680000000000001},{"rt":693195,"stimulus":"<p>You did not answer all comprehension questions correctly.<br>Press <b>continue</b> to review the instructions again.</p>","response":0,"trial_type":"html-button-response","trial_index":6,"time_elapsed":7710484,"internal_node_id":"0.0-3.0-3.0","subject_id":"611fdc56b6ad06b50c2de059","study_id":"6197b3f67c2b5cd3b6d9596a","session_id":"6197b5d7424bd7bec6f2f31b","condition":"contingent","relevant_dimensions":["antennae","legs"],"bee_group":{"antennae":"B","wings":"X","pattern":"X","legs":"M"},"bonus":0.680000000000001},{"view_history":[{"page_index":0,"viewing_time":4584},{"page_index":1,"viewing_time":3605},{"page_index":2,"viewing_time":12759},{"page_index":3,"viewing_time":20782},{"page_index":4,"viewing_time":6542},{"page_index":5,"viewing_time":6694},{"page_index":6,"viewing_time":9876},{"page_index":7,"viewing_time":2137.0000000001164},{"page_index":8,"viewing_time":900.9999999998836},{"page_index":9,"viewing_time":903},{"page_index":10,"viewing_time":986},{"page_index":11,"viewing_time":8826},{"page_index":12,"viewing_time":6043.000000000116},{"page_index":13,"viewing_time":1378.9999999998836},{"page_index":14,"viewing_time":1615}],"rt":87633.00000000012,"trial_type":"instructions","trial_index":7,"time_elapsed":7798118,"internal_node_id":"0.0-3.0-4.0-0.0","subject_id":"611fdc56b6ad06b50c2de059","study_id":"6197b3f67c2b5cd3b6d9596a","session_id":"6197b5d7424bd7bec6f2f31b","condition":"contingent","relevant_dimensions":["antennae","legs"],"bee_group":{"antennae":"B","wings":"X","pattern":"X","legs":"M"},"bonus":0.680000000000001},{"rt":16054,"response":{"Q0":["Two or six legs","Stripes or spots on body","Single or double wings","Antennae or no antennae"]},"question_order":[0],"trial_type":"survey-multi-select","trial_index":8,"time_elapsed":7814176,"internal_node_id":"0.0-3.0-4.0-1.0","subject_id":"611fdc56b6ad06b50c2de059","study_id":"6197b3f67c2b5cd3b6d9596a","session_id":"6197b5d7424bd7bec6f2f31b","condition":"contingent","relevant_dimensions":["antennae","legs"],"bee_group":{"antennae":"B","wings":"X","pattern":"X","legs":"M"},"correct":true,"bonus":0.680000000000001},{"rt":31093,"response":{"Q1":"No.","Q2":"Based on the four features of the bee.","Q3":"You do not learn if it was friendly or dangerous, and do not alter your bonus."},"question_order":[0,1,2],"trial_type":"survey-multi-choice","trial_index":9,"time_elapsed":7845276,"internal_node_id":"0.0-3.0-4.0-2.0","subject_id":"611fdc56b6ad06b50c2de059","study_id":"6197b3f67c2b5cd3b6d9596a","session_id":"6197b5d7424bd7bec6f2f31b","condition":"contingent","relevant_dimensions":["antennae","legs"],"bee_group":{"antennae":"B","wings":"X","pattern":"X","legs":"M"},"correct":true,"bonus":0.680000000000001},{"rt":2005,"stimulus":"<p>Congrats, you got everything right<br>When you're ready, click the button below to continue to the experiment.</p>","response":0,"trial_type":"html-button-response","trial_index":10,"time_elapsed":7847286,"internal_node_id":"0.0-3.0-4.0-3.0","subject_id":"611fdc56b6ad06b50c2de059","study_id":"6197b3f67c2b5cd3b6d9596a","session_id":"6197b5d7424bd7bec6f2f31b","condition":"contingent","relevant_dimensions":["antennae","legs"],"bee_group":{"antennae":"B","wings":"X","pattern":"X","legs":"M"},"bonus":0.680000000000001},{"rt":3689,"stimulus":"bees-with-color/bee-B2SM.svg","response":0,"trial_type":"image-button-response","trial_index":11,"time_elapsed":7850978,"internal_node_id":"0.0-4.0-0.0","subject_id":"611fdc56b6ad06b50c2de059","study_id":"6197b3f67c2b5cd3b6d9596a","session_id":"6197b5d7424bd7bec6f2f31b","condition":"contingent","relevant_dimensions":["antennae","legs"],"bee_group":{"antennae":"B","wings":"X","pattern":"X","legs":"M"},"action":"harvest","summary":"bad-harvest","bonus":0.680000000000001},{"rt":10819,"stimulus":"\n                    <p><b>Action: <em>harvest</em></b></p>\n                    <p>This is the bee that you just saw.</p>\n                    <img src=\"bees-with-color/bee-B2SM.svg\" width=\"200\">\n                    <p><span class=\"redText\">Bad choice, the bee was angry.</span><br><b>You have been stung!</b><br>Your pay has been decreased by $0.10. Your bonus pay is now $0.44.</p>\n            ","response":0,"trial_type":"html-button-response","trial_index":12,"time_elapsed":7861802,"internal_node_id":"0.0-4.0-1.0","subject_id":"611fdc56b6ad06b50c2de059","study_id":"6197b3f67c2b5cd3b6d9596a","session_id":"6197b5d7424bd7bec6f2f31b","condition":"contingent","relevant_dimensions":["antennae","legs"],"bee_group":{"antennae":"B","wings":"X","pattern":"X","legs":"M"},"bonus":0.680000000000001},{"rt":3944,"stimulus":"bees-with-color/bee-B2DM.svg","response":0,"trial_type":"image-button-response","trial_index":13,"time_elapsed":7865748,"internal_node_id":"0.0-4.0-0.1","subject_id":"611fdc56b6ad06b50c2de059","study_id":"6197b3f67c2b5cd3b6d9596a","session_id":"6197b5d7424bd7bec6f2f31b","condition":"contingent","relevant_dimensions":["antennae","legs"],"bee_group":{"antennae":"B","wings":"X","pattern":"X","legs":"M"},"action":"harvest","summary":"bad-harvest","bonus":0.680000000000001},{"rt":3071,"stimulus":"\n                    <p><b>Action: <em>harvest</em></b></p>\n                    <p>This is the bee that you just saw.</p>\n                    <img src=\"bees-with-color/bee-B2DM.svg\" width=\"200\">\n                    <p><span class=\"redText\">Bad choice, the bee was angry.</span><br><b>You have been stung!</b><br>Your pay has been decreased by $0.10. Your bonus pay is now $0.34.</p>\n            ","response":0,"trial_type":"html-button-response","trial_index":14,"time_elapsed":7868821,"internal_node_id":"0.0-4.0-1.1","subject_id":"611fdc56b6ad06b50c2de059","study_id":"6197b3f67c2b5cd3b6d9596a","session_id":"6197b5d7424bd7bec6f2f31b","condition":"contingent","relevant_dimensions":["antennae","legs"],"bee_group":{"antennae":"B","wings":"X","pattern":"X","legs":"M"},"bonus":0.680000000000001},{"rt":3724.9999999998836,"stimulus":"bees-with-color/bee-A1SF.svg","response":0,"trial_type":"image-button-response","trial_index":15,"time_elapsed":7872548,"internal_node_id":"0.0-4.0-0.2","subject_id":"611fdc56b6ad06b50c2de059","study_id":"6197b3f67c2b5cd3b6d9596a","session_id":"6197b5d7424bd7bec6f2f31b","condition":"contingent","relevant_dimensions":["antennae","legs"],"bee_group":{"antennae":"B","wings":"X","pattern":"X","legs":"M"},"action":"harvest","summary":"good-harvest","bonus":0.680000000000001},{"rt":2131.9999999998836,"stimulus":"\n                    <p><b>Action: <em>harvest</em></b></p>\n                    <p>This is the bee that you just saw.</p>\n                    <img src=\"bees-with-color/bee-A1SF.svg\" width=\"200\">\n                    <p><span class=\"greenText\"><b>Successful harvest!</b></span><br>Your pay has increased by $0.02. Your bonus pay is now $0.36.</p>\n            ","response":0,"trial_type":"html-button-response","trial_index":16,"time_elapsed":7874681,"internal_node_id":"0.0-4.0-1.2","subject_id":"611fdc56b6ad06b50c2de059","study_id":"6197b3f67c2b5cd3b6d9596a","session_id":"6197b5d7424bd7bec6f2f31b","condition":"contingent","relevant_dimensions":["antennae","legs"],"bee_group":{"antennae":"B","wings":"X","pattern":"X","legs":"M"},"bonus":0.680000000000001},{"rt":5385.999999999884,"stimulus":"bees-with-color/bee-A2DF.svg","response":0,"trial_type":"image-button-response","trial_index":17,"time_elapsed":7880069,"internal_node_id":"0.0-4.0-0.3","subject_id":"611fdc56b6ad06b50c2de059","study_id":"6197b3f67c2b5cd3b6d9596a","session_id":"6197b5d7424bd7bec6f2f31b","condition":"contingent","relevant_dimensions":["antennae","legs"],"bee_group":{"antennae":"B","wings":"X","pattern":"X","legs":"M"},"action":"harvest","summary":"good-harvest","bonus":0.680000000000001},{"rt":1425.0000000001164,"stimulus":"\n                    <p><b>Action: <em>harvest</em></b></p>\n                    <p>This is the bee that you just saw.</p>\n                    <img src=\"bees-with-color/bee-A2DF.svg\" width=\"200\">\n                    <p><span class=\"greenText\"><b>Successful harvest!</b></span><br>Your pay has increased by $0.02. Your bonus pay is now $0.38.</p>\n            ","response":0,"trial_type":"html-button-response","trial_index":18,"time_elapsed":7881497,"internal_node_id":"0.0-4.0-1.3","subject_id":"611fdc56b6ad06b50c2de059","study_id":"6197b3f67c2b5cd3b6d9596a","session_id":"6197b5d7424bd7bec6f2f31b","condition":"contingent","relevant_dimensions":["antennae","legs"],"bee_group":{"antennae":"B","wings":"X","pattern":"X","legs":"M"},"bonus":0.680000000000001},{"rt":5313,"stimulus":"bees-with-color/bee-A2SF.svg","response":0,"trial_type":"image-button-response","trial_index":19,"time_elapsed":7886811,"internal_node_id":"0.0-4.0-0.4","subject_id":"611fdc56b6ad06b50c2de059","study_id":"6197b3f67c2b5cd3b6d9596a","session_id":"6197b5d7424bd7bec6f2f31b","condition":"contingent","relevant_dimensions":["antennae","legs"],"bee_group":{"antennae":"B","wings":"X","pattern":"X","legs":"M"},"action":"harvest","summary":"good-harvest","bonus":0.680000000000001},{"rt":1669,"stimulus":"\n                    <p><b>Action: <em>harvest</em></b></p>\n                    <p>This is the bee that you just saw.</p>\n                    <img src=\"bees-with-color/bee-A2SF.svg\" width=\"200\">\n                    <p><span class=\"greenText\"><b>Successful harvest!</b></span><br>Your pay has increased by $0.02. Your bonus pay is now $0.40.</p>\n            ","response":0,"trial_type":"html-button-response","trial_index":20,"time_elapsed":7888481,"internal_node_id":"0.0-4.0-1.4","subject_id":"611fdc56b6ad06b50c2de059","study_id":"6197b3f67c2b5cd3b6d9596a","session_id":"6197b5d7424bd7bec6f2f31b","condition":"contingent","relevant_dimensions":["antennae","legs"],"bee_group":{"antennae":"B","wings":"X","pattern":"X","legs":"M"},"bonus":0.680000000000001},{"rt":3206.0000000001164,"stimulus":"bees-with-color/bee-A1SM.svg","response":1,"trial_type":"image-button-response","trial_index":21,"time_elapsed":7891690,"internal_node_id":"0.0-4.0-0.5","subject_id":"611fdc56b6ad06b50c2de059","study_id":"6197b3f67c2b5cd3b6d9596a","session_id":"6197b5d7424bd7bec6f2f31b","condition":"contingent","relevant_dimensions":["antennae","legs"],"bee_group":{"antennae":"B","wings":"X","pattern":"X","legs":"M"},"action":"avoid","summary":"bad-avoid","bonus":0.680000000000001},{"rt":4113,"stimulus":"\n                    <p><b>Action: <em>avoid</em></b></p>\n                    <p>This is the bee that you just saw.</p>\n                    <img src=\"bees-with-color/bee-A1SM.svg\" width=\"200\">\n                    <p><br>Your bonus pay is unchanged, and remains at $0.40.</p>\n            ","response":0,"trial_type":"html-button-response","trial_index":22,"time_elapsed":7895806,"internal_node_id":"0.0-4.0-1.5","subject_id":"611fdc56b6ad06b50c2de059","study_id":"6197b3f67c2b5cd3b6d9596a","session_id":"6197b5d7424bd7bec6f2f31b","condition":"contingent","relevant_dimensions":["antennae","legs"],"bee_group":{"antennae":"B","wings":"X","pattern":"X","legs":"M"},"bonus":0.680000000000001},{"rt":3966.9999999998836,"stimulus":"bees-with-color/bee-A1DF.svg","response":0,"trial_type":"image-button-response","trial_index":23,"time_elapsed":7899786,"internal_node_id":"0.0-4.0-0.6","subject_id":"611fdc56b6ad06b50c2de059","study_id":"6197b3f67c2b5cd3b6d9596a","session_id":"6197b5d7424bd7bec6f2f31b","condition":"contingent","relevant_dimensions":["antennae","legs"],"bee_group":{"antennae":"B","wings":"X","pattern":"X","legs":"M"},"action":"harvest","summary":"good-harvest","bonus":0.680000000000001},{"rt":1469,"stimulus":"\n                    <p><b>Action: <em>harvest</em></b></p>\n                    <p>This is the bee that you just saw.</p>\n                    <img src=\"bees-with-color/bee-A1DF.svg\" width=\"200\">\n                    <p><span class=\"greenText\"><b>Successful harvest!</b></span><br>Your pay has increased by $0.02. Your bonus pay is now $0.42.</p>\n            ","response":0,"trial_type":"html-button-response","trial_index":24,"time_elapsed":7901257,"internal_node_id":"0.0-4.0-1.6","subject_id":"611fdc56b6ad06b50c2de059","study_id":"6197b3f67c2b5cd3b6d9596a","session_id":"6197b5d7424bd7bec6f2f31b","condition":"contingent","relevant_dimensions":["antennae","legs"],"bee_group":{"antennae":"B","wings":"X","pattern":"X","legs":"M"},"bonus":0.680000000000001},{"rt":2242,"stimulus":"bees-with-color/bee-B2DF.svg","response":1,"trial_type":"image-button-response","trial_index":25,"time_elapsed":7903501,"internal_node_id":"0.0-4.0-0.7","subject_id":"611fdc56b6ad06b50c2de059","study_id":"6197b3f67c2b5cd3b6d9596a","session_id":"6197b5d7424bd7bec6f2f31b","condition":"contingent","relevant_dimensions":["antennae","legs"],"bee_group":{"antennae":"B","wings":"X","pattern":"X","legs":"M"},"action":"avoid","summary":"bad-avoid","bonus":0.680000000000001},{"rt":2230,"stimulus":"\n                    <p><b>Action: <em>avoid</em></b></p>\n                    <p>This is the bee that you just saw.</p>\n                    <img src=\"bees-with-color/bee-B2DF.svg\" width=\"200\">\n                    <p><br>Your bonus pay is unchanged, and remains at $0.42.</p>\n            ","response":0,"trial_type":"html-button-response","trial_index":26,"time_elapsed":7905733,"internal_node_id":"0.0-4.0-1.7","subject_id":"611fdc56b6ad06b50c2de059","study_id":"6197b3f67c2b5cd3b6d9596a","session_id":"6197b5d7424bd7bec6f2f31b","condition":"contingent","relevant_dimensions":["antennae","legs"],"bee_group":{"antennae":"B","wings":"X","pattern":"X","legs":"M"},"bonus":0.680000000000001},{"rt":2418,"stimulus":"bees-with-color/bee-A2SM.svg","response":0,"trial_type":"image-button-response","trial_index":27,"time_elapsed":7908153,"internal_node_id":"0.0-4.0-0.8","subject_id":"611fdc56b6ad06b50c2de059","study_id":"6197b3f67c2b5cd3b6d9596a","session_id":"6197b5d7424bd7bec6f2f31b","condition":"contingent","relevant_dimensions":["antennae","legs"],"bee_group":{"antennae":"B","wings":"X","pattern":"X","legs":"M"},"action":"harvest","summary":"good-harvest","bonus":0.680000000000001},{"rt":1891.0000000001164,"stimulus":"\n                    <p><b>Action: <em>harvest</em></b></p>\n                    <p>This is the bee that you just saw.</p>\n                    <img src=\"bees-with-color/bee-A2SM.svg\" width=\"200\">\n                    <p><span class=\"greenText\"><b>Successful harvest!</b></span><br>Your pay has increased by $0.02. Your bonus pay is now $0.44.</p>\n            ","response":0,"trial_type":"html-button-response","trial_index":28,"time_elapsed":7910045,"internal_node_id":"0.0-4.0-1.8","subject_id":"611fdc56b6ad06b50c2de059","study_id":"6197b3f67c2b5cd3b6d9596a","session_id":"6197b5d7424bd7bec6f2f31b","condition":"contingent","relevant_dimensions":["antennae","legs"],"bee_group":{"antennae":"B","wings":"X","pattern":"X","legs":"M"},"bonus":0.680000000000001},{"rt":2481,"stimulus":"bees-with-color/bee-B1DM.svg","response":1,"trial_type":"image-button-response","trial_index":29,"time_elapsed":7912527,"internal_node_id":"0.0-4.0-0.9","subject_id":"611fdc56b6ad06b50c2de059","study_id":"6197b3f67c2b5cd3b6d9596a","session_id":"6197b5d7424bd7bec6f2f31b","condition":"contingent","relevant_dimensions":["antennae","legs"],"bee_group":{"antennae":"B","wings":"X","pattern":"X","legs":"M"},"action":"avoid","summary":"good-avoid","bonus":0.680000000000001},{"rt":1380,"stimulus":"\n                    <p><b>Action: <em>avoid</em></b></p>\n                    <p>This is the bee that you just saw.</p>\n                    <img src=\"bees-with-color/bee-B1DM.svg\" width=\"200\">\n                    <p><br>Your bonus pay is unchanged, and remains at $0.44.</p>\n            ","response":0,"trial_type":"html-button-response","trial_index":30,"time_elapsed":7913909,"internal_node_id":"0.0-4.0-1.9","subject_id":"611fdc56b6ad06b50c2de059","study_id":"6197b3f67c2b5cd3b6d9596a","session_id":"6197b5d7424bd7bec6f2f31b","condition":"contingent","relevant_dimensions":["antennae","legs"],"bee_group":{"antennae":"B","wings":"X","pattern":"X","legs":"M"},"bonus":0.680000000000001},{"rt":3102,"stimulus":"bees-with-color/bee-B1DF.svg","response":0,"trial_type":"image-button-response","trial_index":31,"time_elapsed":7917013,"internal_node_id":"0.0-4.0-0.10","subject_id":"611fdc56b6ad06b50c2de059","study_id":"6197b3f67c2b5cd3b6d9596a","session_id":"6197b5d7424bd7bec6f2f31b","condition":"contingent","relevant_dimensions":["antennae","legs"],"bee_group":{"antennae":"B","wings":"X","pattern":"X","legs":"M"},"action":"harvest","summary":"good-harvest","bonus":0.680000000000001},{"rt":1762,"stimulus":"\n                    <p><b>Action: <em>harvest</em></b></p>\n                    <p>This is the bee that you just saw.</p>\n                    <img src=\"bees-with-color/bee-B1DF.svg\" width=\"200\">\n                    <p><span class=\"greenText\"><b>Successful harvest!</b></span><br>Your pay has increased by $0.02. Your bonus pay is now $0.46.</p>\n            ","response":0,"trial_type":"html-button-response","trial_index":32,"time_elapsed":7918777,"internal_node_id":"0.0-4.0-1.10","subject_id":"611fdc56b6ad06b50c2de059","study_id":"6197b3f67c2b5cd3b6d9596a","session_id":"6197b5d7424bd7bec6f2f31b","condition":"contingent","relevant_dimensions":["antennae","legs"],"bee_group":{"antennae":"B","wings":"X","pattern":"X","legs":"M"},"bonus":0.680000000000001},{"rt":4165,"stimulus":"bees-with-color/bee-A2DM.svg","response":0,"trial_type":"image-button-response","trial_index":33,"time_elapsed":7922944,"internal_node_id":"0.0-4.0-0.11","subject_id":"611fdc56b6ad06b50c2de059","study_id":"6197b3f67c2b5cd3b6d9596a","session_id":"6197b5d7424bd7bec6f2f31b","condition":"contingent","relevant_dimensions":["antennae","legs"],"bee_group":{"antennae":"B","wings":"X","pattern":"X","legs":"M"},"action":"harvest","summary":"good-harvest","bonus":0.680000000000001},{"rt":1559,"stimulus":"\n                    <p><b>Action: <em>harvest</em></b></p>\n                    <p>This is the bee that you just saw.</p>\n                    <img src=\"bees-with-color/bee-A2DM.svg\" width=\"200\">\n                    <p><span class=\"greenText\"><b>Successful harvest!</b></span><br>Your pay has increased by $0.02. Your bonus pay is now $0.48.</p>\n            ","response":0,"trial_type":"html-button-response","trial_index":34,"time_elapsed":7924504,"internal_node_id":"0.0-4.0-1.11","subject_id":"611fdc56b6ad06b50c2de059","study_id":"6197b3f67c2b5cd3b6d9596a","session_id":"6197b5d7424bd7bec6f2f31b","condition":"contingent","relevant_dimensions":["antennae","legs"],"bee_group":{"antennae":"B","wings":"X","pattern":"X","legs":"M"},"bonus":0.680000000000001},{"rt":5230,"stimulus":"bees-with-color/bee-B1SM.svg","response":0,"trial_type":"image-button-response","trial_index":35,"time_elapsed":7929737,"internal_node_id":"0.0-4.0-0.12","subject_id":"611fdc56b6ad06b50c2de059","study_id":"6197b3f67c2b5cd3b6d9596a","session_id":"6197b5d7424bd7bec6f2f31b","condition":"contingent","relevant_dimensions":["antennae","legs"],"bee_group":{"antennae":"B","wings":"X","pattern":"X","legs":"M"},"action":"harvest","summary":"bad-harvest","bonus":0.680000000000001},{"rt":3989.0000000001164,"stimulus":"\n                    <p><b>Action: <em>harvest</em></b></p>\n                    <p>This is the bee that you just saw.</p>\n                    <img src=\"bees-with-color/bee-B1SM.svg\" width=\"200\">\n                    <p><span class=\"redText\">Bad choice, the bee was angry.</span><br><b>You have been stung!</b><br>Your pay has been decreased by $0.10. Your bonus pay is now $0.38.</p>\n            ","response":0,"trial_type":"html-button-response","trial_index":36,"time_elapsed":7933729,"internal_node_id":"0.0-4.0-1.12","subject_id":"611fdc56b6ad06b50c2de059","study_id":"6197b3f67c2b5cd3b6d9596a","session_id":"6197b5d7424bd7bec6f2f31b","condition":"contingent","relevant_dimensions":["antennae","legs"],"bee_group":{"antennae":"B","wings":"X","pattern":"X","legs":"M"},"bonus":0.680000000000001},{"rt":2010,"stimulus":"bees-with-color/bee-A1DM.svg","response":0,"trial_type":"image-button-response","trial_index":37,"time_elapsed":7935740,"internal_node_id":"0.0-4.0-0.13","subject_id":"611fdc56b6ad06b50c2de059","study_id":"6197b3f67c2b5cd3b6d9596a","session_id":"6197b5d7424bd7bec6f2f31b","condition":"contingent","relevant_dimensions":["antennae","legs"],"bee_group":{"antennae":"B","wings":"X","pattern":"X","legs":"M"},"action":"harvest","summary":"good-harvest","bonus":0.680000000000001},{"rt":1616,"stimulus":"\n                    <p><b>Action: <em>harvest</em></b></p>\n                    <p>This is the bee that you just saw.</p>\n                    <img src=\"bees-with-color/bee-A1DM.svg\" width=\"200\">\n                    <p><span class=\"greenText\"><b>Successful harvest!</b></span><br>Your pay has increased by $0.02. Your bonus pay is now $0.40.</p>\n            ","response":0,"trial_type":"html-button-response","trial_index":38,"time_elapsed":7937357,"internal_node_id":"0.0-4.0-1.13","subject_id":"611fdc56b6ad06b50c2de059","study_id":"6197b3f67c2b5cd3b6d9596a","session_id":"6197b5d7424bd7bec6f2f31b","condition":"contingent","relevant_dimensions":["antennae","legs"],"bee_group":{"antennae":"B","wings":"X","pattern":"X","legs":"M"},"bonus":0.680000000000001},{"rt":2536,"stimulus":"bees-with-color/bee-B2SF.svg","response":1,"trial_type":"image-button-response","trial_index":39,"time_elapsed":7939895,"internal_node_id":"0.0-4.0-0.14","subject_id":"611fdc56b6ad06b50c2de059","study_id":"6197b3f67c2b5cd3b6d9596a","session_id":"6197b5d7424bd7bec6f2f31b","condition":"contingent","relevant_dimensions":["antennae","legs"],"bee_group":{"antennae":"B","wings":"X","pattern":"X","legs":"M"},"action":"avoid","summary":"bad-avoid","bonus":0.680000000000001},{"rt":1057.9999999998836,"stimulus":"\n                    <p><b>Action: <em>avoid</em></b></p>\n                    <p>This is the bee that you just saw.</p>\n                    <img src=\"bees-with-color/bee-B2SF.svg\" width=\"200\">\n                    <p><br>Your bonus pay is unchanged, and remains at $0.40.</p>\n            ","response":0,"trial_type":"html-button-response","trial_index":40,"time_elapsed":7940955,"internal_node_id":"0.0-4.0-1.14","subject_id":"611fdc56b6ad06b50c2de059","study_id":"6197b3f67c2b5cd3b6d9596a","session_id":"6197b5d7424bd7bec6f2f31b","condition":"contingent","relevant_dimensions":["antennae","legs"],"bee_group":{"antennae":"B","wings":"X","pattern":"X","legs":"M"},"bonus":0.680000000000001},{"rt":3004,"stimulus":"bees-with-color/bee-B1SF.svg","response":1,"trial_type":"image-button-response","trial_index":41,"time_elapsed":7943962,"internal_node_id":"0.0-4.0-0.15","subject_id":"611fdc56b6ad06b50c2de059","study_id":"6197b3f67c2b5cd3b6d9596a","session_id":"6197b5d7424bd7bec6f2f31b","condition":"contingent","relevant_dimensions":["antennae","legs"],"bee_group":{"antennae":"B","wings":"X","pattern":"X","legs":"M"},"action":"avoid","summary":"bad-avoid","bonus":0.680000000000001},{"rt":973,"stimulus":"\n                    <p><b>Action: <em>avoid</em></b></p>\n                    <p>This is the bee that you just saw.</p>\n                    <img src=\"bees-with-color/bee-B1SF.svg\" width=\"200\">\n                    <p><br>Your bonus pay is unchanged, and remains at $0.40.</p>\n            ","response":0,"trial_type":"html-button-response","trial_index":42,"time_elapsed":7944938,"internal_node_id":"0.0-4.0-1.15","subject_id":"611fdc56b6ad06b50c2de059","study_id":"6197b3f67c2b5cd3b6d9596a","session_id":"6197b5d7424bd7bec6f2f31b","condition":"contingent","relevant_dimensions":["antennae","legs"],"bee_group":{"antennae":"B","wings":"X","pattern":"X","legs":"M"},"bonus":0.680000000000001},{"rt":3005.9999999998836,"stimulus":"bees-with-color/bee-B2DM.svg","response":0,"trial_type":"image-button-response","trial_index":43,"time_elapsed":7947946,"internal_node_id":"0.0-4.0-0.16","subject_id":"611fdc56b6ad06b50c2de059","study_id":"6197b3f67c2b5cd3b6d9596a","session_id":"6197b5d7424bd7bec6f2f31b","condition":"contingent","relevant_dimensions":["antennae","legs"],"bee_group":{"antennae":"B","wings":"X","pattern":"X","legs":"M"},"action":"harvest","summary":"bad-harvest","bonus":0.680000000000001},{"rt":1310,"stimulus":"\n                    <p><b>Action: <em>harvest</em></b></p>\n                    <p>This is the bee that you just saw.</p>\n                    <img src=\"bees-with-color/bee-B2DM.svg\" width=\"200\">\n                    <p><span class=\"redText\">Bad choice, the bee was angry.</span><br><b>You have been stung!</b><br>Your pay has been decreased by $0.10. Your bonus pay is now $0.30.</p>\n            ","response":0,"trial_type":"html-button-response","trial_index":44,"time_elapsed":7949258,"internal_node_id":"0.0-4.0-1.16","subject_id":"611fdc56b6ad06b50c2de059","study_id":"6197b3f67c2b5cd3b6d9596a","session_id":"6197b5d7424bd7bec6f2f31b","condition":"contingent","relevant_dimensions":["antennae","legs"],"bee_group":{"antennae":"B","wings":"X","pattern":"X","legs":"M"},"bonus":0.680000000000001},{"rt":2666.9999999998836,"stimulus":"bees-with-color/bee-A1SM.svg","response":0,"trial_type":"image-button-response","trial_index":45,"time_elapsed":7951929,"internal_node_id":"0.0-4.0-0.17","subject_id":"611fdc56b6ad06b50c2de059","study_id":"6197b3f67c2b5cd3b6d9596a","session_id":"6197b5d7424bd7bec6f2f31b","condition":"contingent","relevant_dimensions":["antennae","legs"],"bee_group":{"antennae":"B","wings":"X","pattern":"X","legs":"M"},"action":"harvest","summary":"good-harvest","bonus":0.680000000000001},{"rt":1271,"stimulus":"\n                    <p><b>Action: <em>harvest</em></b></p>\n                    <p>This is the bee that you just saw.</p>\n                    <img src=\"bees-with-color/bee-A1SM.svg\" width=\"200\">\n                    <p><span class=\"greenText\"><b>Successful harvest!</b></span><br>Your pay has increased by $0.02. Your bonus pay is now $0.32.</p>\n            ","response":0,"trial_type":"html-button-response","trial_index":46,"time_elapsed":7953201,"internal_node_id":"0.0-4.0-1.17","subject_id":"611fdc56b6ad06b50c2de059","study_id":"6197b3f67c2b5cd3b6d9596a","session_id":"6197b5d7424bd7bec6f2f31b","condition":"contingent","relevant_dimensions":["antennae","legs"],"bee_group":{"antennae":"B","wings":"X","pattern":"X","legs":"M"},"bonus":0.680000000000001},{"rt":3829,"stimulus":"bees-with-color/bee-B1SF.svg","response":0,"trial_type":"image-button-response","trial_index":47,"time_elapsed":7957031,"internal_node_id":"0.0-4.0-0.18","subject_id":"611fdc56b6ad06b50c2de059","study_id":"6197b3f67c2b5cd3b6d9596a","session_id":"6197b5d7424bd7bec6f2f31b","condition":"contingent","relevant_dimensions":["antennae","legs"],"bee_group":{"antennae":"B","wings":"X","pattern":"X","legs":"M"},"action":"harvest","summary":"good-harvest","bonus":0.680000000000001},{"rt":1080,"stimulus":"\n                    <p><b>Action: <em>harvest</em></b></p>\n                    <p>This is the bee that you just saw.</p>\n                    <img src=\"bees-with-color/bee-B1SF.svg\" width=\"200\">\n                    <p><span class=\"greenText\"><b>Successful harvest!</b></span><br>Your pay has increased by $0.02. Your bonus pay is now $0.34.</p>\n            ","response":0,"trial_type":"html-button-response","trial_index":48,"time_elapsed":7958112,"internal_node_id":"0.0-4.0-1.18","subject_id":"611fdc56b6ad06b50c2de059","study_id":"6197b3f67c2b5cd3b6d9596a","session_id":"6197b5d7424bd7bec6f2f31b","condition":"contingent","relevant_dimensions":["antennae","legs"],"bee_group":{"antennae":"B","wings":"X","pattern":"X","legs":"M"},"bonus":0.680000000000001},{"rt":2848.0000000001164,"stimulus":"bees-with-color/bee-A2DF.svg","response":0,"trial_type":"image-button-response","trial_index":49,"time_elapsed":7960962,"internal_node_id":"0.0-4.0-0.19","subject_id":"611fdc56b6ad06b50c2de059","study_id":"6197b3f67c2b5cd3b6d9596a","session_id":"6197b5d7424bd7bec6f2f31b","condition":"contingent","relevant_dimensions":["antennae","legs"],"bee_group":{"antennae":"B","wings":"X","pattern":"X","legs":"M"},"action":"harvest","summary":"good-harvest","bonus":0.680000000000001},{"rt":1575,"stimulus":"\n                    <p><b>Action: <em>harvest</em></b></p>\n                    <p>This is the bee that you just saw.</p>\n                    <img src=\"bees-with-color/bee-A2DF.svg\" width=\"200\">\n                    <p><span class=\"greenText\"><b>Successful harvest!</b></span><br>Your pay has increased by $0.02. Your bonus pay is now $0.36.</p>\n            ","response":0,"trial_type":"html-button-response","trial_index":50,"time_elapsed":7962540,"internal_node_id":"0.0-4.0-1.19","subject_id":"611fdc56b6ad06b50c2de059","study_id":"6197b3f67c2b5cd3b6d9596a","session_id":"6197b5d7424bd7bec6f2f31b","condition":"contingent","relevant_dimensions":["antennae","legs"],"bee_group":{"antennae":"B","wings":"X","pattern":"X","legs":"M"},"bonus":0.680000000000001},{"rt":2610.9999999998836,"stimulus":"bees-with-color/bee-A2DM.svg","response":0,"trial_type":"image-button-response","trial_index":51,"time_elapsed":7965152,"internal_node_id":"0.0-4.0-0.20","subject_id":"611fdc56b6ad06b50c2de059","study_id":"6197b3f67c2b5cd3b6d9596a","session_id":"6197b5d7424bd7bec6f2f31b","condition":"contingent","relevant_dimensions":["antennae","legs"],"bee_group":{"antennae":"B","wings":"X","pattern":"X","legs":"M"},"action":"harvest","summary":"good-harvest","bonus":0.680000000000001},{"rt":1159.0000000001164,"stimulus":"\n                    <p><b>Action: <em>harvest</em></b></p>\n                    <p>This is the bee that you just saw.</p>\n                    <img src=\"bees-with-color/bee-A2DM.svg\" width=\"200\">\n                    <p><span class=\"greenText\"><b>Successful harvest!</b></span><br>Your pay has increased by $0.02. Your bonus pay is now $0.38.</p>\n            ","response":0,"trial_type":"html-button-response","trial_index":52,"time_elapsed":7966313,"internal_node_id":"0.0-4.0-1.20","subject_id":"611fdc56b6ad06b50c2de059","study_id":"6197b3f67c2b5cd3b6d9596a","session_id":"6197b5d7424bd7bec6f2f31b","condition":"contingent","relevant_dimensions":["antennae","legs"],"bee_group":{"antennae":"B","wings":"X","pattern":"X","legs":"M"},"bonus":0.680000000000001},{"rt":4405,"stimulus":"bees-with-color/bee-A2SM.svg","response":0,"trial_type":"image-button-response","trial_index":53,"time_elapsed":7970720,"internal_node_id":"0.0-4.0-0.21","subject_id":"611fdc56b6ad06b50c2de059","study_id":"6197b3f67c2b5cd3b6d9596a","session_id":"6197b5d7424bd7bec6f2f31b","condition":"contingent","relevant_dimensions":["antennae","legs"],"bee_group":{"antennae":"B","wings":"X","pattern":"X","legs":"M"},"action":"harvest","summary":"good-harvest","bonus":0.680000000000001},{"rt":1411.9999999998836,"stimulus":"\n                    <p><b>Action: <em>harvest</em></b></p>\n                    <p>This is the bee that you just saw.</p>\n                    <img src=\"bees-with-color/bee-A2SM.svg\" width=\"200\">\n                    <p><span class=\"greenText\"><b>Successful harvest!</b></span><br>Your pay has increased by $0.02. Your bonus pay is now $0.40.</p>\n            ","response":0,"trial_type":"html-button-response","trial_index":54,"time_elapsed":7972133,"internal_node_id":"0.0-4.0-1.21","subject_id":"611fdc56b6ad06b50c2de059","study_id":"6197b3f67c2b5cd3b6d9596a","session_id":"6197b5d7424bd7bec6f2f31b","condition":"contingent","relevant_dimensions":["antennae","legs"],"bee_group":{"antennae":"B","wings":"X","pattern":"X","legs":"M"},"bonus":0.680000000000001},{"rt":5077,"stimulus":"bees-with-color/bee-A1DM.svg","response":1,"trial_type":"image-button-response","trial_index":55,"time_elapsed":7977213,"internal_node_id":"0.0-4.0-0.22","subject_id":"611fdc56b6ad06b50c2de059","study_id":"6197b3f67c2b5cd3b6d9596a","session_id":"6197b5d7424bd7bec6f2f31b","condition":"contingent","relevant_dimensions":["antennae","legs"],"bee_group":{"antennae":"B","wings":"X","pattern":"X","legs":"M"},"action":"avoid","summary":"bad-avoid","bonus":0.680000000000001},{"rt":1225.9999999998836,"stimulus":"\n                    <p><b>Action: <em>avoid</em></b></p>\n                    <p>This is the bee that you just saw.</p>\n                    <img src=\"bees-with-color/bee-A1DM.svg\" width=\"200\">\n                    <p><br>Your bonus pay is unchanged, and remains at $0.40.</p>\n            ","response":0,"trial_type":"html-button-response","trial_index":56,"time_elapsed":7978441,"internal_node_id":"0.0-4.0-1.22","subject_id":"611fdc56b6ad06b50c2de059","study_id":"6197b3f67c2b5cd3b6d9596a","session_id":"6197b5d7424bd7bec6f2f31b","condition":"contingent","relevant_dimensions":["antennae","legs"],"bee_group":{"antennae":"B","wings":"X","pattern":"X","legs":"M"},"bonus":0.680000000000001},{"rt":2730.0000000001164,"stimulus":"bees-with-color/bee-B1DM.svg","response":1,"trial_type":"image-button-response","trial_index":57,"time_elapsed":7981172,"internal_node_id":"0.0-4.0-0.23","subject_id":"611fdc56b6ad06b50c2de059","study_id":"6197b3f67c2b5cd3b6d9596a","session_id":"6197b5d7424bd7bec6f2f31b","condition":"contingent","relevant_dimensions":["antennae","legs"],"bee_group":{"antennae":"B","wings":"X","pattern":"X","legs":"M"},"action":"avoid","summary":"good-avoid","bonus":0.680000000000001},{"rt":1209.0000000001164,"stimulus":"\n                    <p><b>Action: <em>avoid</em></b></p>\n                    <p>This is the bee that you just saw.</p>\n                    <img src=\"bees-with-color/bee-B1DM.svg\" width=\"200\">\n                    <p><br>Your bonus pay is unchanged, and remains at $0.40.</p>\n            ","response":0,"trial_type":"html-button-response","trial_index":58,"time_elapsed":7982382,"internal_node_id":"0.0-4.0-1.23","subject_id":"611fdc56b6ad06b50c2de059","study_id":"6197b3f67c2b5cd3b6d9596a","session_id":"6197b5d7424bd7bec6f2f31b","condition":"contingent","relevant_dimensions":["antennae","legs"],"bee_group":{"antennae":"B","wings":"X","pattern":"X","legs":"M"},"bonus":0.680000000000001},{"rt":1863,"stimulus":"bees-with-color/bee-B2SF.svg","response":0,"trial_type":"image-button-response","trial_index":59,"time_elapsed":7984247,"internal_node_id":"0.0-4.0-0.24","subject_id":"611fdc56b6ad06b50c2de059","study_id":"6197b3f67c2b5cd3b6d9596a","session_id":"6197b5d7424bd7bec6f2f31b","condition":"contingent","relevant_dimensions":["antennae","legs"],"bee_group":{"antennae":"B","wings":"X","pattern":"X","legs":"M"},"action":"harvest","summary":"good-harvest","bonus":0.680000000000001},{"rt":1074,"stimulus":"\n                    <p><b>Action: <em>harvest</em></b></p>\n                    <p>This is the bee that you just saw.</p>\n                    <img src=\"bees-with-color/bee-B2SF.svg\" width=\"200\">\n                    <p><span class=\"greenText\"><b>Successful harvest!</b></span><br>Your pay has increased by $0.02. Your bonus pay is now $0.42.</p>\n            ","response":0,"trial_type":"html-button-response","trial_index":60,"time_elapsed":7985322,"internal_node_id":"0.0-4.0-1.24","subject_id":"611fdc56b6ad06b50c2de059","study_id":"6197b3f67c2b5cd3b6d9596a","session_id":"6197b5d7424bd7bec6f2f31b","condition":"contingent","relevant_dimensions":["antennae","legs"],"bee_group":{"antennae":"B","wings":"X","pattern":"X","legs":"M"},"bonus":0.680000000000001},{"rt":1289,"stimulus":"bees-with-color/bee-A1SF.svg","response":1,"trial_type":"image-button-response","trial_index":61,"time_elapsed":7986614,"internal_node_id":"0.0-4.0-0.25","subject_id":"611fdc56b6ad06b50c2de059","study_id":"6197b3f67c2b5cd3b6d9596a","session_id":"6197b5d7424bd7bec6f2f31b","condition":"contingent","relevant_dimensions":["antennae","legs"],"bee_group":{"antennae":"B","wings":"X","pattern":"X","legs":"M"},"action":"avoid","summary":"bad-avoid","bonus":0.680000000000001},{"rt":1010,"stimulus":"\n                    <p><b>Action: <em>avoid</em></b></p>\n                    <p>This is the bee that you just saw.</p>\n                    <img src=\"bees-with-color/bee-A1SF.svg\" width=\"200\">\n                    <p><br>Your bonus pay is unchanged, and remains at $0.42.</p>\n            ","response":0,"trial_type":"html-button-response","trial_index":62,"time_elapsed":7987625,"internal_node_id":"0.0-4.0-1.25","subject_id":"611fdc56b6ad06b50c2de059","study_id":"6197b3f67c2b5cd3b6d9596a","session_id":"6197b5d7424bd7bec6f2f31b","condition":"contingent","relevant_dimensions":["antennae","legs"],"bee_group":{"antennae":"B","wings":"X","pattern":"X","legs":"M"},"bonus":0.680000000000001},{"rt":1153.0000000002328,"stimulus":"bees-with-color/bee-A2SF.svg","response":0,"trial_type":"image-button-response","trial_index":63,"time_elapsed":7988780,"internal_node_id":"0.0-4.0-0.26","subject_id":"611fdc56b6ad06b50c2de059","study_id":"6197b3f67c2b5cd3b6d9596a","session_id":"6197b5d7424bd7bec6f2f31b","condition":"contingent","relevant_dimensions":["antennae","legs"],"bee_group":{"antennae":"B","wings":"X","pattern":"X","legs":"M"},"action":"harvest","summary":"good-harvest","bonus":0.680000000000001},{"rt":1405,"stimulus":"\n                    <p><b>Action: <em>harvest</em></b></p>\n                    <p>This is the bee that you just saw.</p>\n                    <img src=\"bees-with-color/bee-A2SF.svg\" width=\"200\">\n                    <p><span class=\"greenText\"><b>Successful harvest!</b></span><br>Your pay has increased by $0.02. Your bonus pay is now $0.44.</p>\n            ","response":0,"trial_type":"html-button-response","trial_index":64,"time_elapsed":7990187,"internal_node_id":"0.0-4.0-1.26","subject_id":"611fdc56b6ad06b50c2de059","study_id":"6197b3f67c2b5cd3b6d9596a","session_id":"6197b5d7424bd7bec6f2f31b","condition":"contingent","relevant_dimensions":["antennae","legs"],"bee_group":{"antennae":"B","wings":"X","pattern":"X","legs":"M"},"bonus":0.680000000000001},{"rt":1211,"stimulus":"bees-with-color/bee-B2DF.svg","response":0,"trial_type":"image-button-response","trial_index":65,"time_elapsed":7991399,"internal_node_id":"0.0-4.0-0.27","subject_id":"611fdc56b6ad06b50c2de059","study_id":"6197b3f67c2b5cd3b6d9596a","session_id":"6197b5d7424bd7bec6f2f31b","condition":"contingent","relevant_dimensions":["antennae","legs"],"bee_group":{"antennae":"B","wings":"X","pattern":"X","legs":"M"},"action":"harvest","summary":"good-harvest","bonus":0.680000000000001},{"rt":1071.0000000002328,"stimulus":"\n                    <p><b>Action: <em>harvest</em></b></p>\n                    <p>This is the bee that you just saw.</p>\n                    <img src=\"bees-with-color/bee-B2DF.svg\" width=\"200\">\n                    <p><span class=\"greenText\"><b>Successful harvest!</b></span><br>Your pay has increased by $0.02. Your bonus pay is now $0.46.</p>\n            ","response":0,"trial_type":"html-button-response","trial_index":66,"time_elapsed":7992472,"internal_node_id":"0.0-4.0-1.27","subject_id":"611fdc56b6ad06b50c2de059","study_id":"6197b3f67c2b5cd3b6d9596a","session_id":"6197b5d7424bd7bec6f2f31b","condition":"contingent","relevant_dimensions":["antennae","legs"],"bee_group":{"antennae":"B","wings":"X","pattern":"X","legs":"M"},"bonus":0.680000000000001},{"rt":1038,"stimulus":"bees-with-color/bee-A1DF.svg","response":1,"trial_type":"image-button-response","trial_index":67,"time_elapsed":7993513,"internal_node_id":"0.0-4.0-0.28","subject_id":"611fdc56b6ad06b50c2de059","study_id":"6197b3f67c2b5cd3b6d9596a","session_id":"6197b5d7424bd7bec6f2f31b","condition":"contingent","relevant_dimensions":["antennae","legs"],"bee_group":{"antennae":"B","wings":"X","pattern":"X","legs":"M"},"action":"avoid","summary":"bad-avoid","bonus":0.680000000000001},{"rt":964,"stimulus":"\n                    <p><b>Action: <em>avoid</em></b></p>\n                    <p>This is the bee that you just saw.</p>\n                    <img src=\"bees-with-color/bee-A1DF.svg\" width=\"200\">\n                    <p><br>Your bonus pay is unchanged, and remains at $0.46.</p>\n            ","response":0,"trial_type":"html-button-response","trial_index":68,"time_elapsed":7994480,"internal_node_id":"0.0-4.0-1.28","subject_id":"611fdc56b6ad06b50c2de059","study_id":"6197b3f67c2b5cd3b6d9596a","session_id":"6197b5d7424bd7bec6f2f31b","condition":"contingent","relevant_dimensions":["antennae","legs"],"bee_group":{"antennae":"B","wings":"X","pattern":"X","legs":"M"},"bonus":0.680000000000001},{"rt":989,"stimulus":"bees-with-color/bee-B1DF.svg","response":1,"trial_type":"image-button-response","trial_index":69,"time_elapsed":7995473,"internal_node_id":"0.0-4.0-0.29","subject_id":"611fdc56b6ad06b50c2de059","study_id":"6197b3f67c2b5cd3b6d9596a","session_id":"6197b5d7424bd7bec6f2f31b","condition":"contingent","relevant_dimensions":["antennae","legs"],"bee_group":{"antennae":"B","wings":"X","pattern":"X","legs":"M"},"action":"avoid","summary":"bad-avoid","bonus":0.680000000000001},{"rt":799,"stimulus":"\n                    <p><b>Action: <em>avoid</em></b></p>\n                    <p>This is the bee that you just saw.</p>\n                    <img src=\"bees-with-color/bee-B1DF.svg\" width=\"200\">\n                    <p><br>Your bonus pay is unchanged, and remains at $0.46.</p>\n            ","response":0,"trial_type":"html-button-response","trial_index":70,"time_elapsed":7996274,"internal_node_id":"0.0-4.0-1.29","subject_id":"611fdc56b6ad06b50c2de059","study_id":"6197b3f67c2b5cd3b6d9596a","session_id":"6197b5d7424bd7bec6f2f31b","condition":"contingent","relevant_dimensions":["antennae","legs"],"bee_group":{"antennae":"B","wings":"X","pattern":"X","legs":"M"},"bonus":0.680000000000001},{"rt":1052,"stimulus":"bees-with-color/bee-B1SM.svg","response":1,"trial_type":"image-button-response","trial_index":71,"time_elapsed":7997326,"internal_node_id":"0.0-4.0-0.30","subject_id":"611fdc56b6ad06b50c2de059","study_id":"6197b3f67c2b5cd3b6d9596a","session_id":"6197b5d7424bd7bec6f2f31b","condition":"contingent","relevant_dimensions":["antennae","legs"],"bee_group":{"antennae":"B","wings":"X","pattern":"X","legs":"M"},"action":"avoid","summary":"good-avoid","bonus":0.680000000000001},{"rt":964,"stimulus":"\n                    <p><b>Action: <em>avoid</em></b></p>\n                    <p>This is the bee that you just saw.</p>\n                    <img src=\"bees-with-color/bee-B1SM.svg\" width=\"200\">\n                    <p><br>Your bonus pay is unchanged, and remains at $0.46.</p>\n            ","response":0,"trial_type":"html-button-response","trial_index":72,"time_elapsed":7998291,"internal_node_id":"0.0-4.0-1.30","subject_id":"611fdc56b6ad06b50c2de059","study_id":"6197b3f67c2b5cd3b6d9596a","session_id":"6197b5d7424bd7bec6f2f31b","condition":"contingent","relevant_dimensions":["antennae","legs"],"bee_group":{"antennae":"B","wings":"X","pattern":"X","legs":"M"},"bonus":0.680000000000001},{"rt":1497,"stimulus":"bees-with-color/bee-B2SM.svg","response":0,"trial_type":"image-button-response","trial_index":73,"time_elapsed":7999790,"internal_node_id":"0.0-4.0-0.31","subject_id":"611fdc56b6ad06b50c2de059","study_id":"6197b3f67c2b5cd3b6d9596a","session_id":"6197b5d7424bd7bec6f2f31b","condition":"contingent","relevant_dimensions":["antennae","legs"],"bee_group":{"antennae":"B","wings":"X","pattern":"X","legs":"M"},"action":"harvest","summary":"bad-harvest","bonus":0.680000000000001},{"rt":15434,"stimulus":"\n                    <p><b>Action: <em>harvest</em></b></p>\n                    <p>This is the bee that you just saw.</p>\n                    <img src=\"bees-with-color/bee-B2SM.svg\" width=\"200\">\n                    <p><span class=\"redText\">Bad choice, the bee was angry.</span><br><b>You have been stung!</b><br>Your pay has been decreased by $0.10. Your bonus pay is now $0.36.</p>\n            ","response":0,"trial_type":"html-button-response","trial_index":74,"time_elapsed":8015226,"internal_node_id":"0.0-4.0-1.31","subject_id":"611fdc56b6ad06b50c2de059","study_id":"6197b3f67c2b5cd3b6d9596a","session_id":"6197b5d7424bd7bec6f2f31b","condition":"contingent","relevant_dimensions":["antennae","legs"],"bee_group":{"antennae":"B","wings":"X","pattern":"X","legs":"M"},"bonus":0.680000000000001},{"rt":1743,"stimulus":"bees-with-color/bee-B2DF.svg","response":1,"trial_type":"image-button-response","trial_index":75,"time_elapsed":8016970,"internal_node_id":"0.0-4.0-0.32","subject_id":"611fdc56b6ad06b50c2de059","study_id":"6197b3f67c2b5cd3b6d9596a","session_id":"6197b5d7424bd7bec6f2f31b","condition":"contingent","relevant_dimensions":["antennae","legs"],"bee_group":{"antennae":"B","wings":"X","pattern":"X","legs":"M"},"action":"avoid","summary":"bad-avoid","bonus":0.680000000000001},{"rt":1055,"stimulus":"\n                    <p><b>Action: <em>avoid</em></b></p>\n                    <p>This is the bee that you just saw.</p>\n                    <img src=\"bees-with-color/bee-B2DF.svg\" width=\"200\">\n                    <p><br>Your bonus pay is unchanged, and remains at $0.36.</p>\n            ","response":0,"trial_type":"html-button-response","trial_index":76,"time_elapsed":8018027,"internal_node_id":"0.0-4.0-1.32","subject_id":"611fdc56b6ad06b50c2de059","study_id":"6197b3f67c2b5cd3b6d9596a","session_id":"6197b5d7424bd7bec6f2f31b","condition":"contingent","relevant_dimensions":["antennae","legs"],"bee_group":{"antennae":"B","wings":"X","pattern":"X","legs":"M"},"bonus":0.680000000000001},{"rt":1541,"stimulus":"bees-with-color/bee-A2DF.svg","response":0,"trial_type":"image-button-response","trial_index":77,"time_elapsed":8019569,"internal_node_id":"0.0-4.0-0.33","subject_id":"611fdc56b6ad06b50c2de059","study_id":"6197b3f67c2b5cd3b6d9596a","session_id":"6197b5d7424bd7bec6f2f31b","condition":"contingent","relevant_dimensions":["antennae","legs"],"bee_group":{"antennae":"B","wings":"X","pattern":"X","legs":"M"},"action":"harvest","summary":"good-harvest","bonus":0.680000000000001},{"rt":1303,"stimulus":"\n                    <p><b>Action: <em>harvest</em></b></p>\n                    <p>This is the bee that you just saw.</p>\n                    <img src=\"bees-with-color/bee-A2DF.svg\" width=\"200\">\n                    <p><span class=\"greenText\"><b>Successful harvest!</b></span><br>Your pay has increased by $0.02. Your bonus pay is now $0.38.</p>\n            ","response":0,"trial_type":"html-button-response","trial_index":78,"time_elapsed":8020873,"internal_node_id":"0.0-4.0-1.33","subject_id":"611fdc56b6ad06b50c2de059","study_id":"6197b3f67c2b5cd3b6d9596a","session_id":"6197b5d7424bd7bec6f2f31b","condition":"contingent","relevant_dimensions":["antennae","legs"],"bee_group":{"antennae":"B","wings":"X","pattern":"X","legs":"M"},"bonus":0.680000000000001},{"rt":1260,"stimulus":"bees-with-color/bee-B1DF.svg","response":1,"trial_type":"image-button-response","trial_index":79,"time_elapsed":8022134,"internal_node_id":"0.0-4.0-0.34","subject_id":"611fdc56b6ad06b50c2de059","study_id":"6197b3f67c2b5cd3b6d9596a","session_id":"6197b5d7424bd7bec6f2f31b","condition":"contingent","relevant_dimensions":["antennae","legs"],"bee_group":{"antennae":"B","wings":"X","pattern":"X","legs":"M"},"action":"avoid","summary":"bad-avoid","bonus":0.680000000000001},{"rt":1421,"stimulus":"\n                    <p><b>Action: <em>avoid</em></b></p>\n                    <p>This is the bee that you just saw.</p>\n                    <img src=\"bees-with-color/bee-B1DF.svg\" width=\"200\">\n                    <p><br>Your bonus pay is unchanged, and remains at $0.38.</p>\n            ","response":0,"trial_type":"html-button-response","trial_index":80,"time_elapsed":8023556,"internal_node_id":"0.0-4.0-1.34","subject_id":"611fdc56b6ad06b50c2de059","study_id":"6197b3f67c2b5cd3b6d9596a","session_id":"6197b5d7424bd7bec6f2f31b","condition":"contingent","relevant_dimensions":["antennae","legs"],"bee_group":{"antennae":"B","wings":"X","pattern":"X","legs":"M"},"bonus":0.680000000000001},{"rt":988,"stimulus":"bees-with-color/bee-B2DM.svg","response":1,"trial_type":"image-button-response","trial_index":81,"time_elapsed":8024549,"internal_node_id":"0.0-4.0-0.35","subject_id":"611fdc56b6ad06b50c2de059","study_id":"6197b3f67c2b5cd3b6d9596a","session_id":"6197b5d7424bd7bec6f2f31b","condition":"contingent","relevant_dimensions":["antennae","legs"],"bee_group":{"antennae":"B","wings":"X","pattern":"X","legs":"M"},"action":"avoid","summary":"good-avoid","bonus":0.680000000000001},{"rt":872,"stimulus":"\n                    <p><b>Action: <em>avoid</em></b></p>\n                    <p>This is the bee that you just saw.</p>\n                    <img src=\"bees-with-color/bee-B2DM.svg\" width=\"200\">\n                    <p><br>Your bonus pay is unchanged, and remains at $0.38.</p>\n            ","response":0,"trial_type":"html-button-response","trial_index":82,"time_elapsed":8025423,"internal_node_id":"0.0-4.0-1.35","subject_id":"611fdc56b6ad06b50c2de059","study_id":"6197b3f67c2b5cd3b6d9596a","session_id":"6197b5d7424bd7bec6f2f31b","condition":"contingent","relevant_dimensions":["antennae","legs"],"bee_group":{"antennae":"B","wings":"X","pattern":"X","legs":"M"},"bonus":0.680000000000001},{"rt":1241,"stimulus":"bees-with-color/bee-A2SM.svg","response":0,"trial_type":"image-button-response","trial_index":83,"time_elapsed":8026665,"internal_node_id":"0.0-4.0-0.36","subject_id":"611fdc56b6ad06b50c2de059","study_id":"6197b3f67c2b5cd3b6d9596a","session_id":"6197b5d7424bd7bec6f2f31b","condition":"contingent","relevant_dimensions":["antennae","legs"],"bee_group":{"antennae":"B","wings":"X","pattern":"X","legs":"M"},"action":"harvest","summary":"good-harvest","bonus":0.680000000000001},{"rt":1135,"stimulus":"\n                    <p><b>Action: <em>harvest</em></b></p>\n                    <p>This is the bee that you just saw.</p>\n                    <img src=\"bees-with-color/bee-A2SM.svg\" width=\"200\">\n                    <p><span class=\"greenText\"><b>Successful harvest!</b></span><br>Your pay has increased by $0.02. Your bonus pay is now $0.40.</p>\n            ","response":0,"trial_type":"html-button-response","trial_index":84,"time_elapsed":8027802,"internal_node_id":"0.0-4.0-1.36","subject_id":"611fdc56b6ad06b50c2de059","study_id":"6197b3f67c2b5cd3b6d9596a","session_id":"6197b5d7424bd7bec6f2f31b","condition":"contingent","relevant_dimensions":["antennae","legs"],"bee_group":{"antennae":"B","wings":"X","pattern":"X","legs":"M"},"bonus":0.680000000000001},{"rt":1004,"stimulus":"bees-with-color/bee-A1SF.svg","response":1,"trial_type":"image-button-response","trial_index":85,"time_elapsed":8028807,"internal_node_id":"0.0-4.0-0.37","subject_id":"611fdc56b6ad06b50c2de059","study_id":"6197b3f67c2b5cd3b6d9596a","session_id":"6197b5d7424bd7bec6f2f31b","condition":"contingent","relevant_dimensions":["antennae","legs"],"bee_group":{"antennae":"B","wings":"X","pattern":"X","legs":"M"},"action":"avoid","summary":"bad-avoid","bonus":0.680000000000001},{"rt":1097,"stimulus":"\n                    <p><b>Action: <em>avoid</em></b></p>\n                    <p>This is the bee that you just saw.</p>\n                    <img src=\"bees-with-color/bee-A1SF.svg\" width=\"200\">\n                    <p><br>Your bonus pay is unchanged, and remains at $0.40.</p>\n            ","response":0,"trial_type":"html-button-response","trial_index":86,"time_elapsed":8029905,"internal_node_id":"0.0-4.0-1.37","subject_id":"611fdc56b6ad06b50c2de059","study_id":"6197b3f67c2b5cd3b6d9596a","session_id":"6197b5d7424bd7bec6f2f31b","condition":"contingent","relevant_dimensions":["antennae","legs"],"bee_group":{"antennae":"B","wings":"X","pattern":"X","legs":"M"},"bonus":0.680000000000001},{"rt":1395.9999999997672,"stimulus":"bees-with-color/bee-B2SM.svg","response":1,"trial_type":"image-button-response","trial_index":87,"time_elapsed":8031302,"internal_node_id":"0.0-4.0-0.38","subject_id":"611fdc56b6ad06b50c2de059","study_id":"6197b3f67c2b5cd3b6d9596a","session_id":"6197b5d7424bd7bec6f2f31b","condition":"contingent","relevant_dimensions":["antennae","legs"],"bee_group":{"antennae":"B","wings":"X","pattern":"X","legs":"M"},"action":"avoid","summary":"good-avoid","bonus":0.680000000000001},{"rt":809,"stimulus":"\n                    <p><b>Action: <em>avoid</em></b></p>\n                    <p>This is the bee that you just saw.</p>\n                    <img src=\"bees-with-color/bee-B2SM.svg\" width=\"200\">\n                    <p><br>Your bonus pay is unchanged, and remains at $0.40.</p>\n            ","response":0,"trial_type":"html-button-response","trial_index":88,"time_elapsed":8032112,"internal_node_id":"0.0-4.0-1.38","subject_id":"611fdc56b6ad06b50c2de059","study_id":"6197b3f67c2b5cd3b6d9596a","session_id":"6197b5d7424bd7bec6f2f31b","condition":"contingent","relevant_dimensions":["antennae","legs"],"bee_group":{"antennae":"B","wings":"X","pattern":"X","legs":"M"},"bonus":0.680000000000001},{"rt":1866,"stimulus":"bees-with-color/bee-A1SM.svg","response":1,"trial_type":"image-button-response","trial_index":89,"time_elapsed":8033980,"internal_node_id":"0.0-4.0-0.39","subject_id":"611fdc56b6ad06b50c2de059","study_id":"6197b3f67c2b5cd3b6d9596a","session_id":"6197b5d7424bd7bec6f2f31b","condition":"contingent","relevant_dimensions":["antennae","legs"],"bee_group":{"antennae":"B","wings":"X","pattern":"X","legs":"M"},"action":"avoid","summary":"bad-avoid","bonus":0.680000000000001},{"rt":994,"stimulus":"\n                    <p><b>Action: <em>avoid</em></b></p>\n                    <p>This is the bee that you just saw.</p>\n                    <img src=\"bees-with-color/bee-A1SM.svg\" width=\"200\">\n                    <p><br>Your bonus pay is unchanged, and remains at $0.40.</p>\n            ","response":0,"trial_type":"html-button-response","trial_index":90,"time_elapsed":8034976,"internal_node_id":"0.0-4.0-1.39","subject_id":"611fdc56b6ad06b50c2de059","study_id":"6197b3f67c2b5cd3b6d9596a","session_id":"6197b5d7424bd7bec6f2f31b","condition":"contingent","relevant_dimensions":["antennae","legs"],"bee_group":{"antennae":"B","wings":"X","pattern":"X","legs":"M"},"bonus":0.680000000000001},{"rt":2798,"stimulus":"bees-with-color/bee-A1DF.svg","response":1,"trial_type":"image-button-response","trial_index":91,"time_elapsed":8037775,"internal_node_id":"0.0-4.0-0.40","subject_id":"611fdc56b6ad06b50c2de059","study_id":"6197b3f67c2b5cd3b6d9596a","session_id":"6197b5d7424bd7bec6f2f31b","condition":"contingent","relevant_dimensions":["antennae","legs"],"bee_group":{"antennae":"B","wings":"X","pattern":"X","legs":"M"},"action":"avoid","summary":"bad-avoid","bonus":0.680000000000001},{"rt":941,"stimulus":"\n                    <p><b>Action: <em>avoid</em></b></p>\n                    <p>This is the bee that you just saw.</p>\n                    <img src=\"bees-with-color/bee-A1DF.svg\" width=\"200\">\n                    <p><br>Your bonus pay is unchanged, and remains at $0.40.</p>\n            ","response":0,"trial_type":"html-button-response","trial_index":92,"time_elapsed":8038718,"internal_node_id":"0.0-4.0-1.40","subject_id":"611fdc56b6ad06b50c2de059","study_id":"6197b3f67c2b5cd3b6d9596a","session_id":"6197b5d7424bd7bec6f2f31b","condition":"contingent","relevant_dimensions":["antennae","legs"],"bee_group":{"antennae":"B","wings":"X","pattern":"X","legs":"M"},"bonus":0.680000000000001},{"rt":1263,"stimulus":"bees-with-color/bee-A1DM.svg","response":1,"trial_type":"image-button-response","trial_index":93,"time_elapsed":8039983,"internal_node_id":"0.0-4.0-0.41","subject_id":"611fdc56b6ad06b50c2de059","study_id":"6197b3f67c2b5cd3b6d9596a","session_id":"6197b5d7424bd7bec6f2f31b","condition":"contingent","relevant_dimensions":["antennae","legs"],"bee_group":{"antennae":"B","wings":"X","pattern":"X","legs":"M"},"action":"avoid","summary":"bad-avoid","bonus":0.680000000000001},{"rt":875,"stimulus":"\n                    <p><b>Action: <em>avoid</em></b></p>\n                    <p>This is the bee that you just saw.</p>\n                    <img src=\"bees-with-color/bee-A1DM.svg\" width=\"200\">\n                    <p><br>Your bonus pay is unchanged, and remains at $0.40.</p>\n            ","response":0,"trial_type":"html-button-response","trial_index":94,"time_elapsed":8040860,"internal_node_id":"0.0-4.0-1.41","subject_id":"611fdc56b6ad06b50c2de059","study_id":"6197b3f67c2b5cd3b6d9596a","session_id":"6197b5d7424bd7bec6f2f31b","condition":"contingent","relevant_dimensions":["antennae","legs"],"bee_group":{"antennae":"B","wings":"X","pattern":"X","legs":"M"},"bonus":0.680000000000001},{"rt":1939.0000000002328,"stimulus":"bees-with-color/bee-B1DM.svg","response":1,"trial_type":"image-button-response","trial_index":95,"time_elapsed":8042800,"internal_node_id":"0.0-4.0-0.42","subject_id":"611fdc56b6ad06b50c2de059","study_id":"6197b3f67c2b5cd3b6d9596a","session_id":"6197b5d7424bd7bec6f2f31b","condition":"contingent","relevant_dimensions":["antennae","legs"],"bee_group":{"antennae":"B","wings":"X","pattern":"X","legs":"M"},"action":"avoid","summary":"good-avoid","bonus":0.680000000000001},{"rt":1032,"stimulus":"\n                    <p><b>Action: <em>avoid</em></b></p>\n                    <p>This is the bee that you just saw.</p>\n                    <img src=\"bees-with-color/bee-B1DM.svg\" width=\"200\">\n                    <p><br>Your bonus pay is unchanged, and remains at $0.40.</p>\n            ","response":0,"trial_type":"html-button-response","trial_index":96,"time_elapsed":8043834,"internal_node_id":"0.0-4.0-1.42","subject_id":"611fdc56b6ad06b50c2de059","study_id":"6197b3f67c2b5cd3b6d9596a","session_id":"6197b5d7424bd7bec6f2f31b","condition":"contingent","relevant_dimensions":["antennae","legs"],"bee_group":{"antennae":"B","wings":"X","pattern":"X","legs":"M"},"bonus":0.680000000000001},{"rt":1456,"stimulus":"bees-with-color/bee-B1SF.svg","response":0,"trial_type":"image-button-response","trial_index":97,"time_elapsed":8045291,"internal_node_id":"0.0-4.0-0.43","subject_id":"611fdc56b6ad06b50c2de059","study_id":"6197b3f67c2b5cd3b6d9596a","session_id":"6197b5d7424bd7bec6f2f31b","condition":"contingent","relevant_dimensions":["antennae","legs"],"bee_group":{"antennae":"B","wings":"X","pattern":"X","legs":"M"},"action":"harvest","summary":"good-harvest","bonus":0.680000000000001},{"rt":1044.9999999997672,"stimulus":"\n                    <p><b>Action: <em>harvest</em></b></p>\n                    <p>This is the bee that you just saw.</p>\n                    <img src=\"bees-with-color/bee-B1SF.svg\" width=\"200\">\n                    <p><span class=\"greenText\"><b>Successful harvest!</b></span><br>Your pay has increased by $0.02. Your bonus pay is now $0.42.</p>\n            ","response":0,"trial_type":"html-button-response","trial_index":98,"time_elapsed":8046338,"internal_node_id":"0.0-4.0-1.43","subject_id":"611fdc56b6ad06b50c2de059","study_id":"6197b3f67c2b5cd3b6d9596a","session_id":"6197b5d7424bd7bec6f2f31b","condition":"contingent","relevant_dimensions":["antennae","legs"],"bee_group":{"antennae":"B","wings":"X","pattern":"X","legs":"M"},"bonus":0.680000000000001},{"rt":1195,"stimulus":"bees-with-color/bee-A2SF.svg","response":0,"trial_type":"image-button-response","trial_index":99,"time_elapsed":8047536,"internal_node_id":"0.0-4.0-0.44","subject_id":"611fdc56b6ad06b50c2de059","study_id":"6197b3f67c2b5cd3b6d9596a","session_id":"6197b5d7424bd7bec6f2f31b","condition":"contingent","relevant_dimensions":["antennae","legs"],"bee_group":{"antennae":"B","wings":"X","pattern":"X","legs":"M"},"action":"harvest","summary":"good-harvest","bonus":0.680000000000001},{"rt":1177,"stimulus":"\n                    <p><b>Action: <em>harvest</em></b></p>\n                    <p>This is the bee that you just saw.</p>\n                    <img src=\"bees-with-color/bee-A2SF.svg\" width=\"200\">\n                    <p><span class=\"greenText\"><b>Successful harvest!</b></span><br>Your pay has increased by $0.02. Your bonus pay is now $0.44.</p>\n            ","response":0,"trial_type":"html-button-response","trial_index":100,"time_elapsed":8048714,"internal_node_id":"0.0-4.0-1.44","subject_id":"611fdc56b6ad06b50c2de059","study_id":"6197b3f67c2b5cd3b6d9596a","session_id":"6197b5d7424bd7bec6f2f31b","condition":"contingent","relevant_dimensions":["antennae","legs"],"bee_group":{"antennae":"B","wings":"X","pattern":"X","legs":"M"},"bonus":0.680000000000001},{"rt":1106.9999999997672,"stimulus":"bees-with-color/bee-A2DM.svg","response":0,"trial_type":"image-button-response","trial_index":101,"time_elapsed":8049822,"internal_node_id":"0.0-4.0-0.45","subject_id":"611fdc56b6ad06b50c2de059","study_id":"6197b3f67c2b5cd3b6d9596a","session_id":"6197b5d7424bd7bec6f2f31b","condition":"contingent","relevant_dimensions":["antennae","legs"],"bee_group":{"antennae":"B","wings":"X","pattern":"X","legs":"M"},"action":"harvest","summary":"good-harvest","bonus":0.680000000000001},{"rt":1023,"stimulus":"\n                    <p><b>Action: <em>harvest</em></b></p>\n                    <p>This is the bee that you just saw.</p>\n                    <img src=\"bees-with-color/bee-A2DM.svg\" width=\"200\">\n                    <p><span class=\"greenText\"><b>Successful harvest!</b></span><br>Your pay has increased by $0.02. Your bonus pay is now $0.46.</p>\n            ","response":0,"trial_type":"html-button-response","trial_index":102,"time_elapsed":8050846,"internal_node_id":"0.0-4.0-1.45","subject_id":"611fdc56b6ad06b50c2de059","study_id":"6197b3f67c2b5cd3b6d9596a","session_id":"6197b5d7424bd7bec6f2f31b","condition":"contingent","relevant_dimensions":["antennae","legs"],"bee_group":{"antennae":"B","wings":"X","pattern":"X","legs":"M"},"bonus":0.680000000000001},{"rt":1646,"stimulus":"bees-with-color/bee-B2SF.svg","response":0,"trial_type":"image-button-response","trial_index":103,"time_elapsed":8052494,"internal_node_id":"0.0-4.0-0.46","subject_id":"611fdc56b6ad06b50c2de059","study_id":"6197b3f67c2b5cd3b6d9596a","session_id":"6197b5d7424bd7bec6f2f31b","condition":"contingent","relevant_dimensions":["antennae","legs"],"bee_group":{"antennae":"B","wings":"X","pattern":"X","legs":"M"},"action":"harvest","summary":"good-harvest","bonus":0.680000000000001},{"rt":927,"stimulus":"\n                    <p><b>Action: <em>harvest</em></b></p>\n                    <p>This is the bee that you just saw.</p>\n                    <img src=\"bees-with-color/bee-B2SF.svg\" width=\"200\">\n                    <p><span class=\"greenText\"><b>Successful harvest!</b></span><br>Your pay has increased by $0.02. Your bonus pay is now $0.48.</p>\n            ","response":0,"trial_type":"html-button-response","trial_index":104,"time_elapsed":8053423,"internal_node_id":"0.0-4.0-1.46","subject_id":"611fdc56b6ad06b50c2de059","study_id":"6197b3f67c2b5cd3b6d9596a","session_id":"6197b5d7424bd7bec6f2f31b","condition":"contingent","relevant_dimensions":["antennae","legs"],"bee_group":{"antennae":"B","wings":"X","pattern":"X","legs":"M"},"bonus":0.680000000000001},{"rt":1761.0000000002328,"stimulus":"bees-with-color/bee-B1SM.svg","response":0,"trial_type":"image-button-response","trial_index":105,"time_elapsed":8055186,"internal_node_id":"0.0-4.0-0.47","subject_id":"611fdc56b6ad06b50c2de059","study_id":"6197b3f67c2b5cd3b6d9596a","session_id":"6197b5d7424bd7bec6f2f31b","condition":"contingent","relevant_dimensions":["antennae","legs"],"bee_group":{"antennae":"B","wings":"X","pattern":"X","legs":"M"},"action":"harvest","summary":"bad-harvest","bonus":0.680000000000001},{"rt":6607,"stimulus":"\n                    <p><b>Action: <em>harvest</em></b></p>\n                    <p>This is the bee that you just saw.</p>\n                    <img src=\"bees-with-color/bee-B1SM.svg\" width=\"200\">\n                    <p><span class=\"redText\">Bad choice, the bee was angry.</span><br><b>You have been stung!</b><br>Your pay has been decreased by $0.10. Your bonus pay is now $0.38.</p>\n            ","response":0,"trial_type":"html-button-response","trial_index":106,"time_elapsed":8061796,"internal_node_id":"0.0-4.0-1.47","subject_id":"611fdc56b6ad06b50c2de059","study_id":"6197b3f67c2b5cd3b6d9596a","session_id":"6197b5d7424bd7bec6f2f31b","condition":"contingent","relevant_dimensions":["antennae","legs"],"bee_group":{"antennae":"B","wings":"X","pattern":"X","legs":"M"},"bonus":0.680000000000001},{"rt":1747,"stimulus":"bees-with-color/bee-B1SM.svg","response":1,"trial_type":"image-button-response","trial_index":107,"time_elapsed":8063545,"internal_node_id":"0.0-4.0-0.48","subject_id":"611fdc56b6ad06b50c2de059","study_id":"6197b3f67c2b5cd3b6d9596a","session_id":"6197b5d7424bd7bec6f2f31b","condition":"contingent","relevant_dimensions":["antennae","legs"],"bee_group":{"antennae":"B","wings":"X","pattern":"X","legs":"M"},"action":"avoid","summary":"good-avoid","bonus":0.680000000000001},{"rt":1137,"stimulus":"\n                    <p><b>Action: <em>avoid</em></b></p>\n                    <p>This is the bee that you just saw.</p>\n                    <img src=\"bees-with-color/bee-B1SM.svg\" width=\"200\">\n                    <p><br>Your bonus pay is unchanged, and remains at $0.38.</p>\n            ","response":0,"trial_type":"html-button-response","trial_index":108,"time_elapsed":8064685,"internal_node_id":"0.0-4.0-1.48","subject_id":"611fdc56b6ad06b50c2de059","study_id":"6197b3f67c2b5cd3b6d9596a","session_id":"6197b5d7424bd7bec6f2f31b","condition":"contingent","relevant_dimensions":["antennae","legs"],"bee_group":{"antennae":"B","wings":"X","pattern":"X","legs":"M"},"bonus":0.680000000000001},{"rt":1472,"stimulus":"bees-with-color/bee-B2DF.svg","response":0,"trial_type":"image-button-response","trial_index":109,"time_elapsed":8066160,"internal_node_id":"0.0-4.0-0.49","subject_id":"611fdc56b6ad06b50c2de059","study_id":"6197b3f67c2b5cd3b6d9596a","session_id":"6197b5d7424bd7bec6f2f31b","condition":"contingent","relevant_dimensions":["antennae","legs"],"bee_group":{"antennae":"B","wings":"X","pattern":"X","legs":"M"},"action":"harvest","summary":"good-harvest","bonus":0.680000000000001},{"rt":1025,"stimulus":"\n                    <p><b>Action: <em>harvest</em></b></p>\n                    <p>This is the bee that you just saw.</p>\n                    <img src=\"bees-with-color/bee-B2DF.svg\" width=\"200\">\n                    <p><span class=\"greenText\"><b>Successful harvest!</b></span><br>Your pay has increased by $0.02. Your bonus pay is now $0.40.</p>\n            ","response":0,"trial_type":"html-button-response","trial_index":110,"time_elapsed":8067187,"internal_node_id":"0.0-4.0-1.49","subject_id":"611fdc56b6ad06b50c2de059","study_id":"6197b3f67c2b5cd3b6d9596a","session_id":"6197b5d7424bd7bec6f2f31b","condition":"contingent","relevant_dimensions":["antennae","legs"],"bee_group":{"antennae":"B","wings":"X","pattern":"X","legs":"M"},"bonus":0.680000000000001},{"rt":1166,"stimulus":"bees-with-color/bee-A2SM.svg","response":0,"trial_type":"image-button-response","trial_index":111,"time_elapsed":8068354,"internal_node_id":"0.0-4.0-0.50","subject_id":"611fdc56b6ad06b50c2de059","study_id":"6197b3f67c2b5cd3b6d9596a","session_id":"6197b5d7424bd7bec6f2f31b","condition":"contingent","relevant_dimensions":["antennae","legs"],"bee_group":{"antennae":"B","wings":"X","pattern":"X","legs":"M"},"action":"harvest","summary":"good-harvest","bonus":0.680000000000001},{"rt":897,"stimulus":"\n                    <p><b>Action: <em>harvest</em></b></p>\n                    <p>This is the bee that you just saw.</p>\n                    <img src=\"bees-with-color/bee-A2SM.svg\" width=\"200\">\n                    <p><span class=\"greenText\"><b>Successful harvest!</b></span><br>Your pay has increased by $0.02. Your bonus pay is now $0.42.</p>\n            ","response":0,"trial_type":"html-button-response","trial_index":112,"time_elapsed":8069253,"internal_node_id":"0.0-4.0-1.50","subject_id":"611fdc56b6ad06b50c2de059","study_id":"6197b3f67c2b5cd3b6d9596a","session_id":"6197b5d7424bd7bec6f2f31b","condition":"contingent","relevant_dimensions":["antennae","legs"],"bee_group":{"antennae":"B","wings":"X","pattern":"X","legs":"M"},"bonus":0.680000000000001},{"rt":1323,"stimulus":"bees-with-color/bee-B2DM.svg","response":0,"trial_type":"image-button-response","trial_index":113,"time_elapsed":8070577,"internal_node_id":"0.0-4.0-0.51","subject_id":"611fdc56b6ad06b50c2de059","study_id":"6197b3f67c2b5cd3b6d9596a","session_id":"6197b5d7424bd7bec6f2f31b","condition":"contingent","relevant_dimensions":["antennae","legs"],"bee_group":{"antennae":"B","wings":"X","pattern":"X","legs":"M"},"action":"harvest","summary":"bad-harvest","bonus":0.680000000000001},{"rt":1175.0000000002328,"stimulus":"\n                    <p><b>Action: <em>harvest</em></b></p>\n                    <p>This is the bee that you just saw.</p>\n                    <img src=\"bees-with-color/bee-B2DM.svg\" width=\"200\">\n                    <p><span class=\"redText\">Bad choice, the bee was angry.</span><br><b>You have been stung!</b><br>Your pay has been decreased by $0.10. Your bonus pay is now $0.32.</p>\n            ","response":0,"trial_type":"html-button-response","trial_index":114,"time_elapsed":8071754,"internal_node_id":"0.0-4.0-1.51","subject_id":"611fdc56b6ad06b50c2de059","study_id":"6197b3f67c2b5cd3b6d9596a","session_id":"6197b5d7424bd7bec6f2f31b","condition":"contingent","relevant_dimensions":["antennae","legs"],"bee_group":{"antennae":"B","wings":"X","pattern":"X","legs":"M"},"bonus":0.680000000000001},{"rt":1514,"stimulus":"bees-with-color/bee-A1SM.svg","response":0,"trial_type":"image-button-response","trial_index":115,"time_elapsed":8073269,"internal_node_id":"0.0-4.0-0.52","subject_id":"611fdc56b6ad06b50c2de059","study_id":"6197b3f67c2b5cd3b6d9596a","session_id":"6197b5d7424bd7bec6f2f31b","condition":"contingent","relevant_dimensions":["antennae","legs"],"bee_group":{"antennae":"B","wings":"X","pattern":"X","legs":"M"},"action":"harvest","summary":"good-harvest","bonus":0.680000000000001},{"rt":939,"stimulus":"\n                    <p><b>Action: <em>harvest</em></b></p>\n                    <p>This is the bee that you just saw.</p>\n                    <img src=\"bees-with-color/bee-A1SM.svg\" width=\"200\">\n                    <p><span class=\"greenText\"><b>Successful harvest!</b></span><br>Your pay has increased by $0.02. Your bonus pay is now $0.34.</p>\n            ","response":0,"trial_type":"html-button-response","trial_index":116,"time_elapsed":8074220,"internal_node_id":"0.0-4.0-1.52","subject_id":"611fdc56b6ad06b50c2de059","study_id":"6197b3f67c2b5cd3b6d9596a","session_id":"6197b5d7424bd7bec6f2f31b","condition":"contingent","relevant_dimensions":["antennae","legs"],"bee_group":{"antennae":"B","wings":"X","pattern":"X","legs":"M"},"bonus":0.680000000000001},{"rt":1114,"stimulus":"bees-with-color/bee-A2SF.svg","response":0,"trial_type":"image-button-response","trial_index":117,"time_elapsed":8075336,"internal_node_id":"0.0-4.0-0.53","subject_id":"611fdc56b6ad06b50c2de059","study_id":"6197b3f67c2b5cd3b6d9596a","session_id":"6197b5d7424bd7bec6f2f31b","condition":"contingent","relevant_dimensions":["antennae","legs"],"bee_group":{"antennae":"B","wings":"X","pattern":"X","legs":"M"},"action":"harvest","summary":"good-harvest","bonus":0.680000000000001},{"rt":835,"stimulus":"\n                    <p><b>Action: <em>harvest</em></b></p>\n                    <p>This is the bee that you just saw.</p>\n                    <img src=\"bees-with-color/bee-A2SF.svg\" width=\"200\">\n                    <p><span class=\"greenText\"><b>Successful harvest!</b></span><br>Your pay has increased by $0.02. Your bonus pay is now $0.36.</p>\n            ","response":0,"trial_type":"html-button-response","trial_index":118,"time_elapsed":8076173,"internal_node_id":"0.0-4.0-1.53","subject_id":"611fdc56b6ad06b50c2de059","study_id":"6197b3f67c2b5cd3b6d9596a","session_id":"6197b5d7424bd7bec6f2f31b","condition":"contingent","relevant_dimensions":["antennae","legs"],"bee_group":{"antennae":"B","wings":"X","pattern":"X","legs":"M"},"bonus":0.680000000000001},{"rt":2756,"stimulus":"bees-with-color/bee-A1SF.svg","response":0,"trial_type":"image-button-response","trial_index":119,"time_elapsed":8078929,"internal_node_id":"0.0-4.0-0.54","subject_id":"611fdc56b6ad06b50c2de059","study_id":"6197b3f67c2b5cd3b6d9596a","session_id":"6197b5d7424bd7bec6f2f31b","condition":"contingent","relevant_dimensions":["antennae","legs"],"bee_group":{"antennae":"B","wings":"X","pattern":"X","legs":"M"},"action":"harvest","summary":"good-harvest","bonus":0.680000000000001},{"rt":1050,"stimulus":"\n                    <p><b>Action: <em>harvest</em></b></p>\n                    <p>This is the bee that you just saw.</p>\n                    <img src=\"bees-with-color/bee-A1SF.svg\" width=\"200\">\n                    <p><span class=\"greenText\"><b>Successful harvest!</b></span><br>Your pay has increased by $0.02. Your bonus pay is now $0.38.</p>\n            ","response":0,"trial_type":"html-button-response","trial_index":120,"time_elapsed":8079981,"internal_node_id":"0.0-4.0-1.54","subject_id":"611fdc56b6ad06b50c2de059","study_id":"6197b3f67c2b5cd3b6d9596a","session_id":"6197b5d7424bd7bec6f2f31b","condition":"contingent","relevant_dimensions":["antennae","legs"],"bee_group":{"antennae":"B","wings":"X","pattern":"X","legs":"M"},"bonus":0.680000000000001},{"rt":1349.0000000002328,"stimulus":"bees-with-color/bee-B1DF.svg","response":1,"trial_type":"image-button-response","trial_index":121,"time_elapsed":8081331,"internal_node_id":"0.0-4.0-0.55","subject_id":"611fdc56b6ad06b50c2de059","study_id":"6197b3f67c2b5cd3b6d9596a","session_id":"6197b5d7424bd7bec6f2f31b","condition":"contingent","relevant_dimensions":["antennae","legs"],"bee_group":{"antennae":"B","wings":"X","pattern":"X","legs":"M"},"action":"avoid","summary":"bad-avoid","bonus":0.680000000000001},{"rt":1371,"stimulus":"\n                    <p><b>Action: <em>avoid</em></b></p>\n                    <p>This is the bee that you just saw.</p>\n                    <img src=\"bees-with-color/bee-B1DF.svg\" width=\"200\">\n                    <p><br>Your bonus pay is unchanged, and remains at $0.38.</p>\n            ","response":0,"trial_type":"html-button-response","trial_index":122,"time_elapsed":8082704,"internal_node_id":"0.0-4.0-1.55","subject_id":"611fdc56b6ad06b50c2de059","study_id":"6197b3f67c2b5cd3b6d9596a","session_id":"6197b5d7424bd7bec6f2f31b","condition":"contingent","relevant_dimensions":["antennae","legs"],"bee_group":{"antennae":"B","wings":"X","pattern":"X","legs":"M"},"bonus":0.680000000000001},{"rt":1129,"stimulus":"bees-with-color/bee-B2SM.svg","response":0,"trial_type":"image-button-response","trial_index":123,"time_elapsed":8083833,"internal_node_id":"0.0-4.0-0.56","subject_id":"611fdc56b6ad06b50c2de059","study_id":"6197b3f67c2b5cd3b6d9596a","session_id":"6197b5d7424bd7bec6f2f31b","condition":"contingent","relevant_dimensions":["antennae","legs"],"bee_group":{"antennae":"B","wings":"X","pattern":"X","legs":"M"},"action":"harvest","summary":"bad-harvest","bonus":0.680000000000001},{"rt":919.0000000002328,"stimulus":"\n                    <p><b>Action: <em>harvest</em></b></p>\n                    <p>This is the bee that you just saw.</p>\n                    <img src=\"bees-with-color/bee-B2SM.svg\" width=\"200\">\n                    <p><span class=\"redText\">Bad choice, the bee was angry.</span><br><b>You have been stung!</b><br>Your pay has been decreased by $0.10. Your bonus pay is now $0.28.</p>\n            ","response":0,"trial_type":"html-button-response","trial_index":124,"time_elapsed":8084754,"internal_node_id":"0.0-4.0-1.56","subject_id":"611fdc56b6ad06b50c2de059","study_id":"6197b3f67c2b5cd3b6d9596a","session_id":"6197b5d7424bd7bec6f2f31b","condition":"contingent","relevant_dimensions":["antennae","legs"],"bee_group":{"antennae":"B","wings":"X","pattern":"X","legs":"M"},"bonus":0.680000000000001},{"rt":1170,"stimulus":"bees-with-color/bee-A1DM.svg","response":0,"trial_type":"image-button-response","trial_index":125,"time_elapsed":8085926,"internal_node_id":"0.0-4.0-0.57","subject_id":"611fdc56b6ad06b50c2de059","study_id":"6197b3f67c2b5cd3b6d9596a","session_id":"6197b5d7424bd7bec6f2f31b","condition":"contingent","relevant_dimensions":["antennae","legs"],"bee_group":{"antennae":"B","wings":"X","pattern":"X","legs":"M"},"action":"harvest","summary":"good-harvest","bonus":0.680000000000001},{"rt":834,"stimulus":"\n                    <p><b>Action: <em>harvest</em></b></p>\n                    <p>This is the bee that you just saw.</p>\n                    <img src=\"bees-with-color/bee-A1DM.svg\" width=\"200\">\n                    <p><span class=\"greenText\"><b>Successful harvest!</b></span><br>Your pay has increased by $0.02. Your bonus pay is now $0.30.</p>\n            ","response":0,"trial_type":"html-button-response","trial_index":126,"time_elapsed":8086762,"internal_node_id":"0.0-4.0-1.57","subject_id":"611fdc56b6ad06b50c2de059","study_id":"6197b3f67c2b5cd3b6d9596a","session_id":"6197b5d7424bd7bec6f2f31b","condition":"contingent","relevant_dimensions":["antennae","legs"],"bee_group":{"antennae":"B","wings":"X","pattern":"X","legs":"M"},"bonus":0.680000000000001},{"rt":1009,"stimulus":"bees-with-color/bee-A2DM.svg","response":0,"trial_type":"image-button-response","trial_index":127,"time_elapsed":8087773,"internal_node_id":"0.0-4.0-0.58","subject_id":"611fdc56b6ad06b50c2de059","study_id":"6197b3f67c2b5cd3b6d9596a","session_id":"6197b5d7424bd7bec6f2f31b","condition":"contingent","relevant_dimensions":["antennae","legs"],"bee_group":{"antennae":"B","wings":"X","pattern":"X","legs":"M"},"action":"harvest","summary":"good-harvest","bonus":0.680000000000001},{"rt":842,"stimulus":"\n                    <p><b>Action: <em>harvest</em></b></p>\n                    <p>This is the bee that you just saw.</p>\n                    <img src=\"bees-with-color/bee-A2DM.svg\" width=\"200\">\n                    <p><span class=\"greenText\"><b>Successful harvest!</b></span><br>Your pay has increased by $0.02. Your bonus pay is now $0.32.</p>\n            ","response":0,"trial_type":"html-button-response","trial_index":128,"time_elapsed":8088617,"internal_node_id":"0.0-4.0-1.58","subject_id":"611fdc56b6ad06b50c2de059","study_id":"6197b3f67c2b5cd3b6d9596a","session_id":"6197b5d7424bd7bec6f2f31b","condition":"contingent","relevant_dimensions":["antennae","legs"],"bee_group":{"antennae":"B","wings":"X","pattern":"X","legs":"M"},"bonus":0.680000000000001},{"rt":1127,"stimulus":"bees-with-color/bee-B1SF.svg","response":1,"trial_type":"image-button-response","trial_index":129,"time_elapsed":8089745,"internal_node_id":"0.0-4.0-0.59","subject_id":"611fdc56b6ad06b50c2de059","study_id":"6197b3f67c2b5cd3b6d9596a","session_id":"6197b5d7424bd7bec6f2f31b","condition":"contingent","relevant_dimensions":["antennae","legs"],"bee_group":{"antennae":"B","wings":"X","pattern":"X","legs":"M"},"action":"avoid","summary":"bad-avoid","bonus":0.680000000000001},{"rt":773,"stimulus":"\n                    <p><b>Action: <em>avoid</em></b></p>\n                    <p>This is the bee that you just saw.</p>\n                    <img src=\"bees-with-color/bee-B1SF.svg\" width=\"200\">\n                    <p><br>Your bonus pay is unchanged, and remains at $0.32.</p>\n            ","response":0,"trial_type":"html-button-response","trial_index":130,"time_elapsed":8090519,"internal_node_id":"0.0-4.0-1.59","subject_id":"611fdc56b6ad06b50c2de059","study_id":"6197b3f67c2b5cd3b6d9596a","session_id":"6197b5d7424bd7bec6f2f31b","condition":"contingent","relevant_dimensions":["antennae","legs"],"bee_group":{"antennae":"B","wings":"X","pattern":"X","legs":"M"},"bonus":0.680000000000001},{"rt":1126,"stimulus":"bees-with-color/bee-B1DM.svg","response":1,"trial_type":"image-button-response","trial_index":131,"time_elapsed":8091646,"internal_node_id":"0.0-4.0-0.60","subject_id":"611fdc56b6ad06b50c2de059","study_id":"6197b3f67c2b5cd3b6d9596a","session_id":"6197b5d7424bd7bec6f2f31b","condition":"contingent","relevant_dimensions":["antennae","legs"],"bee_group":{"antennae":"B","wings":"X","pattern":"X","legs":"M"},"action":"avoid","summary":"good-avoid","bonus":0.680000000000001},{"rt":1014.9999999997672,"stimulus":"\n                    <p><b>Action: <em>avoid</em></b></p>\n                    <p>This is the bee that you just saw.</p>\n                    <img src=\"bees-with-color/bee-B1DM.svg\" width=\"200\">\n                    <p><br>Your bonus pay is unchanged, and remains at $0.32.</p>\n            ","response":0,"trial_type":"html-button-response","trial_index":132,"time_elapsed":8092663,"internal_node_id":"0.0-4.0-1.60","subject_id":"611fdc56b6ad06b50c2de059","study_id":"6197b3f67c2b5cd3b6d9596a","session_id":"6197b5d7424bd7bec6f2f31b","condition":"contingent","relevant_dimensions":["antennae","legs"],"bee_group":{"antennae":"B","wings":"X","pattern":"X","legs":"M"},"bonus":0.680000000000001},{"rt":1369.0000000002328,"stimulus":"bees-with-color/bee-A1DF.svg","response":0,"trial_type":"image-button-response","trial_index":133,"time_elapsed":8094033,"internal_node_id":"0.0-4.0-0.61","subject_id":"611fdc56b6ad06b50c2de059","study_id":"6197b3f67c2b5cd3b6d9596a","session_id":"6197b5d7424bd7bec6f2f31b","condition":"contingent","relevant_dimensions":["antennae","legs"],"bee_group":{"antennae":"B","wings":"X","pattern":"X","legs":"M"},"action":"harvest","summary":"good-harvest","bonus":0.680000000000001},{"rt":913,"stimulus":"\n                    <p><b>Action: <em>harvest</em></b></p>\n                    <p>This is the bee that you just saw.</p>\n                    <img src=\"bees-with-color/bee-A1DF.svg\" width=\"200\">\n                    <p><span class=\"greenText\"><b>Successful harvest!</b></span><br>Your pay has increased by $0.02. Your bonus pay is now $0.34.</p>\n            ","response":0,"trial_type":"html-button-response","trial_index":134,"time_elapsed":8094948,"internal_node_id":"0.0-4.0-1.61","subject_id":"611fdc56b6ad06b50c2de059","study_id":"6197b3f67c2b5cd3b6d9596a","session_id":"6197b5d7424bd7bec6f2f31b","condition":"contingent","relevant_dimensions":["antennae","legs"],"bee_group":{"antennae":"B","wings":"X","pattern":"X","legs":"M"},"bonus":0.680000000000001},{"rt":1016.0000000002328,"stimulus":"bees-with-color/bee-B2SF.svg","response":1,"trial_type":"image-button-response","trial_index":135,"time_elapsed":8095966,"internal_node_id":"0.0-4.0-0.62","subject_id":"611fdc56b6ad06b50c2de059","study_id":"6197b3f67c2b5cd3b6d9596a","session_id":"6197b5d7424bd7bec6f2f31b","condition":"contingent","relevant_dimensions":["antennae","legs"],"bee_group":{"antennae":"B","wings":"X","pattern":"X","legs":"M"},"action":"avoid","summary":"bad-avoid","bonus":0.680000000000001},{"rt":1242,"stimulus":"\n                    <p><b>Action: <em>avoid</em></b></p>\n                    <p>This is the bee that you just saw.</p>\n                    <img src=\"bees-with-color/bee-B2SF.svg\" width=\"200\">\n                    <p><br>Your bonus pay is unchanged, and remains at $0.34.</p>\n            ","response":0,"trial_type":"html-button-response","trial_index":136,"time_elapsed":8097211,"internal_node_id":"0.0-4.0-1.62","subject_id":"611fdc56b6ad06b50c2de059","study_id":"6197b3f67c2b5cd3b6d9596a","session_id":"6197b5d7424bd7bec6f2f31b","condition":"contingent","relevant_dimensions":["antennae","legs"],"bee_group":{"antennae":"B","wings":"X","pattern":"X","legs":"M"},"bonus":0.680000000000001},{"rt":1048,"stimulus":"bees-with-color/bee-A2DF.svg","response":0,"trial_type":"image-button-response","trial_index":137,"time_elapsed":8098261,"internal_node_id":"0.0-4.0-0.63","subject_id":"611fdc56b6ad06b50c2de059","study_id":"6197b3f67c2b5cd3b6d9596a","session_id":"6197b5d7424bd7bec6f2f31b","condition":"contingent","relevant_dimensions":["antennae","legs"],"bee_group":{"antennae":"B","wings":"X","pattern":"X","legs":"M"},"action":"harvest","summary":"good-harvest","bonus":0.680000000000001},{"rt":916,"stimulus":"\n                    <p><b>Action: <em>harvest</em></b></p>\n                    <p>This is the bee that you just saw.</p>\n                    <img src=\"bees-with-color/bee-A2DF.svg\" width=\"200\">\n                    <p><span class=\"greenText\"><b>Successful harvest!</b></span><br>Your pay has increased by $0.02. Your bonus pay is now $0.36.</p>\n            ","response":0,"trial_type":"html-button-response","trial_index":138,"time_elapsed":8099179,"internal_node_id":"0.0-4.0-1.63","subject_id":"611fdc56b6ad06b50c2de059","study_id":"6197b3f67c2b5cd3b6d9596a","session_id":"6197b5d7424bd7bec6f2f31b","condition":"contingent","relevant_dimensions":["antennae","legs"],"bee_group":{"antennae":"B","wings":"X","pattern":"X","legs":"M"},"bonus":0.680000000000001},{"rt":1398,"stimulus":"You have completed the first part of this experiment.<br><br>You will now begin a shorter second part, in which you will receive no feedback.<br>The same rules regarding bonus pay apply.<br><br>Press any key to begin.","response":" ","trial_type":"html-keyboard-response","trial_index":139,"time_elapsed":8100579,"internal_node_id":"0.0-5.0","subject_id":"611fdc56b6ad06b50c2de059","study_id":"6197b3f67c2b5cd3b6d9596a","session_id":"6197b5d7424bd7bec6f2f31b","condition":"contingent","relevant_dimensions":["antennae","legs"],"bee_group":{"antennae":"B","wings":"X","pattern":"X","legs":"M"},"bonus":0.680000000000001},{"rt":3678,"stimulus":"bees-with-color/bee-A1SF.svg","response":0,"trial_type":"image-button-response","trial_index":140,"time_elapsed":8104273,"internal_node_id":"0.0-6.0-0.0","subject_id":"611fdc56b6ad06b50c2de059","study_id":"6197b3f67c2b5cd3b6d9596a","session_id":"6197b5d7424bd7bec6f2f31b","condition":"contingent","relevant_dimensions":["antennae","legs"],"bee_group":{"antennae":"B","wings":"X","pattern":"X","legs":"M"},"bonus":0.680000000000001},{"rt":2282,"stimulus":"bees-with-color/bee-B2DF.svg","response":1,"trial_type":"image-button-response","trial_index":141,"time_elapsed":8106558,"internal_node_id":"0.0-6.0-0.1","subject_id":"611fdc56b6ad06b50c2de059","study_id":"6197b3f67c2b5cd3b6d9596a","session_id":"6197b5d7424bd7bec6f2f31b","condition":"contingent","relevant_dimensions":["antennae","legs"],"bee_group":{"antennae":"B","wings":"X","pattern":"X","legs":"M"},"bonus":0.680000000000001},{"rt":873.9999999997672,"stimulus":"bees-with-color/bee-A2SM.svg","response":0,"trial_type":"image-button-response","trial_index":142,"time_elapsed":8107437,"internal_node_id":"0.0-6.0-0.2","subject_id":"611fdc56b6ad06b50c2de059","study_id":"6197b3f67c2b5cd3b6d9596a","session_id":"6197b5d7424bd7bec6f2f31b","condition":"contingent","relevant_dimensions":["antennae","legs"],"bee_group":{"antennae":"B","wings":"X","pattern":"X","legs":"M"},"bonus":0.680000000000001},{"rt":971,"stimulus":"bees-with-color/bee-B1SF.svg","response":1,"trial_type":"image-button-response","trial_index":143,"time_elapsed":8108413,"internal_node_id":"0.0-6.0-0.3","subject_id":"611fdc56b6ad06b50c2de059","study_id":"6197b3f67c2b5cd3b6d9596a","session_id":"6197b5d7424bd7bec6f2f31b","condition":"contingent","relevant_dimensions":["antennae","legs"],"bee_group":{"antennae":"B","wings":"X","pattern":"X","legs":"M"},"bonus":0.680000000000001},{"rt":436,"stimulus":"bees-with-color/bee-B1SM.svg","response":1,"trial_type":"image-button-response","trial_index":144,"time_elapsed":8108851,"internal_node_id":"0.0-6.0-0.4","subject_id":"611fdc56b6ad06b50c2de059","study_id":"6197b3f67c2b5cd3b6d9596a","session_id":"6197b5d7424bd7bec6f2f31b","condition":"contingent","relevant_dimensions":["antennae","legs"],"bee_group":{"antennae":"B","wings":"X","pattern":"X","legs":"M"},"bonus":0.680000000000001},{"rt":1398,"stimulus":"bees-with-color/bee-A2DM.svg","response":0,"trial_type":"image-button-response","trial_index":145,"time_elapsed":8110253,"internal_node_id":"0.0-6.0-0.5","subject_id":"611fdc56b6ad06b50c2de059","study_id":"6197b3f67c2b5cd3b6d9596a","session_id":"6197b5d7424bd7bec6f2f31b","condition":"contingent","relevant_dimensions":["antennae","legs"],"bee_group":{"antennae":"B","wings":"X","pattern":"X","legs":"M"},"bonus":0.680000000000001},{"rt":985,"stimulus":"bees-with-color/bee-B1DM.svg","response":1,"trial_type":"image-button-response","trial_index":146,"time_elapsed":8111249,"internal_node_id":"0.0-6.0-0.6","subject_id":"611fdc56b6ad06b50c2de059","study_id":"6197b3f67c2b5cd3b6d9596a","session_id":"6197b5d7424bd7bec6f2f31b","condition":"contingent","relevant_dimensions":["antennae","legs"],"bee_group":{"antennae":"B","wings":"X","pattern":"X","legs":"M"},"bonus":0.680000000000001},{"rt":937,"stimulus":"bees-with-color/bee-A1SM.svg","response":0,"trial_type":"image-button-response","trial_index":147,"time_elapsed":8112190,"internal_node_id":"0.0-6.0-0.7","subject_id":"611fdc56b6ad06b50c2de059","study_id":"6197b3f67c2b5cd3b6d9596a","session_id":"6197b5d7424bd7bec6f2f31b","condition":"contingent","relevant_dimensions":["antennae","legs"],"bee_group":{"antennae":"B","wings":"X","pattern":"X","legs":"M"},"bonus":0.680000000000001},{"rt":889,"stimulus":"bees-with-color/bee-A1DM.svg","response":0,"trial_type":"image-button-response","trial_index":148,"time_elapsed":8113083,"internal_node_id":"0.0-6.0-0.8","subject_id":"611fdc56b6ad06b50c2de059","study_id":"6197b3f67c2b5cd3b6d9596a","session_id":"6197b5d7424bd7bec6f2f31b","condition":"contingent","relevant_dimensions":["antennae","legs"],"bee_group":{"antennae":"B","wings":"X","pattern":"X","legs":"M"},"bonus":0.680000000000001},{"rt":1084,"stimulus":"bees-with-color/bee-B2SM.svg","response":1,"trial_type":"image-button-response","trial_index":149,"time_elapsed":8114169,"internal_node_id":"0.0-6.0-0.9","subject_id":"611fdc56b6ad06b50c2de059","study_id":"6197b3f67c2b5cd3b6d9596a","session_id":"6197b5d7424bd7bec6f2f31b","condition":"contingent","relevant_dimensions":["antennae","legs"],"bee_group":{"antennae":"B","wings":"X","pattern":"X","legs":"M"},"bonus":0.680000000000001},{"rt":792,"stimulus":"bees-with-color/bee-A2SF.svg","response":0,"trial_type":"image-button-response","trial_index":150,"time_elapsed":8114963,"internal_node_id":"0.0-6.0-0.10","subject_id":"611fdc56b6ad06b50c2de059","study_id":"6197b3f67c2b5cd3b6d9596a","session_id":"6197b5d7424bd7bec6f2f31b","condition":"contingent","relevant_dimensions":["antennae","legs"],"bee_group":{"antennae":"B","wings":"X","pattern":"X","legs":"M"},"bonus":0.680000000000001},{"rt":907.0000000002328,"stimulus":"bees-with-color/bee-B1DF.svg","response":1,"trial_type":"image-button-response","trial_index":151,"time_elapsed":8115880,"internal_node_id":"0.0-6.0-0.11","subject_id":"611fdc56b6ad06b50c2de059","study_id":"6197b3f67c2b5cd3b6d9596a","session_id":"6197b5d7424bd7bec6f2f31b","condition":"contingent","relevant_dimensions":["antennae","legs"],"bee_group":{"antennae":"B","wings":"X","pattern":"X","legs":"M"},"bonus":0.680000000000001},{"rt":889,"stimulus":"bees-with-color/bee-A1DF.svg","response":0,"trial_type":"image-button-response","trial_index":152,"time_elapsed":8116771,"internal_node_id":"0.0-6.0-0.12","subject_id":"611fdc56b6ad06b50c2de059","study_id":"6197b3f67c2b5cd3b6d9596a","session_id":"6197b5d7424bd7bec6f2f31b","condition":"contingent","relevant_dimensions":["antennae","legs"],"bee_group":{"antennae":"B","wings":"X","pattern":"X","legs":"M"},"bonus":0.680000000000001},{"rt":1419.9999999997672,"stimulus":"bees-with-color/bee-B2DM.svg","response":1,"trial_type":"image-button-response","trial_index":153,"time_elapsed":8118194,"internal_node_id":"0.0-6.0-0.13","subject_id":"611fdc56b6ad06b50c2de059","study_id":"6197b3f67c2b5cd3b6d9596a","session_id":"6197b5d7424bd7bec6f2f31b","condition":"contingent","relevant_dimensions":["antennae","legs"],"bee_group":{"antennae":"B","wings":"X","pattern":"X","legs":"M"},"bonus":0.680000000000001},{"rt":1507,"stimulus":"bees-with-color/bee-A2DF.svg","response":0,"trial_type":"image-button-response","trial_index":154,"time_elapsed":8119705,"internal_node_id":"0.0-6.0-0.14","subject_id":"611fdc56b6ad06b50c2de059","study_id":"6197b3f67c2b5cd3b6d9596a","session_id":"6197b5d7424bd7bec6f2f31b","condition":"contingent","relevant_dimensions":["antennae","legs"],"bee_group":{"antennae":"B","wings":"X","pattern":"X","legs":"M"},"bonus":0.680000000000001},{"rt":1387,"stimulus":"bees-with-color/bee-B2SF.svg","response":1,"trial_type":"image-button-response","trial_index":155,"time_elapsed":8121095,"internal_node_id":"0.0-6.0-0.15","subject_id":"611fdc56b6ad06b50c2de059","study_id":"6197b3f67c2b5cd3b6d9596a","session_id":"6197b5d7424bd7bec6f2f31b","condition":"contingent","relevant_dimensions":["antennae","legs"],"bee_group":{"antennae":"B","wings":"X","pattern":"X","legs":"M"},"bonus":0.680000000000001},{"rt":1193,"stimulus":"bees-with-color/bee-A2DF.svg","response":0,"trial_type":"image-button-response","trial_index":156,"time_elapsed":8122299,"internal_node_id":"0.0-6.0-0.16","subject_id":"611fdc56b6ad06b50c2de059","study_id":"6197b3f67c2b5cd3b6d9596a","session_id":"6197b5d7424bd7bec6f2f31b","condition":"contingent","relevant_dimensions":["antennae","legs"],"bee_group":{"antennae":"B","wings":"X","pattern":"X","legs":"M"},"bonus":0.680000000000001},{"rt":955,"stimulus":"bees-with-color/bee-A2SM.svg","response":0,"trial_type":"image-button-response","trial_index":157,"time_elapsed":8123257,"internal_node_id":"0.0-6.0-0.17","subject_id":"611fdc56b6ad06b50c2de059","study_id":"6197b3f67c2b5cd3b6d9596a","session_id":"6197b5d7424bd7bec6f2f31b","condition":"contingent","relevant_dimensions":["antennae","legs"],"bee_group":{"antennae":"B","wings":"X","pattern":"X","legs":"M"},"bonus":0.680000000000001},{"rt":456,"stimulus":"bees-with-color/bee-A1DM.svg","response":0,"trial_type":"image-button-response","trial_index":158,"time_elapsed":8123716,"internal_node_id":"0.0-6.0-0.18","subject_id":"611fdc56b6ad06b50c2de059","study_id":"6197b3f67c2b5cd3b6d9596a","session_id":"6197b5d7424bd7bec6f2f31b","condition":"contingent","relevant_dimensions":["antennae","legs"],"bee_group":{"antennae":"B","wings":"X","pattern":"X","legs":"M"},"bonus":0.680000000000001},{"rt":503,"stimulus":"bees-with-color/bee-A1SM.svg","response":0,"trial_type":"image-button-response","trial_index":159,"time_elapsed":8124223,"internal_node_id":"0.0-6.0-0.19","subject_id":"611fdc56b6ad06b50c2de059","study_id":"6197b3f67c2b5cd3b6d9596a","session_id":"6197b5d7424bd7bec6f2f31b","condition":"contingent","relevant_dimensions":["antennae","legs"],"bee_group":{"antennae":"B","wings":"X","pattern":"X","legs":"M"},"bonus":0.680000000000001},{"rt":1332,"stimulus":"bees-with-color/bee-B1DM.svg","response":1,"trial_type":"image-button-response","trial_index":160,"time_elapsed":8125559,"internal_node_id":"0.0-6.0-0.20","subject_id":"611fdc56b6ad06b50c2de059","study_id":"6197b3f67c2b5cd3b6d9596a","session_id":"6197b5d7424bd7bec6f2f31b","condition":"contingent","relevant_dimensions":["antennae","legs"],"bee_group":{"antennae":"B","wings":"X","pattern":"X","legs":"M"},"bonus":0.680000000000001},{"rt":593,"stimulus":"bees-with-color/bee-B2DF.svg","response":1,"trial_type":"image-button-response","trial_index":161,"time_elapsed":8126164,"internal_node_id":"0.0-6.0-0.21","subject_id":"611fdc56b6ad06b50c2de059","study_id":"6197b3f67c2b5cd3b6d9596a","session_id":"6197b5d7424bd7bec6f2f31b","condition":"contingent","relevant_dimensions":["antennae","legs"],"bee_group":{"antennae":"B","wings":"X","pattern":"X","legs":"M"},"bonus":0.680000000000001},{"rt":500,"stimulus":"bees-with-color/bee-B2SF.svg","response":1,"trial_type":"image-button-response","trial_index":162,"time_elapsed":8126669,"internal_node_id":"0.0-6.0-0.22","subject_id":"611fdc56b6ad06b50c2de059","study_id":"6197b3f67c2b5cd3b6d9596a","session_id":"6197b5d7424bd7bec6f2f31b","condition":"contingent","relevant_dimensions":["antennae","legs"],"bee_group":{"antennae":"B","wings":"X","pattern":"X","legs":"M"},"bonus":0.680000000000001},{"rt":481,"stimulus":"bees-with-color/bee-B2SM.svg","response":1,"trial_type":"image-button-response","trial_index":163,"time_elapsed":8127155,"internal_node_id":"0.0-6.0-0.23","subject_id":"611fdc56b6ad06b50c2de059","study_id":"6197b3f67c2b5cd3b6d9596a","session_id":"6197b5d7424bd7bec6f2f31b","condition":"contingent","relevant_dimensions":["antennae","legs"],"bee_group":{"antennae":"B","wings":"X","pattern":"X","legs":"M"},"bonus":0.680000000000001},{"rt":1106,"stimulus":"bees-with-color/bee-A1DF.svg","response":0,"trial_type":"image-button-response","trial_index":16