[{"success":true,"trial_type":"fullscreen","trial_index":0,"time_elapsed":534199,"internal_node_id":"0.0-0.0","subject_id":"5de00d05988d7c0877eaa15a","study_id":"6197b3f67c2b5cd3b6d9596a","session_id":"619be320273a25afc661353b","condition":"contingent","relevant_dimensions":["wings","legs"],"bee_group":{"antennae":"X","wings":"2","pattern":"X","legs":"F"},"bonus":0.3200000000000013},{"success":true,"timeout":false,"failed_images":[],"failed_audio":[],"failed_video":[],"trial_type":"preload","trial_index":1,"time_elapsed":535894,"internal_node_id":"0.0-1.0","subject_id":"5de00d05988d7c0877eaa15a","study_id":"6197b3f67c2b5cd3b6d9596a","session_id":"619be320273a25afc661353b","condition":"contingent","relevant_dimensions":["wings","legs"],"bee_group":{"antennae":"X","wings":"2","pattern":"X","legs":"F"},"bonus":0.3200000000000013},{"rt":2363.300000011921,"stimulus":"Welcome! Press any key to begin.","response":" ","trial_type":"html-keyboard-response","trial_index":2,"time_elapsed":538258,"internal_node_id":"0.0-2.0","subject_id":"5de00d05988d7c0877eaa15a","study_id":"6197b3f67c2b5cd3b6d9596a","session_id":"619be320273a25afc661353b","condition":"contingent","relevant_dimensions":["wings","legs"],"bee_group":{"antennae":"X","wings":"2","pattern":"X","legs":"F"},"bonus":0.3200000000000013},{"view_history":[{"page_index":0,"viewing_time":3282.5999999940395},{"page_index":1,"viewing_time":9612},{"page_index":2,"viewing_time":7829.800000011921},{"page_index":3,"viewing_time":12913.199999988079},{"page_index":4,"viewing_time":6984},{"page_index":5,"viewing_time":5393},{"page_index":6,"viewing_time":9648.800000011921},{"page_index":7,"viewing_time":7426.199999988079},{"page_index":8,"viewing_time":4498.300000011921},{"page_index":9,"viewing_time":3822.7999999821186},{"page_index":10,"viewing_time":3459},{"page_index":11,"viewing_time":7710.200000017881},{"page_index":12,"viewing_time":6243.699999988079},{"page_index":13,"viewing_time":1038},{"page_index":14,"viewing_time":1494.0999999940395}],"rt":91356,"trial_type":"instructions","trial_index":3,"time_elapsed":629615,"internal_node_id":"0.0-3.0-0.0","subject_id":"5de00d05988d7c0877eaa15a","study_id":"6197b3f67c2b5cd3b6d9596a","session_id":"619be320273a25afc661353b","condition":"contingent","relevant_dimensions":["wings","legs"],"bee_group":{"antennae":"X","wings":"2","pattern":"X","legs":"F"},"bonus":0.3200000000000013},{"rt":11990.90000000596,"response":{"Q0":["Two or six legs","Stripes or spots on body","Single or double wings","Antennae or no antennae"]},"question_order":[0],"trial_type":"survey-multi-select","trial_index":4,"time_elapsed":641611,"internal_node_id":"0.0-3.0-1.0","subject_id":"5de00d05988d7c0877eaa15a","study_id":"6197b3f67c2b5cd3b6d9596a","session_id":"619be320273a25afc661353b","condition":"contingent","relevant_dimensions":["wings","legs"],"bee_group":{"antennae":"X","wings":"2","pattern":"X","legs":"F"},"correct":true,"bonus":0.3200000000000013},{"rt":21722.30000001192,"response":{"Q1":"No.","Q2":"Based on the four features of the bee.","Q3":"You do not learn if it was friendly or dangerous, and do not alter your bonus."},"question_order":[0,1,2],"trial_type":"survey-multi-choice","trial_index":5,"time_elapsed":663336,"internal_node_id":"0.0-3.0-2.0","subject_id":"5de00d05988d7c0877eaa15a","study_id":"6197b3f67c2b5cd3b6d9596a","session_id":"619be320273a25afc661353b","condition":"contingent","relevant_dimensions":["wings","legs"],"bee_group":{"antennae":"X","wings":"2","pattern":"X","legs":"F"},"correct":true,"bonus":0.3200000000000013},{"rt":2988.2999999821186,"stimulus":"<p>Congrats, you got everything right<br>When you're ready, click the button below to continue to the experiment.</p>","response":0,"trial_type":"html-button-response","trial_index":6,"time_elapsed":666326,"internal_node_id":"0.0-3.0-3.0","subject_id":"5de00d05988d7c0877eaa15a","study_id":"6197b3f67c2b5cd3b6d9596a","session_id":"619be320273a25afc661353b","condition":"contingent","relevant_dimensions":["wings","legs"],"bee_group":{"antennae":"X","wings":"2","pattern":"X","legs":"F"},"bonus":0.3200000000000013},{"rt":5443.0999999940395,"stimulus":"bees-with-color/bee-A1SF.svg","response":0,"trial_type":"image-button-response","trial_index":7,"time_elapsed":671772,"internal_node_id":"0.0-4.0-0.0","subject_id":"5de00d05988d7c0877eaa15a","study_id":"6197b3f67c2b5cd3b6d9596a","session_id":"619be320273a25afc661353b","condition":"contingent","relevant_dimensions":["wings","legs"],"bee_group":{"antennae":"X","wings":"2","pattern":"X","legs":"F"},"action":"harvest","summary":"good-harvest","bonus":0.3200000000000013},{"rt":4321.300000011921,"stimulus":"\n                    <p><b>Action: <em>harvest</em></b></p>\n                    <p>This is the bee that you just saw.</p>\n                    <img src=\"bees-with-color/bee-A1SF.svg\" width=\"200\">\n                    <p><span class=\"greenText\"><b>Successful harvest!</b></span><br>Your pay has increased by $0.02. Your bonus pay is now $0.56.</p>\n            ","response":0,"trial_type":"html-button-response","trial_index":8,"time_elapsed":676096,"internal_node_id":"0.0-4.0-1.0","subject_id":"5de00d05988d7c0877eaa15a","study_id":"6197b3f67c2b5cd3b6d9596a","session_id":"619be320273a25afc661353b","condition":"contingent","relevant_dimensions":["wings","legs"],"bee_group":{"antennae":"X","wings":"2","pattern":"X","legs":"F"},"bonus":0.3200000000000013},{"rt":5414.5,"stimulus":"bees-with-color/bee-B2DF.svg","response":0,"trial_type":"image-button-response","trial_index":9,"time_elapsed":681513,"internal_node_id":"0.0-4.0-0.1","subject_id":"5de00d05988d7c0877eaa15a","study_id":"6197b3f67c2b5cd3b6d9596a","session_id":"619be320273a25afc661353b","condition":"contingent","relevant_dimensions":["wings","legs"],"bee_group":{"antennae":"X","wings":"2","pattern":"X","legs":"F"},"action":"harvest","summary":"bad-harvest","bonus":0.3200000000000013},{"rt":4621.100000023842,"stimulus":"\n                    <p><b>Action: <em>harvest</em></b></p>\n                    <p>This is the bee that you just saw.</p>\n                    <img src=\"bees-with-color/bee-B2DF.svg\" width=\"200\">\n                    <p><span class=\"redText\">Bad choice, the bee was angry.</span><br><b>You have been stung!</b><br>Your pay has been decreased by $0.10. Your bonus pay is now $0.46.</p>\n            ","response":0,"trial_type":"html-button-response","trial_index":10,"time_elapsed":686136,"internal_node_id":"0.0-4.0-1.1","subject_id":"5de00d05988d7c0877eaa15a","study_id":"6197b3f67c2b5cd3b6d9596a","session_id":"619be320273a25afc661353b","condition":"contingent","relevant_dimensions":["wings","legs"],"bee_group":{"antennae":"X","wings":"2","pattern":"X","legs":"F"},"bonus":0.3200000000000013},{"rt":2791.9000000059605,"stimulus":"bees-with-color/bee-A1SM.svg","response":0,"trial_type":"image-button-response","trial_index":11,"time_elapsed":688930,"internal_node_id":"0.0-4.0-0.2","subject_id":"5de00d05988d7c0877eaa15a","study_id":"6197b3f67c2b5cd3b6d9596a","session_id":"619be320273a25afc661353b","condition":"contingent","relevant_dimensions":["wings","legs"],"bee_group":{"antennae":"X","wings":"2","pattern":"X","legs":"F"},"action":"harvest","summary":"good-harvest","bonus":0.3200000000000013},{"rt":2438.5,"stimulus":"\n                    <p><b>Action: <em>harvest</em></b></p>\n                    <p>This is the bee that you just saw.</p>\n                    <img src=\"bees-with-color/bee-A1SM.svg\" width=\"200\">\n                    <p><span class=\"greenText\"><b>Successful harvest!</b></span><br>Your pay has increased by $0.02. Your bonus pay is now $0.48.</p>\n            ","response":0,"trial_type":"html-button-response","trial_index":12,"time_elapsed":691370,"internal_node_id":"0.0-4.0-1.2","subject_id":"5de00d05988d7c0877eaa15a","study_id":"6197b3f67c2b5cd3b6d9596a","session_id":"619be320273a25afc661353b","condition":"contingent","relevant_dimensions":["wings","legs"],"bee_group":{"antennae":"X","wings":"2","pattern":"X","legs":"F"},"bonus":0.3200000000000013},{"rt":3151.800000011921,"stimulus":"bees-with-color/bee-B1DF.svg","response":0,"trial_type":"image-button-response","trial_index":13,"time_elapsed":694524,"internal_node_id":"0.0-4.0-0.3","subject_id":"5de00d05988d7c0877eaa15a","study_id":"6197b3f67c2b5cd3b6d9596a","session_id":"619be320273a25afc661353b","condition":"contingent","relevant_dimensions":["wings","legs"],"bee_group":{"antennae":"X","wings":"2","pattern":"X","legs":"F"},"action":"harvest","summary":"good-harvest","bonus":0.3200000000000013},{"rt":3880.2000000178814,"stimulus":"\n                    <p><b>Action: <em>harvest</em></b></p>\n                    <p>This is the bee that you just saw.</p>\n                    <img src=\"bees-with-color/bee-B1DF.svg\" width=\"200\">\n                    <p><span class=\"greenText\"><b>Successful harvest!</b></span><br>Your pay has increased by $0.02. Your bonus pay is now $0.50.</p>\n            ","response":0,"trial_type":"html-button-response","trial_index":14,"time_elapsed":698406,"internal_node_id":"0.0-4.0-1.3","subject_id":"5de00d05988d7c0877eaa15a","study_id":"6197b3f67c2b5cd3b6d9596a","session_id":"619be320273a25afc661353b","condition":"contingent","relevant_dimensions":["wings","legs"],"bee_group":{"antennae":"X","wings":"2","pattern":"X","legs":"F"},"bonus":0.3200000000000013},{"rt":3302.199999988079,"stimulus":"bees-with-color/bee-A1DM.svg","response":0,"trial_type":"image-button-response","trial_index":15,"time_elapsed":701710,"internal_node_id":"0.0-4.0-0.4","subject_id":"5de00d05988d7c0877eaa15a","study_id":"6197b3f67c2b5cd3b6d9596a","session_id":"619be320273a25afc661353b","condition":"contingent","relevant_dimensions":["wings","legs"],"bee_group":{"antennae":"X","wings":"2","pattern":"X","legs":"F"},"action":"harvest","summary":"good-harvest","bonus":0.3200000000000013},{"rt":887,"stimulus":"\n                    <p><b>Action: <em>harvest</em></b></p>\n                    <p>This is the bee that you just saw.</p>\n                    <img src=\"bees-with-color/bee-A1DM.svg\" width=\"200\">\n                    <p><span class=\"greenText\"><b>Successful harvest!</b></span><br>Your pay has increased by $0.02. Your bonus pay is now $0.52.</p>\n            ","response":0,"trial_type":"html-button-response","trial_index":16,"time_elapsed":702599,"internal_node_id":"0.0-4.0-1.4","subject_id":"5de00d05988d7c0877eaa15a","study_id":"6197b3f67c2b5cd3b6d9596a","session_id":"619be320273a25afc661353b","condition":"contingent","relevant_dimensions":["wings","legs"],"bee_group":{"antennae":"X","wings":"2","pattern":"X","legs":"F"},"bonus":0.3200000000000013},{"rt":2445.199999988079,"stimulus":"bees-with-color/bee-B1DM.svg","response":0,"trial_type":"image-button-response","trial_index":17,"time_elapsed":705046,"internal_node_id":"0.0-4.0-0.5","subject_id":"5de00d05988d7c0877eaa15a","study_id":"6197b3f67c2b5cd3b6d9596a","session_id":"619be320273a25afc661353b","condition":"contingent","relevant_dimensions":["wings","legs"],"bee_group":{"antennae":"X","wings":"2","pattern":"X","legs":"F"},"action":"harvest","summary":"good-harvest","bonus":0.3200000000000013},{"rt":819.1999999880791,"stimulus":"\n                    <p><b>Action: <em>harvest</em></b></p>\n                    <p>This is the bee that you just saw.</p>\n                    <img src=\"bees-with-color/bee-B1DM.svg\" width=\"200\">\n                    <p><span class=\"greenText\"><b>Successful harvest!</b></span><br>Your pay has increased by $0.02. Your bonus pay is now $0.54.</p>\n            ","response":0,"trial_type":"html-button-response","trial_index":18,"time_elapsed":705867,"internal_node_id":"0.0-4.0-1.5","subject_id":"5de00d05988d7c0877eaa15a","study_id":"6197b3f67c2b5cd3b6d9596a","session_id":"619be320273a25afc661353b","condition":"contingent","relevant_dimensions":["wings","legs"],"bee_group":{"antennae":"X","wings":"2","pattern":"X","legs":"F"},"bonus":0.3200000000000013},{"rt":5001.4000000059605,"stimulus":"bees-with-color/bee-B2SF.svg","response":0,"trial_type":"image-button-response","trial_index":19,"time_elapsed":710870,"internal_node_id":"0.0-4.0-0.6","subject_id":"5de00d05988d7c0877eaa15a","study_id":"6197b3f67c2b5cd3b6d9596a","session_id":"619be320273a25afc661353b","condition":"contingent","relevant_dimensions":["wings","legs"],"bee_group":{"antennae":"X","wings":"2","pattern":"X","legs":"F"},"action":"harvest","summary":"bad-harvest","bonus":0.3200000000000013},{"rt":930.6999999880791,"stimulus":"\n                    <p><b>Action: <em>harvest</em></b></p>\n                    <p>This is the bee that you just saw.</p>\n                    <img src=\"bees-with-color/bee-B2SF.svg\" width=\"200\">\n                    <p><span class=\"redText\">Bad choice, the bee was angry.</span><br><b>You have been stung!</b><br>Your pay has been decreased by $0.10. Your bonus pay is now $0.44.</p>\n            ","response":0,"trial_type":"html-button-response","trial_index":20,"time_elapsed":711803,"internal_node_id":"0.0-4.0-1.6","subject_id":"5de00d05988d7c0877eaa15a","study_id":"6197b3f67c2b5cd3b6d9596a","session_id":"619be320273a25afc661353b","condition":"contingent","relevant_dimensions":["wings","legs"],"bee_group":{"antennae":"X","wings":"2","pattern":"X","legs":"F"},"bonus":0.3200000000000013},{"rt":2880.300000011921,"stimulus":"bees-with-color/bee-B2DM.svg","response":0,"trial_type":"image-button-response","trial_index":21,"time_elapsed":714685,"internal_node_id":"0.0-4.0-0.7","subject_id":"5de00d05988d7c0877eaa15a","study_id":"6197b3f67c2b5cd3b6d9596a","session_id":"619be320273a25afc661353b","condition":"contingent","relevant_dimensions":["wings","legs"],"bee_group":{"antennae":"X","wings":"2","pattern":"X","legs":"F"},"action":"harvest","summary":"good-harvest","bonus":0.3200000000000013},{"rt":722.7999999821186,"stimulus":"\n                    <p><b>Action: <em>harvest</em></b></p>\n                    <p>This is the bee that you just saw.</p>\n                    <img src=\"bees-with-color/bee-B2DM.svg\" width=\"200\">\n                    <p><span class=\"greenText\"><b>Successful harvest!</b></span><br>Your pay has increased by $0.02. Your bonus pay is now $0.46.</p>\n            ","response":0,"trial_type":"html-button-response","trial_index":22,"time_elapsed":715410,"internal_node_id":"0.0-4.0-1.7","subject_id":"5de00d05988d7c0877eaa15a","study_id":"6197b3f67c2b5cd3b6d9596a","session_id":"619be320273a25afc661353b","condition":"contingent","relevant_dimensions":["wings","legs"],"bee_group":{"antennae":"X","wings":"2","pattern":"X","legs":"F"},"bonus":0.3200000000000013},{"rt":2702.5,"stimulus":"bees-with-color/bee-A1DF.svg","response":0,"trial_type":"image-button-response","trial_index":23,"time_elapsed":718115,"internal_node_id":"0.0-4.0-0.8","subject_id":"5de00d05988d7c0877eaa15a","study_id":"6197b3f67c2b5cd3b6d9596a","session_id":"619be320273a25afc661353b","condition":"contingent","relevant_dimensions":["wings","legs"],"bee_group":{"antennae":"X","wings":"2","pattern":"X","legs":"F"},"action":"harvest","summary":"good-harvest","bonus":0.3200000000000013},{"rt":723.5,"stimulus":"\n                    <p><b>Action: <em>harvest</em></b></p>\n                    <p>This is the bee that you just saw.</p>\n                    <img src=\"bees-with-color/bee-A1DF.svg\" width=\"200\">\n                    <p><span class=\"greenText\"><b>Successful harvest!</b></span><br>Your pay has increased by $0.02. Your bonus pay is now $0.48.</p>\n            ","response":0,"trial_type":"html-button-response","trial_index":24,"time_elapsed":718840,"internal_node_id":"0.0-4.0-1.8","subject_id":"5de00d05988d7c0877eaa15a","study_id":"6197b3f67c2b5cd3b6d9596a","session_id":"619be320273a25afc661353b","condition":"contingent","relevant_dimensions":["wings","legs"],"bee_group":{"antennae":"X","wings":"2","pattern":"X","legs":"F"},"bonus":0.3200000000000013},{"rt":5272,"stimulus":"bees-with-color/bee-B1SF.svg","response":0,"trial_type":"image-button-response","trial_index":25,"time_elapsed":724114,"internal_node_id":"0.0-4.0-0.9","subject_id":"5de00d05988d7c0877eaa15a","study_id":"6197b3f67c2b5cd3b6d9596a","session_id":"619be320273a25afc661353b","condition":"contingent","relevant_dimensions":["wings","legs"],"bee_group":{"antennae":"X","wings":"2","pattern":"X","legs":"F"},"action":"harvest","summary":"good-harvest","bonus":0.3200000000000013},{"rt":814.5,"stimulus":"\n                    <p><b>Action: <em>harvest</em></b></p>\n                    <p>This is the bee that you just saw.</p>\n                    <img src=\"bees-with-color/bee-B1SF.svg\" width=\"200\">\n                    <p><span class=\"greenText\"><b>Successful harvest!</b></span><br>Your pay has increased by $0.02. Your bonus pay is now $0.50.</p>\n            ","response":0,"trial_type":"html-button-response","trial_index":26,"time_elapsed":724930,"internal_node_id":"0.0-4.0-1.9","subject_id":"5de00d05988d7c0877eaa15a","study_id":"6197b3f67c2b5cd3b6d9596a","session_id":"619be320273a25afc661353b","condition":"contingent","relevant_dimensions":["wings","legs"],"bee_group":{"antennae":"X","wings":"2","pattern":"X","legs":"F"},"bonus":0.3200000000000013},{"rt":2173.7000000178814,"stimulus":"bees-with-color/bee-A2SF.svg","response":0,"trial_type":"image-button-response","trial_index":27,"time_elapsed":727105,"internal_node_id":"0.0-4.0-0.10","subject_id":"5de00d05988d7c0877eaa15a","study_id":"6197b3f67c2b5cd3b6d9596a","session_id":"619be320273a25afc661353b","condition":"contingent","relevant_dimensions":["wings","legs"],"bee_group":{"antennae":"X","wings":"2","pattern":"X","legs":"F"},"action":"harvest","summary":"bad-harvest","bonus":0.3200000000000013},{"rt":879.4000000059605,"stimulus":"\n                    <p><b>Action: <em>harvest</em></b></p>\n                    <p>This is the bee that you just saw.</p>\n                    <img src=\"bees-with-color/bee-A2SF.svg\" width=\"200\">\n                    <p><span class=\"redText\">Bad choice, the bee was angry.</span><br><b>You have been stung!</b><br>Your pay has been decreased by $0.10. Your bonus pay is now $0.40.</p>\n            ","response":0,"trial_type":"html-button-response","trial_index":28,"time_elapsed":727987,"internal_node_id":"0.0-4.0-1.10","subject_id":"5de00d05988d7c0877eaa15a","study_id":"6197b3f67c2b5cd3b6d9596a","session_id":"619be320273a25afc661353b","condition":"contingent","relevant_dimensions":["wings","legs"],"bee_group":{"antennae":"X","wings":"2","pattern":"X","legs":"F"},"bonus":0.3200000000000013},{"rt":1516.9000000059605,"stimulus":"bees-with-color/bee-B1SM.svg","response":0,"trial_type":"image-button-response","trial_index":29,"time_elapsed":729505,"internal_node_id":"0.0-4.0-0.11","subject_id":"5de00d05988d7c0877eaa15a","study_id":"6197b3f67c2b5cd3b6d9596a","session_id":"619be320273a25afc661353b","condition":"contingent","relevant_dimensions":["wings","legs"],"bee_group":{"antennae":"X","wings":"2","pattern":"X","legs":"F"},"action":"harvest","summary":"good-harvest","bonus":0.3200000000000013},{"rt":602.5,"stimulus":"\n                    <p><b>Action: <em>harvest</em></b></p>\n                    <p>This is the bee that you just saw.</p>\n                    <img src=\"bees-with-color/bee-B1SM.svg\" width=\"200\">\n                    <p><span class=\"greenText\"><b>Successful harvest!</b></span><br>Your pay has increased by $0.02. Your bonus pay is now $0.42.</p>\n            ","response":0,"trial_type":"html-button-response","trial_index":30,"time_elapsed":730109,"internal_node_id":"0.0-4.0-1.11","subject_id":"5de00d05988d7c0877eaa15a","study_id":"6197b3f67c2b5cd3b6d9596a","session_id":"619be320273a25afc661353b","condition":"contingent","relevant_dimensions":["wings","legs"],"bee_group":{"antennae":"X","wings":"2","pattern":"X","legs":"F"},"bonus":0.3200000000000013},{"rt":2444.9000000059605,"stimulus":"bees-with-color/bee-A2DF.svg","response":0,"trial_type":"image-button-response","trial_index":31,"time_elapsed":732555,"internal_node_id":"0.0-4.0-0.12","subject_id":"5de00d05988d7c0877eaa15a","study_id":"6197b3f67c2b5cd3b6d9596a","session_id":"619be320273a25afc661353b","condition":"contingent","relevant_dimensions":["wings","legs"],"bee_group":{"antennae":"X","wings":"2","pattern":"X","legs":"F"},"action":"harvest","summary":"bad-harvest","bonus":0.3200000000000013},{"rt":928.3999999761581,"stimulus":"\n                    <p><b>Action: <em>harvest</em></b></p>\n                    <p>This is the bee that you just saw.</p>\n                    <img src=\"bees-with-color/bee-A2DF.svg\" width=\"200\">\n                    <p><span class=\"redText\">Bad choice, the bee was angry.</span><br><b>You have been stung!</b><br>Your pay has been decreased by $0.10. Your bonus pay is now $0.32.</p>\n            ","response":0,"trial_type":"html-button-response","trial_index":32,"time_elapsed":733485,"internal_node_id":"0.0-4.0-1.12","subject_id":"5de00d05988d7c0877eaa15a","study_id":"6197b3f67c2b5cd3b6d9596a","session_id":"619be320273a25afc661353b","condition":"contingent","relevant_dimensions":["wings","legs"],"bee_group":{"antennae":"X","wings":"2","pattern":"X","legs":"F"},"bonus":0.3200000000000013},{"rt":1462.0999999940395,"stimulus":"bees-with-color/bee-B2SM.svg","response":0,"trial_type":"image-button-response","trial_index":33,"time_elapsed":734949,"internal_node_id":"0.0-4.0-0.13","subject_id":"5de00d05988d7c0877eaa15a","study_id":"6197b3f67c2b5cd3b6d9596a","session_id":"619be320273a25afc661353b","condition":"contingent","relevant_dimensions":["wings","legs"],"bee_group":{"antennae":"X","wings":"2","pattern":"X","legs":"F"},"action":"harvest","summary":"good-harvest","bonus":0.3200000000000013},{"rt":493,"stimulus":"\n                    <p><b>Action: <em>harvest</em></b></p>\n                    <p>This is the bee that you just saw.</p>\n                    <img src=\"bees-with-color/bee-B2SM.svg\" width=\"200\">\n                    <p><span class=\"greenText\"><b>Successful harvest!</b></span><br>Your pay has increased by $0.02. Your bonus pay is now $0.34.</p>\n            ","response":0,"trial_type":"html-button-response","trial_index":34,"time_elapsed":735444,"internal_node_id":"0.0-4.0-1.13","subject_id":"5de00d05988d7c0877eaa15a","study_id":"6197b3f67c2b5cd3b6d9596a","session_id":"619be320273a25afc661353b","condition":"contingent","relevant_dimensions":["wings","legs"],"bee_group":{"antennae":"X","wings":"2","pattern":"X","legs":"F"},"bonus":0.3200000000000013},{"rt":4570.199999988079,"stimulus":"bees-with-color/bee-A2DM.svg","response":0,"trial_type":"image-button-response","trial_index":35,"time_elapsed":740016,"internal_node_id":"0.0-4.0-0.14","subject_id":"5de00d05988d7c0877eaa15a","study_id":"6197b3f67c2b5cd3b6d9596a","session_id":"619be320273a25afc661353b","condition":"contingent","relevant_dimensions":["wings","legs"],"bee_group":{"antennae":"X","wings":"2","pattern":"X","legs":"F"},"action":"harvest","summary":"good-harvest","bonus":0.3200000000000013},{"rt":660.5999999940395,"stimulus":"\n                    <p><b>Action: <em>harvest</em></b></p>\n                    <p>This is the bee that you just saw.</p>\n                    <img src=\"bees-with-color/bee-A2DM.svg\" width=\"200\">\n                    <p><span class=\"greenText\"><b>Successful harvest!</b></span><br>Your pay has increased by $0.02. Your bonus pay is now $0.36.</p>\n            ","response":0,"trial_type":"html-button-response","trial_index":36,"time_elapsed":740678,"internal_node_id":"0.0-4.0-1.14","subject_id":"5de00d05988d7c0877eaa15a","study_id":"6197b3f67c2b5cd3b6d9596a","session_id":"619be320273a25afc661353b","condition":"contingent","relevant_dimensions":["wings","legs"],"bee_group":{"antennae":"X","wings":"2","pattern":"X","legs":"F"},"bonus":0.3200000000000013},{"rt":2044,"stimulus":"bees-with-color/bee-A2SM.svg","response":0,"trial_type":"image-button-response","trial_index":37,"time_elapsed":742724,"internal_node_id":"0.0-4.0-0.15","subject_id":"5de00d05988d7c0877eaa15a","study_id":"6197b3f67c2b5cd3b6d9596a","session_id":"619be320273a25afc661353b","condition":"contingent","relevant_dimensions":["wings","legs"],"bee_group":{"antennae":"X","wings":"2","pattern":"X","legs":"F"},"action":"harvest","summary":"good-harvest","bonus":0.3200000000000013},{"rt":986.6999999880791,"stimulus":"\n                    <p><b>Action: <em>harvest</em></b></p>\n                    <p>This is the bee that you just saw.</p>\n                    <img src=\"bees-with-color/bee-A2SM.svg\" width=\"200\">\n                    <p><span class=\"greenText\"><b>Successful harvest!</b></span><br>Your pay has increased by $0.02. Your bonus pay is now $0.38.</p>\n            ","response":0,"trial_type":"html-button-response","trial_index":38,"time_elapsed":743712,"internal_node_id":"0.0-4.0-1.15","subject_id":"5de00d05988d7c0877eaa15a","study_id":"6197b3f67c2b5cd3b6d9596a","session_id":"619be320273a25afc661353b","condition":"contingent","relevant_dimensions":["wings","legs"],"bee_group":{"antennae":"X","wings":"2","pattern":"X","legs":"F"},"bonus":0.3200000000000013},{"rt":5362.0999999940395,"stimulus":"bees-with-color/bee-A1DM.svg","response":0,"trial_type":"image-button-response","trial_index":39,"time_elapsed":749076,"internal_node_id":"0.0-4.0-0.16","subject_id":"5de00d05988d7c0877eaa15a","study_id":"6197b3f67c2b5cd3b6d9596a","session_id":"619be320273a25afc661353b","condition":"contingent","relevant_dimensions":["wings","legs"],"bee_group":{"antennae":"X","wings":"2","pattern":"X","legs":"F"},"action":"harvest","summary":"good-harvest","bonus":0.3200000000000013},{"rt":1083.2999999821186,"stimulus":"\n                    <p><b>Action: <em>harvest</em></b></p>\n                    <p>This is the bee that you just saw.</p>\n                    <img src=\"bees-with-color/bee-A1DM.svg\" width=\"200\">\n                    <p><span class=\"greenText\"><b>Successful harvest!</b></span><br>Your pay has increased by $0.02. Your bonus pay is now $0.40.</p>\n            ","response":0,"trial_type":"html-button-response","trial_index":40,"time_elapsed":750161,"internal_node_id":"0.0-4.0-1.16","subject_id":"5de00d05988d7c0877eaa15a","study_id":"6197b3f67c2b5cd3b6d9596a","session_id":"619be320273a25afc661353b","condition":"contingent","relevant_dimensions":["wings","legs"],"bee_group":{"antennae":"X","wings":"2","pattern":"X","legs":"F"},"bonus":0.3200000000000013},{"rt":5970.800000011921,"stimulus":"bees-with-color/bee-A2SM.svg","response":0,"trial_type":"image-button-response","trial_index":41,"time_elapsed":756134,"internal_node_id":"0.0-4.0-0.17","subject_id":"5de00d05988d7c0877eaa15a","study_id":"6197b3f67c2b5cd3b6d9596a","session_id":"619be320273a25afc661353b","condition":"contingent","relevant_dimensions":["wings","legs"],"bee_group":{"antennae":"X","wings":"2","pattern":"X","legs":"F"},"action":"harvest","summary":"good-harvest","bonus":0.3200000000000013},{"rt":1154.8999999761581,"stimulus":"\n                    <p><b>Action: <em>harvest</em></b></p>\n                    <p>This is the bee that you just saw.</p>\n                    <img src=\"bees-with-color/bee-A2SM.svg\" width=\"200\">\n                    <p><span class=\"greenText\"><b>Successful harvest!</b></span><br>Your pay has increased by $0.02. Your bonus pay is now $0.42.</p>\n            ","response":0,"trial_type":"html-button-response","trial_index":42,"time_elapsed":757291,"internal_node_id":"0.0-4.0-1.17","subject_id":"5de00d05988d7c0877eaa15a","study_id":"6197b3f67c2b5cd3b6d9596a","session_id":"619be320273a25afc661353b","condition":"contingent","relevant_dimensions":["wings","legs"],"bee_group":{"antennae":"X","wings":"2","pattern":"X","legs":"F"},"bonus":0.3200000000000013},{"rt":3730,"stimulus":"bees-with-color/bee-B2DF.svg","response":1,"trial_type":"image-button-response","trial_index":43,"time_elapsed":761023,"internal_node_id":"0.0-4.0-0.18","subject_id":"5de00d05988d7c0877eaa15a","study_id":"6197b3f67c2b5cd3b6d9596a","session_id":"619be320273a25afc661353b","condition":"contingent","relevant_dimensions":["wings","legs"],"bee_group":{"antennae":"X","wings":"2","pattern":"X","legs":"F"},"action":"avoid","summary":"good-avoid","bonus":0.3200000000000013},{"rt":3947.199999988079,"stimulus":"\n                    <p><b>Action: <em>avoid</em></b></p>\n                    <p>This is the bee that you just saw.</p>\n                    <img src=\"bees-with-color/bee-B2DF.svg\" width=\"200\">\n                    <p><br>Your bonus pay is unchanged, and remains at $0.42.</p>\n            ","response":0,"trial_type":"html-button-response","trial_index":44,"time_elapsed":764972,"internal_node_id":"0.0-4.0-1.18","subject_id":"5de00d05988d7c0877eaa15a","study_id":"6197b3f67c2b5cd3b6d9596a","session_id":"619be320273a25afc661353b","condition":"contingent","relevant_dimensions":["wings","legs"],"bee_group":{"antennae":"X","wings":"2","pattern":"X","legs":"F"},"bonus":0.3200000000000013},{"rt":953.0999999940395,"stimulus":"bees-with-color/bee-B1SM.svg","response":0,"trial_type":"image-button-response","trial_index":45,"time_elapsed":765927,"internal_node_id":"0.0-4.0-0.19","subject_id":"5de00d05988d7c0877eaa15a","study_id":"6197b3f67c2b5cd3b6d9596a","session_id":"619be320273a25afc661353b","condition":"contingent","relevant_dimensions":["wings","legs"],"bee_group":{"antennae":"X","wings":"2","pattern":"X","legs":"F"},"action":"harvest","summary":"good-harvest","bonus":0.3200000000000013},{"rt":1029.2999999821186,"stimulus":"\n                    <p><b>Action: <em>harvest</em></b></p>\n                    <p>This is the bee that you just saw.</p>\n                    <img src=\"bees-with-color/bee-B1SM.svg\" width=\"200\">\n                    <p><span class=\"greenText\"><b>Successful harvest!</b></span><br>Your pay has increased by $0.02. Your bonus pay is now $0.44.</p>\n            ","response":0,"trial_type":"html-button-response","trial_index":46,"time_elapsed":766958,"internal_node_id":"0.0-4.0-1.19","subject_id":"5de00d05988d7c0877eaa15a","study_id":"6197b3f67c2b5cd3b6d9596a","session_id":"619be320273a25afc661353b","condition":"contingent","relevant_dimensions":["wings","legs"],"bee_group":{"antennae":"X","wings":"2","pattern":"X","legs":"F"},"bonus":0.3200000000000013},{"rt":2445.300000011921,"stimulus":"bees-with-color/bee-A1SF.svg","response":0,"trial_type":"image-button-response","trial_index":47,"time_elapsed":769405,"internal_node_id":"0.0-4.0-0.20","subject_id":"5de00d05988d7c0877eaa15a","study_id":"6197b3f67c2b5cd3b6d9596a","session_id":"619be320273a25afc661353b","condition":"contingent","relevant_dimensions":["wings","legs"],"bee_group":{"antennae":"X","wings":"2","pattern":"X","legs":"F"},"action":"harvest","summary":"good-harvest","bonus":0.3200000000000013},{"rt":798,"stimulus":"\n                    <p><b>Action: <em>harvest</em></b></p>\n                    <p>This is the bee that you just saw.</p>\n                    <img src=\"bees-with-color/bee-A1SF.svg\" width=\"200\">\n                    <p><span class=\"greenText\"><b>Successful harvest!</b></span><br>Your pay has increased by $0.02. Your bonus pay is now $0.46.</p>\n            ","response":0,"trial_type":"html-button-response","trial_index":48,"time_elapsed":770205,"internal_node_id":"0.0-4.0-1.20","subject_id":"5de00d05988d7c0877eaa15a","study_id":"6197b3f67c2b5cd3b6d9596a","session_id":"619be320273a25afc661353b","condition":"contingent","relevant_dimensions":["wings","legs"],"bee_group":{"antennae":"X","wings":"2","pattern":"X","legs":"F"},"bonus":0.3200000000000013},{"rt":4040.5999999940395,"stimulus":"bees-with-color/bee-A2DF.svg","response":1,"trial_type":"image-button-response","trial_index":49,"time_elapsed":774247,"internal_node_id":"0.0-4.0-0.21","subject_id":"5de00d05988d7c0877eaa15a","study_id":"6197b3f67c2b5cd3b6d9596a","session_id":"619be320273a25afc661353b","condition":"contingent","relevant_dimensions":["wings","legs"],"bee_group":{"antennae":"X","wings":"2","pattern":"X","legs":"F"},"action":"avoid","summary":"good-avoid","bonus":0.3200000000000013},{"rt":563.9000000059605,"stimulus":"\n                    <p><b>Action: <em>avoid</em></b></p>\n                    <p>This is the bee that you just saw.</p>\n                    <img src=\"bees-with-color/bee-A2DF.svg\" width=\"200\">\n                    <p><br>Your bonus pay is unchanged, and remains at $0.46.</p>\n            ","response":0,"trial_type":"html-button-response","trial_index":50,"time_elapsed":774812,"internal_node_id":"0.0-4.0-1.21","subject_id":"5de00d05988d7c0877eaa15a","study_id":"6197b3f67c2b5cd3b6d9596a","session_id":"619be320273a25afc661353b","condition":"contingent","relevant_dimensions":["wings","legs"],"bee_group":{"antennae":"X","wings":"2","pattern":"X","legs":"F"},"bonus":0.3200000000000013},{"rt":937.1000000238419,"stimulus":"bees-with-color/bee-A1DF.svg","response":0,"trial_type":"image-button-response","trial_index":51,"time_elapsed":775751,"internal_node_id":"0.0-4.0-0.22","subject_id":"5de00d05988d7c0877eaa15a","study_id":"6197b3f67c2b5cd3b6d9596a","session_id":"619be320273a25afc661353b","condition":"contingent","relevant_dimensions":["wings","legs"],"bee_group":{"antennae":"X","wings":"2","pattern":"X","legs":"F"},"action":"harvest","summary":"good-harvest","bonus":0.3200000000000013},{"rt":1828.5,"stimulus":"\n                    <p><b>Action: <em>harvest</em></b></p>\n                    <p>This is the bee that you just saw.</p>\n                    <img src=\"bees-with-color/bee-A1DF.svg\" width=\"200\">\n                    <p><span class=\"greenText\"><b>Successful harvest!</b></span><br>Your pay has increased by $0.02. Your bonus pay is now $0.48.</p>\n            ","response":0,"trial_type":"html-button-response","trial_index":52,"time_elapsed":777581,"internal_node_id":"0.0-4.0-1.22","subject_id":"5de00d05988d7c0877eaa15a","study_id":"6197b3f67c2b5cd3b6d9596a","session_id":"619be320273a25afc661353b","condition":"contingent","relevant_dimensions":["wings","legs"],"bee_group":{"antennae":"X","wings":"2","pattern":"X","legs":"F"},"bonus":0.3200000000000013},{"rt":2505.800000011921,"stimulus":"bees-with-color/bee-B2DM.svg","response":0,"trial_type":"image-button-response","trial_index":53,"time_elapsed":780088,"internal_node_id":"0.0-4.0-0.23","subject_id":"5de00d05988d7c0877eaa15a","study_id":"6197b3f67c2b5cd3b6d9596a","session_id":"619be320273a25afc661353b","condition":"contingent","relevant_dimensions":["wings","legs"],"bee_group":{"antennae":"X","wings":"2","pattern":"X","legs":"F"},"action":"harvest","summary":"good-harvest","bonus":0.3200000000000013},{"rt":733.1999999880791,"stimulus":"\n                    <p><b>Action: <em>harvest</em></b></p>\n                    <p>This is the bee that you just saw.</p>\n                    <img src=\"bees-with-color/bee-B2DM.svg\" width=\"200\">\n                    <p><span class=\"greenText\"><b>Successful harvest!</b></span><br>Your pay has increased by $0.02. Your bonus pay is now $0.50.</p>\n            ","response":0,"trial_type":"html-button-response","trial_index":54,"time_elapsed":780823,"internal_node_id":"0.0-4.0-1.23","subject_id":"5de00d05988d7c0877eaa15a","study_id":"6197b3f67c2b5cd3b6d9596a","session_id":"619be320273a25afc661353b","condition":"contingent","relevant_dimensions":["wings","legs"],"bee_group":{"antennae":"X","wings":"2","pattern":"X","legs":"F"},"bonus":0.3200000000000013},{"rt":2479.399999976158,"stimulus":"bees-with-color/bee-A1SM.svg","response":0,"trial_type":"image-button-response","trial_index":55,"time_elapsed":783304,"internal_node_id":"0.0-4.0-0.24","subject_id":"5de00d05988d7c0877eaa15a","study_id":"6197b3f67c2b5cd3b6d9596a","session_id":"619be320273a25afc661353b","condition":"contingent","relevant_dimensions":["wings","legs"],"bee_group":{"antennae":"X","wings":"2","pattern":"X","legs":"F"},"action":"harvest","summary":"good-harvest","bonus":0.3200000000000013},{"rt":592.4000000059605,"stimulus":"\n                    <p><b>Action: <em>harvest</em></b></p>\n                    <p>This is the bee that you just saw.</p>\n                    <img src=\"bees-with-color/bee-A1SM.svg\" width=\"200\">\n                    <p><span class=\"greenText\"><b>Successful harvest!</b></span><br>Your pay has increased by $0.02. Your bonus pay is now $0.52.</p>\n            ","response":0,"trial_type":"html-button-response","trial_index":56,"time_elapsed":783898,"internal_node_id":"0.0-4.0-1.24","subject_id":"5de00d05988d7c0877eaa15a","study_id":"6197b3f67c2b5cd3b6d9596a","session_id":"619be320273a25afc661353b","condition":"contingent","relevant_dimensions":["wings","legs"],"bee_group":{"antennae":"X","wings":"2","pattern":"X","legs":"F"},"bonus":0.3200000000000013},{"rt":2695.699999988079,"stimulus":"bees-with-color/bee-A2SF.svg","response":1,"trial_type":"image-button-response","trial_index":57,"time_elapsed":786595,"internal_node_id":"0.0-4.0-0.25","subject_id":"5de00d05988d7c0877eaa15a","study_id":"6197b3f67c2b5cd3b6d9596a","session_id":"619be320273a25afc661353b","condition":"contingent","relevant_dimensions":["wings","legs"],"bee_group":{"antennae":"X","wings":"2","pattern":"X","legs":"F"},"action":"avoid","summary":"good-avoid","bonus":0.3200000000000013},{"rt":768.5999999940395,"stimulus":"\n                    <p><b>Action: <em>avoid</em></b></p>\n                    <p>This is the bee that you just saw.</p>\n                    <img src=\"bees-with-color/bee-A2SF.svg\" width=\"200\">\n                    <p><br>Your bonus pay is unchanged, and remains at $0.52.</p>\n            ","response":0,"trial_type":"html-button-response","trial_index":58,"time_elapsed":787365,"internal_node_id":"0.0-4.0-1.25","subject_id":"5de00d05988d7c0877eaa15a","study_id":"6197b3f67c2b5cd3b6d9596a","session_id":"619be320273a25afc661353b","condition":"contingent","relevant_dimensions":["wings","legs"],"bee_group":{"antennae":"X","wings":"2","pattern":"X","legs":"F"},"bonus":0.3200000000000013},{"rt":3753.4000000059605,"stimulus":"bees-with-color/bee-A2DM.svg","response":1,"trial_type":"image-button-response","trial_index":59,"time_elapsed":791120,"internal_node_id":"0.0-4.0-0.26","subject_id":"5de00d05988d7c0877eaa15a","study_id":"6197b3f67c2b5cd3b6d9596a","session_id":"619be320273a25afc661353b","condition":"contingent","relevant_dimensions":["wings","legs"],"bee_group":{"antennae":"X","wings":"2","pattern":"X","legs":"F"},"action":"avoid","summary":"bad-avoid","bonus":0.3200000000000013},{"rt":779.6999999880791,"stimulus":"\n                    <p><b>Action: <em>avoid</em></b></p>\n                    <p>This is the bee that you just saw.</p>\n                    <img src=\"bees-with-color/bee-A2DM.svg\" width=\"200\">\n                    <p><br>Your bonus pay is unchanged, and remains at $0.52.</p>\n            ","response":0,"trial_type":"html-button-response","trial_index":60,"time_elapsed":791902,"internal_node_id":"0.0-4.0-1.26","subject_id":"5de00d05988d7c0877eaa15a","study_id":"6197b3f67c2b5cd3b6d9596a","session_id":"619be320273a25afc661353b","condition":"contingent","relevant_dimensions":["wings","legs"],"bee_group":{"antennae":"X","wings":"2","pattern":"X","legs":"F"},"bonus":0.3200000000000013},{"rt":734,"stimulus":"bees-with-color/bee-B2SM.svg","response":0,"trial_type":"image-button-response","trial_index":61,"time_elapsed":792638,"internal_node_id":"0.0-4.0-0.27","subject_id":"5de00d05988d7c0877eaa15a","study_id":"6197b3f67c2b5cd3b6d9596a","session_id":"619be320273a25afc661353b","condition":"contingent","relevant_dimensions":["wings","legs"],"bee_group":{"antennae":"X","wings":"2","pattern":"X","legs":"F"},"action":"harvest","summary":"good-harvest","bonus":0.3200000000000013},{"rt":636.5999999940395,"stimulus":"\n                    <p><b>Action: <em>harvest</em></b></p>\n                    <p>This is the bee that you just saw.</p>\n                    <img src=\"bees-with-color/bee-B2SM.svg\" width=\"200\">\n                    <p><span class=\"greenText\"><b>Successful harvest!</b></span><br>Your pay has increased by $0.02. Your bonus pay is now $0.54.</p>\n            ","response":0,"trial_type":"html-button-response","trial_index":62,"time_elapsed":793276,"internal_node_id":"0.0-4.0-1.27","subject_id":"5de00d05988d7c0877eaa15a","study_id":"6197b3f67c2b5cd3b6d9596a","session_id":"619be320273a25afc661353b","condition":"contingent","relevant_dimensions":["wings","legs"],"bee_group":{"antennae":"X","wings":"2","pattern":"X","legs":"F"},"bonus":0.3200000000000013},{"rt":2995.7000000178814,"stimulus":"bees-with-color/bee-B1DF.svg","response":0,"trial_type":"image-button-response","trial_index":63,"time_elapsed":796273,"internal_node_id":"0.0-4.0-0.28","subject_id":"5de00d05988d7c0877eaa15a","study_id":"6197b3f67c2b5cd3b6d9596a","session_id":"619be320273a25afc661353b","condition":"contingent","relevant_dimensions":["wings","legs"],"bee_group":{"antennae":"X","wings":"2","pattern":"X","legs":"F"},"action":"harvest","summary":"good-harvest","bonus":0.3200000000000013},{"rt":474.40000000596046,"stimulus":"\n                    <p><b>Action: <em>harvest</em></b></p>\n                    <p>This is the bee that you just saw.</p>\n                    <img src=\"bees-with-color/bee-B1DF.svg\" width=\"200\">\n                    <p><span class=\"greenText\"><b>Successful harvest!</b></span><br>Your pay has increased by $0.02. Your bonus pay is now $0.56.</p>\n            ","response":0,"trial_type":"html-button-response","trial_index":64,"time_elapsed":796749,"internal_node_id":"0.0-4.0-1.28","subject_id":"5de00d05988d7c0877eaa15a","study_id":"6197b3f67c2b5cd3b6d9596a","session_id":"619be320273a25afc661353b","condition":"contingent","relevant_dimensions":["wings","legs"],"bee_group":{"antennae":"X","wings":"2","pattern":"X","legs":"F"},"bonus":0.3200000000000013},{"rt":1739.5,"stimulus":"bees-with-color/bee-B1DM.svg","response":0,"trial_type":"image-button-response","trial_index":65,"time_elapsed":798491,"internal_node_id":"0.0-4.0-0.29","subject_id":"5de00d05988d7c0877eaa15a","study_id":"6197b3f67c2b5cd3b6d9596a","session_id":"619be320273a25afc661353b","condition":"contingent","relevant_dimensions":["wings","legs"],"bee_group":{"antennae":"X","wings":"2","pattern":"X","legs":"F"},"action":"harvest","summary":"good-harvest","bonus":0.3200000000000013},{"rt":617.5,"stimulus":"\n                    <p><b>Action: <em>harvest</em></b></p>\n                    <p>This is the bee that you just saw.</p>\n                    <img src=\"bees-with-color/bee-B1DM.svg\" width=\"200\">\n                    <p><span class=\"greenText\"><b>Successful harvest!</b></span><br>Your pay has increased by $0.02. Your bonus pay is now $0.58.</p>\n            ","response":0,"trial_type":"html-button-response","trial_index":66,"time_elapsed":799110,"internal_node_id":"0.0-4.0-1.29","subject_id":"5de00d05988d7c0877eaa15a","study_id":"6197b3f67c2b5cd3b6d9596a","session_id":"619be320273a25afc661353b","condition":"contingent","relevant_dimensions":["wings","legs"],"bee_group":{"antennae":"X","wings":"2","pattern":"X","legs":"F"},"bonus":0.3200000000000013},{"rt":1918.5999999940395,"stimulus":"bees-with-color/bee-B1SF.svg","response":0,"trial_type":"image-button-response","trial_index":67,"time_elapsed":801030,"internal_node_id":"0.0-4.0-0.30","subject_id":"5de00d05988d7c0877eaa15a","study_id":"6197b3f67c2b5cd3b6d9596a","session_id":"619be320273a25afc661353b","condition":"contingent","relevant_dimensions":["wings","legs"],"bee_group":{"antennae":"X","wings":"2","pattern":"X","legs":"F"},"action":"harvest","summary":"good-harvest","bonus":0.3200000000000013},{"rt":582.1999999880791,"stimulus":"\n                    <p><b>Action: <em>harvest</em></b></p>\n                    <p>This is the bee that you just saw.</p>\n                    <img src=\"bees-with-color/bee-B1SF.svg\" width=\"200\">\n                    <p><span class=\"greenText\"><b>Successful harvest!</b></span><br>Your pay has increased by $0.02. Your bonus pay is now $0.60.</p>\n            ","response":0,"trial_type":"html-button-response","trial_index":68,"time_elapsed":801614,"internal_node_id":"0.0-4.0-1.30","subject_id":"5de00d05988d7c0877eaa15a","study_id":"6197b3f67c2b5cd3b6d9596a","session_id":"619be320273a25afc661353b","condition":"contingent","relevant_dimensions":["wings","legs"],"bee_group":{"antennae":"X","wings":"2","pattern":"X","legs":"F"},"bonus":0.3200000000000013},{"rt":1081.3999999761581,"stimulus":"bees-with-color/bee-B2SF.svg","response":1,"trial_type":"image-button-response","trial_index":69,"time_elapsed":802697,"internal_node_id":"0.0-4.0-0.31","subject_id":"5de00d05988d7c0877eaa15a","study_id":"6197b3f67c2b5cd3b6d9596a","session_id":"619be320273a25afc661353b","condition":"contingent","relevant_dimensions":["wings","legs"],"bee_group":{"antennae":"X","wings":"2","pattern":"X","legs":"F"},"action":"avoid","summary":"good-avoid","bonus":0.3200000000000013},{"rt":649.0999999940395,"stimulus":"\n                    <p><b>Action: <em>avoid</em></b></p>\n                    <p>This is the bee that you just saw.</p>\n                    <img src=\"bees-with-color/bee-B2SF.svg\" width=\"200\">\n                    <p><br>Your bonus pay is unchanged, and remains at $0.60.</p>\n            ","response":0,"trial_type":"html-button-response","trial_index":70,"time_elapsed":803348,"internal_node_id":"0.0-4.0-1.31","subject_id":"5de00d05988d7c0877eaa15a","study_id":"6197b3f67c2b5cd3b6d9596a","session_id":"619be320273a25afc661353b","condition":"contingent","relevant_dimensions":["wings","legs"],"bee_group":{"antennae":"X","wings":"2","pattern":"X","legs":"F"},"bonus":0.3200000000000013},{"rt":2198.300000011921,"stimulus":"bees-with-color/bee-A1SM.svg","response":0,"trial_type":"image-button-response","trial_index":71,"time_elapsed":805548,"internal_node_id":"0.0-4.0-0.32","subject_id":"5de00d05988d7c0877eaa15a","study_id":"6197b3f67c2b5cd3b6d9596a","session_id":"619be320273a25afc661353b","condition":"contingent","relevant_dimensions":["wings","legs"],"bee_group":{"antennae":"X","wings":"2","pattern":"X","legs":"F"},"action":"harvest","summary":"good-harvest","bonus":0.3200000000000013},{"rt":872.5,"stimulus":"\n                    <p><b>Action: <em>harvest</em></b></p>\n                    <p>This is the bee that you just saw.</p>\n                    <img src=\"bees-with-color/bee-A1SM.svg\" width=\"200\">\n                    <p><span class=\"greenText\"><b>Successful harvest!</b></span><br>Your pay has increased by $0.02. Your bonus pay is now $0.62.</p>\n            ","response":0,"trial_type":"html-button-response","trial_index":72,"time_elapsed":806422,"internal_node_id":"0.0-4.0-1.32","subject_id":"5de00d05988d7c0877eaa15a","study_id":"6197b3f67c2b5cd3b6d9596a","session_id":"619be320273a25afc661353b","condition":"contingent","relevant_dimensions":["wings","legs"],"bee_group":{"antennae":"X","wings":"2","pattern":"X","legs":"F"},"bonus":0.3200000000000013},{"rt":1502.199999988079,"stimulus":"bees-with-color/bee-A1SF.svg","response":0,"trial_type":"image-button-response","trial_index":73,"time_elapsed":807926,"internal_node_id":"0.0-4.0-0.33","subject_id":"5de00d05988d7c0877eaa15a","study_id":"6197b3f67c2b5cd3b6d9596a","session_id":"619be320273a25afc661353b","condition":"contingent","relevant_dimensions":["wings","legs"],"bee_group":{"antennae":"X","wings":"2","pattern":"X","legs":"F"},"action":"harvest","summary":"good-harvest","bonus":0.3200000000000013},{"rt":596.8000000119209,"stimulus":"\n                    <p><b>Action: <em>harvest</em></b></p>\n                    <p>This is the bee that you just saw.</p>\n                    <img src=\"bees-with-color/bee-A1SF.svg\" width=\"200\">\n                    <p><span class=\"greenText\"><b>Successful harvest!</b></span><br>Your pay has increased by $0.02. Your bonus pay is now $0.64.</p>\n            ","response":0,"trial_type":"html-button-response","trial_index":74,"time_elapsed":808524,"internal_node_id":"0.0-4.0-1.33","subject_id":"5de00d05988d7c0877eaa15a","study_id":"6197b3f67c2b5cd3b6d9596a","session_id":"619be320273a25afc661353b","condition":"contingent","relevant_dimensions":["wings","legs"],"bee_group":{"antennae":"X","wings":"2","pattern":"X","legs":"F"},"bonus":0.3200000000000013},{"rt":1497.7999999821186,"stimulus":"bees-with-color/bee-A2DM.svg","response":1,"trial_type":"image-button-response","trial_index":75,"time_elapsed":810024,"internal_node_id":"0.0-4.0-0.34","subject_id":"5de00d05988d7c0877eaa15a","study_id":"6197b3f67c2b5cd3b6d9596a","session_id":"619be320273a25afc661353b","condition":"contingent","relevant_dimensions":["wings","legs"],"bee_group":{"antennae":"X","wings":"2","pattern":"X","legs":"F"},"action":"avoid","summary":"bad-avoid","bonus":0.3200000000000013},{"rt":562,"stimulus":"\n                    <p><b>Action: <em>avoid</em></b></p>\n                    <p>This is the bee that you just saw.</p>\n                    <img src=\"bees-with-color/bee-A2DM.svg\" width=\"200\">\n                    <p><br>Your bonus pay is unchanged, and remains at $0.64.</p>\n            ","response":0,"trial_type":"html-button-response","trial_index":76,"time_elapsed":810587,"internal_node_id":"0.0-4.0-1.34","subject_id":"5de00d05988d7c0877eaa15a","study_id":"6197b3f67c2b5cd3b6d9596a","session_id":"619be320273a25afc661353b","condition":"contingent","relevant_dimensions":["wings","legs"],"bee_group":{"antennae":"X","wings":"2","pattern":"X","legs":"F"},"bonus":0.3200000000000013},{"rt":1904.0999999940395,"stimulus":"bees-with-color/bee-A1DM.svg","response":0,"trial_type":"image-button-response","trial_index":77,"time_elapsed":812493,"internal_node_id":"0.0-4.0-0.35","subject_id":"5de00d05988d7c0877eaa15a","study_id":"6197b3f67c2b5cd3b6d9596a","session_id":"619be320273a25afc661353b","condition":"contingent","relevant_dimensions":["wings","legs"],"bee_group":{"antennae":"X","wings":"2","pattern":"X","legs":"F"},"action":"harvest","summary":"good-harvest","bonus":0.3200000000000013},{"rt":524.7000000178814,"stimulus":"\n                    <p><b>Action: <em>harvest</em></b></p>\n                    <p>This is the bee that you just saw.</p>\n                    <img src=\"bees-with-color/bee-A1DM.svg\" width=\"200\">\n                    <p><span class=\"greenText\"><b>Successful harvest!</b></span><br>Your pay has increased by $0.02. Your bonus pay is now $0.66.</p>\n            ","response":0,"trial_type":"html-button-response","trial_index":78,"time_elapsed":813019,"internal_node_id":"0.0-4.0-1.35","subject_id":"5de00d05988d7c0877eaa15a","study_id":"6197b3f67c2b5cd3b6d9596a","session_id":"619be320273a25afc661353b","condition":"contingent","relevant_dimensions":["wings","legs"],"bee_group":{"antennae":"X","wings":"2","pattern":"X","legs":"F"},"bonus":0.3200000000000013},{"rt":2639.2999999821186,"stimulus":"bees-with-color/bee-B2SM.svg","response":1,"trial_type":"image-button-response","trial_index":79,"time_elapsed":815660,"internal_node_id":"0.0-4.0-0.36","subject_id":"5de00d05988d7c0877eaa15a","study_id":"6197b3f67c2b5cd3b6d9596a","session_id":"619be320273a25afc661353b","condition":"contingent","relevant_dimensions":["wings","legs"],"bee_group":{"antennae":"X","wings":"2","pattern":"X","legs":"F"},"action":"avoid","summary":"bad-avoid","bonus":0.3200000000000013},{"rt":399.5,"stimulus":"\n                    <p><b>Action: <em>avoid</em></b></p>\n                    <p>This is the bee that you just saw.</p>\n                    <img src=\"bees-with-color/bee-B2SM.svg\" width=\"200\">\n                    <p><br>Your bonus pay is unchanged, and remains at $0.66.</p>\n            ","response":0,"trial_type":"html-button-response","trial_index":80,"time_elapsed":816061,"internal_node_id":"0.0-4.0-1.36","subject_id":"5de00d05988d7c0877eaa15a","study_id":"6197b3f67c2b5cd3b6d9596a","session_id":"619be320273a25afc661353b","condition":"contingent","relevant_dimensions":["wings","legs"],"bee_group":{"antennae":"X","wings":"2","pattern":"X","legs":"F"},"bonus":0.3200000000000013},{"rt":1758,"stimulus":"bees-with-color/bee-B2SF.svg","response":0,"trial_type":"image-button-response","trial_index":81,"time_elapsed":817820,"internal_node_id":"0.0-4.0-0.37","subject_id":"5de00d05988d7c0877eaa15a","study_id":"6197b3f67c2b5cd3b6d9596a","session_id":"619be320273a25afc661353b","condition":"contingent","relevant_dimensions":["wings","legs"],"bee_group":{"antennae":"X","wings":"2","pattern":"X","legs":"F"},"action":"harvest","summary":"bad-harvest","bonus":0.3200000000000013},{"rt":499.69999998807907,"stimulus":"\n                    <p><b>Action: <em>harvest</em></b></p>\n                    <p>This is the bee that you just saw.</p>\n                    <img src=\"bees-with-color/bee-B2SF.svg\" width=\"200\">\n                    <p><span class=\"redText\">Bad choice, the bee was angry.</span><br><b>You have been stung!</b><br>Your pay has been decreased by $0.10. Your bonus pay is now $0.56.</p>\n            ","response":0,"trial_type":"html-button-response","trial_index":82,"time_elapsed":818321,"internal_node_id":"0.0-4.0-1.37","subject_id":"5de00d05988d7c0877eaa15a","study_id":"6197b3f67c2b5cd3b6d9596a","session_id":"619be320273a25afc661353b","condition":"contingent","relevant_dimensions":["wings","legs"],"bee_group":{"antennae":"X","wings":"2","pattern":"X","legs":"F"},"bonus":0.3200000000000013},{"rt":974.9000000059605,"stimulus":"bees-with-color/bee-B1DM.svg","response":0,"trial_type":"image-button-response","trial_index":83,"time_elapsed":819298,"internal_node_id":"0.0-4.0-0.38","subject_id":"5de00d05988d7c0877eaa15a","study_id":"6197b3f67c2b5cd3b6d9596a","session_id":"619be320273a25afc661353b","condition":"contingent","relevant_dimensions":["wings","legs"],"bee_group":{"antennae":"X","wings":"2","pattern":"X","legs":"F"},"action":"harvest","summary":"good-harvest","bonus":0.3200000000000013},{"rt":424.5,"stimulus":"\n                    <p><b>Action: <em>harvest</em></b></p>\n                    <p>This is the bee that you just saw.</p>\n                    <img src=\"bees-with-color/bee-B1DM.svg\" width=\"200\">\n                    <p><span class=\"greenText\"><b>Successful harvest!</b></span><br>Your pay has increased by $0.02. Your bonus pay is now $0.58.</p>\n            ","response":0,"trial_type":"html-button-response","trial_index":84,"time_elapsed":819724,"internal_node_id":"0.0-4.0-1.38","subject_id":"5de00d05988d7c0877eaa15a","study_id":"6197b3f67c2b5cd3b6d9596a","session_id":"619be320273a25afc661353b","condition":"contingent","relevant_dimensions":["wings","legs"],"bee_group":{"antennae":"X","wings":"2","pattern":"X","legs":"F"},"bonus":0.3200000000000013},{"rt":1982.699999988079,"stimulus":"bees-with-color/bee-A2DF.svg","response":0,"trial_type":"image-button-response","trial_index":85,"time_elapsed":821708,"internal_node_id":"0.0-4.0-0.39","subject_id":"5de00d05988d7c0877eaa15a","study_id":"6197b3f67c2b5cd3b6d9596a","session_id":"619be320273a25afc661353b","condition":"contingent","relevant_dimensions":["wings","legs"],"bee_group":{"antennae":"X","wings":"2","pattern":"X","legs":"F"},"action":"harvest","summary":"bad-harvest","bonus":0.3200000000000013},{"rt":554.4000000059605,"stimulus":"\n                    <p><b>Action: <em>harvest</em></b></p>\n                    <p>This is the bee that you just saw.</p>\n                    <img src=\"bees-with-color/bee-A2DF.svg\" width=\"200\">\n                    <p><span class=\"redText\">Bad choice, the bee was angry.</span><br><b>You have been stung!</b><br>Your pay has been decreased by $0.10. Your bonus pay is now $0.48.</p>\n            ","response":0,"trial_type":"html-button-response","trial_index":86,"time_elapsed":822264,"internal_node_id":"0.0-4.0-1.39","subject_id":"5de00d05988d7c0877eaa15a","study_id":"6197b3f67c2b5cd3b6d9596a","session_id":"619be320273a25afc661353b","condition":"contingent","relevant_dimensions":["wings","legs"],"bee_group":{"antennae":"X","wings":"2","pattern":"X","legs":"F"},"bonus":0.3200000000000013},{"rt":1707.9000000059605,"stimulus":"bees-with-color/bee-B2DM.svg","response":0,"trial_type":"image-button-response","trial_index":87,"time_elapsed":823973,"internal_node_id":"0.0-4.0-0.40","subject_id":"5de00d05988d7c0877eaa15a","study_id":"6197b3f67c2b5cd3b6d9596a","session_id":"619be320273a25afc661353b","condition":"contingent","relevant_dimensions":["wings","legs"],"bee_group":{"antennae":"X","wings":"2","pattern":"X","legs":"F"},"action":"harvest","summary":"good-harvest","bonus":0.3200000000000013},{"rt":491.2999999821186,"stimulus":"\n                    <p><b>Action: <em>harvest</em></b></p>\n                    <p>This is the bee that you just saw.</p>\n                    <img src=\"bees-with-color/bee-B2DM.svg\" width=\"200\">\n                    <p><span class=\"greenText\"><b>Successful harvest!</b></span><br>Your pay has increased by $0.02. Your bonus pay is now $0.50.</p>\n            ","response":0,"trial_type":"html-button-response","trial_index":88,"time_elapsed":824466,"internal_node_id":"0.0-4.0-1.40","subject_id":"5de00d05988d7c0877eaa15a","study_id":"6197b3f67c2b5cd3b6d9596a","session_id":"619be320273a25afc661353b","condition":"contingent","relevant_dimensions":["wings","legs"],"bee_group":{"antennae":"X","wings":"2","pattern":"X","legs":"F"},"bonus":0.3200000000000013},{"rt":1262.199999988079,"stimulus":"bees-with-color/bee-B2DF.svg","response":0,"trial_type":"image-button-response","trial_index":89,"time_elapsed":825730,"internal_node_id":"0.0-4.0-0.41","subject_id":"5de00d05988d7c0877eaa15a","study_id":"6197b3f67c2b5cd3b6d9596a","session_id":"619be320273a25afc661353b","condition":"contingent","relevant_dimensions":["wings","legs"],"bee_group":{"antennae":"X","wings":"2","pattern":"X","legs":"F"},"action":"harvest","summary":"bad-harvest","bonus":0.3200000000000013},{"rt":501.5,"stimulus":"\n                    <p><b>Action: <em>harvest</em></b></p>\n                    <p>This is the bee that you just saw.</p>\n                    <img src=\"bees-with-color/bee-B2DF.svg\" width=\"200\">\n                    <p><span class=\"redText\">Bad choice, the bee was angry.</span><br><b>You have been stung!</b><br>Your pay has been decreased by $0.10. Your bonus pay is now $0.40.</p>\n            ","response":0,"trial_type":"html-button-response","trial_index":90,"time_elapsed":826233,"internal_node_id":"0.0-4.0-1.41","subject_id":"5de00d05988d7c0877eaa15a","study_id":"6197b3f67c2b5cd3b6d9596a","session_id":"619be320273a25afc661353b","condition":"contingent","relevant_dimensions":["wings","legs"],"bee_group":{"antennae":"X","wings":"2","pattern":"X","legs":"F"},"bonus":0.3200000000000013},{"rt":1264.4000000059605,"stimulus":"bees-with-color/bee-A2SM.svg","response":0,"trial_type":"image-button-response","trial_index":91,"time_elapsed":827499,"internal_node_id":"0.0-4.0-0.42","subject_id":"5de00d05988d7c0877eaa15a","study_id":"6197b3f67c2b5cd3b6d9596a","session_id":"619be320273a25afc661353b","condition":"contingent","relevant_dimensions":["wings","legs"],"bee_group":{"antennae":"X","wings":"2","pattern":"X","legs":"F"},"action":"harvest","summary":"good-harvest","bonus":0.3200000000000013},{"rt":345.40000000596046,"stimulus":"\n                    <p><b>Action: <em>harvest</em></b></p>\n                    <p>This is the bee that you just saw.</p>\n                    <img src=\"bees-with-color/bee-A2SM.svg\" width=\"200\">\n                    <p><span class=\"greenText\"><b>Successful harvest!</b></span><br>Your pay has increased by $0.02. Your bonus pay is now $0.42.</p>\n            ","response":0,"trial_type":"html-button-response","trial_index":92,"time_elapsed":827846,"internal_node_id":"0.0-4.0-1.42","subject_id":"5de00d05988d7c0877eaa15a","study_id":"6197b3f67c2b5cd3b6d9596a","session_id":"619be320273a25afc661353b","condition":"contingent","relevant_dimensions":["wings","legs"],"bee_group":{"antennae":"X","wings":"2","pattern":"X","legs":"F"},"bonus":0.3200000000000013},{"rt":2452.5999999940395,"stimulus":"bees-with-color/bee-B1SM.svg","response":0,"trial_type":"image-button-response","trial_index":93,"time_elapsed":830300,"internal_node_id":"0.0-4.0-0.43","subject_id":"5de00d05988d7c0877eaa15a","study_id":"6197b3f67c2b5cd3b6d9596a","session_id":"619be320273a25afc661353b","condition":"contingent","relevant_dimensions":["wings","legs"],"bee_group":{"antennae":"X","wings":"2","pattern":"X","legs":"F"},"action":"harvest","summary":"good-harvest","bonus":0.3200000000000013},{"rt":909.4000000059605,"stimulus":"\n                    <p><b>Action: <em>harvest</em></b></p>\n                    <p>This is the bee that you just saw.</p>\n                    <img src=\"bees-with-color/bee-B1SM.svg\" width=\"200\">\n                    <p><span class=\"greenText\"><b>Successful harvest!</b></span><br>Your pay has increased by $0.02. Your bonus pay is now $0.44.</p>\n            ","response":0,"trial_type":"html-button-response","trial_index":94,"time_elapsed":831211,"internal_node_id":"0.0-4.0-1.43","subject_id":"5de00d05988d7c0877eaa15a","study_id":"6197b3f67c2b5cd3b6d9596a","session_id":"619be320273a25afc661353b","condition":"contingent","relevant_dimensions":["wings","legs"],"bee_group":{"antennae":"X","wings":"2","pattern":"X","legs":"F"},"bonus":0.3200000000000013},{"rt":1200,"stimulus":"bees-with-color/bee-A1DF.svg","response":0,"trial_type":"image-button-response","trial_index":95,"time_elapsed":832413,"internal_node_id":"0.0-4.0-0.44","subject_id":"5de00d05988d7c0877eaa15a","study_id":"6197b3f67c2b5cd3b6d9596a","session_id":"619be320273a25afc661353b","condition":"contingent","relevant_dimensions":["wings","legs"],"bee_group":{"antennae":"X","wings":"2","pattern":"X","legs":"F"},"action":"harvest","summary":"good-harvest","bonus":0.3200000000000013},{"rt":549.6000000238419,"stimulus":"\n                    <p><b>Action: <em>harvest</em></b></p>\n                    <p>This is the bee that you just saw.</p>\n                    <img src=\"bees-with-color/bee-A1DF.svg\" width=\"200\">\n                    <p><span class=\"greenText\"><b>Successful harvest!</b></span><br>Your pay has increased by $0.02. Your bonus pay is now $0.46.</p>\n            ","response":0,"trial_type":"html-button-response","trial_index":96,"time_elapsed":832964,"internal_node_id":"0.0-4.0-1.44","subject_id":"5de00d05988d7c0877eaa15a","study_id":"6197b3f67c2b5cd3b6d9596a","session_id":"619be320273a25afc661353b","condition":"contingent","relevant_dimensions":["wings","legs"],"bee_group":{"antennae":"X","wings":"2","pattern":"X","legs":"F"},"bonus":0.3200000000000013},{"rt":1374.3999999761581,"stimulus":"bees-with-color/bee-B1DF.svg","response":0,"trial_type":"image-button-response","trial_index":97,"time_elapsed":834340,"internal_node_id":"0.0-4.0-0.45","subject_id":"5de00d05988d7c0877eaa15a","study_id":"6197b3f67c2b5cd3b6d9596a","session_id":"619be320273a25afc661353b","condition":"contingent","relevant_dimensions":["wings","legs"],"bee_group":{"antennae":"X","wings":"2","pattern":"X","legs":"F"},"action":"harvest","summary":"good-harvest","bonus":0.3200000000000013},{"rt":771.0999999940395,"stimulus":"\n                    <p><b>Action: <em>harvest</em></b></p>\n                    <p>This is the bee that you just saw.</p>\n                    <img src=\"bees-with-color/bee-B1DF.svg\" width=\"200\">\n                    <p><span class=\"greenText\"><b>Successful harvest!</b></span><br>Your pay has increased by $0.02. Your bonus pay is now $0.48.</p>\n            ","response":0,"trial_type":"html-button-response","trial_index":98,"time_elapsed":835113,"internal_node_id":"0.0-4.0-1.45","subject_id":"5de00d05988d7c0877eaa15a","study_id":"6197b3f67c2b5cd3b6d9596a","session_id":"619be320273a25afc661353b","condition":"contingent","relevant_dimensions":["wings","legs"],"bee_group":{"antennae":"X","wings":"2","pattern":"X","legs":"F"},"bonus":0.3200000000000013},{"rt":1657.4000000059605,"stimulus":"bees-with-color/bee-B1SF.svg","response":0,"trial_type":"image-button-response","trial_index":99,"time_elapsed":836772,"internal_node_id":"0.0-4.0-0.46","subject_id":"5de00d05988d7c0877eaa15a","study_id":"6197b3f67c2b5cd3b6d9596a","session_id":"619be320273a25afc661353b","condition":"contingent","relevant_dimensions":["wings","legs"],"bee_group":{"antennae":"X","wings":"2","pattern":"X","legs":"F"},"action":"harvest","summary":"good-harvest","bonus":0.3200000000000013},{"rt":498.80000001192093,"stimulus":"\n                    <p><b>Action: <em>harvest</em></b></p>\n                    <p>This is the bee that you just saw.</p>\n                    <img src=\"bees-with-color/bee-B1SF.svg\" width=\"200\">\n                    <p><span class=\"greenText\"><b>Successful harvest!</b></span><br>Your pay has increased by $0.02. Your bonus pay is now $0.50.</p>\n            ","response":0,"trial_type":"html-button-response","trial_index":100,"time_elapsed":837272,"internal_node_id":"0.0-4.0-1.46","subject_id":"5de00d05988d7c0877eaa15a","study_id":"6197b3f67c2b5cd3b6d9596a","session_id":"619be320273a25afc661353b","condition":"contingent","relevant_dimensions":["wings","legs"],"bee_group":{"antennae":"X","wings":"2","pattern":"X","legs":"F"},"bonus":0.3200000000000013},{"rt":1719.6000000238419,"stimulus":"bees-with-color/bee-A2SF.svg","response":0,"trial_type":"image-button-response","trial_index":101,"time_elapsed":838993,"internal_node_id":"0.0-4.0-0.47","subject_id":"5de00d05988d7c0877eaa15a","study_id":"6197b3f67c2b5cd3b6d9596a","session_id":"619be320273a25afc661353b","condition":"contingent","relevant_dimensions":["wings","legs"],"bee_group":{"antennae":"X","wings":"2","pattern":"X","legs":"F"},"action":"harvest","summary":"bad-harvest","bonus":0.3200000000000013},{"rt":3196.800000011921,"stimulus":"\n                    <p><b>Action: <em>harvest</em></b></p>\n                    <p>This is the bee that you just saw.</p>\n                    <img src=\"bees-with-color/bee-A2SF.svg\" width=\"200\">\n                    <p><span class=\"redText\">Bad choice, the bee was angry.</span><br><b>You have been stung!</b><br>Your pay has been decreased by $0.10. Your bonus pay is now $0.40.</p>\n            ","response":0,"trial_type":"html-button-response","trial_index":102,"time_elapsed":842191,"internal_node_id":"0.0-4.0-1.47","subject_id":"5de00d05988d7c0877eaa15a","study_id":"6197b3f67c2b5cd3b6d9596a","session_id":"619be320273a25afc661353b","condition":"contingent","relevant_dimensions":["wings","legs"],"bee_group":{"antennae":"X","wings":"2","pattern":"X","legs":"F"},"bonus":0.3200000000000013},{"rt":1020,"stimulus":"bees-with-color/bee-A1SM.svg","response":0,"trial_type":"image-button-response","trial_index":103,"time_elapsed":843212,"internal_node_id":"0.0-4.0-0.48","subject_id":"5de00d05988d7c0877eaa15a","study_id":"6197b3f67c2b5cd3b6d9596a","session_id":"619be320273a25afc661353b","condition":"contingent","relevant_dimensions":["wings","legs"],"bee_group":{"antennae":"X","wings":"2","pattern":"X","legs":"F"},"action":"harvest","summary":"good-harvest","bonus":0.3200000000000013},{"rt":1022.0999999940395,"stimulus":"\n                    <p><b>Action: <em>harvest</em></b></p>\n                    <p>This is the bee that you just saw.</p>\n                    <img src=\"bees-with-color/bee-A1SM.svg\" width=\"200\">\n                    <p><span class=\"greenText\"><b>Successful harvest!</b></span><br>Your pay has increased by $0.02. Your bonus pay is now $0.42.</p>\n            ","response":0,"trial_type":"html-button-response","trial_index":104,"time_elapsed":844236,"internal_node_id":"0.0-4.0-1.48","subject_id":"5de00d05988d7c0877eaa15a","study_id":"6197b3f67c2b5cd3b6d9596a","session_id":"619be320273a25afc661353b","condition":"contingent","relevant_dimensions":["wings","legs"],"bee_group":{"antennae":"X","wings":"2","pattern":"X","legs":"F"},"bonus":0.3200000000000013},{"rt":3905.4000000059605,"stimulus":"bees-with-color/bee-B2DM.svg","response":1,"trial_type":"image-button-response","trial_index":105,"time_elapsed":848143,"internal_node_id":"0.0-4.0-0.49","subject_id":"5de00d05988d7c0877eaa15a","study_id":"6197b3f67c2b5cd3b6d9596a","session_id":"619be320273a25afc661353b","condition":"contingent","relevant_dimensions":["wings","legs"],"bee_group":{"antennae":"X","wings":"2","pattern":"X","legs":"F"},"action":"avoid","summary":"bad-avoid","bonus":0.3200000000000013},{"rt":459.5,"stimulus":"\n                    <p><b>Action: <em>avoid</em></b></p>\n                    <p>This is the bee that you just saw.</p>\n                    <img src=\"bees-with-color/bee-B2DM.svg\" width=\"200\">\n                    <p><br>Your bonus pay is unchanged, and remains at $0.42.</p>\n            ","response":0,"trial_type":"html-button-response","trial_index":106,"time_elapsed":848604,"internal_node_id":"0.0-4.0-1.49","subject_id":"5de00d05988d7c0877eaa15a","study_id":"6197b3f67c2b5cd3b6d9596a","session_id":"619be320273a25afc661353b","condition":"contingent","relevant_dimensions":["wings","legs"],"bee_group":{"antennae":"X","wings":"2","pattern":"X","legs":"F"},"bonus":0.3200000000000013},{"rt":3313.2999999821186,"stimulus":"bees-with-color/bee-B2SM.svg","response":0,"trial_type":"image-button-response","trial_index":107,"time_elapsed":851919,"internal_node_id":"0.0-4.0-0.50","subject_id":"5de00d05988d7c0877eaa15a","study_id":"6197b3f67c2b5cd3b6d9596a","session_id":"619be320273a25afc661353b","condition":"contingent","relevant_dimensions":["wings","legs"],"bee_group":{"antennae":"X","wings":"2","pattern":"X","legs":"F"},"action":"harvest","summary":"good-harvest","bonus":0.3200000000000013},{"rt":625.4000000059605,"stimulus":"\n                    <p><b>Action: <em>harvest</em></b></p>\n                    <p>This is the bee that you just saw.</p>\n                    <img src=\"bees-with-color/bee-B2SM.svg\" width=\"200\">\n                    <p><span class=\"greenText\"><b>Successful harvest!</b></span><br>Your pay has increased by $0.02. Your bonus pay is now $0.44.</p>\n            ","response":0,"trial_type":"html-button-response","trial_index":108,"time_elapsed":852546,"internal_node_id":"0.0-4.0-1.50","subject_id":"5de00d05988d7c0877eaa15a","study_id":"6197b3f67c2b5cd3b6d9596a","session_id":"619be320273a25afc661353b","condition":"contingent","relevant_dimensions":["wings","legs"],"bee_group":{"antennae":"X","wings":"2","pattern":"X","legs":"F"},"bonus":0.3200000000000013},{"rt":1554.1000000238419,"stimulus":"bees-with-color/bee-B2SF.svg","response":0,"trial_type":"image-button-response","trial_index":109,"time_elapsed":854101,"internal_node_id":"0.0-4.0-0.51","subject_id":"5de00d05988d7c0877eaa15a","study_id":"6197b3f67c2b5cd3b6d9596a","session_id":"619be320273a25afc661353b","condition":"contingent","relevant_dimensions":["wings","legs"],"bee_group":{"antennae":"X","wings":"2","pattern":"X","legs":"F"},"action":"harvest","summary":"bad-harvest","bonus":0.3200000000000013},{"rt":572.5999999940395,"stimulus":"\n                    <p><b>Action: <em>harvest</em></b></p>\n                    <p>This is the bee that you just saw.</p>\n                    <img src=\"bees-with-color/bee-B2SF.svg\" width=\"200\">\n                    <p><span class=\"redText\">Bad choice, the bee was angry.</span><br><b>You have been stung!</b><br>Your pay has been decreased by $0.10. Your bonus pay is now $0.34.</p>\n            ","response":0,"trial_type":"html-button-response","trial_index":110,"time_elapsed":854676,"internal_node_id":"0.0-4.0-1.51","subject_id":"5de00d05988d7c0877eaa15a","study_id":"6197b3f67c2b5cd3b6d9596a","session_id":"619be320273a25afc661353b","condition":"contingent","relevant_dimensions":["wings","legs"],"bee_group":{"antennae":"X","wings":"2","pattern":"X","legs":"F"},"bonus":0.3200000000000013},{"rt":1180.199999988079,"stimulus":"bees-with-color/bee-A2SF.svg","response":0,"trial_type":"image-button-response","trial_index":111,"time_elapsed":855857,"internal_node_id":"0.0-4.0-0.52","subject_id":"5de00d05988d7c0877eaa15a","study_id":"6197b3f67c2b5cd3b6d9596a","session_id":"619be320273a25afc661353b","condition":"contingent","relevant_dimensions":["wings","legs"],"bee_group":{"antennae":"X","wings":"2","pattern":"X","legs":"F"},"action":"harvest","summary":"bad-harvest","bonus":0.3200000000000013},{"rt":595.9000000059605,"stimulus":"\n                    <p><b>Action: <em>harvest</em></b></p>\n                    <p>This is the bee that you just saw.</p>\n                    <img src=\"bees-with-color/bee-A2SF.svg\" width=\"200\">\n                    <p><span class=\"redText\">Bad choice, the bee was angry.</span><br><b>You have been stung!</b><br>Your pay has been decreased by $0.10. Your bonus pay is now $0.24.</p>\n            ","response":0,"trial_type":"html-button-response","trial_index":112,"time_elapsed":856455,"internal_node_id":"0.0-4.0-1.52","subject_id":"5de00d05988d7c0877eaa15a","study_id":"6197b3f67c2b5cd3b6d9596a","session_id":"619be320273a25afc661353b","condition":"contingent","relevant_dimensions":["wings","legs"],"bee_group":{"antennae":"X","wings":"2","pattern":"X","legs":"F"},"bonus":0.3200000000000013},{"rt":1213.5999999940395,"stimulus":"bees-with-color/bee-A2DM.svg","response":0,"trial_type":"image-button-response","trial_index":113,"time_elapsed":857670,"internal_node_id":"0.0-4.0-0.53","subject_id":"5de00d05988d7c0877eaa15a","study_id":"6197b3f67c2b5cd3b6d9596a","session_id":"619be320273a25afc661353b","condition":"contingent","relevant_dimensions":["wings","legs"],"bee_group":{"antennae":"X","wings":"2","pattern":"X","legs":"F"},"action":"harvest","summary":"good-harvest","bonus":0.3200000000000013},{"rt":586.3999999761581,"stimulus":"\n                    <p><b>Action: <em>harvest</em></b></p>\n                    <p>This is the bee that you just saw.</p>\n                    <img src=\"bees-with-color/bee-A2DM.svg\" width=\"200\">\n                    <p><span class=\"greenText\"><b>Successful harvest!</b></span><br>Your pay has increased by $0.02. Your bonus pay is now $0.26.</p>\n            ","response":0,"trial_type":"html-button-response","trial_index":114,"time_elapsed":858258,"internal_node_id":"0.0-4.0-1.53","subject_id":"5de00d05988d7c0877eaa15a","study_id":"6197b3f67c2b5cd3b6d9596a","session_id":"619be320273a25afc661353b","condition":"contingent","relevant_dimensions":["wings","legs"],"bee_group":{"antennae":"X","wings":"2","pattern":"X","legs":"F"},"bonus":0.3200000000000013},{"rt":4415.5,"stimulus":"bees-with-color/bee-A1DF.svg","response":0,"trial_type":"image-button-response","trial_index":115,"time_elapsed":862675,"internal_node_id":"0.0-4.0-0.54","subject_id":"5de00d05988d7c0877eaa15a","study_id":"6197b3f67c2b5cd3b6d9596a","session_id":"619be320273a25afc661353b","condition":"contingent","relevant_dimensions":["wings","legs"],"bee_group":{"antennae":"X","wings":"2","pattern":"X","legs":"F"},"action":"harvest","summary":"good-harvest","bonus":0.3200000000000013},{"rt":463.39999997615814,"stimulus":"\n                    <p><b>Action: <em>harvest</em></b></p>\n                    <p>This is the bee that you just saw.</p>\n                    <img src=\"bees-with-color/bee-A1DF.svg\" width=\"200\">\n                    <p><span class=\"greenText\"><b>Successful harvest!</b></span><br>Your pay has increased by $0.02. Your bonus pay is now $0.28.</p>\n            ","response":0,"trial_type":"html-button-response","trial_index":116,"time_elapsed":863140,"internal_node_id":"0.0-4.0-1.54","subject_id":"5de00d05988d7c0877eaa15a","study_id":"6197b3f67c2b5cd3b6d9596a","session_id":"619be320273a25afc661353b","condition":"contingent","relevant_dimensions":["wings","legs"],"bee_group":{"antennae":"X","wings":"2","pattern":"X","legs":"F"},"bonus":0.3200000000000013},{"rt":2403.5,"stimulus":"bees-with-color/bee-B1SF.svg","response":0,"trial_type":"image-button-response","trial_index":117,"time_elapsed":865545,"internal_node_id":"0.0-4.0-0.55","subject_id":"5de00d05988d7c0877eaa15a","study_id":"6197b3f67c2b5cd3b6d9596a","session_id":"619be320273a25afc661353b","condition":"contingent","relevant_dimensions":["wings","legs"],"bee_group":{"antennae":"X","wings":"2","pattern":"X","legs":"F"},"action":"harvest","summary":"good-harvest","bonus":0.3200000000000013},{"rt":494.5,"stimulus":"\n                    <p><b>Action: <em>harvest</em></b></p>\n                    <p>This is the bee that you just saw.</p>\n                    <img src=\"bees-with-color/bee-B1SF.svg\" width=\"200\">\n                    <p><span class=\"greenText\"><b>Successful harvest!</b></span><br>Your pay has increased by $0.02. Your bonus pay is now $0.30.</p>\n            ","response":0,"trial_type":"html-button-response","trial_index":118,"time_elapsed":866042,"internal_node_id":"0.0-4.0-1.55","subject_id":"5de00d05988d7c0877eaa15a","study_id":"6197b3f67c2b5cd3b6d9596a","session_id":"619be320273a25afc661353b","condition":"contingent","relevant_dimensions":["wings","legs"],"bee_group":{"antennae":"X","wings":"2","pattern":"X","legs":"F"},"bonus":0.3200000000000013},{"rt":1162.300000011921,"stimulus":"bees-with-color/bee-B1DM.svg","response":1,"trial_type":"image-button-response","trial_index":119,"time_elapsed":867205,"internal_node_id":"0.0-4.0-0.56","subject_id":"5de00d05988d7c0877eaa15a","study_id":"6197b3f67c2b5cd3b6d9596a","session_id":"619be320273a25afc661353b","condition":"contingent","relevant_dimensions":["wings","legs"],"bee_group":{"antennae":"X","wings":"2","pattern":"X","legs":"F"},"action":"avoid","summary":"bad-avoid","bonus":0.3200000000000013},{"rt":541.0999999940395,"stimulus":"\n                    <p><b>Action: <em>avoid</em></b></p>\n                    <p>This is the bee that you just saw.</p>\n                    <img src=\"bees-with-color/bee-B1DM.svg\" width=\"200\">\n                    <p><br>Your bonus pay is unchanged, and remains at $0.30.</p>\n            ","response":0,"trial_type":"html-button-response","trial_index":120,"time_elapsed":867748,"internal_node_id":"0.0-4.0-1.56","subject_id":"5de00d05988d7c0877eaa15a","study_id":"6197b3f67c2b5cd3b6d9596a","session_id":"619be320273a25afc661353b","condition":"contingent","relevant_dimensions":["wings","legs"],"bee_group":{"antennae":"X","wings":"2","pattern":"X","legs":"F"},"bonus":0.3200000000000013},{"rt":1192.5,"stimulus":"bees-with-color/bee-B2DF.svg","response":1,"trial_type":"image-button-response","trial_index":121,"time_elapsed":868942,"internal_node_id":"0.0-4.0-0.57","subject_id":"5de00d05988d7c0877eaa15a","study_id":"6197b3f67c2b5cd3b6d9596a","session_id":"619be320273a25afc661353b","condition":"contingent","relevant_dimensions":["wings","legs"],"bee_group":{"antennae":"X","wings":"2","pattern":"X","legs":"F"},"action":"avoid","summary":"good-avoid","bonus":0.3200000000000013},{"rt":322.5,"stimulus":"\n                    <p><b>Action: <em>avoid</em></b></p>\n                    <p>This is the bee that you just saw.</p>\n                    <img src=\"bees-with-color/bee-B2DF.svg\" width=\"200\">\n                    <p><br>Your bonus pay is unchanged, and remains at $0.30.</p>\n            ","response":0,"trial_type":"html-button-response","trial_index":122,"time_elapsed":869266,"internal_node_id":"0.0-4.0-1.57","subject_id":"5de00d05988d7c0877eaa15a","study_id":"6197b3f67c2b5cd3b6d9596a","session_id":"619be320273a25afc661353b","condition":"contingent","relevant_dimensions":["wings","legs"],"bee_group":{"antennae":"X","wings":"2","pattern":"X","legs":"F"},"bonus":0.3200000000000013},{"rt":1195.4000000059605,"stimulus":"bees-with-color/bee-A1DM.svg","response":0,"trial_type":"image-button-response","trial_index":123,"time_elapsed":870464,"internal_node_id":"0.0-4.0-0.58","subject_id":"5de00d05988d7c0877eaa15a","study_id":"6197b3f67c2b5cd3b6d9596a","session_id":"619be320273a25afc661353b","condition":"contingent","relevant_dimensions":["wings","legs"],"bee_group":{"antennae":"X","wings":"2","pattern":"X","legs":"F"},"action":"harvest","summary":"good-harvest","bonus":0.3200000000000013},{"rt":494.89999997615814,"stimulus":"\n                    <p><b>Action: <em>harvest</em></b></p>\n                    <p>This is the bee that you just saw.</p>\n                    <img src=\"bees-with-color/bee-A1DM.svg\" width=\"200\">\n                    <p><span class=\"greenText\"><b>Successful harvest!</b></span><br>Your pay has increased by $0.02. Your bonus pay is now $0.32.</p>\n            ","response":0,"trial_type":"html-button-response","trial_index":124,"time_elapsed":870960,"internal_node_id":"0.0-4.0-1.58","subject_id":"5de00d05988d7c0877eaa15a","study_id":"6197b3f67c2b5cd3b6d9596a","session_id":"619be320273a25afc661353b","condition":"contingent","relevant_dimensions":["wings","legs"],"bee_group":{"antennae":"X","wings":"2","pattern":"X","legs":"F"},"bonus":0.3200000000000013},{"rt":1040.800000011921,"stimulus":"bees-with-color/bee-B1DF.svg","response":0,"trial_type":"image-button-response","trial_index":125,"time_elapsed":872002,"internal_node_id":"0.0-4.0-0.59","subject_id":"5de00d05988d7c0877eaa15a","study_id":"6197b3f67c2b5cd3b6d9596a","session_id":"619be320273a25afc661353b","condition":"contingent","relevant_dimensions":["wings","legs"],"bee_group":{"antennae":"X","wings":"2","pattern":"X","legs":"F"},"action":"harvest","summary":"good-harvest","bonus":0.3200000000000013},{"rt":437.19999998807907,"stimulus":"\n                    <p><b>Action: <em>harvest</em></b></p>\n                    <p>This is the bee that you just saw.</p>\n                    <img src=\"bees-with-color/bee-B1DF.svg\" width=\"200\">\n                    <p><span class=\"greenText\"><b>Successful harvest!</b></span><br>Your pay has increased by $0.02. Your bonus pay is now $0.34.</p>\n            ","response":0,"trial_type":"html-button-response","trial_index":126,"time_elapsed":872441,"internal_node_id":"0.0-4.0-1.59","subject_id":"5de00d05988d7c0877eaa15a","study_id":"6197b3f67c2b5cd3b6d9596a","session_id":"619be320273a25afc661353b","condition":"contingent","relevant_dimensions":["wings","legs"],"bee_group":{"antennae":"X","wings":"2","pattern":"X","legs":"F"},"bonus":0.3200000000000013},{"rt":3239.7999999821186,"stimulus":"bees-with-color/bee-A2DF.svg","response":1,"trial_type":"image-button-response","trial_index":127,"time_elapsed":875682,"internal_node_id":"0.0-4.0-0.60","subject_id":"5de00d05988d7c0877eaa15a","study_id":"6197b3f67c2b5cd3b6d9596a","session_id":"619be320273a25afc661353b","condition":"contingent","relevant_dimensions":["wings","legs"],"bee_group":{"antennae":"X","wings":"2","pattern":"X","legs":"F"},"action":"avoid","summary":"good-avoid","bonus":0.3200000000000013},{"rt":556.5,"stimulus":"\n                    <p><b>Action: <em>avoid</em></b></p>\n                    <p>This is the bee that you just saw.</p>\n                    <img src=\"bees-with-color/bee-A2DF.svg\" width=\"200\">\n                    <p><br>Your bonus pay is unchanged, and remains at $0.34.</p>\n            ","response":0,"trial_type":"html-button-response","trial_index":128,"time_elapsed":876240,"internal_node_id":"0.0-4.0-1.60","subject_id":"5de00d05988d7c0877eaa15a","study_id":"6197b3f67c2b5cd3b6d9596a","session_id":"619be320273a25afc661353b","condition":"contingent","relevant_dimensions":["wings","legs"],"bee_group":{"antennae":"X","wings":"2","pattern":"X","legs":"F"},"bonus":0.3200000000000013},{"rt":1098.9000000059605,"stimulus":"bees-with-color/bee-A2SM.svg","response":0,"trial_type":"image-button-response","trial_index":129,"time_elapsed":877340,"internal_node_id":"0.0-4.0-0.61","subject_id":"5de00d05988d7c0877eaa15a","study_id":"6197b3f67c2b5cd3b6d9596a","session_id":"619be320273a25afc661353b","condition":"contingent","relevant_dimensions":["wings","legs"],"bee_group":{"antennae":"X","wings":"2","pattern":"X","legs":"F"},"action":"harvest","summary":"good-harvest","bonus":0.3200000000000013},{"rt":538.4000000059605,"stimulus":"\n                    <p><b>Action: <em>harvest</em></b></p>\n                    <p>This is the bee that you just saw.</p>\n                    <img src=\"bees-with-color/bee-A2SM.svg\" width=\"200\">\n                    <p><span class=\"greenText\"><b>Successful harvest!</b></span><br>Your pay has increased by $0.02. Your bonus pay is now $0.36.</p>\n            ","response":0,"trial_type":"html-button-response","trial_index":130,"time_elapsed":877880,"internal_node_id":"0.0-4.0-1.61","subject_id":"5de00d05988d7c0877eaa15a","study_id":"6197b3f67c2b5cd3b6d9596a","session_id":"619be320273a25afc661353b","condition":"contingent","relevant_dimensions":["wings","legs"],"bee_group":{"antennae":"X","wings":"2","pattern":"X","legs":"F"},"bonus":0.3200000000000013},{"rt":1275.5,"stimulus":"bees-with-color/bee-A1SF.svg","response":0,"trial_type":"image-button-response","trial_index":131,"time_elapsed":879157,"internal_node_id":"0.0-4.0-0.62","subject_id":"5de00d05988d7c0877eaa15a","study_id":"6197b3f67c2b5cd3b6d9596a","session_id":"619be320273a25afc661353b","condition":"contingent","relevant_dimensions":["wings","legs"],"bee_group":{"antennae":"X","wings":"2","pattern":"X","legs":"F"},"action":"harvest","summary":"good-harvest","bonus":0.3200000000000013},{"rt":396.59999999403954,"stimulus":"\n                    <p><b>Action: <em>harvest</em></b></p>\n                    <p>This is the bee that you just saw.</p>\n                    <img src=\"bees-with-color/bee-A1SF.svg\" width=\"200\">\n                    <p><span class=\"greenText\"><b>Successful harvest!</b></span><br>Your pay has increased by $0.02. Your bonus pay is now $0.38.</p>\n            ","response":0,"trial_type":"html-button-response","trial_index":132,"time_elapsed":879555,"internal_node_id":"0.0-4.0-1.62","subject_id":"5de00d05988d7c0877eaa15a","study_id":"6197b3f67c2b5cd3b6d9596a","session_id":"619be320273a25afc661353b","condition":"contingent","relevant_dimensions":["wings","legs"],"bee_group":{"antennae":"X","wings":"2","pattern":"X","legs":"F"},"bonus":0.3200000000000013},{"rt":1142,"stimulus":"bees-with-color/bee-B1SM.svg","response":0,"trial_type":"image-button-response","trial_index":133,"time_elapsed":880699,"internal_node_id":"0.0-4.0-0.63","subject_id":"5de00d05988d7c0877eaa15a","study_id":"6197b3f67c2b5cd3b6d9596a","session_id":"619be320273a25afc661353b","condition":"contingent","relevant_dimensions":["wings","legs"],"bee_group":{"antennae":"X","wings":"2","pattern":"X","legs":"F"},"action":"harvest","summary":"good-harvest","bonus":0.3200000000000013},{"rt":474.5,"stimulus":"\n                    <p><b>Action: <em>harvest</em></b></p>\n                    <p>This is the bee that you just saw.</p>\n                    <img src=\"bees-with-color/bee-B1SM.svg\" width=\"200\">\n                    <p><span class=\"greenText\"><b>Successful harvest!</b></span><br>Your pay has increased by $0.02. Your bonus pay is now $0.40.</p>\n            ","response":0,"trial_type":"html-button-response","trial_index":134,"time_elapsed":881175,"internal_node_id":"0.0-4.0-1.63","subject_id":"5de00d05988d7c0877eaa15a","study_id":"6197b3f67c2b5cd3b6d9596a","session_id":"619be320273a25afc661353b","condition":"contingent","relevant_dimensions":["wings","legs"],"bee_group":{"antennae":"X","wings":"2","pattern":"X","legs":"F"},"bonus":0.3200000000000013},{"rt":5146.0999999940395,"stimulus":"You have completed the first part of this experiment.<br><br>You will now begin a shorter second part, in which you will receive no feedback.<br>The same rules regarding bonus pay apply.<br><br>Press any key to begin.","response":" ","trial_type":"html-keyboard-response","trial_index":135,"time_elapsed":886323,"internal_node_id":"0.0-5.0","subject_id":"5de00d05988d7c0877eaa15a","study_id":"6197b3f67c2b5cd3b6d9596a","session_id":"619be320273a25afc661353b","condition":"contingent","relevant_dimensions":["wings","legs"],"bee_group":{"antennae":"X","wings":"2","pattern":"X","legs":"F"},"bonus":0.3200000000000013},{"rt":4319.800000011921,"stimulus":"bees-with-color/bee-A1SF.svg","response":0,"trial_type":"image-button-response","trial_index":136,"time_elapsed":890650,"internal_node_id":"0.0-6.0-0.0","subject_id":"5de00d05988d7c0877eaa15a","study_id":"6197b3f67c2b5cd3b6d9596a","session_id":"619be320273a25afc661353b","condition":"contingent","relevant_dimensions":["wings","legs"],"bee_group":{"antennae":"X","wings":"2","pattern":"X","legs":"F"},"bonus":0.3200000000000013},{"rt":2939.199999988079,"stimulus":"bees-with-color/bee-A2SM.svg","response":0,"trial_type":"image-button-response","trial_index":137,"time_elapsed":893592,"internal_node_id":"0.0-6.0-0.1","subject_id":"5de00d05988d7c0877eaa15a","study_id":"6197b3f67c2b5cd3b6d9596a","session_id":"619be320273a25afc661353b","condition":"contingent","relevant_dimensions":["wings","legs"],"bee_group":{"antennae":"X","wings":"2","pattern":"X","legs":"F"},"bonus":0.3200000000000013},{"rt":968.5999999940395,"stimulus":"bees-with-color/bee-B2SM.svg","response":1,"trial_type":"image-button-response","trial_index":138,"time_elapsed":894563,"internal_node_id":"0.0-6.0-0.2","subject_id":"5de00d05988d7c0877eaa15a","study_id":"6197b3f67c2b5cd3b6d9596a","session_id":"619be320273a25afc661353b","condition":"contingent","relevant_dimensions":["wings","legs"],"bee_group":{"antennae":"X","wings":"2","pattern":"X","legs":"F"},"bonus":0.3200000000000013},{"rt":825.7999999821186,"stimulus":"bees-with-color/bee-B2DF.svg","response":1,"trial_type":"image-button-response","trial_index":139,"time_elapsed":895391,"internal_node_id":"0.0-6.0-0.3","subject_id":"5de00d05988d7c0877eaa15a","study_id":"6197b3f67c2b5cd3b6d9596a","session_id":"619be320273a25afc661353b","condition":"contingent","relevant_dimensions":["wings","legs"],"bee_group":{"antennae":"X","wings":"2","pattern":"X","legs":"F"},"bonus":0.3200000000000013},{"rt":528,"stimulus":"bees-with-color/bee-A2SF.svg","response":0,"trial_type":"image-button-response","trial_index":140,"time_elapsed":895921,"internal_node_id":"0.0-6.0-0.4","subject_id":"5de00d05988d7c0877eaa15a","study_id":"6197b3f67c2b5cd3b6d9596a","session_id":"619be320273a25afc661353b","condition":"contingent","relevant_dimensions":["wings","legs"],"bee_group":{"antennae":"X","wings":"2","pattern":"X","legs":"F"},"bonus":0.3200000000000013},{"rt":828,"stimulus":"bees-with-color/bee-B1DF.svg","response":1,"trial_type":"image-button-response","trial_index":141,"time_elapsed":896751,"internal_node_id":"0.0-6.0-0.5","subject_id":"5de00d05988d7c0877eaa15a","study_id":"6197b3f67c2b5cd3b6d9596a","session_id":"619be320273a25afc661353b","condition":"contingent","relevant_dimensions":["wings","legs"],"bee_group":{"antennae":"X","wings":"2","pattern":"X","legs":"F"},"bonus":0.3200000000000013},{"rt":4401,"stimulus":"bees-with-color/bee-B1DM.svg","response":1,"trial_type":"image-button-response","trial_index":142,"time_elapsed":901155,"internal_node_id":"0.0-6.0-0.6","subject_id":"5de00d05988d7c0877eaa15a","study_id":"6197b3f67c2b5cd3b6d9596a","session_id":"619be320273a25afc661353b","condition":"contingent","relevant_dimensions":["wings","legs"],"bee_group":{"antennae":"X","wings":"2","pattern":"X","legs":"F"},"bonus":0.3200000000000013},{"rt":759.3000000119209,"stimulus":"bees-with-color/bee-B2DM.svg","response":0,"trial_type":"image-button-response","trial_index":143,"time_elapsed":901916,"internal_node_id":"0.0-6.0-0.7","subject_id":"5de00d05988d7c0877eaa15a","study_id":"6197b3f67c2b5cd3b6d9596a","session_id":"619be320273a25afc661353b","condition":"contingent","relevant_dimensions":["wings","legs"],"bee_group":{"antennae":"X","wings":"2","pattern":"X","legs":"F"},"bonus":0.3200000000000013},{"rt":1258.2000000178814,"stimulus":"bees-with-color/bee-B2SF.svg","response":0,"trial_type":"image-button-response","trial_index":144,"time_elapsed":903177,"internal_node_id":"0.0-6.0-0.8","subject_id":"5de00d05988d7c0877eaa15a","study_id":"6197b3f67c2b5cd3b6d9596a","session_id":"619be320273a25afc661353b","condition":"contingent","relevant_dimensions":["wings","legs"],"bee_group":{"antennae":"X","wings":"2","pattern":"X","legs":"F"},"bonus":0.3200000000000013},{"rt":915.9000000059605,"stimulus":"bees-with-color/bee-A1DF.svg","response":0,"trial_type":"image-button-response","trial_index":145,"time_elapsed":904095,"internal_node_id":"0.0-6.0-0.9","subject_id":"5de00d05988d7c0877eaa15a","study_id":"6197b3f67c2b5cd3b6d9596a","session_id":"619be320273a25afc661353b","condition":"contingent","relevant_dimensions":["wings","legs"],"bee_group":{"antennae":"X","wings":"2","pattern":"X","legs":"F"},"bonus":0.3200000000000013},{"rt":1162.2000000178814,"stimulus":"bees-with-color/bee-A2DM.svg","response":1,"trial_type":"image-button-response","trial_index":146,"time_elapsed":905259,"internal_node_id":"0.0-6.0-0.10","subject_id":"5de00d05988d7c0877eaa15a","study_id":"6197b3f67c2b5cd3b6d9596a","session_id":"619be320273a25afc661353b","condition":"contingent","relevant_dimensions":["wings","legs"],"bee_group":{"antennae":"X","wings":"2","pattern":"X","legs":"F"},"bonus":0.3200000000000013},{"rt":719,"stimulus":"bees-with-color/bee-A1DM.svg","response":0,"trial_type":"image-button-response","trial_index":147,"time_elapsed":905980,"internal_node_id":"0.0-6.0-0.11","subject_id":"5de00d05988d7c0877eaa15a","study_id":"6197b3f67c2b5cd3b6d9596a","session_id":"619be320273a25afc661353b","condition":"contingent","relevant_dimensions":["wings","legs"],"bee_group":{"antennae":"X","wings":"2","pattern":"X","legs":"F"},"bonus":0.3200000000000013},{"rt":1239.7999999821186,"stimulus":"bees-with-color/bee-A2DF.svg","response":1,"trial_type":"image-button-response","trial_index":148,"time_elapsed":907222,"internal_node_id":"0.0-6.0-0.12","subject_id":"5de00d05988d7c0877eaa15a","study_id":"6197b3f67c2b5cd3b6d9596a","session_id":"619be320273a25afc661353b","condition":"contingent","relevant_dimensions":["wings","legs"],"bee_group":{"antennae":"X","wings":"2","pattern":"X","legs":"F"},"bonus":0.3200000000000013},{"rt":2025.4000000059605,"stimulus":"bees-with-color/bee-B1SF.svg","response":0,"trial_type":"image-button-response","trial_index":149,"time_elapsed":909250,"internal_node_id":"0.0-6.0-0.13","subject_id":"5de00d05988d7c0877eaa15a","study_id":"6197b3f67c2b5cd3b6d9596a","session_id":"619be320273a25afc661353b","condition":"contingent","relevant_dimensions":["wings","legs"],"bee_group":{"antennae":"X","wings":"2","pattern":"X","legs":"F"},"bonus":0.3200000000000013},{"rt":772.2999999821186,"stimulus":"bees-with-color/bee-B1SM.svg","response":0,"trial_type":"image-button-response","trial_index":150,"time_elapsed":910024,"internal_node_id":"0.0-6.0-0.14","subject_id":"5de00d05988d7c0877eaa15a","study_id":"6197b3f67c2b5cd3b6d9596a","session_id":"619be320273a25afc661353b","condition":"contingent","relevant_dimensions":["wings","legs"],"bee_group":{"antennae":"X","wings":"2","pattern":"X","legs":"F"},"bonus":0.3200000000000013},{"rt":1191.5,"stimulus":"bees-with-color/bee-A1SM.svg","response":0,"trial_type":"image-button-response","trial_index":151,"time_elapsed":911219,"internal_node_id":"0.0-6.0-0.15","subject_id":"5de00d05988d7c0877eaa15a","study_id":"6197b3f67c2b5cd3b6d9596a","session_id":"619be320273a25afc661353b","condition":"contingent","relevant_dimensions":["wings","legs"],"bee_group":{"antennae":"X","wings":"2","pattern":"X","legs":"F"},"bonus":0.3200000000000013},{"rt":1204.699999988079,"stimulus":"bees-with-color/bee-A1SF.svg","response":0,"trial_type":"image-button-response","trial_index":152,"time_elapsed":912425,"internal_node_id":"0.0-6.0-0.16","subject_id":"5de00d05988d7c0877eaa15a","study_id":"6197b3f67c2b5cd3b6d9596a","session_id":"619be320273a25afc661353b","condition":"contingent","relevant_dimensions":["wings","legs"],"bee_group":{"antennae":"X","wings":"2","pattern":"X","legs":"F"},"bonus":0.3200000000000013},{"rt":2316.199999988079,"stimulus":"bees-with-color/bee-B2DF.svg","response":0,"trial_type":"image-button-response","trial_index":153,"time_elapsed":914743,"internal_node_id":"0.0-6.0-0.17","subject_id":"5de00d05988d7c0877eaa15a","study_id":"6197b3f67c2b5cd3b6d9596a","session_id":"619be320273a25afc661353b","condition":"contingent","relevant_dimensions":["wings","legs"],"bee_group":{"antennae":"X","wings":"2","pattern":"X","legs":"F"},"bonus":0.3200000000000013},{"rt":1060.0999999940395,"stimulus":"bees-with-color/bee-A1SM.svg","response":1,"trial_type":"image-button-response","trial_index":154,"time_elapsed":915805,"internal_node_id":"0.0-6.0-0.18","subject_id":"5de00d05988d7c0877eaa15a","study_id":"6197b3f67c2b5cd3b6d9596a","session_id":"619be320273a25afc661353b","condition":"contingent","relevant_dimensions":["wings","legs"],"bee_group":{"antennae":"X","wings":"2","pattern":"X","legs":"F"},"bonus":0.3200000000000013},{"rt":1796.5,"stimulus":"bees-with-color/bee-A2SF.svg","response":1,"trial_type":"image-button-response","trial_index":155,"time_elapsed":917604,"internal_node_id":"0.0-6.0-0.19","subject_id":"5de00d05988d7c0877eaa15a","study_id":"6197b3f67c2b5cd3b6d9596a","session_id":"619be320273a25afc661353b","condition":"contingent","relevant_dimensions":["wings","legs"],"bee_group":{"antennae":"X","wings":"2","pattern":"X","legs":"F"},"bonus":0.3200000000000013},{"rt":867.0999999940395,"stimulus":"bees-with-color/bee-B1SM.svg","response":0,"trial_type":"image-button-response","trial_index":156,"time_elapsed":918473,"internal_node_id":"0.0-6.0-0.20","subject_id":"5de00d05988d7c0877eaa15a","study_id":"6197b3f67c2b5cd3b6d9596a","session_id":"619be320273a25afc661353b","condition":"contingent","relevant_dimensions":["wings","legs"],"bee_group":{"antennae":"X","wings":"2","pattern":"X","legs":"F"},"bonus":0.3200000000000013},{"rt":1583.5,"stimulus":"bees-with-color/bee-B1DF.svg","response":0,"trial_type":"image-button-response","trial_index":157,"time_elapsed":920059,"internal_node_id":"0.0-6.0-0.21","subject_id":"5de00d05988d7c0877eaa15a","study_id":"6197b3f67c2b5cd3b6d9596a","session_id":"619be320273a25afc661353b","condition":"contingent","relevant_dimensions":["wings","legs"],"bee_group":{"antennae":"X","wings":"2","pattern":"X","legs":"F"},"bonus":0.3200000000000013},{"rt":874.2999999821186,"stimulus":"bees-with-color/bee-B1SF.svg","response":0,"trial_type":"image-button-response","trial_index":158,"time_elapsed":920935,"internal_node_id":"0.0-6.0-0.22","subject_id":"5de00d05988d7c0877eaa15a","study_id":"6197b3f67c2b5cd3b6d9596a","session_id":"619be320273a25afc661353b","condition":"contingent","relevant_dimensions":["wings","legs"],"bee_group":{"antennae":"X","wings":"2","pattern":"X","legs":"F"},"bonus":0.3200000000000013},{"rt":5122.200000017881,"stimulus":"bees-with-color/bee-A1DF.svg","response":0,"trial_type":"image-button-response","trial_index":159,"time_elapsed":926060,"internal_node_id":"0.0-6.0-0.23","subject_id":"5de00d05988d7c0877eaa15a","study_id":"6197b3f67c2b5cd3b6d9596a","session_id":"619be320273a25afc661353b","condition":"contingent","relevant_dimensions":["wings","legs"],"bee_group":{"antennae":"X","wings":"2","pattern":"X","legs":"F"},"bonus":0.3200000000000013},{"rt":3847.800000011921,"stimulus":"bees-with-color/bee-B2SF.svg","response":1,"trial_type":"image-button-response","trial_index":160,"time_elapsed":929910,"internal_node_id":"0.0-6.0-0.24","subject_id":"5de00d05988d7c0877eaa15a","study_id":"6197b3f67c2b5cd3b6d9596a","session_id":"619be320273a25afc661353b","condition":"contingent","relevant_dimensions":["wings","legs"],"bee_group":{"antennae":"X","wings":"2","pattern":"X","legs":"F"},"bonus":0.3200000000000013},{"rt":1310.4000000059605,"stimulus":"bees-with-color/bee-A2DM.svg","response":1,"trial_type":"image-button-response","trial_index":161,"time_elapsed":931224,"internal_node_id":"0.0-6.0-0.25","subject_id":"5de00d05988d7c0877eaa15a","study_id":"6197b3f67c2b5cd3b6d9596a","session_id":"619be320273a25afc661353b","condition":"contingent","relevant_dimensions":["wings","legs"],"bee_group":{"antennae":"X","wings":"2","pattern":"X","legs":"F"},"bonus":0.3200000000000013},{"rt":87