[{"success":true,"trial_type":"fullscreen","trial_index":0,"time_elapsed":4674,"internal_node_id":"0.0-0.0","subject_id":"6112055ec44105138e374bd5","study_id":"6197b3f67c2b5cd3b6d9596a","session_id":"6197b88e4a48a84ae148b19a","condition":"contingent","relevant_dimensions":["antennae","pattern"],"bee_group":{"antennae":"A","wings":"X","pattern":"S","legs":"X"},"bonus":0.2400000000000009},{"success":true,"timeout":false,"failed_images":[],"failed_audio":[],"failed_video":[],"trial_type":"preload","trial_index":1,"time_elapsed":8483,"internal_node_id":"0.0-1.0","subject_id":"6112055ec44105138e374bd5","study_id":"6197b3f67c2b5cd3b6d9596a","session_id":"6197b88e4a48a84ae148b19a","condition":"contingent","relevant_dimensions":["antennae","pattern"],"bee_group":{"antennae":"A","wings":"X","pattern":"S","legs":"X"},"bonus":0.2400000000000009},{"rt":2350.900000035763,"stimulus":"Welcome! Press any key to begin.","response":" ","trial_type":"html-keyboard-response","trial_index":2,"time_elapsed":10836,"internal_node_id":"0.0-2.0","subject_id":"6112055ec44105138e374bd5","study_id":"6197b3f67c2b5cd3b6d9596a","session_id":"6197b88e4a48a84ae148b19a","condition":"contingent","relevant_dimensions":["antennae","pattern"],"bee_group":{"antennae":"A","wings":"X","pattern":"S","legs":"X"},"bonus":0.2400000000000009},{"view_history":[{"page_index":0,"viewing_time":6461.100000023842},{"page_index":1,"viewing_time":20862.799999952316},{"page_index":2,"viewing_time":24482.200000047684},{"page_index":3,"viewing_time":20767.5},{"page_index":4,"viewing_time":7316.799999952316},{"page_index":5,"viewing_time":17087.700000047684},{"page_index":6,"viewing_time":9561.899999976158},{"page_index":7,"viewing_time":5813.699999988079},{"page_index":6,"viewing_time":18156.400000035763},{"page_index":7,"viewing_time":9408.799999952316},{"page_index":8,"viewing_time":13904.900000035763},{"page_index":9,"viewing_time":6898.899999976158},{"page_index":10,"viewing_time":5432.199999988079},{"page_index":11,"viewing_time":6859.800000011921},{"page_index":12,"viewing_time":11690.699999988079},{"page_index":13,"viewing_time":1851.800000011921},{"page_index":14,"viewing_time":3907.900000035763}],"rt":190465.89999997616,"trial_type":"instructions","trial_index":3,"time_elapsed":201304,"internal_node_id":"0.0-3.0-0.0","subject_id":"6112055ec44105138e374bd5","study_id":"6197b3f67c2b5cd3b6d9596a","session_id":"6197b88e4a48a84ae148b19a","condition":"contingent","relevant_dimensions":["antennae","pattern"],"bee_group":{"antennae":"A","wings":"X","pattern":"S","legs":"X"},"bonus":0.2400000000000009},{"rt":40731.19999998808,"response":{"Q0":["Two or six legs","Stripes or spots on body","Single or double wings","Antennae or no antennae"]},"question_order":[0],"trial_type":"survey-multi-select","trial_index":4,"time_elapsed":242055,"internal_node_id":"0.0-3.0-1.0","subject_id":"6112055ec44105138e374bd5","study_id":"6197b3f67c2b5cd3b6d9596a","session_id":"6197b88e4a48a84ae148b19a","condition":"contingent","relevant_dimensions":["antennae","pattern"],"bee_group":{"antennae":"A","wings":"X","pattern":"S","legs":"X"},"correct":true,"bonus":0.2400000000000009},{"rt":44576.89999997616,"response":{"Q1":"No.","Q2":"Based on the four features of the bee.","Q3":"You do not learn if it was friendly or dangerous, and do not alter your bonus."},"question_order":[0,1,2],"trial_type":"survey-multi-choice","trial_index":5,"time_elapsed":286637,"internal_node_id":"0.0-3.0-2.0","subject_id":"6112055ec44105138e374bd5","study_id":"6197b3f67c2b5cd3b6d9596a","session_id":"6197b88e4a48a84ae148b19a","condition":"contingent","relevant_dimensions":["antennae","pattern"],"bee_group":{"antennae":"A","wings":"X","pattern":"S","legs":"X"},"correct":true,"bonus":0.2400000000000009},{"rt":3036.699999988079,"stimulus":"<p>Congrats, you got everything right<br>When you're ready, click the button below to continue to the experiment.</p>","response":0,"trial_type":"html-button-response","trial_index":6,"time_elapsed":289677,"internal_node_id":"0.0-3.0-3.0","subject_id":"6112055ec44105138e374bd5","study_id":"6197b3f67c2b5cd3b6d9596a","session_id":"6197b88e4a48a84ae148b19a","condition":"contingent","relevant_dimensions":["antennae","pattern"],"bee_group":{"antennae":"A","wings":"X","pattern":"S","legs":"X"},"bonus":0.2400000000000009},{"rt":14216,"stimulus":"bees-with-color/bee-A1DM.svg","response":0,"trial_type":"image-button-response","trial_index":7,"time_elapsed":303899,"internal_node_id":"0.0-4.0-0.0","subject_id":"6112055ec44105138e374bd5","study_id":"6197b3f67c2b5cd3b6d9596a","session_id":"6197b88e4a48a84ae148b19a","condition":"contingent","relevant_dimensions":["antennae","pattern"],"bee_group":{"antennae":"A","wings":"X","pattern":"S","legs":"X"},"action":"harvest","summary":"good-harvest","bonus":0.2400000000000009},{"rt":6220.400000035763,"stimulus":"\n                    <p><b>Action: <em>harvest</em></b></p>\n                    <p>This is the bee that you just saw.</p>\n                    <img src=\"bees-with-color/bee-A1DM.svg\" width=\"200\">\n                    <p><span class=\"greenText\"><b>Successful harvest!</b></span><br>Your pay has increased by $0.02. Your bonus pay is now $0.56.</p>\n            ","response":0,"trial_type":"html-button-response","trial_index":8,"time_elapsed":310126,"internal_node_id":"0.0-4.0-1.0","subject_id":"6112055ec44105138e374bd5","study_id":"6197b3f67c2b5cd3b6d9596a","session_id":"6197b88e4a48a84ae148b19a","condition":"contingent","relevant_dimensions":["antennae","pattern"],"bee_group":{"antennae":"A","wings":"X","pattern":"S","legs":"X"},"bonus":0.2400000000000009},{"rt":9219.400000035763,"stimulus":"bees-with-color/bee-A2SM.svg","response":0,"trial_type":"image-button-response","trial_index":9,"time_elapsed":319349,"internal_node_id":"0.0-4.0-0.1","subject_id":"6112055ec44105138e374bd5","study_id":"6197b3f67c2b5cd3b6d9596a","session_id":"6197b88e4a48a84ae148b19a","condition":"contingent","relevant_dimensions":["antennae","pattern"],"bee_group":{"antennae":"A","wings":"X","pattern":"S","legs":"X"},"action":"harvest","summary":"bad-harvest","bonus":0.2400000000000009},{"rt":9631.799999952316,"stimulus":"\n                    <p><b>Action: <em>harvest</em></b></p>\n                    <p>This is the bee that you just saw.</p>\n                    <img src=\"bees-with-color/bee-A2SM.svg\" width=\"200\">\n                    <p><span class=\"redText\">Bad choice, the bee was angry.</span><br><b>You have been stung!</b><br>Your pay has been decreased by $0.10. Your bonus pay is now $0.46.</p>\n            ","response":0,"trial_type":"html-button-response","trial_index":10,"time_elapsed":328984,"internal_node_id":"0.0-4.0-1.1","subject_id":"6112055ec44105138e374bd5","study_id":"6197b3f67c2b5cd3b6d9596a","session_id":"6197b88e4a48a84ae148b19a","condition":"contingent","relevant_dimensions":["antennae","pattern"],"bee_group":{"antennae":"A","wings":"X","pattern":"S","legs":"X"},"bonus":0.2400000000000009},{"rt":7643.099999964237,"stimulus":"bees-with-color/bee-B2DM.svg","response":0,"trial_type":"image-button-response","trial_index":11,"time_elapsed":336632,"internal_node_id":"0.0-4.0-0.2","subject_id":"6112055ec44105138e374bd5","study_id":"6197b3f67c2b5cd3b6d9596a","session_id":"6197b88e4a48a84ae148b19a","condition":"contingent","relevant_dimensions":["antennae","pattern"],"bee_group":{"antennae":"A","wings":"X","pattern":"S","legs":"X"},"action":"harvest","summary":"good-harvest","bonus":0.2400000000000009},{"rt":5720.300000011921,"stimulus":"\n                    <p><b>Action: <em>harvest</em></b></p>\n                    <p>This is the bee that you just saw.</p>\n                    <img src=\"bees-with-color/bee-B2DM.svg\" width=\"200\">\n                    <p><span class=\"greenText\"><b>Successful harvest!</b></span><br>Your pay has increased by $0.02. Your bonus pay is now $0.48.</p>\n            ","response":0,"trial_type":"html-button-response","trial_index":12,"time_elapsed":342356,"internal_node_id":"0.0-4.0-1.2","subject_id":"6112055ec44105138e374bd5","study_id":"6197b3f67c2b5cd3b6d9596a","session_id":"6197b88e4a48a84ae148b19a","condition":"contingent","relevant_dimensions":["antennae","pattern"],"bee_group":{"antennae":"A","wings":"X","pattern":"S","legs":"X"},"bonus":0.2400000000000009},{"rt":12380.5,"stimulus":"bees-with-color/bee-B2SF.svg","response":0,"trial_type":"image-button-response","trial_index":13,"time_elapsed":354740,"internal_node_id":"0.0-4.0-0.3","subject_id":"6112055ec44105138e374bd5","study_id":"6197b3f67c2b5cd3b6d9596a","session_id":"6197b88e4a48a84ae148b19a","condition":"contingent","relevant_dimensions":["antennae","pattern"],"bee_group":{"antennae":"A","wings":"X","pattern":"S","legs":"X"},"action":"harvest","summary":"good-harvest","bonus":0.2400000000000009},{"rt":5003.5,"stimulus":"\n                    <p><b>Action: <em>harvest</em></b></p>\n                    <p>This is the bee that you just saw.</p>\n                    <img src=\"bees-with-color/bee-B2SF.svg\" width=\"200\">\n                    <p><span class=\"greenText\"><b>Successful harvest!</b></span><br>Your pay has increased by $0.02. Your bonus pay is now $0.50.</p>\n            ","response":0,"trial_type":"html-button-response","trial_index":14,"time_elapsed":359747,"internal_node_id":"0.0-4.0-1.3","subject_id":"6112055ec44105138e374bd5","study_id":"6197b3f67c2b5cd3b6d9596a","session_id":"6197b88e4a48a84ae148b19a","condition":"contingent","relevant_dimensions":["antennae","pattern"],"bee_group":{"antennae":"A","wings":"X","pattern":"S","legs":"X"},"bonus":0.2400000000000009},{"rt":2710.600000023842,"stimulus":"bees-with-color/bee-B2SM.svg","response":1,"trial_type":"image-button-response","trial_index":15,"time_elapsed":362462,"internal_node_id":"0.0-4.0-0.4","subject_id":"6112055ec44105138e374bd5","study_id":"6197b3f67c2b5cd3b6d9596a","session_id":"6197b88e4a48a84ae148b19a","condition":"contingent","relevant_dimensions":["antennae","pattern"],"bee_group":{"antennae":"A","wings":"X","pattern":"S","legs":"X"},"action":"avoid","summary":"bad-avoid","bonus":0.2400000000000009},{"rt":3165.600000023842,"stimulus":"\n                    <p><b>Action: <em>avoid</em></b></p>\n                    <p>This is the bee that you just saw.</p>\n                    <img src=\"bees-with-color/bee-B2SM.svg\" width=\"200\">\n                    <p><br>Your bonus pay is unchanged, and remains at $0.50.</p>\n            ","response":0,"trial_type":"html-button-response","trial_index":16,"time_elapsed":365631,"internal_node_id":"0.0-4.0-1.4","subject_id":"6112055ec44105138e374bd5","study_id":"6197b3f67c2b5cd3b6d9596a","session_id":"6197b88e4a48a84ae148b19a","condition":"contingent","relevant_dimensions":["antennae","pattern"],"bee_group":{"antennae":"A","wings":"X","pattern":"S","legs":"X"},"bonus":0.2400000000000009},{"rt":3353.699999988079,"stimulus":"bees-with-color/bee-B1DM.svg","response":0,"trial_type":"image-button-response","trial_index":17,"time_elapsed":368989,"internal_node_id":"0.0-4.0-0.5","subject_id":"6112055ec44105138e374bd5","study_id":"6197b3f67c2b5cd3b6d9596a","session_id":"6197b88e4a48a84ae148b19a","condition":"contingent","relevant_dimensions":["antennae","pattern"],"bee_group":{"antennae":"A","wings":"X","pattern":"S","legs":"X"},"action":"harvest","summary":"good-harvest","bonus":0.2400000000000009},{"rt":1673.199999988079,"stimulus":"\n                    <p><b>Action: <em>harvest</em></b></p>\n                    <p>This is the bee that you just saw.</p>\n                    <img src=\"bees-with-color/bee-B1DM.svg\" width=\"200\">\n                    <p><span class=\"greenText\"><b>Successful harvest!</b></span><br>Your pay has increased by $0.02. Your bonus pay is now $0.52.</p>\n            ","response":0,"trial_type":"html-button-response","trial_index":18,"time_elapsed":370665,"internal_node_id":"0.0-4.0-1.5","subject_id":"6112055ec44105138e374bd5","study_id":"6197b3f67c2b5cd3b6d9596a","session_id":"6197b88e4a48a84ae148b19a","condition":"contingent","relevant_dimensions":["antennae","pattern"],"bee_group":{"antennae":"A","wings":"X","pattern":"S","legs":"X"},"bonus":0.2400000000000009},{"rt":2353.2999999523163,"stimulus":"bees-with-color/bee-A1DF.svg","response":1,"trial_type":"image-button-response","trial_index":19,"time_elapsed":373023,"internal_node_id":"0.0-4.0-0.6","subject_id":"6112055ec44105138e374bd5","study_id":"6197b3f67c2b5cd3b6d9596a","session_id":"6197b88e4a48a84ae148b19a","condition":"contingent","relevant_dimensions":["antennae","pattern"],"bee_group":{"antennae":"A","wings":"X","pattern":"S","legs":"X"},"action":"avoid","summary":"bad-avoid","bonus":0.2400000000000009},{"rt":1738.0999999642372,"stimulus":"\n                    <p><b>Action: <em>avoid</em></b></p>\n                    <p>This is the bee that you just saw.</p>\n                    <img src=\"bees-with-color/bee-A1DF.svg\" width=\"200\">\n                    <p><br>Your bonus pay is unchanged, and remains at $0.52.</p>\n            ","response":0,"trial_type":"html-button-response","trial_index":20,"time_elapsed":374764,"internal_node_id":"0.0-4.0-1.6","subject_id":"6112055ec44105138e374bd5","study_id":"6197b3f67c2b5cd3b6d9596a","session_id":"6197b88e4a48a84ae148b19a","condition":"contingent","relevant_dimensions":["antennae","pattern"],"bee_group":{"antennae":"A","wings":"X","pattern":"S","legs":"X"},"bonus":0.2400000000000009},{"rt":7885.199999988079,"stimulus":"bees-with-color/bee-A1SM.svg","response":0,"trial_type":"image-button-response","trial_index":21,"time_elapsed":382653,"internal_node_id":"0.0-4.0-0.7","subject_id":"6112055ec44105138e374bd5","study_id":"6197b3f67c2b5cd3b6d9596a","session_id":"6197b88e4a48a84ae148b19a","condition":"contingent","relevant_dimensions":["antennae","pattern"],"bee_group":{"antennae":"A","wings":"X","pattern":"S","legs":"X"},"action":"harvest","summary":"bad-harvest","bonus":0.2400000000000009},{"rt":2201.699999988079,"stimulus":"\n                    <p><b>Action: <em>harvest</em></b></p>\n                    <p>This is the bee that you just saw.</p>\n                    <img src=\"bees-with-color/bee-A1SM.svg\" width=\"200\">\n                    <p><span class=\"redText\">Bad choice, the bee was angry.</span><br><b>You have been stung!</b><br>Your pay has been decreased by $0.10. Your bonus pay is now $0.42.</p>\n            ","response":0,"trial_type":"html-button-response","trial_index":22,"time_elapsed":384859,"internal_node_id":"0.0-4.0-1.7","subject_id":"6112055ec44105138e374bd5","study_id":"6197b3f67c2b5cd3b6d9596a","session_id":"6197b88e4a48a84ae148b19a","condition":"contingent","relevant_dimensions":["antennae","pattern"],"bee_group":{"antennae":"A","wings":"X","pattern":"S","legs":"X"},"bonus":0.2400000000000009},{"rt":2526,"stimulus":"bees-with-color/bee-B1SM.svg","response":0,"trial_type":"image-button-response","trial_index":23,"time_elapsed":387390,"internal_node_id":"0.0-4.0-0.8","subject_id":"6112055ec44105138e374bd5","study_id":"6197b3f67c2b5cd3b6d9596a","session_id":"6197b88e4a48a84ae148b19a","condition":"contingent","relevant_dimensions":["antennae","pattern"],"bee_group":{"antennae":"A","wings":"X","pattern":"S","legs":"X"},"action":"harvest","summary":"good-harvest","bonus":0.2400000000000009},{"rt":1576.699999988079,"stimulus":"\n                    <p><b>Action: <em>harvest</em></b></p>\n                    <p>This is the bee that you just saw.</p>\n                    <img src=\"bees-with-color/bee-B1SM.svg\" width=\"200\">\n                    <p><span class=\"greenText\"><b>Successful harvest!</b></span><br>Your pay has increased by $0.02. Your bonus pay is now $0.44.</p>\n            ","response":0,"trial_type":"html-button-response","trial_index":24,"time_elapsed":388971,"internal_node_id":"0.0-4.0-1.8","subject_id":"6112055ec44105138e374bd5","study_id":"6197b3f67c2b5cd3b6d9596a","session_id":"6197b88e4a48a84ae148b19a","condition":"contingent","relevant_dimensions":["antennae","pattern"],"bee_group":{"antennae":"A","wings":"X","pattern":"S","legs":"X"},"bonus":0.2400000000000009},{"rt":2437.5,"stimulus":"bees-with-color/bee-B1SF.svg","response":0,"trial_type":"image-button-response","trial_index":25,"time_elapsed":391413,"internal_node_id":"0.0-4.0-0.9","subject_id":"6112055ec44105138e374bd5","study_id":"6197b3f67c2b5cd3b6d9596a","session_id":"6197b88e4a48a84ae148b19a","condition":"contingent","relevant_dimensions":["antennae","pattern"],"bee_group":{"antennae":"A","wings":"X","pattern":"S","legs":"X"},"action":"harvest","summary":"good-harvest","bonus":0.2400000000000009},{"rt":1194.9000000357628,"stimulus":"\n                    <p><b>Action: <em>harvest</em></b></p>\n                    <p>This is the bee that you just saw.</p>\n                    <img src=\"bees-with-color/bee-B1SF.svg\" width=\"200\">\n                    <p><span class=\"greenText\"><b>Successful harvest!</b></span><br>Your pay has increased by $0.02. Your bonus pay is now $0.46.</p>\n            ","response":0,"trial_type":"html-button-response","trial_index":26,"time_elapsed":392612,"internal_node_id":"0.0-4.0-1.9","subject_id":"6112055ec44105138e374bd5","study_id":"6197b3f67c2b5cd3b6d9596a","session_id":"6197b88e4a48a84ae148b19a","condition":"contingent","relevant_dimensions":["antennae","pattern"],"bee_group":{"antennae":"A","wings":"X","pattern":"S","legs":"X"},"bonus":0.2400000000000009},{"rt":2255.100000023842,"stimulus":"bees-with-color/bee-A2DF.svg","response":1,"trial_type":"image-button-response","trial_index":27,"time_elapsed":394870,"internal_node_id":"0.0-4.0-0.10","subject_id":"6112055ec44105138e374bd5","study_id":"6197b3f67c2b5cd3b6d9596a","session_id":"6197b88e4a48a84ae148b19a","condition":"contingent","relevant_dimensions":["antennae","pattern"],"bee_group":{"antennae":"A","wings":"X","pattern":"S","legs":"X"},"action":"avoid","summary":"bad-avoid","bonus":0.2400000000000009},{"rt":2643.900000035763,"stimulus":"\n                    <p><b>Action: <em>avoid</em></b></p>\n                    <p>This is the bee that you just saw.</p>\n                    <img src=\"bees-with-color/bee-A2DF.svg\" width=\"200\">\n                    <p><br>Your bonus pay is unchanged, and remains at $0.46.</p>\n            ","response":0,"trial_type":"html-button-response","trial_index":28,"time_elapsed":397518,"internal_node_id":"0.0-4.0-1.10","subject_id":"6112055ec44105138e374bd5","study_id":"6197b3f67c2b5cd3b6d9596a","session_id":"6197b88e4a48a84ae148b19a","condition":"contingent","relevant_dimensions":["antennae","pattern"],"bee_group":{"antennae":"A","wings":"X","pattern":"S","legs":"X"},"bonus":0.2400000000000009},{"rt":3557,"stimulus":"bees-with-color/bee-A2DM.svg","response":0,"trial_type":"image-button-response","trial_index":29,"time_elapsed":401080,"internal_node_id":"0.0-4.0-0.11","subject_id":"6112055ec44105138e374bd5","study_id":"6197b3f67c2b5cd3b6d9596a","session_id":"6197b88e4a48a84ae148b19a","condition":"contingent","relevant_dimensions":["antennae","pattern"],"bee_group":{"antennae":"A","wings":"X","pattern":"S","legs":"X"},"action":"harvest","summary":"good-harvest","bonus":0.2400000000000009},{"rt":1824.7000000476837,"stimulus":"\n                    <p><b>Action: <em>harvest</em></b></p>\n                    <p>This is the bee that you just saw.</p>\n                    <img src=\"bees-with-color/bee-A2DM.svg\" width=\"200\">\n                    <p><span class=\"greenText\"><b>Successful harvest!</b></span><br>Your pay has increased by $0.02. Your bonus pay is now $0.48.</p>\n            ","response":0,"trial_type":"html-button-response","trial_index":30,"time_elapsed":402908,"internal_node_id":"0.0-4.0-1.11","subject_id":"6112055ec44105138e374bd5","study_id":"6197b3f67c2b5cd3b6d9596a","session_id":"6197b88e4a48a84ae148b19a","condition":"contingent","relevant_dimensions":["antennae","pattern"],"bee_group":{"antennae":"A","wings":"X","pattern":"S","legs":"X"},"bonus":0.2400000000000009},{"rt":3088.899999976158,"stimulus":"bees-with-color/bee-B1DF.svg","response":0,"trial_type":"image-button-response","trial_index":31,"time_elapsed":406000,"internal_node_id":"0.0-4.0-0.12","subject_id":"6112055ec44105138e374bd5","study_id":"6197b3f67c2b5cd3b6d9596a","session_id":"6197b88e4a48a84ae148b19a","condition":"contingent","relevant_dimensions":["antennae","pattern"],"bee_group":{"antennae":"A","wings":"X","pattern":"S","legs":"X"},"action":"harvest","summary":"good-harvest","bonus":0.2400000000000009},{"rt":1398.2999999523163,"stimulus":"\n                    <p><b>Action: <em>harvest</em></b></p>\n                    <p>This is the bee that you just saw.</p>\n                    <img src=\"bees-with-color/bee-B1DF.svg\" width=\"200\">\n                    <p><span class=\"greenText\"><b>Successful harvest!</b></span><br>Your pay has increased by $0.02. Your bonus pay is now $0.50.</p>\n            ","response":0,"trial_type":"html-button-response","trial_index":32,"time_elapsed":407401,"internal_node_id":"0.0-4.0-1.12","subject_id":"6112055ec44105138e374bd5","study_id":"6197b3f67c2b5cd3b6d9596a","session_id":"6197b88e4a48a84ae148b19a","condition":"contingent","relevant_dimensions":["antennae","pattern"],"bee_group":{"antennae":"A","wings":"X","pattern":"S","legs":"X"},"bonus":0.2400000000000009},{"rt":3346,"stimulus":"bees-with-color/bee-A1SF.svg","response":0,"trial_type":"image-button-response","trial_index":33,"time_elapsed":410750,"internal_node_id":"0.0-4.0-0.13","subject_id":"6112055ec44105138e374bd5","study_id":"6197b3f67c2b5cd3b6d9596a","session_id":"6197b88e4a48a84ae148b19a","condition":"contingent","relevant_dimensions":["antennae","pattern"],"bee_group":{"antennae":"A","wings":"X","pattern":"S","legs":"X"},"action":"harvest","summary":"bad-harvest","bonus":0.2400000000000009},{"rt":1876.3999999761581,"stimulus":"\n                    <p><b>Action: <em>harvest</em></b></p>\n                    <p>This is the bee that you just saw.</p>\n                    <img src=\"bees-with-color/bee-A1SF.svg\" width=\"200\">\n                    <p><span class=\"redText\">Bad choice, the bee was angry.</span><br><b>You have been stung!</b><br>Your pay has been decreased by $0.10. Your bonus pay is now $0.40.</p>\n            ","response":0,"trial_type":"html-button-response","trial_index":34,"time_elapsed":412630,"internal_node_id":"0.0-4.0-1.13","subject_id":"6112055ec44105138e374bd5","study_id":"6197b3f67c2b5cd3b6d9596a","session_id":"6197b88e4a48a84ae148b19a","condition":"contingent","relevant_dimensions":["antennae","pattern"],"bee_group":{"antennae":"A","wings":"X","pattern":"S","legs":"X"},"bonus":0.2400000000000009},{"rt":2637.5,"stimulus":"bees-with-color/bee-B2DF.svg","response":0,"trial_type":"image-button-response","trial_index":35,"time_elapsed":415271,"internal_node_id":"0.0-4.0-0.14","subject_id":"6112055ec44105138e374bd5","study_id":"6197b3f67c2b5cd3b6d9596a","session_id":"6197b88e4a48a84ae148b19a","condition":"contingent","relevant_dimensions":["antennae","pattern"],"bee_group":{"antennae":"A","wings":"X","pattern":"S","legs":"X"},"action":"harvest","summary":"good-harvest","bonus":0.2400000000000009},{"rt":1491.5,"stimulus":"\n                    <p><b>Action: <em>harvest</em></b></p>\n                    <p>This is the bee that you just saw.</p>\n                    <img src=\"bees-with-color/bee-B2DF.svg\" width=\"200\">\n                    <p><span class=\"greenText\"><b>Successful harvest!</b></span><br>Your pay has increased by $0.02. Your bonus pay is now $0.42.</p>\n            ","response":0,"trial_type":"html-button-response","trial_index":36,"time_elapsed":416765,"internal_node_id":"0.0-4.0-1.14","subject_id":"6112055ec44105138e374bd5","study_id":"6197b3f67c2b5cd3b6d9596a","session_id":"6197b88e4a48a84ae148b19a","condition":"contingent","relevant_dimensions":["antennae","pattern"],"bee_group":{"antennae":"A","wings":"X","pattern":"S","legs":"X"},"bonus":0.2400000000000009},{"rt":4119.900000035763,"stimulus":"bees-with-color/bee-A2SF.svg","response":1,"trial_type":"image-button-response","trial_index":37,"time_elapsed":420888,"internal_node_id":"0.0-4.0-0.15","subject_id":"6112055ec44105138e374bd5","study_id":"6197b3f67c2b5cd3b6d9596a","session_id":"6197b88e4a48a84ae148b19a","condition":"contingent","relevant_dimensions":["antennae","pattern"],"bee_group":{"antennae":"A","wings":"X","pattern":"S","legs":"X"},"action":"avoid","summary":"good-avoid","bonus":0.2400000000000009},{"rt":2687.899999976158,"stimulus":"\n                    <p><b>Action: <em>avoid</em></b></p>\n                    <p>This is the bee that you just saw.</p>\n                    <img src=\"bees-with-color/bee-A2SF.svg\" width=\"200\">\n                    <p><br>Your bonus pay is unchanged, and remains at $0.42.</p>\n            ","response":0,"trial_type":"html-button-response","trial_index":38,"time_elapsed":423579,"internal_node_id":"0.0-4.0-1.15","subject_id":"6112055ec44105138e374bd5","study_id":"6197b3f67c2b5cd3b6d9596a","session_id":"6197b88e4a48a84ae148b19a","condition":"contingent","relevant_dimensions":["antennae","pattern"],"bee_group":{"antennae":"A","wings":"X","pattern":"S","legs":"X"},"bonus":0.2400000000000009},{"rt":5069.699999988079,"stimulus":"bees-with-color/bee-B1DF.svg","response":0,"trial_type":"image-button-response","trial_index":39,"time_elapsed":428653,"internal_node_id":"0.0-4.0-0.16","subject_id":"6112055ec44105138e374bd5","study_id":"6197b3f67c2b5cd3b6d9596a","session_id":"6197b88e4a48a84ae148b19a","condition":"contingent","relevant_dimensions":["antennae","pattern"],"bee_group":{"antennae":"A","wings":"X","pattern":"S","legs":"X"},"action":"harvest","summary":"good-harvest","bonus":0.2400000000000009},{"rt":1372.699999988079,"stimulus":"\n                    <p><b>Action: <em>harvest</em></b></p>\n                    <p>This is the bee that you just saw.</p>\n                    <img src=\"bees-with-color/bee-B1DF.svg\" width=\"200\">\n                    <p><span class=\"greenText\"><b>Successful harvest!</b></span><br>Your pay has increased by $0.02. Your bonus pay is now $0.44.</p>\n            ","response":0,"trial_type":"html-button-response","trial_index":40,"time_elapsed":430029,"internal_node_id":"0.0-4.0-1.16","subject_id":"6112055ec44105138e374bd5","study_id":"6197b3f67c2b5cd3b6d9596a","session_id":"6197b88e4a48a84ae148b19a","condition":"contingent","relevant_dimensions":["antennae","pattern"],"bee_group":{"antennae":"A","wings":"X","pattern":"S","legs":"X"},"bonus":0.2400000000000009},{"rt":5842.599999964237,"stimulus":"bees-with-color/bee-B1SM.svg","response":0,"trial_type":"image-button-response","trial_index":41,"time_elapsed":435876,"internal_node_id":"0.0-4.0-0.17","subject_id":"6112055ec44105138e374bd5","study_id":"6197b3f67c2b5cd3b6d9596a","session_id":"6197b88e4a48a84ae148b19a","condition":"contingent","relevant_dimensions":["antennae","pattern"],"bee_group":{"antennae":"A","wings":"X","pattern":"S","legs":"X"},"action":"harvest","summary":"good-harvest","bonus":0.2400000000000009},{"rt":1451.0999999642372,"stimulus":"\n                    <p><b>Action: <em>harvest</em></b></p>\n                    <p>This is the bee that you just saw.</p>\n                    <img src=\"bees-with-color/bee-B1SM.svg\" width=\"200\">\n                    <p><span class=\"greenText\"><b>Successful harvest!</b></span><br>Your pay has increased by $0.02. Your bonus pay is now $0.46.</p>\n            ","response":0,"trial_type":"html-button-response","trial_index":42,"time_elapsed":437330,"internal_node_id":"0.0-4.0-1.17","subject_id":"6112055ec44105138e374bd5","study_id":"6197b3f67c2b5cd3b6d9596a","session_id":"6197b88e4a48a84ae148b19a","condition":"contingent","relevant_dimensions":["antennae","pattern"],"bee_group":{"antennae":"A","wings":"X","pattern":"S","legs":"X"},"bonus":0.2400000000000009},{"rt":5610.5,"stimulus":"bees-with-color/bee-A2SF.svg","response":1,"trial_type":"image-button-response","trial_index":43,"time_elapsed":442945,"internal_node_id":"0.0-4.0-0.18","subject_id":"6112055ec44105138e374bd5","study_id":"6197b3f67c2b5cd3b6d9596a","session_id":"6197b88e4a48a84ae148b19a","condition":"contingent","relevant_dimensions":["antennae","pattern"],"bee_group":{"antennae":"A","wings":"X","pattern":"S","legs":"X"},"action":"avoid","summary":"good-avoid","bonus":0.2400000000000009},{"rt":1731.3999999761581,"stimulus":"\n                    <p><b>Action: <em>avoid</em></b></p>\n                    <p>This is the bee that you just saw.</p>\n                    <img src=\"bees-with-color/bee-A2SF.svg\" width=\"200\">\n                    <p><br>Your bonus pay is unchanged, and remains at $0.46.</p>\n            ","response":0,"trial_type":"html-button-response","trial_index":44,"time_elapsed":444679,"internal_node_id":"0.0-4.0-1.18","subject_id":"6112055ec44105138e374bd5","study_id":"6197b3f67c2b5cd3b6d9596a","session_id":"6197b88e4a48a84ae148b19a","condition":"contingent","relevant_dimensions":["antennae","pattern"],"bee_group":{"antennae":"A","wings":"X","pattern":"S","legs":"X"},"bonus":0.2400000000000009},{"rt":6098.699999988079,"stimulus":"bees-with-color/bee-A2DF.svg","response":0,"trial_type":"image-button-response","trial_index":45,"time_elapsed":450782,"internal_node_id":"0.0-4.0-0.19","subject_id":"6112055ec44105138e374bd5","study_id":"6197b3f67c2b5cd3b6d9596a","session_id":"6197b88e4a48a84ae148b19a","condition":"contingent","relevant_dimensions":["antennae","pattern"],"bee_group":{"antennae":"A","wings":"X","pattern":"S","legs":"X"},"action":"harvest","summary":"good-harvest","bonus":0.2400000000000009},{"rt":4041.800000011921,"stimulus":"\n                    <p><b>Action: <em>harvest</em></b></p>\n                    <p>This is the bee that you just saw.</p>\n                    <img src=\"bees-with-color/bee-A2DF.svg\" width=\"200\">\n                    <p><span class=\"greenText\"><b>Successful harvest!</b></span><br>Your pay has increased by $0.02. Your bonus pay is now $0.48.</p>\n            ","response":0,"trial_type":"html-button-response","trial_index":46,"time_elapsed":454827,"internal_node_id":"0.0-4.0-1.19","subject_id":"6112055ec44105138e374bd5","study_id":"6197b3f67c2b5cd3b6d9596a","session_id":"6197b88e4a48a84ae148b19a","condition":"contingent","relevant_dimensions":["antennae","pattern"],"bee_group":{"antennae":"A","wings":"X","pattern":"S","legs":"X"},"bonus":0.2400000000000009},{"rt":4330.300000011921,"stimulus":"bees-with-color/bee-B1SF.svg","response":0,"trial_type":"image-button-response","trial_index":47,"time_elapsed":459162,"internal_node_id":"0.0-4.0-0.20","subject_id":"6112055ec44105138e374bd5","study_id":"6197b3f67c2b5cd3b6d9596a","session_id":"6197b88e4a48a84ae148b19a","condition":"contingent","relevant_dimensions":["antennae","pattern"],"bee_group":{"antennae":"A","wings":"X","pattern":"S","legs":"X"},"action":"harvest","summary":"good-harvest","bonus":0.2400000000000009},{"rt":1702,"stimulus":"\n                    <p><b>Action: <em>harvest</em></b></p>\n                    <p>This is the bee that you just saw.</p>\n                    <img src=\"bees-with-color/bee-B1SF.svg\" width=\"200\">\n                    <p><span class=\"greenText\"><b>Successful harvest!</b></span><br>Your pay has increased by $0.02. Your bonus pay is now $0.50.</p>\n            ","response":0,"trial_type":"html-button-response","trial_index":48,"time_elapsed":460867,"internal_node_id":"0.0-4.0-1.20","subject_id":"6112055ec44105138e374bd5","study_id":"6197b3f67c2b5cd3b6d9596a","session_id":"6197b88e4a48a84ae148b19a","condition":"contingent","relevant_dimensions":["antennae","pattern"],"bee_group":{"antennae":"A","wings":"X","pattern":"S","legs":"X"},"bonus":0.2400000000000009},{"rt":5519.199999988079,"stimulus":"bees-with-color/bee-B1DM.svg","response":0,"trial_type":"image-button-response","trial_index":49,"time_elapsed":466391,"internal_node_id":"0.0-4.0-0.21","subject_id":"6112055ec44105138e374bd5","study_id":"6197b3f67c2b5cd3b6d9596a","session_id":"6197b88e4a48a84ae148b19a","condition":"contingent","relevant_dimensions":["antennae","pattern"],"bee_group":{"antennae":"A","wings":"X","pattern":"S","legs":"X"},"action":"harvest","summary":"good-harvest","bonus":0.2400000000000009},{"rt":1280,"stimulus":"\n                    <p><b>Action: <em>harvest</em></b></p>\n                    <p>This is the bee that you just saw.</p>\n                    <img src=\"bees-with-color/bee-B1DM.svg\" width=\"200\">\n                    <p><span class=\"greenText\"><b>Successful harvest!</b></span><br>Your pay has increased by $0.02. Your bonus pay is now $0.52.</p>\n            ","response":0,"trial_type":"html-button-response","trial_index":50,"time_elapsed":467674,"internal_node_id":"0.0-4.0-1.21","subject_id":"6112055ec44105138e374bd5","study_id":"6197b3f67c2b5cd3b6d9596a","session_id":"6197b88e4a48a84ae148b19a","condition":"contingent","relevant_dimensions":["antennae","pattern"],"bee_group":{"antennae":"A","wings":"X","pattern":"S","legs":"X"},"bonus":0.2400000000000009},{"rt":3917.800000011921,"stimulus":"bees-with-color/bee-A1SF.svg","response":0,"trial_type":"image-button-response","trial_index":51,"time_elapsed":471596,"internal_node_id":"0.0-4.0-0.22","subject_id":"6112055ec44105138e374bd5","study_id":"6197b3f67c2b5cd3b6d9596a","session_id":"6197b88e4a48a84ae148b19a","condition":"contingent","relevant_dimensions":["antennae","pattern"],"bee_group":{"antennae":"A","wings":"X","pattern":"S","legs":"X"},"action":"harvest","summary":"bad-harvest","bonus":0.2400000000000009},{"rt":1544.1000000238419,"stimulus":"\n                    <p><b>Action: <em>harvest</em></b></p>\n                    <p>This is the bee that you just saw.</p>\n                    <img src=\"bees-with-color/bee-A1SF.svg\" width=\"200\">\n                    <p><span class=\"redText\">Bad choice, the bee was angry.</span><br><b>You have been stung!</b><br>Your pay has been decreased by $0.10. Your bonus pay is now $0.42.</p>\n            ","response":0,"trial_type":"html-button-response","trial_index":52,"time_elapsed":473144,"internal_node_id":"0.0-4.0-1.22","subject_id":"6112055ec44105138e374bd5","study_id":"6197b3f67c2b5cd3b6d9596a","session_id":"6197b88e4a48a84ae148b19a","condition":"contingent","relevant_dimensions":["antennae","pattern"],"bee_group":{"antennae":"A","wings":"X","pattern":"S","legs":"X"},"bonus":0.2400000000000009},{"rt":2000.3999999761581,"stimulus":"bees-with-color/bee-B2DM.svg","response":0,"trial_type":"image-button-response","trial_index":53,"time_elapsed":475149,"internal_node_id":"0.0-4.0-0.23","subject_id":"6112055ec44105138e374bd5","study_id":"6197b3f67c2b5cd3b6d9596a","session_id":"6197b88e4a48a84ae148b19a","condition":"contingent","relevant_dimensions":["antennae","pattern"],"bee_group":{"antennae":"A","wings":"X","pattern":"S","legs":"X"},"action":"harvest","summary":"good-harvest","bonus":0.2400000000000009},{"rt":1077.800000011921,"stimulus":"\n                    <p><b>Action: <em>harvest</em></b></p>\n                    <p>This is the bee that you just saw.</p>\n                    <img src=\"bees-with-color/bee-B2DM.svg\" width=\"200\">\n                    <p><span class=\"greenText\"><b>Successful harvest!</b></span><br>Your pay has increased by $0.02. Your bonus pay is now $0.44.</p>\n            ","response":0,"trial_type":"html-button-response","trial_index":54,"time_elapsed":476231,"internal_node_id":"0.0-4.0-1.23","subject_id":"6112055ec44105138e374bd5","study_id":"6197b3f67c2b5cd3b6d9596a","session_id":"6197b88e4a48a84ae148b19a","condition":"contingent","relevant_dimensions":["antennae","pattern"],"bee_group":{"antennae":"A","wings":"X","pattern":"S","legs":"X"},"bonus":0.2400000000000009},{"rt":2775.699999988079,"stimulus":"bees-with-color/bee-A1DM.svg","response":0,"trial_type":"image-button-response","trial_index":55,"time_elapsed":479010,"internal_node_id":"0.0-4.0-0.24","subject_id":"6112055ec44105138e374bd5","study_id":"6197b3f67c2b5cd3b6d9596a","session_id":"6197b88e4a48a84ae148b19a","condition":"contingent","relevant_dimensions":["antennae","pattern"],"bee_group":{"antennae":"A","wings":"X","pattern":"S","legs":"X"},"action":"harvest","summary":"good-harvest","bonus":0.2400000000000009},{"rt":1155,"stimulus":"\n                    <p><b>Action: <em>harvest</em></b></p>\n                    <p>This is the bee that you just saw.</p>\n                    <img src=\"bees-with-color/bee-A1DM.svg\" width=\"200\">\n                    <p><span class=\"greenText\"><b>Successful harvest!</b></span><br>Your pay has increased by $0.02. Your bonus pay is now $0.46.</p>\n            ","response":0,"trial_type":"html-button-response","trial_index":56,"time_elapsed":480169,"internal_node_id":"0.0-4.0-1.24","subject_id":"6112055ec44105138e374bd5","study_id":"6197b3f67c2b5cd3b6d9596a","session_id":"6197b88e4a48a84ae148b19a","condition":"contingent","relevant_dimensions":["antennae","pattern"],"bee_group":{"antennae":"A","wings":"X","pattern":"S","legs":"X"},"bonus":0.2400000000000009},{"rt":5577.799999952316,"stimulus":"bees-with-color/bee-A1DF.svg","response":1,"trial_type":"image-button-response","trial_index":57,"time_elapsed":485751,"internal_node_id":"0.0-4.0-0.25","subject_id":"6112055ec44105138e374bd5","study_id":"6197b3f67c2b5cd3b6d9596a","session_id":"6197b88e4a48a84ae148b19a","condition":"contingent","relevant_dimensions":["antennae","pattern"],"bee_group":{"antennae":"A","wings":"X","pattern":"S","legs":"X"},"action":"avoid","summary":"bad-avoid","bonus":0.2400000000000009},{"rt":2863.300000011921,"stimulus":"\n                    <p><b>Action: <em>avoid</em></b></p>\n                    <p>This is the bee that you just saw.</p>\n                    <img src=\"bees-with-color/bee-A1DF.svg\" width=\"200\">\n                    <p><br>Your bonus pay is unchanged, and remains at $0.46.</p>\n            ","response":0,"trial_type":"html-button-response","trial_index":58,"time_elapsed":488618,"internal_node_id":"0.0-4.0-1.25","subject_id":"6112055ec44105138e374bd5","study_id":"6197b3f67c2b5cd3b6d9596a","session_id":"6197b88e4a48a84ae148b19a","condition":"contingent","relevant_dimensions":["antennae","pattern"],"bee_group":{"antennae":"A","wings":"X","pattern":"S","legs":"X"},"bonus":0.2400000000000009},{"rt":3392.399999976158,"stimulus":"bees-with-color/bee-A2SM.svg","response":1,"trial_type":"image-button-response","trial_index":59,"time_elapsed":492015,"internal_node_id":"0.0-4.0-0.26","subject_id":"6112055ec44105138e374bd5","study_id":"6197b3f67c2b5cd3b6d9596a","session_id":"6197b88e4a48a84ae148b19a","condition":"contingent","relevant_dimensions":["antennae","pattern"],"bee_group":{"antennae":"A","wings":"X","pattern":"S","legs":"X"},"action":"avoid","summary":"good-avoid","bonus":0.2400000000000009},{"rt":1454.800000011921,"stimulus":"\n                    <p><b>Action: <em>avoid</em></b></p>\n                    <p>This is the bee that you just saw.</p>\n                    <img src=\"bees-with-color/bee-A2SM.svg\" width=\"200\">\n                    <p><br>Your bonus pay is unchanged, and remains at $0.46.</p>\n            ","response":0,"trial_type":"html-button-response","trial_index":60,"time_elapsed":493476,"internal_node_id":"0.0-4.0-1.26","subject_id":"6112055ec44105138e374bd5","study_id":"6197b3f67c2b5cd3b6d9596a","session_id":"6197b88e4a48a84ae148b19a","condition":"contingent","relevant_dimensions":["antennae","pattern"],"bee_group":{"antennae":"A","wings":"X","pattern":"S","legs":"X"},"bonus":0.2400000000000009},{"rt":3172.099999964237,"stimulus":"bees-with-color/bee-A2DM.svg","response":0,"trial_type":"image-button-response","trial_index":61,"time_elapsed":496653,"internal_node_id":"0.0-4.0-0.27","subject_id":"6112055ec44105138e374bd5","study_id":"6197b3f67c2b5cd3b6d9596a","session_id":"6197b88e4a48a84ae148b19a","condition":"contingent","relevant_dimensions":["antennae","pattern"],"bee_group":{"antennae":"A","wings":"X","pattern":"S","legs":"X"},"action":"harvest","summary":"good-harvest","bonus":0.2400000000000009},{"rt":1217.1000000238419,"stimulus":"\n                    <p><b>Action: <em>harvest</em></b></p>\n                    <p>This is the bee that you just saw.</p>\n                    <img src=\"bees-with-color/bee-A2DM.svg\" width=\"200\">\n                    <p><span class=\"greenText\"><b>Successful harvest!</b></span><br>Your pay has increased by $0.02. Your bonus pay is now $0.48.</p>\n            ","response":0,"trial_type":"html-button-response","trial_index":62,"time_elapsed":497874,"internal_node_id":"0.0-4.0-1.27","subject_id":"6112055ec44105138e374bd5","study_id":"6197b3f67c2b5cd3b6d9596a","session_id":"6197b88e4a48a84ae148b19a","condition":"contingent","relevant_dimensions":["antennae","pattern"],"bee_group":{"antennae":"A","wings":"X","pattern":"S","legs":"X"},"bonus":0.2400000000000009},{"rt":4164,"stimulus":"bees-with-color/bee-B2SM.svg","response":0,"trial_type":"image-button-response","trial_index":63,"time_elapsed":502042,"internal_node_id":"0.0-4.0-0.28","subject_id":"6112055ec44105138e374bd5","study_id":"6197b3f67c2b5cd3b6d9596a","session_id":"6197b88e4a48a84ae148b19a","condition":"contingent","relevant_dimensions":["antennae","pattern"],"bee_group":{"antennae":"A","wings":"X","pattern":"S","legs":"X"},"action":"harvest","summary":"good-harvest","bonus":0.2400000000000009},{"rt":1091.9000000357628,"stimulus":"\n                    <p><b>Action: <em>harvest</em></b></p>\n                    <p>This is the bee that you just saw.</p>\n                    <img src=\"bees-with-color/bee-B2SM.svg\" width=\"200\">\n                    <p><span class=\"greenText\"><b>Successful harvest!</b></span><br>Your pay has increased by $0.02. Your bonus pay is now $0.50.</p>\n            ","response":0,"trial_type":"html-button-response","trial_index":64,"time_elapsed":503137,"internal_node_id":"0.0-4.0-1.28","subject_id":"6112055ec44105138e374bd5","study_id":"6197b3f67c2b5cd3b6d9596a","session_id":"6197b88e4a48a84ae148b19a","condition":"contingent","relevant_dimensions":["antennae","pattern"],"bee_group":{"antennae":"A","wings":"X","pattern":"S","legs":"X"},"bonus":0.2400000000000009},{"rt":5247,"stimulus":"bees-with-color/bee-B2DF.svg","response":0,"trial_type":"image-button-response","trial_index":65,"time_elapsed":508387,"internal_node_id":"0.0-4.0-0.29","subject_id":"6112055ec44105138e374bd5","study_id":"6197b3f67c2b5cd3b6d9596a","session_id":"6197b88e4a48a84ae148b19a","condition":"contingent","relevant_dimensions":["antennae","pattern"],"bee_group":{"antennae":"A","wings":"X","pattern":"S","legs":"X"},"action":"harvest","summary":"good-harvest","bonus":0.2400000000000009},{"rt":1192.1000000238419,"stimulus":"\n                    <p><b>Action: <em>harvest</em></b></p>\n                    <p>This is the bee that you just saw.</p>\n                    <img src=\"bees-with-color/bee-B2DF.svg\" width=\"200\">\n                    <p><span class=\"greenText\"><b>Successful harvest!</b></span><br>Your pay has increased by $0.02. Your bonus pay is now $0.52.</p>\n            ","response":0,"trial_type":"html-button-response","trial_index":66,"time_elapsed":509582,"internal_node_id":"0.0-4.0-1.29","subject_id":"6112055ec44105138e374bd5","study_id":"6197b3f67c2b5cd3b6d9596a","session_id":"6197b88e4a48a84ae148b19a","condition":"contingent","relevant_dimensions":["antennae","pattern"],"bee_group":{"antennae":"A","wings":"X","pattern":"S","legs":"X"},"bonus":0.2400000000000009},{"rt":3894.300000011921,"stimulus":"bees-with-color/bee-B2SF.svg","response":0,"trial_type":"image-button-response","trial_index":67,"time_elapsed":513479,"internal_node_id":"0.0-4.0-0.30","subject_id":"6112055ec44105138e374bd5","study_id":"6197b3f67c2b5cd3b6d9596a","session_id":"6197b88e4a48a84ae148b19a","condition":"contingent","relevant_dimensions":["antennae","pattern"],"bee_group":{"antennae":"A","wings":"X","pattern":"S","legs":"X"},"action":"harvest","summary":"good-harvest","bonus":0.2400000000000009},{"rt":1356.7000000476837,"stimulus":"\n                    <p><b>Action: <em>harvest</em></b></p>\n                    <p>This is the bee that you just saw.</p>\n                    <img src=\"bees-with-color/bee-B2SF.svg\" width=\"200\">\n                    <p><span class=\"greenText\"><b>Successful harvest!</b></span><br>Your pay has increased by $0.02. Your bonus pay is now $0.54.</p>\n            ","response":0,"trial_type":"html-button-response","trial_index":68,"time_elapsed":514839,"internal_node_id":"0.0-4.0-1.30","subject_id":"6112055ec44105138e374bd5","study_id":"6197b3f67c2b5cd3b6d9596a","session_id":"6197b88e4a48a84ae148b19a","condition":"contingent","relevant_dimensions":["antennae","pattern"],"bee_group":{"antennae":"A","wings":"X","pattern":"S","legs":"X"},"bonus":0.2400000000000009},{"rt":6047.600000023842,"stimulus":"bees-with-color/bee-A1SM.svg","response":0,"trial_type":"image-button-response","trial_index":69,"time_elapsed":520890,"internal_node_id":"0.0-4.0-0.31","subject_id":"6112055ec44105138e374bd5","study_id":"6197b3f67c2b5cd3b6d9596a","session_id":"6197b88e4a48a84ae148b19a","condition":"contingent","relevant_dimensions":["antennae","pattern"],"bee_group":{"antennae":"A","wings":"X","pattern":"S","legs":"X"},"action":"harvest","summary":"bad-harvest","bonus":0.2400000000000009},{"rt":1341.199999988079,"stimulus":"\n                    <p><b>Action: <em>harvest</em></b></p>\n                    <p>This is the bee that you just saw.</p>\n                    <img src=\"bees-with-color/bee-A1SM.svg\" width=\"200\">\n                    <p><span class=\"redText\">Bad choice, the bee was angry.</span><br><b>You have been stung!</b><br>Your pay has been decreased by $0.10. Your bonus pay is now $0.44.</p>\n            ","response":0,"trial_type":"html-button-response","trial_index":70,"time_elapsed":522234,"internal_node_id":"0.0-4.0-1.31","subject_id":"6112055ec44105138e374bd5","study_id":"6197b3f67c2b5cd3b6d9596a","session_id":"6197b88e4a48a84ae148b19a","condition":"contingent","relevant_dimensions":["antennae","pattern"],"bee_group":{"antennae":"A","wings":"X","pattern":"S","legs":"X"},"bonus":0.2400000000000009},{"rt":1798,"stimulus":"bees-with-color/bee-B2DF.svg","response":0,"trial_type":"image-button-response","trial_index":71,"time_elapsed":524035,"internal_node_id":"0.0-4.0-0.32","subject_id":"6112055ec44105138e374bd5","study_id":"6197b3f67c2b5cd3b6d9596a","session_id":"6197b88e4a48a84ae148b19a","condition":"contingent","relevant_dimensions":["antennae","pattern"],"bee_group":{"antennae":"A","wings":"X","pattern":"S","legs":"X"},"action":"harvest","summary":"good-harvest","bonus":0.2400000000000009},{"rt":1327.4000000357628,"stimulus":"\n                    <p><b>Action: <em>harvest</em></b></p>\n                    <p>This is the bee that you just saw.</p>\n                    <img src=\"bees-with-color/bee-B2DF.svg\" width=\"200\">\n                    <p><span class=\"greenText\"><b>Successful harvest!</b></span><br>Your pay has increased by $0.02. Your bonus pay is now $0.46.</p>\n            ","response":0,"trial_type":"html-button-response","trial_index":72,"time_elapsed":525366,"internal_node_id":"0.0-4.0-1.32","subject_id":"6112055ec44105138e374bd5","study_id":"6197b3f67c2b5cd3b6d9596a","session_id":"6197b88e4a48a84ae148b19a","condition":"contingent","relevant_dimensions":["antennae","pattern"],"bee_group":{"antennae":"A","wings":"X","pattern":"S","legs":"X"},"bonus":0.2400000000000009},{"rt":2315.099999964237,"stimulus":"bees-with-color/bee-A1SF.svg","response":0,"trial_type":"image-button-response","trial_index":73,"time_elapsed":527684,"internal_node_id":"0.0-4.0-0.33","subject_id":"6112055ec44105138e374bd5","study_id":"6197b3f67c2b5cd3b6d9596a","session_id":"6197b88e4a48a84ae148b19a","condition":"contingent","relevant_dimensions":["antennae","pattern"],"bee_group":{"antennae":"A","wings":"X","pattern":"S","legs":"X"},"action":"harvest","summary":"bad-harvest","bonus":0.2400000000000009},{"rt":1384.8999999761581,"stimulus":"\n                    <p><b>Action: <em>harvest</em></b></p>\n                    <p>This is the bee that you just saw.</p>\n                    <img src=\"bees-with-color/bee-A1SF.svg\" width=\"200\">\n                    <p><span class=\"redText\">Bad choice, the bee was angry.</span><br><b>You have been stung!</b><br>Your pay has been decreased by $0.10. Your bonus pay is now $0.36.</p>\n            ","response":0,"trial_type":"html-button-response","trial_index":74,"time_elapsed":529072,"internal_node_id":"0.0-4.0-1.33","subject_id":"6112055ec44105138e374bd5","study_id":"6197b3f67c2b5cd3b6d9596a","session_id":"6197b88e4a48a84ae148b19a","condition":"contingent","relevant_dimensions":["antennae","pattern"],"bee_group":{"antennae":"A","wings":"X","pattern":"S","legs":"X"},"bonus":0.2400000000000009},{"rt":1287.300000011921,"stimulus":"bees-with-color/bee-B1DF.svg","response":0,"trial_type":"image-button-response","trial_index":75,"time_elapsed":530363,"internal_node_id":"0.0-4.0-0.34","subject_id":"6112055ec44105138e374bd5","study_id":"6197b3f67c2b5cd3b6d9596a","session_id":"6197b88e4a48a84ae148b19a","condition":"contingent","relevant_dimensions":["antennae","pattern"],"bee_group":{"antennae":"A","wings":"X","pattern":"S","legs":"X"},"action":"harvest","summary":"good-harvest","bonus":0.2400000000000009},{"rt":1177.5,"stimulus":"\n                    <p><b>Action: <em>harvest</em></b></p>\n                    <p>This is the bee that you just saw.</p>\n                    <img src=\"bees-with-color/bee-B1DF.svg\" width=\"200\">\n                    <p><span class=\"greenText\"><b>Successful harvest!</b></span><br>Your pay has increased by $0.02. Your bonus pay is now $0.38.</p>\n            ","response":0,"trial_type":"html-button-response","trial_index":76,"time_elapsed":531543,"internal_node_id":"0.0-4.0-1.34","subject_id":"6112055ec44105138e374bd5","study_id":"6197b3f67c2b5cd3b6d9596a","session_id":"6197b88e4a48a84ae148b19a","condition":"contingent","relevant_dimensions":["antennae","pattern"],"bee_group":{"antennae":"A","wings":"X","pattern":"S","legs":"X"},"bonus":0.2400000000000009},{"rt":1450,"stimulus":"bees-with-color/bee-B2SM.svg","response":0,"trial_type":"image-button-response","trial_index":77,"time_elapsed":532996,"internal_node_id":"0.0-4.0-0.35","subject_id":"6112055ec44105138e374bd5","study_id":"6197b3f67c2b5cd3b6d9596a","session_id":"6197b88e4a48a84ae148b19a","condition":"contingent","relevant_dimensions":["antennae","pattern"],"bee_group":{"antennae":"A","wings":"X","pattern":"S","legs":"X"},"action":"harvest","summary":"good-harvest","bonus":0.2400000000000009},{"rt":1250.199999988079,"stimulus":"\n                    <p><b>Action: <em>harvest</em></b></p>\n                    <p>This is the bee that you just saw.</p>\n                    <img src=\"bees-with-color/bee-B2SM.svg\" width=\"200\">\n                    <p><span class=\"greenText\"><b>Successful harvest!</b></span><br>Your pay has increased by $0.02. Your bonus pay is now $0.40.</p>\n            ","response":0,"trial_type":"html-button-response","trial_index":78,"time_elapsed":534249,"internal_node_id":"0.0-4.0-1.35","subject_id":"6112055ec44105138e374bd5","study_id":"6197b3f67c2b5cd3b6d9596a","session_id":"6197b88e4a48a84ae148b19a","condition":"contingent","relevant_dimensions":["antennae","pattern"],"bee_group":{"antennae":"A","wings":"X","pattern":"S","legs":"X"},"bonus":0.2400000000000009},{"rt":5732.600000023842,"stimulus":"bees-with-color/bee-B1SM.svg","response":0,"trial_type":"image-button-response","trial_index":79,"time_elapsed":539985,"internal_node_id":"0.0-4.0-0.36","subject_id":"6112055ec44105138e374bd5","study_id":"6197b3f67c2b5cd3b6d9596a","session_id":"6197b88e4a48a84ae148b19a","condition":"contingent","relevant_dimensions":["antennae","pattern"],"bee_group":{"antennae":"A","wings":"X","pattern":"S","legs":"X"},"action":"harvest","summary":"good-harvest","bonus":0.2400000000000009},{"rt":1233.4000000357628,"stimulus":"\n                    <p><b>Action: <em>harvest</em></b></p>\n                    <p>This is the bee that you just saw.</p>\n                    <img src=\"bees-with-color/bee-B1SM.svg\" width=\"200\">\n                    <p><span class=\"greenText\"><b>Successful harvest!</b></span><br>Your pay has increased by $0.02. Your bonus pay is now $0.42.</p>\n            ","response":0,"trial_type":"html-button-response","trial_index":80,"time_elapsed":541222,"internal_node_id":"0.0-4.0-1.36","subject_id":"6112055ec44105138e374bd5","study_id":"6197b3f67c2b5cd3b6d9596a","session_id":"6197b88e4a48a84ae148b19a","condition":"contingent","relevant_dimensions":["antennae","pattern"],"bee_group":{"antennae":"A","wings":"X","pattern":"S","legs":"X"},"bonus":0.2400000000000009},{"rt":2501.300000011921,"stimulus":"bees-with-color/bee-A2DM.svg","response":0,"trial_type":"image-button-response","trial_index":81,"time_elapsed":543727,"internal_node_id":"0.0-4.0-0.37","subject_id":"6112055ec44105138e374bd5","study_id":"6197b3f67c2b5cd3b6d9596a","session_id":"6197b88e4a48a84ae148b19a","condition":"contingent","relevant_dimensions":["antennae","pattern"],"bee_group":{"antennae":"A","wings":"X","pattern":"S","legs":"X"},"action":"harvest","summary":"good-harvest","bonus":0.2400000000000009},{"rt":1276.0999999642372,"stimulus":"\n                    <p><b>Action: <em>harvest</em></b></p>\n                    <p>This is the bee that you just saw.</p>\n                    <img src=\"bees-with-color/bee-A2DM.svg\" width=\"200\">\n                    <p><span class=\"greenText\"><b>Successful harvest!</b></span><br>Your pay has increased by $0.02. Your bonus pay is now $0.44.</p>\n            ","response":0,"trial_type":"html-button-response","trial_index":82,"time_elapsed":545006,"internal_node_id":"0.0-4.0-1.37","subject_id":"6112055ec44105138e374bd5","study_id":"6197b3f67c2b5cd3b6d9596a","session_id":"6197b88e4a48a84ae148b19a","condition":"contingent","relevant_dimensions":["antennae","pattern"],"bee_group":{"antennae":"A","wings":"X","pattern":"S","legs":"X"},"bonus":0.2400000000000009},{"rt":4041.100000023842,"stimulus":"bees-with-color/bee-A1SM.svg","response":1,"trial_type":"image-button-response","trial_index":83,"time_elapsed":549050,"internal_node_id":"0.0-4.0-0.38","subject_id":"6112055ec44105138e374bd5","study_id":"6197b3f67c2b5cd3b6d9596a","session_id":"6197b88e4a48a84ae148b19a","condition":"contingent","relevant_dimensions":["antennae","pattern"],"bee_group":{"antennae":"A","wings":"X","pattern":"S","legs":"X"},"action":"avoid","summary":"good-avoid","bonus":0.2400000000000009},{"rt":1267.699999988079,"stimulus":"\n                    <p><b>Action: <em>avoid</em></b></p>\n                    <p>This is the bee that you just saw.</p>\n                    <img src=\"bees-with-color/bee-A1SM.svg\" width=\"200\">\n                    <p><br>Your bonus pay is unchanged, and remains at $0.44.</p>\n            ","response":0,"trial_type":"html-button-response","trial_index":84,"time_elapsed":550321,"internal_node_id":"0.0-4.0-1.38","subject_id":"6112055ec44105138e374bd5","study_id":"6197b3f67c2b5cd3b6d9596a","session_id":"6197b88e4a48a84ae148b19a","condition":"contingent","relevant_dimensions":["antennae","pattern"],"bee_group":{"antennae":"A","wings":"X","pattern":"S","legs":"X"},"bonus":0.2400000000000009},{"rt":1672.3999999761581,"stimulus":"bees-with-color/bee-B2DM.svg","response":0,"trial_type":"image-button-response","trial_index":85,"time_elapsed":551998,"internal_node_id":"0.0-4.0-0.39","subject_id":"6112055ec44105138e374bd5","study_id":"6197b3f67c2b5cd3b6d9596a","session_id":"6197b88e4a48a84ae148b19a","condition":"contingent","relevant_dimensions":["antennae","pattern"],"bee_group":{"antennae":"A","wings":"X","pattern":"S","legs":"X"},"action":"harvest","summary":"good-harvest","bonus":0.2400000000000009},{"rt":1429.6000000238419,"stimulus":"\n                    <p><b>Action: <em>harvest</em></b></p>\n                    <p>This is the bee that you just saw.</p>\n                    <img src=\"bees-with-color/bee-B2DM.svg\" width=\"200\">\n                    <p><span class=\"greenText\"><b>Successful harvest!</b></span><br>Your pay has increased by $0.02. Your bonus pay is now $0.46.</p>\n            ","response":0,"trial_type":"html-button-response","trial_index":86,"time_elapsed":553431,"internal_node_id":"0.0-4.0-1.39","subject_id":"6112055ec44105138e374bd5","study_id":"6197b3f67c2b5cd3b6d9596a","session_id":"6197b88e4a48a84ae148b19a","condition":"contingent","relevant_dimensions":["antennae","pattern"],"bee_group":{"antennae":"A","wings":"X","pattern":"S","legs":"X"},"bonus":0.2400000000000009},{"rt":2093.2000000476837,"stimulus":"bees-with-color/bee-A1DM.svg","response":0,"trial_type":"image-button-response","trial_index":87,"time_elapsed":555528,"internal_node_id":"0.0-4.0-0.40","subject_id":"6112055ec44105138e374bd5","study_id":"6197b3f67c2b5cd3b6d9596a","session_id":"6197b88e4a48a84ae148b19a","condition":"contingent","relevant_dimensions":["antennae","pattern"],"bee_group":{"antennae":"A","wings":"X","pattern":"S","legs":"X"},"action":"harvest","summary":"good-harvest","bonus":0.2400000000000009},{"rt":1464.5,"stimulus":"\n                    <p><b>Action: <em>harvest</em></b></p>\n                    <p>This is the bee that you just saw.</p>\n                    <img src=\"bees-with-color/bee-A1DM.svg\" width=\"200\">\n                    <p><span class=\"greenText\"><b>Successful harvest!</b></span><br>Your pay has increased by $0.02. Your bonus pay is now $0.48.</p>\n            ","response":0,"trial_type":"html-button-response","trial_index":88,"time_elapsed":556995,"internal_node_id":"0.0-4.0-1.40","subject_id":"6112055ec44105138e374bd5","study_id":"6197b3f67c2b5cd3b6d9596a","session_id":"6197b88e4a48a84ae148b19a","condition":"contingent","relevant_dimensions":["antennae","pattern"],"bee_group":{"antennae":"A","wings":"X","pattern":"S","legs":"X"},"bonus":0.2400000000000009},{"rt":2417.5,"stimulus":"bees-with-color/bee-B2SF.svg","response":0,"trial_type":"image-button-response","trial_index":89,"time_elapsed":559416,"internal_node_id":"0.0-4.0-0.41","subject_id":"6112055ec44105138e374bd5","study_id":"6197b3f67c2b5cd3b6d9596a","session_id":"6197b88e4a48a84ae148b19a","condition":"contingent","relevant_dimensions":["antennae","pattern"],"bee_group":{"antennae":"A","wings":"X","pattern":"S","legs":"X"},"action":"harvest","summary":"good-harvest","bonus":0.2400000000000009},{"rt":1235.5,"stimulus":"\n                    <p><b>Action: <em>harvest</em></b></p>\n                    <p>This is the bee that you just saw.</p>\n                    <img src=\"bees-with-color/bee-B2SF.svg\" width=\"200\">\n                    <p><span class=\"greenText\"><b>Successful harvest!</b></span><br>Your pay has increased by $0.02. Your bonus pay is now $0.50.</p>\n            ","response":0,"trial_type":"html-button-response","trial_index":90,"time_elapsed":560658,"internal_node_id":"0.0-4.0-1.41","subject_id":"6112055ec44105138e374bd5","study_id":"6197b3f67c2b5cd3b6d9596a","session_id":"6197b88e4a48a84ae148b19a","condition":"contingent","relevant_dimensions":["antennae","pattern"],"bee_group":{"antennae":"A","wings":"X","pattern":"S","legs":"X"},"bonus":0.2400000000000009},{"rt":2432.899999976158,"stimulus":"bees-with-color/bee-B1DM.svg","response":0,"trial_type":"image-button-response","trial_index":91,"time_elapsed":563095,"internal_node_id":"0.0-4.0-0.42","subject_id":"6112055ec44105138e374bd5","study_id":"6197b3f67c2b5cd3b6d9596a","session_id":"6197b88e4a48a84ae148b19a","condition":"contingent","relevant_dimensions":["antennae","pattern"],"bee_group":{"antennae":"A","wings":"X","pattern":"S","legs":"X"},"action":"harvest","summary":"good-harvest","bonus":0.2400000000000009},{"rt":1500,"stimulus":"\n                    <p><b>Action: <em>harvest</em></b></p>\n                    <p>This is the bee that you just saw.</p>\n                    <img src=\"bees-with-color/bee-B1DM.svg\" width=\"200\">\n                    <p><span class=\"greenText\"><b>Successful harvest!</b></span><br>Your pay has increased by $0.02. Your bonus pay is now $0.52.</p>\n            ","response":0,"trial_type":"html-button-response","trial_index":92,"time_elapsed":564598,"internal_node_id":"0.0-4.0-1.42","subject_id":"6112055ec44105138e374bd5","study_id":"6197b3f67c2b5cd3b6d9596a","session_id":"6197b88e4a48a84ae148b19a","condition":"contingent","relevant_dimensions":["antennae","pattern"],"bee_group":{"antennae":"A","wings":"X","pattern":"S","legs":"X"},"bonus":0.2400000000000009},{"rt":3659.900000035763,"stimulus":"bees-with-color/bee-A2SM.svg","response":0,"trial_type":"image-button-response","trial_index":93,"time_elapsed":568262,"internal_node_id":"0.0-4.0-0.43","subject_id":"6112055ec44105138e374bd5","study_id":"6197b3f67c2b5cd3b6d9596a","session_id":"6197b88e4a48a84ae148b19a","condition":"contingent","relevant_dimensions":["antennae","pattern"],"bee_group":{"antennae":"A","wings":"X","pattern":"S","legs":"X"},"action":"harvest","summary":"bad-harvest","bonus":0.2400000000000009},{"rt":1699.3999999761581,"stimulus":"\n                    <p><b>Action: <em>harvest</em></b></p>\n                    <p>This is the bee that you just saw.</p>\n                    <img src=\"bees-with-color/bee-A2SM.svg\" width=\"200\">\n                    <p><span class=\"redText\">Bad choice, the bee was angry.</span><br><b>You have been stung!</b><br>Your pay has been decreased by $0.10. Your bonus pay is now $0.42.</p>\n            ","response":0,"trial_type":"html-button-response","trial_index":94,"time_elapsed":569966,"internal_node_id":"0.0-4.0-1.43","subject_id":"6112055ec44105138e374bd5","study_id":"6197b3f67c2b5cd3b6d9596a","session_id":"6197b88e4a48a84ae148b19a","condition":"contingent","relevant_dimensions":["antennae","pattern"],"bee_group":{"antennae":"A","wings":"X","pattern":"S","legs":"X"},"bonus":0.2400000000000009},{"rt":1561.8999999761581,"stimulus":"bees-with-color/bee-A1DF.svg","response":0,"trial_type":"image-button-response","trial_index":95,"time_elapsed":571532,"internal_node_id":"0.0-4.0-0.44","subject_id":"6112055ec44105138e374bd5","study_id":"6197b3f67c2b5cd3b6d9596a","session_id":"6197b88e4a48a84ae148b19a","condition":"contingent","relevant_dimensions":["antennae","pattern"],"bee_group":{"antennae":"A","wings":"X","pattern":"S","legs":"X"},"action":"harvest","summary":"good-harvest","bonus":0.2400000000000009},{"rt":1176.800000011921,"stimulus":"\n                    <p><b>Action: <em>harvest</em></b></p>\n                    <p>This is the bee that you just saw.</p>\n                    <img src=\"bees-with-color/bee-A1DF.svg\" width=\"200\">\n                    <p><span class=\"greenText\"><b>Successful harvest!</b></span><br>Your pay has increased by $0.02. Your bonus pay is now $0.44.</p>\n            ","response":0,"trial_type":"html-button-response","trial_index":96,"time_elapsed":572713,"internal_node_id":"0.0-4.0-1.44","subject_id":"6112055ec44105138e374bd5","study_id":"6197b3f67c2b5cd3b6d9596a","session_id":"6197b88e4a48a84ae148b19a","condition":"contingent","relevant_dimensions":["antennae","pattern"],"bee_group":{"antennae":"A","wings":"X","pattern":"S","legs":"X"},"bonus":0.2400000000000009},{"rt":2917.5,"stimulus":"bees-with-color/bee-B1SF.svg","response":0,"trial_type":"image-button-response","trial_index":97,"time_elapsed":575634,"internal_node_id":"0.0-4.0-0.45","subject_id":"6112055ec44105138e374bd5","study_id":"6197b3f67c2b5cd3b6d9596a","session_id":"6197b88e4a48a84ae148b19a","condition":"contingent","relevant_dimensions":["antennae","pattern"],"bee_group":{"antennae":"A","wings":"X","pattern":"S","legs":"X"},"action":"harvest","summary":"good-harvest","bonus":0.2400000000000009},{"rt":1297.300000011921,"stimulus":"\n                    <p><b>Action: <em>harvest</em></b></p>\n                    <p>This is the bee that you just saw.</p>\n                    <img src=\"bees-with-color/bee-B1SF.svg\" width=\"200\">\n                    <p><span class=\"greenText\"><b>Successful harvest!</b></span><br>Your pay has increased by $0.02. Your bonus pay is now $0.46.</p>\n            ","response":0,"trial_type":"html-button-response","trial_index":98,"time_elapsed":576934,"internal_node_id":"0.0-4.0-1.45","subject_id":"6112055ec44105138e374bd5","study_id":"6197b3f67c2b5cd3b6d9596a","session_id":"6197b88e4a48a84ae148b19a","condition":"contingent","relevant_dimensions":["antennae","pattern"],"bee_group":{"antennae":"A","wings":"X","pattern":"S","legs":"X"},"bonus":0.2400000000000009},{"rt":2003.699999988079,"stimulus":"bees-with-color/bee-A2SF.svg","response":0,"trial_type":"image-button-response","trial_index":99,"time_elapsed":578941,"internal_node_id":"0.0-4.0-0.46","subject_id":"6112055ec44105138e374bd5","study_id":"6197b3f67c2b5cd3b6d9596a","session_id":"6197b88e4a48a84ae148b19a","condition":"contingent","relevant_dimensions":["antennae","pattern"],"bee_group":{"antennae":"A","wings":"X","pattern":"S","legs":"X"},"action":"harvest","summary":"bad-harvest","bonus":0.2400000000000009},{"rt":1336.800000011921,"stimulus":"\n                    <p><b>Action: <em>harvest</em></b></p>\n                    <p>This is the bee that you just saw.</p>\n                    <img src=\"bees-with-color/bee-A2SF.svg\" width=\"200\">\n                    <p><span class=\"redText\">Bad choice, the bee was angry.</span><br><b>You have been stung!</b><br>Your pay has been decreased by $0.10. Your bonus pay is now $0.36.</p>\n            ","response":0,"trial_type":"html-button-response","trial_index":100,"time_elapsed":580280,"internal_node_id":"0.0-4.0-1.46","subject_id":"6112055ec44105138e374bd5","study_id":"6197b3f67c2b5cd3b6d9596a","session_id":"6197b88e4a48a84ae148b19a","condition":"contingent","relevant_dimensions":["antennae","pattern"],"bee_group":{"antennae":"A","wings":"X","pattern":"S","legs":"X"},"bonus":0.2400000000000009},{"rt":2160.600000023842,"stimulus":"bees-with-color/bee-A2DF.svg","response":0,"trial_type":"image-button-response","trial_index":101,"time_elapsed":582444,"internal_node_id":"0.0-4.0-0.47","subject_id":"6112055ec44105138e374bd5","study_id":"6197b3f67c2b5cd3b6d9596a","session_id":"6197b88e4a48a84ae148b19a","condition":"contingent","relevant_dimensions":["antennae","pattern"],"bee_group":{"antennae":"A","wings":"X","pattern":"S","legs":"X"},"action":"harvest","summary":"good-harvest","bonus":0.2400000000000009},{"rt":1185.300000011921,"stimulus":"\n                    <p><b>Action: <em>harvest</em></b></p>\n                    <p>This is the bee that you just saw.</p>\n                    <img src=\"bees-with-color/bee-A2DF.svg\" width=\"200\">\n                    <p><span class=\"greenText\"><b>Successful harvest!</b></span><br>Your pay has increased by $0.02. Your bonus pay is now $0.38.</p>\n            ","response":0,"trial_type":"html-button-response","trial_index":102,"time_elapsed":583632,"internal_node_id":"0.0-4.0-1.47","subject_id":"6112055ec44105138e374bd5","study_id":"6197b3f67c2b5cd3b6d9596a","session_id":"6197b88e4a48a84ae148b19a","condition":"contingent","relevant_dimensions":["antennae","pattern"],"bee_group":{"antennae":"A","wings":"X","pattern":"S","legs":"X"},"bonus":0.2400000000000009},{"rt":2443.199999988079,"stimulus":"bees-with-color/bee-A1SF.svg","response":1,"trial_type":"image-button-response","trial_index":103,"time_elapsed":586078,"internal_node_id":"0.0-4.0-0.48","subject_id":"6112055ec44105138e374bd5","study_id":"6197b3f67c2b5cd3b6d9596a","session_id":"6197b88e4a48a84ae148b19a","condition":"contingent","relevant_dimensions":["antennae","pattern"],"bee_group":{"antennae":"A","wings":"X","pattern":"S","legs":"X"},"action":"avoid","summary":"good-avoid","bonus":0.2400000000000009},{"rt":1188.2000000476837,"stimulus":"\n                    <p><b>Action: <em>avoid</em></b></p>\n                    <p>This is the bee that you just saw.</p>\n                    <img src=\"bees-with-color/bee-A1SF.svg\" width=\"200\">\n                    <p><br>Your bonus pay is unchanged, and remains at $0.38.</p>\n            ","response":0,"trial_type":"html-button-response","trial_index":104,"time_elapsed":587270,"internal_node_id":"0.0-4.0-1.48","subject_id":"6112055ec44105138e374bd5","study_id":"6197b3f67c2b5cd3b6d9596a","session_id":"6197b88e4a48a84ae148b19a","condition":"contingent","relevant_dimensions":["antennae","pattern"],"bee_group":{"antennae":"A","wings":"X","pattern":"S","legs":"X"},"bonus":0.2400000000000009},{"rt":1532.6000000238419,"stimulus":"bees-with-color/bee-B2DM.svg","response":0,"trial_type":"image-button-response","trial_index":105,"time_elapsed":588806,"internal_node_id":"0.0-4.0-0.49","subject_id":"6112055ec44105138e374bd5","study_id":"6197b3f67c2b5cd3b6d9596a","session_id":"6197b88e4a48a84ae148b19a","condition":"contingent","relevant_dimensions":["antennae","pattern"],"bee_group":{"antennae":"A","wings":"X","pattern":"S","legs":"X"},"action":"harvest","summary":"good-harvest","bonus":0.2400000000000009},{"rt":1216.300000011921,"stimulus":"\n                    <p><b>Action: <em>harvest</em></b></p>\n                    <p>This is the bee that you just saw.</p>\n                    <img src=\"bees-with-color/bee-B2DM.svg\" width=\"200\">\n                    <p><span class=\"greenText\"><b>Successful harvest!</b></span><br>Your pay has increased by $0.02. Your bonus pay is now $0.40.</p>\n            ","response":0,"trial_type":"html-button-response","trial_index":106,"time_elapsed":590025,"internal_node_id":"0.0-4.0-1.49","subject_id":"6112055ec44105138e374bd5","study_id":"6197b3f67c2b5cd3b6d9596a","session_id":"6197b88e4a48a84ae148b19a","condition":"contingent","relevant_dimensions":["antennae","pattern"],"bee_group":{"antennae":"A","wings":"X","pattern":"S","legs":"X"},"bonus":0.2400000000000009},{"rt":4015.199999988079,"stimulus":"bees-with-color/bee-B2SM.svg","response":0,"trial_type":"image-button-response","trial_index":107,"time_elapsed":594042,"internal_node_id":"0.0-4.0-0.50","subject_id":"6112055ec44105138e374bd5","study_id":"6197b3f67c2b5cd3b6d9596a","session_id":"6197b88e4a48a84ae148b19a","condition":"contingent","relevant_dimensions":["antennae","pattern"],"bee_group":{"antennae":"A","wings":"X","pattern":"S","legs":"X"},"action":"harvest","summary":"good-harvest","bonus":0.2400000000000009},{"rt":1153.8999999761581,"stimulus":"\n                    <p><b>Action: <em>harvest</em></b></p>\n                    <p>This is the bee that you just saw.</p>\n                    <img src=\"bees-with-color/bee-B2SM.svg\" width=\"200\">\n                    <p><span class=\"greenText\"><b>Successful harvest!</b></span><br>Your pay has increased by $0.02. Your bonus pay is now $0.42.</p>\n            ","response":0,"trial_type":"html-button-response","trial_index":108,"time_elapsed":595199,"internal_node_id":"0.0-4.0-1.50","subject_id":"6112055ec44105138e374bd5","study_id":"6197b3f67c2b5cd3b6d9596a","session_id":"6197b88e4a48a84ae148b19a","condition":"contingent","relevant_dimensions":["antennae","pattern"],"bee_group":{"antennae":"A","wings":"X","pattern":"S","legs":"X"},"bonus":0.2400000000000009},{"rt":1537.7000000476837,"stimulus":"bees-with-color/bee-B1DM.svg","response":0,"trial_type":"image-button-response","trial_index":109,"time_elapsed":596740,"internal_node_id":"0.0-4.0-0.51","subject_id":"6112055ec44105138e374bd5","study_id":"6197b3f67c2b5cd3b6d9596a","session_id":"6197b88e4a48a84ae148b19a","condition":"contingent","relevant_dimensions":["antennae","pattern"],"bee_group":{"antennae":"A","wings":"X","pattern":"S","legs":"X"},"action":"harvest","summary":"good-harvest","bonus":0.2400000000000009},{"rt":1270.8999999761581,"stimulus":"\n                    <p><b>Action: <em>harvest</em></b></p>\n                    <p>This is the bee that you just saw.</p>\n                    <img src=\"bees-with-color/bee-B1DM.svg\" width=\"200\">\n                    <p><span class=\"greenText\"><b>Successful harvest!</b></span><br>Your pay has increased by $0.02. Your bonus pay is now $0.44.</p>\n            ","response":0,"trial_type":"html-button-response","trial_index":110,"time_elapsed":598014,"internal_node_id":"0.0-4.0-1.51","subject_id":"6112055ec44105138e374bd5","study_id":"6197b3f67c2b5cd3b6d9596a","session_id":"6197b88e4a48a84ae148b19a","condition":"contingent","relevant_dimensions":["antennae","pattern"],"bee_group":{"antennae":"A","wings":"X","pattern":"S","legs":"X"},"bonus":0.2400000000000009},{"rt":2255.5,"stimulus":"bees-with-color/bee-B2DF.svg","response":0,"trial_type":"image-button-response","trial_index":111,"time_elapsed":600272,"internal_node_id":"0.0-4.0-0.52","subject_id":"6112055ec44105138e374bd5","study_id":"6197b3f67c2b5cd3b6d9596a","session_id":"6197b88e4a48a84ae148b19a","condition":"contingent","relevant_dimensions":["antennae","pattern"],"bee_group":{"antennae":"A","wings":"X","pattern":"S","legs":"X"},"action":"harvest","summary":"good-harvest","bonus":0.2400000000000009},{"rt":1186.699999988079,"stimulus":"\n                    <p><b>Action: <em>harvest</em></b></p>\n                    <p>This is the bee that you just saw.</p>\n                    <img src=\"bees-with-color/bee-B2DF.svg\" width=\"200\">\n                    <p><span class=\"greenText\"><b>Successful harvest!</b></span><br>Your pay has increased by $0.02. Your bonus pay is now $0.46.</p>\n            ","response":0,"trial_type":"html-button-response","trial_index":112,"time_elapsed":601462,"internal_node_id":"0.0-4.0-1.52","subject_id":"6112055ec44105138e374bd5","study_id":"6197b3f67c2b5cd3b6d9596a","session_id":"6197b88e4a48a84ae148b19a","condition":"contingent","relevant_dimensions":["antennae","pattern"],"bee_group":{"antennae":"A","wings":"X","pattern":"S","legs":"X"},"bonus":0.2400000000000009},{"rt":5898.300000011921,"stimulus":"bees-with-color/bee-A2SF.svg","response":0,"trial_type":"image-button-response","trial_index":113,"time_elapsed":607365,"internal_node_id":"0.0-4.0-0.53","subject_id":"6112055ec44105138e374bd5","study_id":"6197b3f67c2b5cd3b6d9596a","session_id":"6197b88e4a48a84ae148b19a","condition":"contingent","relevant_dimensions":["antennae","pattern"],"bee_group":{"antennae":"A","wings":"X","pattern":"S","legs":"X"},"action":"harvest","summary":"bad-harvest","bonus":0.2400000000000009},{"rt":4329.400000035763,"stimulus":"\n                    <p><b>Action: <em>harvest</em></b></p>\n                    <p>This is the bee that you just saw.</p>\n                    <img src=\"bees-with-color/bee-A2SF.svg\" width=\"200\">\n                    <p><span class=\"redText\">Bad choice, the bee was angry.</span><br><b>You have been stung!</b><br>Your pay has been decreased by $0.10. Your bonus pay is now $0.36.</p>\n            ","response":0,"trial_type":"html-button-response","trial_index":114,"time_elapsed":611697,"internal_node_id":"0.0-4.0-1.53","subject_id":"6112055ec44105138e374bd5","study_id":"6197b3f67c2b5cd3b6d9596a","session_id":"6197b88e4a48a84ae148b19a","condition":"contingent","relevant_dimensions":["antennae","pattern"],"bee_group":{"antennae":"A","wings":"X","pattern":"S","legs":"X"},"bonus":0.2400000000000009},{"rt":1745,"stimulus":"bees-with-color/bee-B1SM.svg","response":0,"trial_type":"image-button-response","trial_index":115,"time_elapsed":613446,"internal_node_id":"0.0-4.0-0.54","subject_id":"6112055ec44105138e374bd5","study_id":"6197b3f67c2b5cd3b6d9596a","session_id":"6197b88e4a48a84ae148b19a","condition":"contingent","relevant_dimensions":["antennae","pattern"],"bee_group":{"antennae":"A","wings":"X","pattern":"S","legs":"X"},"action":"harvest","summary":"good-harvest","bonus":0.2400000000000009},{"rt":1311.5,"stimulus":"\n                    <p><b>Action: <em>harvest</em></b></p>\n                    <p>This is the bee that you just saw.</p>\n                    <img src=\"bees-with-color/bee-B1SM.svg\" width=\"200\">\n                    <p><span class=\"greenText\"><b>Successful harvest!</b></span><br>Your pay has increased by $0.02. Your bonus pay is now $0.38.</p>\n            ","response":0,"trial_type":"html-button-response","trial_index":116,"time_elapsed":614761,"internal_node_id":"0.0-4.0-1.54","subject_id":"6112055ec44105138e374bd5","study_id":"6197b3f67c2b5cd3b6d9596a","session_id":"6197b88e4a48a84ae148b19a","condition":"contingent","relevant_dimensions":["antennae","pattern"],"bee_group":{"antennae":"A","wings":"X","pattern":"S","legs":"X"},"bonus":0.2400000000000009},{"rt":2761.399999976158,"stimulus":"bees-with-color/bee-B1SF.svg","response":0,"trial_type":"image-button-response","trial_index":117,"time_elapsed":617526,"internal_node_id":"0.0-4.0-0.55","subject_id":"6112055ec44105138e374bd5","study_id":"6197b3f67c2b5cd3b6d9596a","session_id":"6197b88e4a48a84ae148b19a","condition":"contingent","relevant_dimensions":["antennae","pattern"],"bee_group":{"antennae":"A","wings":"X","pattern":"S","legs":"X"},"action":"harvest","summary":"good-harvest","bonus":0.2400000000000009},{"rt":1183.8999999761581,"stimulus":"\n                    <p><b>Action: <em>harvest</em></b></p>\n                    <p>This is the bee that you just saw.</p>\n                    <img src=\"bees-with-color/bee-B1SF.svg\" width=\"200\">\n                    <p><span class=\"greenText\"><b>Successful harvest!</b></span><br>Your pay has increased by $0.02. Your bonus pay is now $0.40.</p>\n            ","response":0,"trial_type":"html-button-response","trial_index":118,"time_elapsed":618713,"internal_node_id":"0.0-4.0-1.55","subject_id":"6112055ec44105138e374bd5","study_id":"6197b3f67c2b5cd3b6d9596a","session_id":"6197b88e4a48a84ae148b19a","condition":"contingent","relevant_dimensions":["antennae","pattern"],"bee_group":{"antennae":"A","wings":"X","pattern":"S","legs":"X"},"bonus":0.2400000000000009},{"rt":2999,"stimulus":"bees-with-color/bee-A2SM.svg","response":0,"trial_type":"image-button-response","trial_index":119,"time_elapsed":621716,"internal_node_id":"0.0-4.0-0.56","subject_id":"6112055ec44105138e374bd5","study_id":"6197b3f67c2b5cd3b6d9596a","session_id":"6197b88e4a48a84ae148b19a","condition":"contingent","relevant_dimensions":["antennae","pattern"],"bee_group":{"antennae":"A","wings":"X","pattern":"S","legs":"X"},"action":"harvest","summary":"bad-harvest","bonus":0.2400000000000009},{"rt":1371.4000000357628,"stimulus":"\n                    <p><b>Action: <em>harvest</em></b></p>\n                    <p>This is the bee that you just saw.</p>\n                    <img src=\"bees-with-color/bee-A2SM.svg\" width=\"200\">\n                    <p><span class=\"redText\">Bad choice, the bee was angry.</span><br><b>You have been stung!</b><br>Your pay has been decreased by $0.10. Your bonus pay is now $0.30.</p>\n            ","response":0,"trial_type":"html-button-response","trial_index":120,"time_elapsed":623092,"internal_node_id":"0.0-4.0-1.56","subject_id":"6112055ec44105138e374bd5","study_id":"6197b3f67c2b5cd3b6d9596a","session_id":"6197b88e4a48a84ae148b19a","condition":"contingent","relevant_dimensions":["antennae","pattern"],"bee_group":{"antennae":"A","wings":"X","pattern":"S","legs":"X"},"bonus":0.2400000000000009},{"rt":1154.5999999642372,"stimulus":"bees-with-color/bee-A2DM.svg","response":0,"trial_type":"image-button-response","trial_index":121,"time_elapsed":624251,"internal_node_id":"0.0-4.0-0.57","subject_id":"6112055ec44105138e374bd5","study_id":"6197b3f67c2b5cd3b6d9596a","session_id":"6197b88e4a48a84ae148b19a","condition":"contingent","relevant_dimensions":["antennae","pattern"],"bee_group":{"antennae":"A","wings":"X","pattern":"S","legs":"X"},"action":"harvest","summary":"good-harvest","bonus":0.2400000000000009},{"rt":1217.5,"stimulus":"\n                    <p><b>Action: <em>harvest</em></b></p>\n                    <p>This is the bee that you just saw.</p>\n                    <img src=\"bees-with-color/bee-A2DM.svg\" width=\"200\">\n                    <p><span class=\"greenText\"><b>Successful harvest!</b></span><br>Your pay has increased by $0.02. Your bonus pay is now $0.32.</p>\n            ","response":0,"trial_type":"html-button-response","trial_index":122,"time_elapsed":625473,"internal_node_id":"0.0-4.0-1.57","subject_id":"6112055ec44105138e374bd5","study_id":"6197b3f67c2b5cd3b6d9596a","session_id":"6197b88e4a48a84ae148b19a","condition":"contingent","relevant_dimensions":["antennae","pattern"],"bee_group":{"antennae":"A","wings":"X","pattern":"S","legs":"X"},"bonus":0.2400000000000009},{"rt":1449.300000011921,"stimulus":"bees-with-color/bee-A1SM.svg","response":0,"trial_type":"image-button-response","trial_index":123,"time_elapsed":626926,"internal_node_id":"0.0-4.0-0.58","subject_id":"6112055ec44105138e374bd5","study_id":"6197b3f67c2b5cd3b6d9596a","session_id":"6197b88e4a48a84ae148b19a","condition":"contingent","relevant_dimensions":["antennae","pattern"],"bee_group":{"antennae":"A","wings":"X","pattern":"S","legs":"X"},"action":"harvest","summary":"bad-harvest","bonus":0.2400000000000009},{"rt":1405.9000000357628,"stimulus":"\n                    <p><b>Action: <em>harvest</em></b></p>\n                    <p>This is the bee that you just saw.</p>\n                    <img src=\"bees-with-color/bee-A1SM.svg\" width=\"200\">\n                    <p><span class=\"redText\">Bad choice, the bee was angry.</span><br><b>You have been stung!</b><br>Your pay has been decreased by $0.10. Your bonus pay is now $0.22.</p>\n            ","response":0,"trial_type":"html-button-response","trial_index":124,"time_elapsed":628335,"internal_node_id":"0.0-4.0-1.58","subject_id":"6112055ec44105138e374bd5","study_id":"6197b3f67c2b5cd3b6d9596a","session_id":"6197b88e4a48a84ae148b19a","condition":"contingent","relevant_dimensions":["antennae","pattern"],"bee_group":{"antennae":"A","wings":"X","pattern":"S","legs":"X"},"bonus":0.2400000000000009},{"rt":1798.699999988079,"stimulus":"bees-with-color/bee-A1DF.svg","response":0,"trial_type":"image-button-response","trial_index":125,"time_elapsed":630137,"internal_node_id":"0.0-4.0-0.59","subject_id":"6112055ec44105138e374bd5","study_id":"6197b3f67c2b5cd3b6d9596a","session_id":"6197b88e4a48a84ae148b19a","condition":"contingent","relevant_dimensions":["antennae","pattern"],"bee_group":{"antennae":"A","wings":"X","pattern":"S","legs":"X"},"action":"harvest","summary":"good-harvest","bonus":0.2400000000000009},{"rt":1849.5999999642372,"stimulus":"\n                    <p><b>Action: <em>harvest</em></b></p>\n                    <p>This is the bee that you just saw.</p>\n                    <img src=\"bees-with-color/bee-A1DF.svg\" width=\"200\">\n                    <p><span class=\"greenText\"><b>Successful harvest!</b></span><br>Your pay has increased by $0.02. Your bonus pay is now $0.24.</p>\n            ","response":0,"trial_type":"html-button-response","trial_index":126,"time_elapsed":631990,"internal_node_id":"0.0-4.0-1.59","subject_id":"6112055ec44105138e374bd5","study_id":"6197b3f67c2b5cd3b6d9596a","session_id":"6197b88e4a48a84ae148b19a","condition":"contingent","relevant_dimensions":["antennae","pattern"],"bee_group":{"antennae":"A","wings":"X","pattern":"S","legs":"X"},"bonus":0.2400000000000009},{"rt":1388.9000000357628,"stimulus":"bees-with-color/bee-A1DM.svg","response":0,"trial_type":"image-button-response","trial_index":127,"time_elapsed":633382,"internal_node_id":"0.0-4.0-0.60","subject_id":"6112055ec44105138e374bd5","study_id":"6197b3f67c2b5cd3b6d9596a","session_id":"6197b88e4a48a84ae148b19a","condition":"contingent","relevant_dimensions":["antennae","pattern"],"bee_group":{"antennae":"A","wings":"X","pattern":"S","legs":"X"},"action":"harvest","summary":"good-harvest","bonus":0.2400000000000009},{"rt":1650.4000000357628,"stimulus":"\n                    <p><b>Action: <em>harvest</em></b></p>\n                    <p>This is the bee that you just saw.</p>\n                    <img src=\"bees-with-color/bee-A1DM.svg\" width=\"200\">\n                    <p><span class=\"greenText\"><b>Successful harvest!</b></span><br>Your pay has increased by $0.02. Your bonus pay is now $0.26.</p>\n            ","response":0,"trial_type":"html-button-response","trial_index":128,"time_elapsed":635035,"internal_node_id":"0.0-4.0-1.60","subject_id":"6112055ec44105138e374bd5","study_id":"6197b3f67c2b5cd3b6d9596a","session_id":"6197b88e4a48a84ae148b19a","condition":"contingent","relevant_dimensions":["antennae","pattern"],"bee_group":{"antennae":"A","wings":"X","pattern":"S","legs":"X"},"bonus":0.2400000000000009},{"rt":1745,"stimulus":"bees-with-color/bee-A2DF.svg","response":0,"trial_type":"image-button-response","trial_index":129,"time_elapsed":636783,"internal_node_id":"0.0-4.0-0.61","subject_id":"6112055ec44105138e374bd5","study_id":"6197b3f67c2b5cd3b6d9596a","session_id":"6197b88e4a48a84ae148b19a","condition":"contingent","relevant_dimensions":["antennae","pattern"],"bee_group":{"antennae":"A","wings":"X","pattern":"S","legs":"X"},"action":"harvest","summary":"good-harvest","bonus":0.2400000000000009},{"rt":1777.6000000238419,"stimulus":"\n                    <p><b>Action: <em>harvest</em></b></p>\n                    <p>This is the bee that you just saw.</p>\n                    <img src=\"bees-with-color/bee-A2DF.svg\" width=\"200\">\n                    <p><span class=\"greenText\"><b>Successful harvest!</b></span><br>Your pay has increased by $0.02. Your bonus pay is now $0.28.</p>\n            ","response":0,"trial_type":"html-button-response","trial_index":130,"time_elapsed":638563,"internal_node_id":"0.0-4.0-1.61","subject_id":"6112055ec44105138e374bd5","study_id":"6197b3f67c2b5cd3b6d9596a","session_id":"6197b88e4a48a84ae148b19a","condition":"contingent","relevant_dimensions":["antennae","pattern"],"bee_group":{"antennae":"A","wings":"X","pattern":"S","legs":"X"},"bonus":0.2400000000000009},{"rt":2453.099999964237,"stimulus":"bees-with-color/bee-B2SF.svg","response":1,"trial_type":"image-button-response","trial_index":131,"time_elapsed":641019,"internal_node_id":"0.0-4.0-0.62","subject_id":"6112055ec44105138e374bd5","study_id":"6197b3f67c2b5cd3b6d9596a","session_id":"6197b88e4a48a84ae148b19a","condition":"contingent","relevant_dimensions":["antennae","pattern"],"bee_group":{"antennae":"A","wings":"X","pattern":"S","legs":"X"},"action":"avoid","summary":"bad-avoid","bonus":0.2400000000000009},{"rt":1079.8999999761581,"stimulus":"\n                    <p><b>Action: <em>avoid</em></b></p>\n                    <p>This is the bee that you just saw.</p>\n                    <img src=\"bees-with-color/bee-B2SF.svg\" width=\"200\">\n                    <p><br>Your bonus pay is unchanged, and remains at $0.28.</p>\n            ","response":0,"trial_type":"html-button-response","trial_index":132,"time_elapsed":642101,"internal_node_id":"0.0-4.0-1.62","subject_id":"6112055ec44105138e374bd5","study_id":"6197b3f67c2b5cd3b6d9596a","session_id":"6197b88e4a48a84ae148b19a","condition":"contingent","relevant_dimensions":["antennae","pattern"],"bee_group":{"antennae":"A","wings":"X","pattern":"S","legs":"X"},"bonus":0.2400000000000009},{"rt":1515.5,"stimulus":"bees-with-color/bee-B1DF.svg","response":0,"trial_type":"image-button-response","trial_index":133,"time_elapsed":643620,"internal_node_id":"0.0-4.0-0.63","subject_id":"6112055ec44105138e374bd5","study_id":"6197b3f67c2b5cd3b6d9596a","session_id":"6197b88e4a48a84ae148b19a","condition":"contingent","relevant_dimensions":["antennae","pattern"],"bee_group":{"antennae":"A","wings":"X","pattern":"S","legs":"X"},"action":"harvest","summary":"good-harvest","bonus":0.2400000000000009},{"rt":1172.199999988079,"stimulus":"\n                    <p><b>Action: <em>harvest</em></b></p>\n                    <p>This is the bee that you just saw.</p>\n                    <img src=\"bees-with-color/bee-B1DF.svg\" width=\"200\">\n                    <p><span class=\"greenText\"><b>Successful harvest!</b></span><br>Your pay has increased by $0.02. Your bonus pay is now $0.30.</p>\n            ","response":0,"trial_type":"html-button-response","trial_index":134,"time_elapsed":644796,"internal_node_id":"0.0-4.0-1.63","subject_id":"6112055ec44105138e374bd5","study_id":"6197b3f67c2b5cd3b6d9596a","session_id":"6197b88e4a48a84ae148b19a","condition":"contingent","relevant_dimensions":["antennae","pattern"],"bee_group":{"antennae":"A","wings":"X","pattern":"S","legs":"X"},"bonus":0.2400000000000009},{"rt":1664.699999988079,"stimulus":"You have completed the first part of this experiment.<br><br>You will now begin a shorter second part, in which you will receive no feedback.<br>The same rules regarding bonus pay apply.<br><br>Press any key to begin.","response":" ","trial_type":"html-keyboard-response","trial_index":135,"time_elapsed":646463,"internal_node_id":"0.0-5.0","subject_id":"6112055ec44105138e374bd5","study_id":"6197b3f67c2b5cd3b6d9596a","session_id":"6197b88e4a48a84ae148b19a","condition":"contingent","relevant_dimensions":["antennae","pattern"],"bee_group":{"antennae":"A","wings":"X","pattern":"S","legs":"X"},"bonus":0.2400000000000009},{"rt":5119.900000035763,"stimulus":"bees-with-color/bee-B1DM.svg","response":0,"trial_type":"image-button-response","trial_index":136,"time_elapsed":651605,"internal_node_id":"0.0-6.0-0.0","subject_id":"6112055ec44105138e374bd5","study_id":"6197b3f67c2b5cd3b6d9596a","session_id":"6197b88e4a48a84ae148b19a","condition":"contingent","relevant_dimensions":["antennae","pattern"],"bee_group":{"antennae":"A","wings":"X","pattern":"S","legs":"X"},"bonus":0.2400000000000009},{"rt":1765.0999999642372,"stimulus":"bees-with-color/bee-A1SF.svg","response":0,"trial_type":"image-button-response","trial_index":137,"time_elapsed":653375,"internal_node_id":"0.0-6.0-0.1","subject_id":"6112055ec44105138e374bd5","study_id":"6197b3f67c2b5cd3b6d9596a","session_id":"6197b88e4a48a84ae148b19a","condition":"contingent","relevant_dimensions":["antennae","pattern"],"bee_group":{"antennae":"A","wings":"X","pattern":"S","legs":"X"},"bonus":0.2400000000000009},{"rt":4960.699999988079,"stimulus":"bees-with-color/bee-B2SM.svg","response":1,"trial_type":"image-button-response","trial_index":138,"time_elapsed":658340,"internal_node_id":"0.0-6.0-0.2","subject_id":"6112055ec44105138e374bd5","study_id":"6197b3f67c2b5cd3b6d9596a","session_id":"6197b88e4a48a84ae148b19a","condition":"contingent","relevant_dimensions":["antennae","pattern"],"bee_group":{"antennae":"A","wings":"X","pattern":"S","legs":"X"},"bonus":0.2400000000000009},{"rt":2039.9000000357628,"stimulus":"bees-with-color/bee-B1SF.svg","response":1,"trial_type":"image-button-response","trial_index":139,"time_elapsed":660383,"internal_node_id":"0.0-6.0-0.3","subject_id":"6112055ec44105138e374bd5","study_id":"6197b3f67c2b5cd3b6d9596a","session_id":"6197b88e4a48a84ae148b19a","condition":"contingent","relevant_dimensions":["antennae","pattern"],"bee_group":{"antennae":"A","wings":"X","pattern":"S","legs":"X"},"bonus":0.2400000000000009},{"rt":1058.5,"stimulus":"bees-with-color/bee-B1DF.svg","response":0,"trial_type":"image-button-response","trial_index":140,"time_elapsed":661445,"internal_node_id":"0.0-6.0-0.4","subject_id":"6112055ec44105138e374bd5","study_id":"6197b3f67c2b5cd3b6d9596a","session_id":"6197b88e4a48a84ae148b19a","condition":"contingent","relevant_dimensions":["antennae","pattern"],"bee_group":{"antennae":"A","wings":"X","pattern":"S","legs":"X"},"bonus":0.2400000000000009},{"rt":1999.699999988079,"stimulus":"bees-with-color/bee-A2DM.svg","response":0,"trial_type":"image-button-response","trial_index":141,"time_elapsed":663449,"internal_node_id":"0.0-6.0-0.5","subject_id":"6112055ec44105138e374bd5","study_id":"6197b3f67c2b5cd3b6d9596a","session_id":"6197b88e4a48a84ae148b19a","condition":"contingent","relevant_dimensions":["antennae","pattern"],"bee_group":{"antennae":"A","wings":"X","pattern":"S","legs":"X"},"bonus":0.2400000000000009},{"rt":2217.800000011921,"stimulus":"bees-with-color/bee-A2SM.svg","response":1,"trial_type":"image-button-response","trial_index":142,"time_elapsed":665672,"internal_node_id":"0.0-6.0-0.6","subject_id":"6112055ec44105138e374bd5","study_id":"6197b3f67c2b5cd3b6d9596a","session_id":"6197b88e4a48a84ae148b19a","condition":"contingent","relevant_dimensions":["antennae","pattern"],"bee_group":{"antennae":"A","wings":"X","pattern":"S","legs":"X"},"bonus":0.2400000000000009},{"rt":2122.5,"stimulus":"bees-with-color/bee-A2DF.svg","response":0,"trial_type":"image-button-response","trial_index":143,"time_elapsed":667799,"internal_node_id":"0.0-6.0-0.7","subject_id":"6112055ec44105138e374bd5","study_id":"6197b3f67c2b5cd3b6d9596a","session_id":"6197b88e4a48a84ae148b19a","condition":"contingent","relevant_dimensions":["antennae","pattern"],"bee_group":{"antennae":"A","wings":"X","pattern":"S","legs":"X"},"bonus":0.2400000000000009},{"rt":1916.300000011921,"stimulus":"bees-with-color/bee-A1SM.svg","response":0,"trial_type":"image-button-response","trial_index":144,"time_elapsed":669720,"internal_node_id":"0.0-6.0-0.8","subject_id":"6112055ec44105138e374bd5","study_id":"6197b3f67c2b5cd3b6d9596a","session_id":"6197b88e4a48a84ae148b19a","condition":"contingent","relevant_dimensions":["antennae","pattern"],"bee_group":{"antennae":"A","wings":"X","pattern":"S","legs":"X"},"bonus":0.2400000000000009},{"rt":2775.399999976158,"stimulus":"bees-with-color/bee-A2SF.svg","response":0,"trial_type":"image-button-response","trial_index":145,"time_elapsed":672502,"internal_node_id":"0.0-6.0-0.9","subject_id":"6112055ec44105138e374bd5","study_id":"6197b3f67c2b5cd3b6d9596a","session_id":"6197b88e4a48a84ae148b19a","condition":"contingent","relevant_dimensions":["antennae","pattern"],"bee_group":{"antennae":"A","wings":"X","pattern":"S","legs":"X"},"bonus":0.2400000000000009},{"rt":5607.699999988079,"stimulus":"bees-with-color/bee-B2SF.svg","response":0,"trial_type":"image-button-response","trial_index":146,"time_elapsed":678115,"internal_node_id":"0.0-6.0-0.10","subject_id":"6112055ec44105138e374bd5","study_id":"6197b3f67c2b5cd3b6d9596a","session_id":"6197b88e4a48a84ae148b19a","condition":"contingent","relevant_dimensions":["antennae","pattern"],"bee_group":{"antennae":"A","wings":"X","pattern":"S","legs":"X"},"bonus":0.2400000000000009},{"rt":1881.5,"stimulus":"bees-with-color/bee-B2DM.svg","response":1,"trial_type":"image-button-response","trial_index":147,"time_elapsed":680000,"internal_node_id":"0.0-6.0-0.11","subject_id":"6112055ec44105138e374bd5","study_id":"6197b3f67c2b5cd3b6d9596a","session_id":"6197b88e4a48a84ae148b19a","condition":"contingent","relevant_dimensions":["antennae","pattern"],"bee_group":{"antennae":"A","wings":"X","pattern":"S","legs":"X"},"bonus":0.2400000000000009},{"rt":2176.2999999523163,"stimulus":"bees-with-color/bee-B1SM.svg","response":1,"trial_type":"image-button-response","trial_index":148,"time_elapsed":682180,"internal_node_id":"0.0-6.0-0.12","subject_id":"6112055ec44105138e374bd5","study_id":"6197b3f67c2b5cd3b6d9596a","session_id":"6197b88e4a48a84ae148b19a","condition":"contingent","relevant_dimensions":["antennae","pattern"],"bee_group":{"antennae":"A","wings":"X","pattern":"S","legs":"X"},"bonus":0.2400000000000009},{"rt":1096.3999999761581,"stimulus":"bees-with-color/bee-A1DF.svg","response":0,"trial_type":"image-button-response","trial_index":149,"time_elapsed":683280,"internal_node_id":"0.0-6.0-0.13","subject_id":"6112055ec44105138e374bd5","study_id":"6197b3f67c2b5cd3b6d9596a","session_id":"6197b88e4a48a84ae148b19a","condition":"contingent","relevant_dimensions":["antennae","pattern"],"bee_group":{"antennae":"A","wings":"X","pattern":"S","legs":"X"},"bonus":0.2400000000000009},{"rt":1233.300000011921,"stimulus":"bees-with-color/bee-B2DF.svg","response":0,"trial_type":"image-button-response","trial_index":150,"time_elapsed":684518,"internal_node_id":"0.0-6.0-0.14","subject_id":"6112055ec44105138e374bd5","study_id":"6197b3f67c2b5cd3b6d9596a","session_id":"6197b88e4a48a84ae148b19a","condition":"contingent","relevant_dimensions":["antennae","pattern"],"bee_group":{"antennae":"A","wings":"X","pattern":"S","legs":"X"},"bonus":0.2400000000000009},{"rt":2158.2999999523163,"stimulus":"bees-with-color/bee-A1DM.svg","response":0,"trial_type":"image-button-response","trial_index":151,"time_elapsed":686680,"internal_node_id":"0.0-6.0-0.15","subject_id":"6112055ec44105138e374bd5","study_id":"6197b3f67c2b5cd3b6d9596a","session_id":"6197b88e4a48a84ae148b19a","condition":"contingent","relevant_dimensions":["antennae","pattern"],"bee_group":{"antennae":"A","wings":"X","pattern":"S","legs":"X"},"bonus":0.2400000000000009},{"rt":1334.8999999761581,"stimulus":"bees-with-color/bee-A2DF.svg","response":0,"trial_type":"image-button-response","trial_index":152,"time_elapsed":688018,"internal_node_id":"0.0-6.0-0.16","subject_id":"6112055ec44105138e374bd5","study_id":"6197b3f67c2b5cd3b6d9596a","session_id":"6197b88e4a48a84ae148b19a","condition":"contingent","relevant_dimensions":["antennae","pattern"],"bee_group":{"antennae":"A","wings":"X","pattern":"S","legs":"X"},"bonus":0.2400000000000009},{"rt":1933.699999988079,"stimulus":"bees-with-color/bee-B2DF.svg","response":0,"trial_type":"image-button-response","trial_index":153,"time_elapsed":689955,"internal_node_id":"0.0-6.0-0.17","subject_id":"6112055ec44105138e374bd5","study_id":"6197b3f67c2b5cd3b6d9596a","session_id":"6197b88e4a48a84ae148b19a","condition":"contingent","relevant_dimensions":["antennae","pattern"],"bee_group":{"antennae":"A","wings":"X","pattern":"S","legs":"X"},"bonus":0.2400000000000009},{"rt":1281.7000000476837,"stimulus":"bees-with-color/bee-A2SF.svg","response":1,"trial_type":"image-button-response","trial_index":154,"time_elapsed":691240,"internal_node_id":"0.0-6.0-0.18","subject_id":"6112055ec44105138e374bd5","study_id":"6197b3f67c2b5cd3b6d9596a","session_id":"6197b88e4a48a84ae148b19a","condition":"contingent","relevant_dimensions":["antennae","pattern"],"bee_group":{"antennae":"A","wings":"X","pattern":"S","legs":"X"},"bonus":0.2400000000000009},{"rt":3465.899999976158,"stimulus":"bees-with-color/bee-A1SM.svg","response":1,"trial_type":"image-button-response","trial_index":155,"time_elapsed":694710,"internal_node_id":"0.0-6.0-0.19","subject_id":"6112055ec44105138e374bd5","study_id":"6197b3f67c2b5cd3b6d9596a","session_id":"6197b88e4a48a84ae148b19a","condition":"contingent","relevant_dimensions":["antennae","pattern"],"bee_group":{"antennae":"A","wings":"X","pattern":"S","legs":"X"},"bonus":0.2400000000000009},{"rt":2326.300000011921,"stimulus":"bees-with-color/bee-B1SF.svg","response":1,"trial_type":"image-button-response","trial_index":156,"time_elapsed":697041,"internal_node_id":"0.0-6.0-0.20","subject_id":"6112055ec44105138e374bd5","study_id":"6197b3f67c2b5cd3b6d9596a","session_id":"6197b88e4a48a84ae148b19a","condition":"contingent","relevant_dimensions":["antennae","pattern"],"bee_group":{"antennae":"A","wings":"X","pattern":"S","legs":"X"},"bonus":0.2400000000000009},{"rt":1268.3999999761581,"stimulus":"bees-with-color/bee-A1DF.svg","response":0,"trial_type":"image-button-response","trial_index":157,"time_elapsed":698313,"internal_node_id":"0.0-6.0-0.21","subject_id":"6112055ec44105138e374bd5","study_id":"6197b3f67c2b5cd3b6d9596a","session_id":"6197b88e4a48a84ae148b19a","condition":"contingent","relevant_dimensions":["antennae","pattern"],"bee_group":{"antennae":"A","wings":"X","pattern":"S","legs":"X"},"bonus":0.2400000000000009},{"rt":4327.599999964237,"stimulus":"bees-with-color/bee-B2SM.svg","response":0,"trial_type":"image-button-response","trial_index":158,"time_elapsed":702644,"internal_node_id":"0.0-6.0-0.22","subject_id":"6112055ec44105138e374bd5","study_id":"6197b3f67c2b5cd3b6d9596a","session_id":"6197b88e4a48a84ae148b19a","condition":"contingent","relevant_dimensions":["antennae","pattern"],"bee_group":{"antennae":"A","wings":"X","pattern":"S","legs":"X"},"bonus":0.2400000000000009},{"rt":2487.099999964237,"stimulus":"bees-with-color/bee-B1DM.svg",