[{"success":true,"trial_type":"fullscreen","trial_index":0,"time_elapsed":6352,"internal_node_id":"0.0-0.0","subject_id":"5eb160d9653c15056ac72f08","study_id":"60edd13110225f80f9f3709b","session_id":"6196cbaeb06ca2a631c2f29c","condition":"contingent","relevant_dimensions":["wings","legs"],"bee_group":{"antennae":"X","wings":"2","pattern":"X","legs":"F"},"bonus":1.4000000000000008},{"success":true,"timeout":false,"failed_images":[],"failed_audio":[],"failed_video":[],"trial_type":"preload","trial_index":1,"time_elapsed":8255,"internal_node_id":"0.0-1.0","subject_id":"5eb160d9653c15056ac72f08","study_id":"60edd13110225f80f9f3709b","session_id":"6196cbaeb06ca2a631c2f29c","condition":"contingent","relevant_dimensions":["wings","legs"],"bee_group":{"antennae":"X","wings":"2","pattern":"X","legs":"F"},"bonus":1.4000000000000008},{"rt":3263.100000023842,"stimulus":"Welcome! Press any key to begin.","response":" ","trial_type":"html-keyboard-response","trial_index":2,"time_elapsed":11519,"internal_node_id":"0.0-2.0","subject_id":"5eb160d9653c15056ac72f08","study_id":"60edd13110225f80f9f3709b","session_id":"6196cbaeb06ca2a631c2f29c","condition":"contingent","relevant_dimensions":["wings","legs"],"bee_group":{"antennae":"X","wings":"2","pattern":"X","legs":"F"},"bonus":1.4000000000000008},{"view_history":[{"page_index":0,"viewing_time":4392},{"page_index":1,"viewing_time":19296.399999976158},{"page_index":2,"viewing_time":29223.600000023842},{"page_index":3,"viewing_time":23772.799999952316},{"page_index":4,"viewing_time":8053.800000071526},{"page_index":5,"viewing_time":7500.699999928474},{"page_index":6,"viewing_time":26499.800000071526},{"page_index":7,"viewing_time":29245.299999952316},{"page_index":8,"viewing_time":8796},{"page_index":9,"viewing_time":7963.899999976158},{"page_index":10,"viewing_time":5802},{"page_index":11,"viewing_time":19693.600000023842},{"page_index":12,"viewing_time":11838.899999976158},{"page_index":13,"viewing_time":2186.8000000715256},{"page_index":14,"viewing_time":2378}],"rt":206644.29999995232,"trial_type":"instructions","trial_index":3,"time_elapsed":218164,"internal_node_id":"0.0-3.0-0.0","subject_id":"5eb160d9653c15056ac72f08","study_id":"60edd13110225f80f9f3709b","session_id":"6196cbaeb06ca2a631c2f29c","condition":"contingent","relevant_dimensions":["wings","legs"],"bee_group":{"antennae":"X","wings":"2","pattern":"X","legs":"F"},"bonus":1.4000000000000008},{"rt":13756.100000023842,"response":{"Q0":["Two or six legs","Stripes or spots on body","Single or double wings","Antennae or no antennae"]},"question_order":[0],"trial_type":"survey-multi-select","trial_index":4,"time_elapsed":231924,"internal_node_id":"0.0-3.0-1.0","subject_id":"5eb160d9653c15056ac72f08","study_id":"60edd13110225f80f9f3709b","session_id":"6196cbaeb06ca2a631c2f29c","condition":"contingent","relevant_dimensions":["wings","legs"],"bee_group":{"antennae":"X","wings":"2","pattern":"X","legs":"F"},"correct":true,"bonus":1.4000000000000008},{"rt":24098.299999952316,"response":{"Q1":"No.","Q2":"Based on the four features of the bee.","Q3":"You do not learn if it was friendly or dangerous, and do not alter your bonus."},"question_order":[0,1,2],"trial_type":"survey-multi-choice","trial_index":5,"time_elapsed":256024,"internal_node_id":"0.0-3.0-2.0","subject_id":"5eb160d9653c15056ac72f08","study_id":"60edd13110225f80f9f3709b","session_id":"6196cbaeb06ca2a631c2f29c","condition":"contingent","relevant_dimensions":["wings","legs"],"bee_group":{"antennae":"X","wings":"2","pattern":"X","legs":"F"},"correct":true,"bonus":1.4000000000000008},{"rt":3213.3000000715256,"stimulus":"<p>Congrats, you got everything right<br>When you're ready, click the button below to continue to the experiment.</p>","response":0,"trial_type":"html-button-response","trial_index":6,"time_elapsed":259239,"internal_node_id":"0.0-3.0-3.0","subject_id":"5eb160d9653c15056ac72f08","study_id":"60edd13110225f80f9f3709b","session_id":"6196cbaeb06ca2a631c2f29c","condition":"contingent","relevant_dimensions":["wings","legs"],"bee_group":{"antennae":"X","wings":"2","pattern":"X","legs":"F"},"bonus":1.4000000000000008},{"rt":18493.299999952316,"stimulus":"bees-with-color/bee-B1DM.svg","response":0,"trial_type":"image-button-response","trial_index":7,"time_elapsed":277735,"internal_node_id":"0.0-4.0-0.0","subject_id":"5eb160d9653c15056ac72f08","study_id":"60edd13110225f80f9f3709b","session_id":"6196cbaeb06ca2a631c2f29c","condition":"contingent","relevant_dimensions":["wings","legs"],"bee_group":{"antennae":"X","wings":"2","pattern":"X","legs":"F"},"action":"harvest","summary":"good-harvest","bonus":1.4000000000000008},{"rt":16164,"stimulus":"\n                    <p><b>Action: <em>harvest</em></b></p>\n                    <p>This is the bee that you just saw.</p>\n                    <img src=\"bees-with-color/bee-B1DM.svg\" width=\"200\">\n                    <p><span class=\"greenText\"><b>Successful harvest!</b></span><br>Your pay has increased by $0.02. Your bonus pay is now $0.56.</p>\n            ","response":0,"trial_type":"html-button-response","trial_index":8,"time_elapsed":293901,"internal_node_id":"0.0-4.0-1.0","subject_id":"5eb160d9653c15056ac72f08","study_id":"60edd13110225f80f9f3709b","session_id":"6196cbaeb06ca2a631c2f29c","condition":"contingent","relevant_dimensions":["wings","legs"],"bee_group":{"antennae":"X","wings":"2","pattern":"X","legs":"F"},"bonus":1.4000000000000008},{"rt":17807.399999976158,"stimulus":"bees-with-color/bee-A2SM.svg","response":0,"trial_type":"image-button-response","trial_index":9,"time_elapsed":311711,"internal_node_id":"0.0-4.0-0.1","subject_id":"5eb160d9653c15056ac72f08","study_id":"60edd13110225f80f9f3709b","session_id":"6196cbaeb06ca2a631c2f29c","condition":"contingent","relevant_dimensions":["wings","legs"],"bee_group":{"antennae":"X","wings":"2","pattern":"X","legs":"F"},"action":"harvest","summary":"good-harvest","bonus":1.4000000000000008},{"rt":17101.699999928474,"stimulus":"\n                    <p><b>Action: <em>harvest</em></b></p>\n                    <p>This is the bee that you just saw.</p>\n                    <img src=\"bees-with-color/bee-A2SM.svg\" width=\"200\">\n                    <p><span class=\"greenText\"><b>Successful harvest!</b></span><br>Your pay has increased by $0.02. Your bonus pay is now $0.58.</p>\n            ","response":0,"trial_type":"html-button-response","trial_index":10,"time_elapsed":328814,"internal_node_id":"0.0-4.0-1.1","subject_id":"5eb160d9653c15056ac72f08","study_id":"60edd13110225f80f9f3709b","session_id":"6196cbaeb06ca2a631c2f29c","condition":"contingent","relevant_dimensions":["wings","legs"],"bee_group":{"antennae":"X","wings":"2","pattern":"X","legs":"F"},"bonus":1.4000000000000008},{"rt":13079.399999976158,"stimulus":"bees-with-color/bee-A1DF.svg","response":1,"trial_type":"image-button-response","trial_index":11,"time_elapsed":341896,"internal_node_id":"0.0-4.0-0.2","subject_id":"5eb160d9653c15056ac72f08","study_id":"60edd13110225f80f9f3709b","session_id":"6196cbaeb06ca2a631c2f29c","condition":"contingent","relevant_dimensions":["wings","legs"],"bee_group":{"antennae":"X","wings":"2","pattern":"X","legs":"F"},"action":"avoid","summary":"bad-avoid","bonus":1.4000000000000008},{"rt":3420.2000000476837,"stimulus":"\n                    <p><b>Action: <em>avoid</em></b></p>\n                    <p>This is the bee that you just saw.</p>\n                    <img src=\"bees-with-color/bee-A1DF.svg\" width=\"200\">\n                    <p><br>Your bonus pay is unchanged, and remains at $0.58.</p>\n            ","response":0,"trial_type":"html-button-response","trial_index":12,"time_elapsed":345318,"internal_node_id":"0.0-4.0-1.2","subject_id":"5eb160d9653c15056ac72f08","study_id":"60edd13110225f80f9f3709b","session_id":"6196cbaeb06ca2a631c2f29c","condition":"contingent","relevant_dimensions":["wings","legs"],"bee_group":{"antennae":"X","wings":"2","pattern":"X","legs":"F"},"bonus":1.4000000000000008},{"rt":40298.299999952316,"stimulus":"bees-with-color/bee-A2SF.svg","response":0,"trial_type":"image-button-response","trial_index":13,"time_elapsed":385618,"internal_node_id":"0.0-4.0-0.3","subject_id":"5eb160d9653c15056ac72f08","study_id":"60edd13110225f80f9f3709b","session_id":"6196cbaeb06ca2a631c2f29c","condition":"contingent","relevant_dimensions":["wings","legs"],"bee_group":{"antennae":"X","wings":"2","pattern":"X","legs":"F"},"action":"harvest","summary":"bad-harvest","bonus":1.4000000000000008},{"rt":14475.200000047684,"stimulus":"\n                    <p><b>Action: <em>harvest</em></b></p>\n                    <p>This is the bee that you just saw.</p>\n                    <img src=\"bees-with-color/bee-A2SF.svg\" width=\"200\">\n                    <p><span class=\"redText\">Bad choice, the bee was angry.</span><br><b>You have been stung!</b><br>Your pay has been decreased by $0.10. Your bonus pay is now $0.48.</p>\n            ","response":0,"trial_type":"html-button-response","trial_index":14,"time_elapsed":400095,"internal_node_id":"0.0-4.0-1.3","subject_id":"5eb160d9653c15056ac72f08","study_id":"60edd13110225f80f9f3709b","session_id":"6196cbaeb06ca2a631c2f29c","condition":"contingent","relevant_dimensions":["wings","legs"],"bee_group":{"antennae":"X","wings":"2","pattern":"X","legs":"F"},"bonus":1.4000000000000008},{"rt":23011.299999952316,"stimulus":"bees-with-color/bee-A2DM.svg","response":0,"trial_type":"image-button-response","trial_index":15,"time_elapsed":423108,"internal_node_id":"0.0-4.0-0.4","subject_id":"5eb160d9653c15056ac72f08","study_id":"60edd13110225f80f9f3709b","session_id":"6196cbaeb06ca2a631c2f29c","condition":"contingent","relevant_dimensions":["wings","legs"],"bee_group":{"antennae":"X","wings":"2","pattern":"X","legs":"F"},"action":"harvest","summary":"good-harvest","bonus":1.4000000000000008},{"rt":9520.399999976158,"stimulus":"\n                    <p><b>Action: <em>harvest</em></b></p>\n                    <p>This is the bee that you just saw.</p>\n                    <img src=\"bees-with-color/bee-A2DM.svg\" width=\"200\">\n                    <p><span class=\"greenText\"><b>Successful harvest!</b></span><br>Your pay has increased by $0.02. Your bonus pay is now $0.50.</p>\n            ","response":0,"trial_type":"html-button-response","trial_index":16,"time_elapsed":432629,"internal_node_id":"0.0-4.0-1.4","subject_id":"5eb160d9653c15056ac72f08","study_id":"60edd13110225f80f9f3709b","session_id":"6196cbaeb06ca2a631c2f29c","condition":"contingent","relevant_dimensions":["wings","legs"],"bee_group":{"antennae":"X","wings":"2","pattern":"X","legs":"F"},"bonus":1.4000000000000008},{"rt":67240.59999990463,"stimulus":"bees-with-color/bee-B1SM.svg","response":0,"trial_type":"image-button-response","trial_index":17,"time_elapsed":499872,"internal_node_id":"0.0-4.0-0.5","subject_id":"5eb160d9653c15056ac72f08","study_id":"60edd13110225f80f9f3709b","session_id":"6196cbaeb06ca2a631c2f29c","condition":"contingent","relevant_dimensions":["wings","legs"],"bee_group":{"antennae":"X","wings":"2","pattern":"X","legs":"F"},"action":"harvest","summary":"good-harvest","bonus":1.4000000000000008},{"rt":7555,"stimulus":"\n                    <p><b>Action: <em>harvest</em></b></p>\n                    <p>This is the bee that you just saw.</p>\n                    <img src=\"bees-with-color/bee-B1SM.svg\" width=\"200\">\n                    <p><span class=\"greenText\"><b>Successful harvest!</b></span><br>Your pay has increased by $0.02. Your bonus pay is now $0.52.</p>\n            ","response":0,"trial_type":"html-button-response","trial_index":18,"time_elapsed":507428,"internal_node_id":"0.0-4.0-1.5","subject_id":"5eb160d9653c15056ac72f08","study_id":"60edd13110225f80f9f3709b","session_id":"6196cbaeb06ca2a631c2f29c","condition":"contingent","relevant_dimensions":["wings","legs"],"bee_group":{"antennae":"X","wings":"2","pattern":"X","legs":"F"},"bonus":1.4000000000000008},{"rt":3980.2999999523163,"stimulus":"bees-with-color/bee-B2DF.svg","response":1,"trial_type":"image-button-response","trial_index":19,"time_elapsed":511410,"internal_node_id":"0.0-4.0-0.6","subject_id":"5eb160d9653c15056ac72f08","study_id":"60edd13110225f80f9f3709b","session_id":"6196cbaeb06ca2a631c2f29c","condition":"contingent","relevant_dimensions":["wings","legs"],"bee_group":{"antennae":"X","wings":"2","pattern":"X","legs":"F"},"action":"avoid","summary":"good-avoid","bonus":1.4000000000000008},{"rt":5295.300000071526,"stimulus":"\n                    <p><b>Action: <em>avoid</em></b></p>\n                    <p>This is the bee that you just saw.</p>\n                    <img src=\"bees-with-color/bee-B2DF.svg\" width=\"200\">\n                    <p><br>Your bonus pay is unchanged, and remains at $0.52.</p>\n            ","response":0,"trial_type":"html-button-response","trial_index":20,"time_elapsed":516707,"internal_node_id":"0.0-4.0-1.6","subject_id":"5eb160d9653c15056ac72f08","study_id":"60edd13110225f80f9f3709b","session_id":"6196cbaeb06ca2a631c2f29c","condition":"contingent","relevant_dimensions":["wings","legs"],"bee_group":{"antennae":"X","wings":"2","pattern":"X","legs":"F"},"bonus":1.4000000000000008},{"rt":2475.7999999523163,"stimulus":"bees-with-color/bee-B2DM.svg","response":0,"trial_type":"image-button-response","trial_index":21,"time_elapsed":519184,"internal_node_id":"0.0-4.0-0.7","subject_id":"5eb160d9653c15056ac72f08","study_id":"60edd13110225f80f9f3709b","session_id":"6196cbaeb06ca2a631c2f29c","condition":"contingent","relevant_dimensions":["wings","legs"],"bee_group":{"antennae":"X","wings":"2","pattern":"X","legs":"F"},"action":"harvest","summary":"good-harvest","bonus":1.4000000000000008},{"rt":7322.699999928474,"stimulus":"\n                    <p><b>Action: <em>harvest</em></b></p>\n                    <p>This is the bee that you just saw.</p>\n                    <img src=\"bees-with-color/bee-B2DM.svg\" width=\"200\">\n                    <p><span class=\"greenText\"><b>Successful harvest!</b></span><br>Your pay has increased by $0.02. Your bonus pay is now $0.54.</p>\n            ","response":0,"trial_type":"html-button-response","trial_index":22,"time_elapsed":526508,"internal_node_id":"0.0-4.0-1.7","subject_id":"5eb160d9653c15056ac72f08","study_id":"60edd13110225f80f9f3709b","session_id":"6196cbaeb06ca2a631c2f29c","condition":"contingent","relevant_dimensions":["wings","legs"],"bee_group":{"antennae":"X","wings":"2","pattern":"X","legs":"F"},"bonus":1.4000000000000008},{"rt":19496.5,"stimulus":"bees-with-color/bee-A2DF.svg","response":1,"trial_type":"image-button-response","trial_index":23,"time_elapsed":546007,"internal_node_id":"0.0-4.0-0.8","subject_id":"5eb160d9653c15056ac72f08","study_id":"60edd13110225f80f9f3709b","session_id":"6196cbaeb06ca2a631c2f29c","condition":"contingent","relevant_dimensions":["wings","legs"],"bee_group":{"antennae":"X","wings":"2","pattern":"X","legs":"F"},"action":"avoid","summary":"good-avoid","bonus":1.4000000000000008},{"rt":1585.8000000715256,"stimulus":"\n                    <p><b>Action: <em>avoid</em></b></p>\n                    <p>This is the bee that you just saw.</p>\n                    <img src=\"bees-with-color/bee-A2DF.svg\" width=\"200\">\n                    <p><br>Your bonus pay is unchanged, and remains at $0.54.</p>\n            ","response":0,"trial_type":"html-button-response","trial_index":24,"time_elapsed":547594,"internal_node_id":"0.0-4.0-1.8","subject_id":"5eb160d9653c15056ac72f08","study_id":"60edd13110225f80f9f3709b","session_id":"6196cbaeb06ca2a631c2f29c","condition":"contingent","relevant_dimensions":["wings","legs"],"bee_group":{"antennae":"X","wings":"2","pattern":"X","legs":"F"},"bonus":1.4000000000000008},{"rt":11341,"stimulus":"bees-with-color/bee-B2SF.svg","response":1,"trial_type":"image-button-response","trial_index":25,"time_elapsed":558936,"internal_node_id":"0.0-4.0-0.9","subject_id":"5eb160d9653c15056ac72f08","study_id":"60edd13110225f80f9f3709b","session_id":"6196cbaeb06ca2a631c2f29c","condition":"contingent","relevant_dimensions":["wings","legs"],"bee_group":{"antennae":"X","wings":"2","pattern":"X","legs":"F"},"action":"avoid","summary":"good-avoid","bonus":1.4000000000000008},{"rt":944.7000000476837,"stimulus":"\n                    <p><b>Action: <em>avoid</em></b></p>\n                    <p>This is the bee that you just saw.</p>\n                    <img src=\"bees-with-color/bee-B2SF.svg\" width=\"200\">\n                    <p><br>Your bonus pay is unchanged, and remains at $0.54.</p>\n            ","response":0,"trial_type":"html-button-response","trial_index":26,"time_elapsed":559882,"internal_node_id":"0.0-4.0-1.9","subject_id":"5eb160d9653c15056ac72f08","study_id":"60edd13110225f80f9f3709b","session_id":"6196cbaeb06ca2a631c2f29c","condition":"contingent","relevant_dimensions":["wings","legs"],"bee_group":{"antennae":"X","wings":"2","pattern":"X","legs":"F"},"bonus":1.4000000000000008},{"rt":1610.6000000238419,"stimulus":"bees-with-color/bee-A1DM.svg","response":0,"trial_type":"image-button-response","trial_index":27,"time_elapsed":561494,"internal_node_id":"0.0-4.0-0.10","subject_id":"5eb160d9653c15056ac72f08","study_id":"60edd13110225f80f9f3709b","session_id":"6196cbaeb06ca2a631c2f29c","condition":"contingent","relevant_dimensions":["wings","legs"],"bee_group":{"antennae":"X","wings":"2","pattern":"X","legs":"F"},"action":"harvest","summary":"good-harvest","bonus":1.4000000000000008},{"rt":6825.799999952316,"stimulus":"\n                    <p><b>Action: <em>harvest</em></b></p>\n                    <p>This is the bee that you just saw.</p>\n                    <img src=\"bees-with-color/bee-A1DM.svg\" width=\"200\">\n                    <p><span class=\"greenText\"><b>Successful harvest!</b></span><br>Your pay has increased by $0.02. Your bonus pay is now $0.56.</p>\n            ","response":0,"trial_type":"html-button-response","trial_index":28,"time_elapsed":568321,"internal_node_id":"0.0-4.0-1.10","subject_id":"5eb160d9653c15056ac72f08","study_id":"60edd13110225f80f9f3709b","session_id":"6196cbaeb06ca2a631c2f29c","condition":"contingent","relevant_dimensions":["wings","legs"],"bee_group":{"antennae":"X","wings":"2","pattern":"X","legs":"F"},"bonus":1.4000000000000008},{"rt":1402.2999999523163,"stimulus":"bees-with-color/bee-A1SF.svg","response":1,"trial_type":"image-button-response","trial_index":29,"time_elapsed":569725,"internal_node_id":"0.0-4.0-0.11","subject_id":"5eb160d9653c15056ac72f08","study_id":"60edd13110225f80f9f3709b","session_id":"6196cbaeb06ca2a631c2f29c","condition":"contingent","relevant_dimensions":["wings","legs"],"bee_group":{"antennae":"X","wings":"2","pattern":"X","legs":"F"},"action":"avoid","summary":"bad-avoid","bonus":1.4000000000000008},{"rt":1074.6999999284744,"stimulus":"\n                    <p><b>Action: <em>avoid</em></b></p>\n                    <p>This is the bee that you just saw.</p>\n                    <img src=\"bees-with-color/bee-A1SF.svg\" width=\"200\">\n                    <p><br>Your bonus pay is unchanged, and remains at $0.56.</p>\n            ","response":0,"trial_type":"html-button-response","trial_index":30,"time_elapsed":570801,"internal_node_id":"0.0-4.0-1.11","subject_id":"5eb160d9653c15056ac72f08","study_id":"60edd13110225f80f9f3709b","session_id":"6196cbaeb06ca2a631c2f29c","condition":"contingent","relevant_dimensions":["wings","legs"],"bee_group":{"antennae":"X","wings":"2","pattern":"X","legs":"F"},"bonus":1.4000000000000008},{"rt":1259.1000000238419,"stimulus":"bees-with-color/bee-A1SM.svg","response":0,"trial_type":"image-button-response","trial_index":31,"time_elapsed":572061,"internal_node_id":"0.0-4.0-0.12","subject_id":"5eb160d9653c15056ac72f08","study_id":"60edd13110225f80f9f3709b","session_id":"6196cbaeb06ca2a631c2f29c","condition":"contingent","relevant_dimensions":["wings","legs"],"bee_group":{"antennae":"X","wings":"2","pattern":"X","legs":"F"},"action":"harvest","summary":"good-harvest","bonus":1.4000000000000008},{"rt":6278.300000071526,"stimulus":"\n                    <p><b>Action: <em>harvest</em></b></p>\n                    <p>This is the bee that you just saw.</p>\n                    <img src=\"bees-with-color/bee-A1SM.svg\" width=\"200\">\n                    <p><span class=\"greenText\"><b>Successful harvest!</b></span><br>Your pay has increased by $0.02. Your bonus pay is now $0.58.</p>\n            ","response":0,"trial_type":"html-button-response","trial_index":32,"time_elapsed":578340,"internal_node_id":"0.0-4.0-1.12","subject_id":"5eb160d9653c15056ac72f08","study_id":"60edd13110225f80f9f3709b","session_id":"6196cbaeb06ca2a631c2f29c","condition":"contingent","relevant_dimensions":["wings","legs"],"bee_group":{"antennae":"X","wings":"2","pattern":"X","legs":"F"},"bonus":1.4000000000000008},{"rt":1439.7999999523163,"stimulus":"bees-with-color/bee-B1DF.svg","response":1,"trial_type":"image-button-response","trial_index":33,"time_elapsed":579782,"internal_node_id":"0.0-4.0-0.13","subject_id":"5eb160d9653c15056ac72f08","study_id":"60edd13110225f80f9f3709b","session_id":"6196cbaeb06ca2a631c2f29c","condition":"contingent","relevant_dimensions":["wings","legs"],"bee_group":{"antennae":"X","wings":"2","pattern":"X","legs":"F"},"action":"avoid","summary":"bad-avoid","bonus":1.4000000000000008},{"rt":2602.600000023842,"stimulus":"\n                    <p><b>Action: <em>avoid</em></b></p>\n                    <p>This is the bee that you just saw.</p>\n                    <img src=\"bees-with-color/bee-B1DF.svg\" width=\"200\">\n                    <p><br>Your bonus pay is unchanged, and remains at $0.58.</p>\n            ","response":0,"trial_type":"html-button-response","trial_index":34,"time_elapsed":582385,"internal_node_id":"0.0-4.0-1.13","subject_id":"5eb160d9653c15056ac72f08","study_id":"60edd13110225f80f9f3709b","session_id":"6196cbaeb06ca2a631c2f29c","condition":"contingent","relevant_dimensions":["wings","legs"],"bee_group":{"antennae":"X","wings":"2","pattern":"X","legs":"F"},"bonus":1.4000000000000008},{"rt":1143.7000000476837,"stimulus":"bees-with-color/bee-B1SF.svg","response":1,"trial_type":"image-button-response","trial_index":35,"time_elapsed":583530,"internal_node_id":"0.0-4.0-0.14","subject_id":"5eb160d9653c15056ac72f08","study_id":"60edd13110225f80f9f3709b","session_id":"6196cbaeb06ca2a631c2f29c","condition":"contingent","relevant_dimensions":["wings","legs"],"bee_group":{"antennae":"X","wings":"2","pattern":"X","legs":"F"},"action":"avoid","summary":"bad-avoid","bonus":1.4000000000000008},{"rt":682.8000000715256,"stimulus":"\n                    <p><b>Action: <em>avoid</em></b></p>\n                    <p>This is the bee that you just saw.</p>\n                    <img src=\"bees-with-color/bee-B1SF.svg\" width=\"200\">\n                    <p><br>Your bonus pay is unchanged, and remains at $0.58.</p>\n            ","response":0,"trial_type":"html-button-response","trial_index":36,"time_elapsed":584214,"internal_node_id":"0.0-4.0-1.14","subject_id":"5eb160d9653c15056ac72f08","study_id":"60edd13110225f80f9f3709b","session_id":"6196cbaeb06ca2a631c2f29c","condition":"contingent","relevant_dimensions":["wings","legs"],"bee_group":{"antennae":"X","wings":"2","pattern":"X","legs":"F"},"bonus":1.4000000000000008},{"rt":2682.899999976158,"stimulus":"bees-with-color/bee-B2SM.svg","response":0,"trial_type":"image-button-response","trial_index":37,"time_elapsed":586898,"internal_node_id":"0.0-4.0-0.15","subject_id":"5eb160d9653c15056ac72f08","study_id":"60edd13110225f80f9f3709b","session_id":"6196cbaeb06ca2a631c2f29c","condition":"contingent","relevant_dimensions":["wings","legs"],"bee_group":{"antennae":"X","wings":"2","pattern":"X","legs":"F"},"action":"harvest","summary":"good-harvest","bonus":1.4000000000000008},{"rt":4883.600000023842,"stimulus":"\n                    <p><b>Action: <em>harvest</em></b></p>\n                    <p>This is the bee that you just saw.</p>\n                    <img src=\"bees-with-color/bee-B2SM.svg\" width=\"200\">\n                    <p><span class=\"greenText\"><b>Successful harvest!</b></span><br>Your pay has increased by $0.02. Your bonus pay is now $0.60.</p>\n            ","response":0,"trial_type":"html-button-response","trial_index":38,"time_elapsed":591783,"internal_node_id":"0.0-4.0-1.15","subject_id":"5eb160d9653c15056ac72f08","study_id":"60edd13110225f80f9f3709b","session_id":"6196cbaeb06ca2a631c2f29c","condition":"contingent","relevant_dimensions":["wings","legs"],"bee_group":{"antennae":"X","wings":"2","pattern":"X","legs":"F"},"bonus":1.4000000000000008},{"rt":3483.600000023842,"stimulus":"bees-with-color/bee-A2SM.svg","response":0,"trial_type":"image-button-response","trial_index":39,"time_elapsed":595268,"internal_node_id":"0.0-4.0-0.16","subject_id":"5eb160d9653c15056ac72f08","study_id":"60edd13110225f80f9f3709b","session_id":"6196cbaeb06ca2a631c2f29c","condition":"contingent","relevant_dimensions":["wings","legs"],"bee_group":{"antennae":"X","wings":"2","pattern":"X","legs":"F"},"action":"harvest","summary":"good-harvest","bonus":1.4000000000000008},{"rt":4385.100000023842,"stimulus":"\n                    <p><b>Action: <em>harvest</em></b></p>\n                    <p>This is the bee that you just saw.</p>\n                    <img src=\"bees-with-color/bee-A2SM.svg\" width=\"200\">\n                    <p><span class=\"greenText\"><b>Successful harvest!</b></span><br>Your pay has increased by $0.02. Your bonus pay is now $0.62.</p>\n            ","response":0,"trial_type":"html-button-response","trial_index":40,"time_elapsed":599655,"internal_node_id":"0.0-4.0-1.16","subject_id":"5eb160d9653c15056ac72f08","study_id":"60edd13110225f80f9f3709b","session_id":"6196cbaeb06ca2a631c2f29c","condition":"contingent","relevant_dimensions":["wings","legs"],"bee_group":{"antennae":"X","wings":"2","pattern":"X","legs":"F"},"bonus":1.4000000000000008},{"rt":1695.2999999523163,"stimulus":"bees-with-color/bee-A1SM.svg","response":0,"trial_type":"image-button-response","trial_index":41,"time_elapsed":601351,"internal_node_id":"0.0-4.0-0.17","subject_id":"5eb160d9653c15056ac72f08","study_id":"60edd13110225f80f9f3709b","session_id":"6196cbaeb06ca2a631c2f29c","condition":"contingent","relevant_dimensions":["wings","legs"],"bee_group":{"antennae":"X","wings":"2","pattern":"X","legs":"F"},"action":"harvest","summary":"good-harvest","bonus":1.4000000000000008},{"rt":5202.5,"stimulus":"\n                    <p><b>Action: <em>harvest</em></b></p>\n                    <p>This is the bee that you just saw.</p>\n                    <img src=\"bees-with-color/bee-A1SM.svg\" width=\"200\">\n                    <p><span class=\"greenText\"><b>Successful harvest!</b></span><br>Your pay has increased by $0.02. Your bonus pay is now $0.64.</p>\n            ","response":0,"trial_type":"html-button-response","trial_index":42,"time_elapsed":606555,"internal_node_id":"0.0-4.0-1.17","subject_id":"5eb160d9653c15056ac72f08","study_id":"60edd13110225f80f9f3709b","session_id":"6196cbaeb06ca2a631c2f29c","condition":"contingent","relevant_dimensions":["wings","legs"],"bee_group":{"antennae":"X","wings":"2","pattern":"X","legs":"F"},"bonus":1.4000000000000008},{"rt":981.2000000476837,"stimulus":"bees-with-color/bee-A1SF.svg","response":1,"trial_type":"image-button-response","trial_index":43,"time_elapsed":607538,"internal_node_id":"0.0-4.0-0.18","subject_id":"5eb160d9653c15056ac72f08","study_id":"60edd13110225f80f9f3709b","session_id":"6196cbaeb06ca2a631c2f29c","condition":"contingent","relevant_dimensions":["wings","legs"],"bee_group":{"antennae":"X","wings":"2","pattern":"X","legs":"F"},"action":"avoid","summary":"bad-avoid","bonus":1.4000000000000008},{"rt":1251.3999999761581,"stimulus":"\n                    <p><b>Action: <em>avoid</em></b></p>\n                    <p>This is the bee that you just saw.</p>\n                    <img src=\"bees-with-color/bee-A1SF.svg\" width=\"200\">\n                    <p><br>Your bonus pay is unchanged, and remains at $0.64.</p>\n            ","response":0,"trial_type":"html-button-response","trial_index":44,"time_elapsed":608790,"internal_node_id":"0.0-4.0-1.18","subject_id":"5eb160d9653c15056ac72f08","study_id":"60edd13110225f80f9f3709b","session_id":"6196cbaeb06ca2a631c2f29c","condition":"contingent","relevant_dimensions":["wings","legs"],"bee_group":{"antennae":"X","wings":"2","pattern":"X","legs":"F"},"bonus":1.4000000000000008},{"rt":1379.6999999284744,"stimulus":"bees-with-color/bee-B2DM.svg","response":0,"trial_type":"image-button-response","trial_index":45,"time_elapsed":610171,"internal_node_id":"0.0-4.0-0.19","subject_id":"5eb160d9653c15056ac72f08","study_id":"60edd13110225f80f9f3709b","session_id":"6196cbaeb06ca2a631c2f29c","condition":"contingent","relevant_dimensions":["wings","legs"],"bee_group":{"antennae":"X","wings":"2","pattern":"X","legs":"F"},"action":"harvest","summary":"good-harvest","bonus":1.4000000000000008},{"rt":4092.9000000953674,"stimulus":"\n                    <p><b>Action: <em>harvest</em></b></p>\n                    <p>This is the bee that you just saw.</p>\n                    <img src=\"bees-with-color/bee-B2DM.svg\" width=\"200\">\n                    <p><span class=\"greenText\"><b>Successful harvest!</b></span><br>Your pay has increased by $0.02. Your bonus pay is now $0.66.</p>\n            ","response":0,"trial_type":"html-button-response","trial_index":46,"time_elapsed":614265,"internal_node_id":"0.0-4.0-1.19","subject_id":"5eb160d9653c15056ac72f08","study_id":"60edd13110225f80f9f3709b","session_id":"6196cbaeb06ca2a631c2f29c","condition":"contingent","relevant_dimensions":["wings","legs"],"bee_group":{"antennae":"X","wings":"2","pattern":"X","legs":"F"},"bonus":1.4000000000000008},{"rt":1105.6000000238419,"stimulus":"bees-with-color/bee-B2DF.svg","response":1,"trial_type":"image-button-response","trial_index":47,"time_elapsed":615372,"internal_node_id":"0.0-4.0-0.20","subject_id":"5eb160d9653c15056ac72f08","study_id":"60edd13110225f80f9f3709b","session_id":"6196cbaeb06ca2a631c2f29c","condition":"contingent","relevant_dimensions":["wings","legs"],"bee_group":{"antennae":"X","wings":"2","pattern":"X","legs":"F"},"action":"avoid","summary":"good-avoid","bonus":1.4000000000000008},{"rt":1456.8000000715256,"stimulus":"\n                    <p><b>Action: <em>avoid</em></b></p>\n                    <p>This is the bee that you just saw.</p>\n                    <img src=\"bees-with-color/bee-B2DF.svg\" width=\"200\">\n                    <p><br>Your bonus pay is unchanged, and remains at $0.66.</p>\n            ","response":0,"trial_type":"html-button-response","trial_index":48,"time_elapsed":616830,"internal_node_id":"0.0-4.0-1.20","subject_id":"5eb160d9653c15056ac72f08","study_id":"60edd13110225f80f9f3709b","session_id":"6196cbaeb06ca2a631c2f29c","condition":"contingent","relevant_dimensions":["wings","legs"],"bee_group":{"antennae":"X","wings":"2","pattern":"X","legs":"F"},"bonus":1.4000000000000008},{"rt":974,"stimulus":"bees-with-color/bee-B1DF.svg","response":1,"trial_type":"image-button-response","trial_index":49,"time_elapsed":617805,"internal_node_id":"0.0-4.0-0.21","subject_id":"5eb160d9653c15056ac72f08","study_id":"60edd13110225f80f9f3709b","session_id":"6196cbaeb06ca2a631c2f29c","condition":"contingent","relevant_dimensions":["wings","legs"],"bee_group":{"antennae":"X","wings":"2","pattern":"X","legs":"F"},"action":"avoid","summary":"bad-avoid","bonus":1.4000000000000008},{"rt":761.7000000476837,"stimulus":"\n                    <p><b>Action: <em>avoid</em></b></p>\n                    <p>This is the bee that you just saw.</p>\n                    <img src=\"bees-with-color/bee-B1DF.svg\" width=\"200\">\n                    <p><br>Your bonus pay is unchanged, and remains at $0.66.</p>\n            ","response":0,"trial_type":"html-button-response","trial_index":50,"time_elapsed":618568,"internal_node_id":"0.0-4.0-1.21","subject_id":"5eb160d9653c15056ac72f08","study_id":"60edd13110225f80f9f3709b","session_id":"6196cbaeb06ca2a631c2f29c","condition":"contingent","relevant_dimensions":["wings","legs"],"bee_group":{"antennae":"X","wings":"2","pattern":"X","legs":"F"},"bonus":1.4000000000000008},{"rt":1107.8000000715256,"stimulus":"bees-with-color/bee-A2DF.svg","response":1,"trial_type":"image-button-response","trial_index":51,"time_elapsed":619677,"internal_node_id":"0.0-4.0-0.22","subject_id":"5eb160d9653c15056ac72f08","study_id":"60edd13110225f80f9f3709b","session_id":"6196cbaeb06ca2a631c2f29c","condition":"contingent","relevant_dimensions":["wings","legs"],"bee_group":{"antennae":"X","wings":"2","pattern":"X","legs":"F"},"action":"avoid","summary":"good-avoid","bonus":1.4000000000000008},{"rt":819.6000000238419,"stimulus":"\n                    <p><b>Action: <em>avoid</em></b></p>\n                    <p>This is the bee that you just saw.</p>\n                    <img src=\"bees-with-color/bee-A2DF.svg\" width=\"200\">\n                    <p><br>Your bonus pay is unchanged, and remains at $0.66.</p>\n            ","response":0,"trial_type":"html-button-response","trial_index":52,"time_elapsed":620498,"internal_node_id":"0.0-4.0-1.22","subject_id":"5eb160d9653c15056ac72f08","study_id":"60edd13110225f80f9f3709b","session_id":"6196cbaeb06ca2a631c2f29c","condition":"contingent","relevant_dimensions":["wings","legs"],"bee_group":{"antennae":"X","wings":"2","pattern":"X","legs":"F"},"bonus":1.4000000000000008},{"rt":874.1000000238419,"stimulus":"bees-with-color/bee-B1SF.svg","response":1,"trial_type":"image-button-response","trial_index":53,"time_elapsed":621373,"internal_node_id":"0.0-4.0-0.23","subject_id":"5eb160d9653c15056ac72f08","study_id":"60edd13110225f80f9f3709b","session_id":"6196cbaeb06ca2a631c2f29c","condition":"contingent","relevant_dimensions":["wings","legs"],"bee_group":{"antennae":"X","wings":"2","pattern":"X","legs":"F"},"action":"avoid","summary":"bad-avoid","bonus":1.4000000000000008},{"rt":972.5,"stimulus":"\n                    <p><b>Action: <em>avoid</em></b></p>\n                    <p>This is the bee that you just saw.</p>\n                    <img src=\"bees-with-color/bee-B1SF.svg\" width=\"200\">\n                    <p><br>Your bonus pay is unchanged, and remains at $0.66.</p>\n            ","response":0,"trial_type":"html-button-response","trial_index":54,"time_elapsed":622347,"internal_node_id":"0.0-4.0-1.23","subject_id":"5eb160d9653c15056ac72f08","study_id":"60edd13110225f80f9f3709b","session_id":"6196cbaeb06ca2a631c2f29c","condition":"contingent","relevant_dimensions":["wings","legs"],"bee_group":{"antennae":"X","wings":"2","pattern":"X","legs":"F"},"bonus":1.4000000000000008},{"rt":984.7000000476837,"stimulus":"bees-with-color/bee-A1DF.svg","response":1,"trial_type":"image-button-response","trial_index":55,"time_elapsed":623333,"internal_node_id":"0.0-4.0-0.24","subject_id":"5eb160d9653c15056ac72f08","study_id":"60edd13110225f80f9f3709b","session_id":"6196cbaeb06ca2a631c2f29c","condition":"contingent","relevant_dimensions":["wings","legs"],"bee_group":{"antennae":"X","wings":"2","pattern":"X","legs":"F"},"action":"avoid","summary":"bad-avoid","bonus":1.4000000000000008},{"rt":535.7000000476837,"stimulus":"\n                    <p><b>Action: <em>avoid</em></b></p>\n                    <p>This is the bee that you just saw.</p>\n                    <img src=\"bees-with-color/bee-A1DF.svg\" width=\"200\">\n                    <p><br>Your bonus pay is unchanged, and remains at $0.66.</p>\n            ","response":0,"trial_type":"html-button-response","trial_index":56,"time_elapsed":623870,"internal_node_id":"0.0-4.0-1.24","subject_id":"5eb160d9653c15056ac72f08","study_id":"60edd13110225f80f9f3709b","session_id":"6196cbaeb06ca2a631c2f29c","condition":"contingent","relevant_dimensions":["wings","legs"],"bee_group":{"antennae":"X","wings":"2","pattern":"X","legs":"F"},"bonus":1.4000000000000008},{"rt":1177.7999999523163,"stimulus":"bees-with-color/bee-A1DM.svg","response":0,"trial_type":"image-button-response","trial_index":57,"time_elapsed":625049,"internal_node_id":"0.0-4.0-0.25","subject_id":"5eb160d9653c15056ac72f08","study_id":"60edd13110225f80f9f3709b","session_id":"6196cbaeb06ca2a631c2f29c","condition":"contingent","relevant_dimensions":["wings","legs"],"bee_group":{"antennae":"X","wings":"2","pattern":"X","legs":"F"},"action":"harvest","summary":"good-harvest","bonus":1.4000000000000008},{"rt":946,"stimulus":"\n                    <p><b>Action: <em>harvest</em></b></p>\n                    <p>This is the bee that you just saw.</p>\n                    <img src=\"bees-with-color/bee-A1DM.svg\" width=\"200\">\n                    <p><span class=\"greenText\"><b>Successful harvest!</b></span><br>Your pay has increased by $0.02. Your bonus pay is now $0.68.</p>\n            ","response":0,"trial_type":"html-button-response","trial_index":58,"time_elapsed":625996,"internal_node_id":"0.0-4.0-1.25","subject_id":"5eb160d9653c15056ac72f08","study_id":"60edd13110225f80f9f3709b","session_id":"6196cbaeb06ca2a631c2f29c","condition":"contingent","relevant_dimensions":["wings","legs"],"bee_group":{"antennae":"X","wings":"2","pattern":"X","legs":"F"},"bonus":1.4000000000000008},{"rt":4299.100000023842,"stimulus":"bees-with-color/bee-B2SF.svg","response":1,"trial_type":"image-button-response","trial_index":59,"time_elapsed":630296,"internal_node_id":"0.0-4.0-0.26","subject_id":"5eb160d9653c15056ac72f08","study_id":"60edd13110225f80f9f3709b","session_id":"6196cbaeb06ca2a631c2f29c","condition":"contingent","relevant_dimensions":["wings","legs"],"bee_group":{"antennae":"X","wings":"2","pattern":"X","legs":"F"},"action":"avoid","summary":"good-avoid","bonus":1.4000000000000008},{"rt":1818.6999999284744,"stimulus":"\n                    <p><b>Action: <em>avoid</em></b></p>\n                    <p>This is the bee that you just saw.</p>\n                    <img src=\"bees-with-color/bee-B2SF.svg\" width=\"200\">\n                    <p><br>Your bonus pay is unchanged, and remains at $0.68.</p>\n            ","response":0,"trial_type":"html-button-response","trial_index":60,"time_elapsed":632116,"internal_node_id":"0.0-4.0-1.26","subject_id":"5eb160d9653c15056ac72f08","study_id":"60edd13110225f80f9f3709b","session_id":"6196cbaeb06ca2a631c2f29c","condition":"contingent","relevant_dimensions":["wings","legs"],"bee_group":{"antennae":"X","wings":"2","pattern":"X","legs":"F"},"bonus":1.4000000000000008},{"rt":782.6000000238419,"stimulus":"bees-with-color/bee-A2SF.svg","response":1,"trial_type":"image-button-response","trial_index":61,"time_elapsed":632900,"internal_node_id":"0.0-4.0-0.27","subject_id":"5eb160d9653c15056ac72f08","study_id":"60edd13110225f80f9f3709b","session_id":"6196cbaeb06ca2a631c2f29c","condition":"contingent","relevant_dimensions":["wings","legs"],"bee_group":{"antennae":"X","wings":"2","pattern":"X","legs":"F"},"action":"avoid","summary":"good-avoid","bonus":1.4000000000000008},{"rt":905.6999999284744,"stimulus":"\n                    <p><b>Action: <em>avoid</em></b></p>\n                    <p>This is the bee that you just saw.</p>\n                    <img src=\"bees-with-color/bee-A2SF.svg\" width=\"200\">\n                    <p><br>Your bonus pay is unchanged, and remains at $0.68.</p>\n            ","response":0,"trial_type":"html-button-response","trial_index":62,"time_elapsed":633807,"internal_node_id":"0.0-4.0-1.27","subject_id":"5eb160d9653c15056ac72f08","study_id":"60edd13110225f80f9f3709b","session_id":"6196cbaeb06ca2a631c2f29c","condition":"contingent","relevant_dimensions":["wings","legs"],"bee_group":{"antennae":"X","wings":"2","pattern":"X","legs":"F"},"bonus":1.4000000000000008},{"rt":754,"stimulus":"bees-with-color/bee-B2SM.svg","response":0,"trial_type":"image-button-response","trial_index":63,"time_elapsed":634562,"internal_node_id":"0.0-4.0-0.28","subject_id":"5eb160d9653c15056ac72f08","study_id":"60edd13110225f80f9f3709b","session_id":"6196cbaeb06ca2a631c2f29c","condition":"contingent","relevant_dimensions":["wings","legs"],"bee_group":{"antennae":"X","wings":"2","pattern":"X","legs":"F"},"action":"harvest","summary":"good-harvest","bonus":1.4000000000000008},{"rt":899.6999999284744,"stimulus":"\n                    <p><b>Action: <em>harvest</em></b></p>\n                    <p>This is the bee that you just saw.</p>\n                    <img src=\"bees-with-color/bee-B2SM.svg\" width=\"200\">\n                    <p><span class=\"greenText\"><b>Successful harvest!</b></span><br>Your pay has increased by $0.02. Your bonus pay is now $0.70.</p>\n            ","response":0,"trial_type":"html-button-response","trial_index":64,"time_elapsed":635463,"internal_node_id":"0.0-4.0-1.28","subject_id":"5eb160d9653c15056ac72f08","study_id":"60edd13110225f80f9f3709b","session_id":"6196cbaeb06ca2a631c2f29c","condition":"contingent","relevant_dimensions":["wings","legs"],"bee_group":{"antennae":"X","wings":"2","pattern":"X","legs":"F"},"bonus":1.4000000000000008},{"rt":1372,"stimulus":"bees-with-color/bee-A2DM.svg","response":0,"trial_type":"image-button-response","trial_index":65,"time_elapsed":636836,"internal_node_id":"0.0-4.0-0.29","subject_id":"5eb160d9653c15056ac72f08","study_id":"60edd13110225f80f9f3709b","session_id":"6196cbaeb06ca2a631c2f29c","condition":"contingent","relevant_dimensions":["wings","legs"],"bee_group":{"antennae":"X","wings":"2","pattern":"X","legs":"F"},"action":"harvest","summary":"good-harvest","bonus":1.4000000000000008},{"rt":1040.5999999046326,"stimulus":"\n                    <p><b>Action: <em>harvest</em></b></p>\n                    <p>This is the bee that you just saw.</p>\n                    <img src=\"bees-with-color/bee-A2DM.svg\" width=\"200\">\n                    <p><span class=\"greenText\"><b>Successful harvest!</b></span><br>Your pay has increased by $0.02. Your bonus pay is now $0.72.</p>\n            ","response":0,"trial_type":"html-button-response","trial_index":66,"time_elapsed":637878,"internal_node_id":"0.0-4.0-1.29","subject_id":"5eb160d9653c15056ac72f08","study_id":"60edd13110225f80f9f3709b","session_id":"6196cbaeb06ca2a631c2f29c","condition":"contingent","relevant_dimensions":["wings","legs"],"bee_group":{"antennae":"X","wings":"2","pattern":"X","legs":"F"},"bonus":1.4000000000000008},{"rt":1069.7000000476837,"stimulus":"bees-with-color/bee-B1SM.svg","response":0,"trial_type":"image-button-response","trial_index":67,"time_elapsed":638949,"internal_node_id":"0.0-4.0-0.30","subject_id":"5eb160d9653c15056ac72f08","study_id":"60edd13110225f80f9f3709b","session_id":"6196cbaeb06ca2a631c2f29c","condition":"contingent","relevant_dimensions":["wings","legs"],"bee_group":{"antennae":"X","wings":"2","pattern":"X","legs":"F"},"action":"harvest","summary":"good-harvest","bonus":1.4000000000000008},{"rt":760.5,"stimulus":"\n                    <p><b>Action: <em>harvest</em></b></p>\n                    <p>This is the bee that you just saw.</p>\n                    <img src=\"bees-with-color/bee-B1SM.svg\" width=\"200\">\n                    <p><span class=\"greenText\"><b>Successful harvest!</b></span><br>Your pay has increased by $0.02. Your bonus pay is now $0.74.</p>\n            ","response":0,"trial_type":"html-button-response","trial_index":68,"time_elapsed":639711,"internal_node_id":"0.0-4.0-1.30","subject_id":"5eb160d9653c15056ac72f08","study_id":"60edd13110225f80f9f3709b","session_id":"6196cbaeb06ca2a631c2f29c","condition":"contingent","relevant_dimensions":["wings","legs"],"bee_group":{"antennae":"X","wings":"2","pattern":"X","legs":"F"},"bonus":1.4000000000000008},{"rt":784.8999999761581,"stimulus":"bees-with-color/bee-B1DM.svg","response":0,"trial_type":"image-button-response","trial_index":69,"time_elapsed":640497,"internal_node_id":"0.0-4.0-0.31","subject_id":"5eb160d9653c15056ac72f08","study_id":"60edd13110225f80f9f3709b","session_id":"6196cbaeb06ca2a631c2f29c","condition":"contingent","relevant_dimensions":["wings","legs"],"bee_group":{"antennae":"X","wings":"2","pattern":"X","legs":"F"},"action":"harvest","summary":"good-harvest","bonus":1.4000000000000008},{"rt":927.6999999284744,"stimulus":"\n                    <p><b>Action: <em>harvest</em></b></p>\n                    <p>This is the bee that you just saw.</p>\n                    <img src=\"bees-with-color/bee-B1DM.svg\" width=\"200\">\n                    <p><span class=\"greenText\"><b>Successful harvest!</b></span><br>Your pay has increased by $0.02. Your bonus pay is now $0.76.</p>\n            ","response":0,"trial_type":"html-button-response","trial_index":70,"time_elapsed":641426,"internal_node_id":"0.0-4.0-1.31","subject_id":"5eb160d9653c15056ac72f08","study_id":"60edd13110225f80f9f3709b","session_id":"6196cbaeb06ca2a631c2f29c","condition":"contingent","relevant_dimensions":["wings","legs"],"bee_group":{"antennae":"X","wings":"2","pattern":"X","legs":"F"},"bonus":1.4000000000000008},{"rt":816.8000000715256,"stimulus":"bees-with-color/bee-A1DF.svg","response":1,"trial_type":"image-button-response","trial_index":71,"time_elapsed":642244,"internal_node_id":"0.0-4.0-0.32","subject_id":"5eb160d9653c15056ac72f08","study_id":"60edd13110225f80f9f3709b","session_id":"6196cbaeb06ca2a631c2f29c","condition":"contingent","relevant_dimensions":["wings","legs"],"bee_group":{"antennae":"X","wings":"2","pattern":"X","legs":"F"},"action":"avoid","summary":"bad-avoid","bonus":1.4000000000000008},{"rt":677.6999999284744,"stimulus":"\n                    <p><b>Action: <em>avoid</em></b></p>\n                    <p>This is the bee that you just saw.</p>\n                    <img src=\"bees-with-color/bee-A1DF.svg\" width=\"200\">\n                    <p><br>Your bonus pay is unchanged, and remains at $0.76.</p>\n            ","response":0,"trial_type":"html-button-response","trial_index":72,"time_elapsed":642923,"internal_node_id":"0.0-4.0-1.32","subject_id":"5eb160d9653c15056ac72f08","study_id":"60edd13110225f80f9f3709b","session_id":"6196cbaeb06ca2a631c2f29c","condition":"contingent","relevant_dimensions":["wings","legs"],"bee_group":{"antennae":"X","wings":"2","pattern":"X","legs":"F"},"bonus":1.4000000000000008},{"rt":3416.600000023842,"stimulus":"bees-with-color/bee-B1SM.svg","response":0,"trial_type":"image-button-response","trial_index":73,"time_elapsed":646341,"internal_node_id":"0.0-4.0-0.33","subject_id":"5eb160d9653c15056ac72f08","study_id":"60edd13110225f80f9f3709b","session_id":"6196cbaeb06ca2a631c2f29c","condition":"contingent","relevant_dimensions":["wings","legs"],"bee_group":{"antennae":"X","wings":"2","pattern":"X","legs":"F"},"action":"harvest","summary":"good-harvest","bonus":1.4000000000000008},{"rt":1083.7999999523163,"stimulus":"\n                    <p><b>Action: <em>harvest</em></b></p>\n                    <p>This is the bee that you just saw.</p>\n                    <img src=\"bees-with-color/bee-B1SM.svg\" width=\"200\">\n                    <p><span class=\"greenText\"><b>Successful harvest!</b></span><br>Your pay has increased by $0.02. Your bonus pay is now $0.78.</p>\n            ","response":0,"trial_type":"html-button-response","trial_index":74,"time_elapsed":647426,"internal_node_id":"0.0-4.0-1.33","subject_id":"5eb160d9653c15056ac72f08","study_id":"60edd13110225f80f9f3709b","session_id":"6196cbaeb06ca2a631c2f29c","condition":"contingent","relevant_dimensions":["wings","legs"],"bee_group":{"antennae":"X","wings":"2","pattern":"X","legs":"F"},"bonus":1.4000000000000008},{"rt":914.7000000476837,"stimulus":"bees-with-color/bee-A2DF.svg","response":1,"trial_type":"image-button-response","trial_index":75,"time_elapsed":648342,"internal_node_id":"0.0-4.0-0.34","subject_id":"5eb160d9653c15056ac72f08","study_id":"60edd13110225f80f9f3709b","session_id":"6196cbaeb06ca2a631c2f29c","condition":"contingent","relevant_dimensions":["wings","legs"],"bee_group":{"antennae":"X","wings":"2","pattern":"X","legs":"F"},"action":"avoid","summary":"good-avoid","bonus":1.4000000000000008},{"rt":615.6000000238419,"stimulus":"\n                    <p><b>Action: <em>avoid</em></b></p>\n                    <p>This is the bee that you just saw.</p>\n                    <img src=\"bees-with-color/bee-A2DF.svg\" width=\"200\">\n                    <p><br>Your bonus pay is unchanged, and remains at $0.78.</p>\n            ","response":0,"trial_type":"html-button-response","trial_index":76,"time_elapsed":648958,"internal_node_id":"0.0-4.0-1.34","subject_id":"5eb160d9653c15056ac72f08","study_id":"60edd13110225f80f9f3709b","session_id":"6196cbaeb06ca2a631c2f29c","condition":"contingent","relevant_dimensions":["wings","legs"],"bee_group":{"antennae":"X","wings":"2","pattern":"X","legs":"F"},"bonus":1.4000000000000008},{"rt":875.3999999761581,"stimulus":"bees-with-color/bee-B2DM.svg","response":0,"trial_type":"image-button-response","trial_index":77,"time_elapsed":649834,"internal_node_id":"0.0-4.0-0.35","subject_id":"5eb160d9653c15056ac72f08","study_id":"60edd13110225f80f9f3709b","session_id":"6196cbaeb06ca2a631c2f29c","condition":"contingent","relevant_dimensions":["wings","legs"],"bee_group":{"antennae":"X","wings":"2","pattern":"X","legs":"F"},"action":"harvest","summary":"good-harvest","bonus":1.4000000000000008},{"rt":679.8999999761581,"stimulus":"\n                    <p><b>Action: <em>harvest</em></b></p>\n                    <p>This is the bee that you just saw.</p>\n                    <img src=\"bees-with-color/bee-B2DM.svg\" width=\"200\">\n                    <p><span class=\"greenText\"><b>Successful harvest!</b></span><br>Your pay has increased by $0.02. Your bonus pay is now $0.80.</p>\n            ","response":0,"trial_type":"html-button-response","trial_index":78,"time_elapsed":650515,"internal_node_id":"0.0-4.0-1.35","subject_id":"5eb160d9653c15056ac72f08","study_id":"60edd13110225f80f9f3709b","session_id":"6196cbaeb06ca2a631c2f29c","condition":"contingent","relevant_dimensions":["wings","legs"],"bee_group":{"antennae":"X","wings":"2","pattern":"X","legs":"F"},"bonus":1.4000000000000008},{"rt":1969.2000000476837,"stimulus":"bees-with-color/bee-B2DF.svg","response":1,"trial_type":"image-button-response","trial_index":79,"time_elapsed":652486,"internal_node_id":"0.0-4.0-0.36","subject_id":"5eb160d9653c15056ac72f08","study_id":"60edd13110225f80f9f3709b","session_id":"6196cbaeb06ca2a631c2f29c","condition":"contingent","relevant_dimensions":["wings","legs"],"bee_group":{"antennae":"X","wings":"2","pattern":"X","legs":"F"},"action":"avoid","summary":"good-avoid","bonus":1.4000000000000008},{"rt":825,"stimulus":"\n                    <p><b>Action: <em>avoid</em></b></p>\n                    <p>This is the bee that you just saw.</p>\n                    <img src=\"bees-with-color/bee-B2DF.svg\" width=\"200\">\n                    <p><br>Your bonus pay is unchanged, and remains at $0.80.</p>\n            ","response":0,"trial_type":"html-button-response","trial_index":80,"time_elapsed":653312,"internal_node_id":"0.0-4.0-1.36","subject_id":"5eb160d9653c15056ac72f08","study_id":"60edd13110225f80f9f3709b","session_id":"6196cbaeb06ca2a631c2f29c","condition":"contingent","relevant_dimensions":["wings","legs"],"bee_group":{"antennae":"X","wings":"2","pattern":"X","legs":"F"},"bonus":1.4000000000000008},{"rt":1263.1000000238419,"stimulus":"bees-with-color/bee-A1SF.svg","response":1,"trial_type":"image-button-response","trial_index":81,"time_elapsed":654576,"internal_node_id":"0.0-4.0-0.37","subject_id":"5eb160d9653c15056ac72f08","study_id":"60edd13110225f80f9f3709b","session_id":"6196cbaeb06ca2a631c2f29c","condition":"contingent","relevant_dimensions":["wings","legs"],"bee_group":{"antennae":"X","wings":"2","pattern":"X","legs":"F"},"action":"avoid","summary":"bad-avoid","bonus":1.4000000000000008},{"rt":1396.8999999761581,"stimulus":"\n                    <p><b>Action: <em>avoid</em></b></p>\n                    <p>This is the bee that you just saw.</p>\n                    <img src=\"bees-with-color/bee-A1SF.svg\" width=\"200\">\n                    <p><br>Your bonus pay is unchanged, and remains at $0.80.</p>\n            ","response":0,"trial_type":"html-button-response","trial_index":82,"time_elapsed":655974,"internal_node_id":"0.0-4.0-1.37","subject_id":"5eb160d9653c15056ac72f08","study_id":"60edd13110225f80f9f3709b","session_id":"6196cbaeb06ca2a631c2f29c","condition":"contingent","relevant_dimensions":["wings","legs"],"bee_group":{"antennae":"X","wings":"2","pattern":"X","legs":"F"},"bonus":1.4000000000000008},{"rt":803.2000000476837,"stimulus":"bees-with-color/bee-B1SF.svg","response":1,"trial_type":"image-button-response","trial_index":83,"time_elapsed":656779,"internal_node_id":"0.0-4.0-0.38","subject_id":"5eb160d9653c15056ac72f08","study_id":"60edd13110225f80f9f3709b","session_id":"6196cbaeb06ca2a631c2f29c","condition":"contingent","relevant_dimensions":["wings","legs"],"bee_group":{"antennae":"X","wings":"2","pattern":"X","legs":"F"},"action":"avoid","summary":"bad-avoid","bonus":1.4000000000000008},{"rt":531.8999999761581,"stimulus":"\n                    <p><b>Action: <em>avoid</em></b></p>\n                    <p>This is the bee that you just saw.</p>\n                    <img src=\"bees-with-color/bee-B1SF.svg\" width=\"200\">\n                    <p><br>Your bonus pay is unchanged, and remains at $0.80.</p>\n            ","response":0,"trial_type":"html-button-response","trial_index":84,"time_elapsed":657312,"internal_node_id":"0.0-4.0-1.38","subject_id":"5eb160d9653c15056ac72f08","study_id":"60edd13110225f80f9f3709b","session_id":"6196cbaeb06ca2a631c2f29c","condition":"contingent","relevant_dimensions":["wings","legs"],"bee_group":{"antennae":"X","wings":"2","pattern":"X","legs":"F"},"bonus":1.4000000000000008},{"rt":793.8000000715256,"stimulus":"bees-with-color/bee-A2DM.svg","response":0,"trial_type":"image-button-response","trial_index":85,"time_elapsed":658107,"internal_node_id":"0.0-4.0-0.39","subject_id":"5eb160d9653c15056ac72f08","study_id":"60edd13110225f80f9f3709b","session_id":"6196cbaeb06ca2a631c2f29c","condition":"contingent","relevant_dimensions":["wings","legs"],"bee_group":{"antennae":"X","wings":"2","pattern":"X","legs":"F"},"action":"harvest","summary":"good-harvest","bonus":1.4000000000000008},{"rt":694.5,"stimulus":"\n                    <p><b>Action: <em>harvest</em></b></p>\n                    <p>This is the bee that you just saw.</p>\n                    <img src=\"bees-with-color/bee-A2DM.svg\" width=\"200\">\n                    <p><span class=\"greenText\"><b>Successful harvest!</b></span><br>Your pay has increased by $0.02. Your bonus pay is now $0.82.</p>\n            ","response":0,"trial_type":"html-button-response","trial_index":86,"time_elapsed":658803,"internal_node_id":"0.0-4.0-1.39","subject_id":"5eb160d9653c15056ac72f08","study_id":"60edd13110225f80f9f3709b","session_id":"6196cbaeb06ca2a631c2f29c","condition":"contingent","relevant_dimensions":["wings","legs"],"bee_group":{"antennae":"X","wings":"2","pattern":"X","legs":"F"},"bonus":1.4000000000000008},{"rt":1105.7999999523163,"stimulus":"bees-with-color/bee-B2SF.svg","response":1,"trial_type":"image-button-response","trial_index":87,"time_elapsed":659910,"internal_node_id":"0.0-4.0-0.40","subject_id":"5eb160d9653c15056ac72f08","study_id":"60edd13110225f80f9f3709b","session_id":"6196cbaeb06ca2a631c2f29c","condition":"contingent","relevant_dimensions":["wings","legs"],"bee_group":{"antennae":"X","wings":"2","pattern":"X","legs":"F"},"action":"avoid","summary":"good-avoid","bonus":1.4000000000000008},{"rt":738.6000000238419,"stimulus":"\n                    <p><b>Action: <em>avoid</em></b></p>\n                    <p>This is the bee that you just saw.</p>\n                    <img src=\"bees-with-color/bee-B2SF.svg\" width=\"200\">\n                    <p><br>Your bonus pay is unchanged, and remains at $0.82.</p>\n            ","response":0,"trial_type":"html-button-response","trial_index":88,"time_elapsed":660650,"internal_node_id":"0.0-4.0-1.40","subject_id":"5eb160d9653c15056ac72f08","study_id":"60edd13110225f80f9f3709b","session_id":"6196cbaeb06ca2a631c2f29c","condition":"contingent","relevant_dimensions":["wings","legs"],"bee_group":{"antennae":"X","wings":"2","pattern":"X","legs":"F"},"bonus":1.4000000000000008},{"rt":749.8000000715256,"stimulus":"bees-with-color/bee-B2SM.svg","response":0,"trial_type":"image-button-response","trial_index":89,"time_elapsed":661401,"internal_node_id":"0.0-4.0-0.41","subject_id":"5eb160d9653c15056ac72f08","study_id":"60edd13110225f80f9f3709b","session_id":"6196cbaeb06ca2a631c2f29c","condition":"contingent","relevant_dimensions":["wings","legs"],"bee_group":{"antennae":"X","wings":"2","pattern":"X","legs":"F"},"action":"harvest","summary":"good-harvest","bonus":1.4000000000000008},{"rt":639.6000000238419,"stimulus":"\n                    <p><b>Action: <em>harvest</em></b></p>\n                    <p>This is the bee that you just saw.</p>\n                    <img src=\"bees-with-color/bee-B2SM.svg\" width=\"200\">\n                    <p><span class=\"greenText\"><b>Successful harvest!</b></span><br>Your pay has increased by $0.02. Your bonus pay is now $0.84.</p>\n            ","response":0,"trial_type":"html-button-response","trial_index":90,"time_elapsed":662042,"internal_node_id":"0.0-4.0-1.41","subject_id":"5eb160d9653c15056ac72f08","study_id":"60edd13110225f80f9f3709b","session_id":"6196cbaeb06ca2a631c2f29c","condition":"contingent","relevant_dimensions":["wings","legs"],"bee_group":{"antennae":"X","wings":"2","pattern":"X","legs":"F"},"bonus":1.4000000000000008},{"rt":751,"stimulus":"bees-with-color/bee-B1DF.svg","response":1,"trial_type":"image-button-response","trial_index":91,"time_elapsed":662794,"internal_node_id":"0.0-4.0-0.42","subject_id":"5eb160d9653c15056ac72f08","study_id":"60edd13110225f80f9f3709b","session_id":"6196cbaeb06ca2a631c2f29c","condition":"contingent","relevant_dimensions":["wings","legs"],"bee_group":{"antennae":"X","wings":"2","pattern":"X","legs":"F"},"action":"avoid","summary":"bad-avoid","bonus":1.4000000000000008},{"rt":851.8999999761581,"stimulus":"\n                    <p><b>Action: <em>avoid</em></b></p>\n                    <p>This is the bee that you just saw.</p>\n                    <img src=\"bees-with-color/bee-B1DF.svg\" width=\"200\">\n                    <p><br>Your bonus pay is unchanged, and remains at $0.84.</p>\n            ","response":0,"trial_type":"html-button-response","trial_index":92,"time_elapsed":663647,"internal_node_id":"0.0-4.0-1.42","subject_id":"5eb160d9653c15056ac72f08","study_id":"60edd13110225f80f9f3709b","session_id":"6196cbaeb06ca2a631c2f29c","condition":"contingent","relevant_dimensions":["wings","legs"],"bee_group":{"antennae":"X","wings":"2","pattern":"X","legs":"F"},"bonus":1.4000000000000008},{"rt":835.6999999284744,"stimulus":"bees-with-color/bee-A2SM.svg","response":0,"trial_type":"image-button-response","trial_index":93,"time_elapsed":664484,"internal_node_id":"0.0-4.0-0.43","subject_id":"5eb160d9653c15056ac72f08","study_id":"60edd13110225f80f9f3709b","session_id":"6196cbaeb06ca2a631c2f29c","condition":"contingent","relevant_dimensions":["wings","legs"],"bee_group":{"antennae":"X","wings":"2","pattern":"X","legs":"F"},"action":"harvest","summary":"good-harvest","bonus":1.4000000000000008},{"rt":923.7999999523163,"stimulus":"\n                    <p><b>Action: <em>harvest</em></b></p>\n                    <p>This is the bee that you just saw.</p>\n                    <img src=\"bees-with-color/bee-A2SM.svg\" width=\"200\">\n                    <p><span class=\"greenText\"><b>Successful harvest!</b></span><br>Your pay has increased by $0.02. Your bonus pay is now $0.86.</p>\n            ","response":0,"trial_type":"html-button-response","trial_index":94,"time_elapsed":665408,"internal_node_id":"0.0-4.0-1.43","subject_id":"5eb160d9653c15056ac72f08","study_id":"60edd13110225f80f9f3709b","session_id":"6196cbaeb06ca2a631c2f29c","condition":"contingent","relevant_dimensions":["wings","legs"],"bee_group":{"antennae":"X","wings":"2","pattern":"X","legs":"F"},"bonus":1.4000000000000008},{"rt":788.1000000238419,"stimulus":"bees-with-color/bee-A2SF.svg","response":1,"trial_type":"image-button-response","trial_index":95,"time_elapsed":666198,"internal_node_id":"0.0-4.0-0.44","subject_id":"5eb160d9653c15056ac72f08","study_id":"60edd13110225f80f9f3709b","session_id":"6196cbaeb06ca2a631c2f29c","condition":"contingent","relevant_dimensions":["wings","legs"],"bee_group":{"antennae":"X","wings":"2","pattern":"X","legs":"F"},"action":"avoid","summary":"good-avoid","bonus":1.4000000000000008},{"rt":797.6000000238419,"stimulus":"\n                    <p><b>Action: <em>avoid</em></b></p>\n                    <p>This is the bee that you just saw.</p>\n                    <img src=\"bees-with-color/bee-A2SF.svg\" width=\"200\">\n                    <p><br>Your bonus pay is unchanged, and remains at $0.86.</p>\n            ","response":0,"trial_type":"html-button-response","trial_index":96,"time_elapsed":666997,"internal_node_id":"0.0-4.0-1.44","subject_id":"5eb160d9653c15056ac72f08","study_id":"60edd13110225f80f9f3709b","session_id":"6196cbaeb06ca2a631c2f29c","condition":"contingent","relevant_dimensions":["wings","legs"],"bee_group":{"antennae":"X","wings":"2","pattern":"X","legs":"F"},"bonus":1.4000000000000008},{"rt":2541.899999976158,"stimulus":"bees-with-color/bee-A1SM.svg","response":0,"trial_type":"image-button-response","trial_index":97,"time_elapsed":669540,"internal_node_id":"0.0-4.0-0.45","subject_id":"5eb160d9653c15056ac72f08","study_id":"60edd13110225f80f9f3709b","session_id":"6196cbaeb06ca2a631c2f29c","condition":"contingent","relevant_dimensions":["wings","legs"],"bee_group":{"antennae":"X","wings":"2","pattern":"X","legs":"F"},"action":"harvest","summary":"good-harvest","bonus":1.4000000000000008},{"rt":888.5999999046326,"stimulus":"\n                    <p><b>Action: <em>harvest</em></b></p>\n                    <p>This is the bee that you just saw.</p>\n                    <img src=\"bees-with-color/bee-A1SM.svg\" width=\"200\">\n                    <p><span class=\"greenText\"><b>Successful harvest!</b></span><br>Your pay has increased by $0.02. Your bonus pay is now $0.88.</p>\n            ","response":0,"trial_type":"html-button-response","trial_index":98,"time_elapsed":670430,"internal_node_id":"0.0-4.0-1.45","subject_id":"5eb160d9653c15056ac72f08","study_id":"60edd13110225f80f9f3709b","session_id":"6196cbaeb06ca2a631c2f29c","condition":"contingent","relevant_dimensions":["wings","legs"],"bee_group":{"antennae":"X","wings":"2","pattern":"X","legs":"F"},"bonus":1.4000000000000008},{"rt":787.8999999761581,"stimulus":"bees-with-color/bee-B1DM.svg","response":0,"trial_type":"image-button-response","trial_index":99,"time_elapsed":671219,"internal_node_id":"0.0-4.0-0.46","subject_id":"5eb160d9653c15056ac72f08","study_id":"60edd13110225f80f9f3709b","session_id":"6196cbaeb06ca2a631c2f29c","condition":"contingent","relevant_dimensions":["wings","legs"],"bee_group":{"antennae":"X","wings":"2","pattern":"X","legs":"F"},"action":"harvest","summary":"good-harvest","bonus":1.4000000000000008},{"rt":904.3999999761581,"stimulus":"\n                    <p><b>Action: <em>harvest</em></b></p>\n                    <p>This is the bee that you just saw.</p>\n                    <img src=\"bees-with-color/bee-B1DM.svg\" width=\"200\">\n                    <p><span class=\"greenText\"><b>Successful harvest!</b></span><br>Your pay has increased by $0.02. Your bonus pay is now $0.90.</p>\n            ","response":0,"trial_type":"html-button-response","trial_index":100,"time_elapsed":672125,"internal_node_id":"0.0-4.0-1.46","subject_id":"5eb160d9653c15056ac72f08","study_id":"60edd13110225f80f9f3709b","session_id":"6196cbaeb06ca2a631c2f29c","condition":"contingent","relevant_dimensions":["wings","legs"],"bee_group":{"antennae":"X","wings":"2","pattern":"X","legs":"F"},"bonus":1.4000000000000008},{"rt":1534.5999999046326,"stimulus":"bees-with-color/bee-A1DM.svg","response":0,"trial_type":"image-button-response","trial_index":101,"time_elapsed":673660,"internal_node_id":"0.0-4.0-0.47","subject_id":"5eb160d9653c15056ac72f08","study_id":"60edd13110225f80f9f3709b","session_id":"6196cbaeb06ca2a631c2f29c","condition":"contingent","relevant_dimensions":["wings","legs"],"bee_group":{"antennae":"X","wings":"2","pattern":"X","legs":"F"},"action":"harvest","summary":"good-harvest","bonus":1.4000000000000008},{"rt":725.7000000476837,"stimulus":"\n                    <p><b>Action: <em>harvest</em></b></p>\n                    <p>This is the bee that you just saw.</p>\n                    <img src=\"bees-with-color/bee-A1DM.svg\" width=\"200\">\n                    <p><span class=\"greenText\"><b>Successful harvest!</b></span><br>Your pay has increased by $0.02. Your bonus pay is now $0.92.</p>\n            ","response":0,"trial_type":"html-button-response","trial_index":102,"time_elapsed":674387,"internal_node_id":"0.0-4.0-1.47","subject_id":"5eb160d9653c15056ac72f08","study_id":"60edd13110225f80f9f3709b","session_id":"6196cbaeb06ca2a631c2f29c","condition":"contingent","relevant_dimensions":["wings","legs"],"bee_group":{"antennae":"X","wings":"2","pattern":"X","legs":"F"},"bonus":1.4000000000000008},{"rt":1261.6000000238419,"stimulus":"bees-with-color/bee-B1DM.svg","response":0,"trial_type":"image-button-response","trial_index":103,"time_elapsed":675650,"internal_node_id":"0.0-4.0-0.48","subject_id":"5eb160d9653c15056ac72f08","study_id":"60edd13110225f80f9f3709b","session_id":"6196cbaeb06ca2a631c2f29c","condition":"contingent","relevant_dimensions":["wings","legs"],"bee_group":{"antennae":"X","wings":"2","pattern":"X","legs":"F"},"action":"harvest","summary":"good-harvest","bonus":1.4000000000000008},{"rt":636.9000000953674,"stimulus":"\n                    <p><b>Action: <em>harvest</em></b></p>\n                    <p>This is the bee that you just saw.</p>\n                    <img src=\"bees-with-color/bee-B1DM.svg\" width=\"200\">\n                    <p><span class=\"greenText\"><b>Successful harvest!</b></span><br>Your pay has increased by $0.02. Your bonus pay is now $0.94.</p>\n            ","response":0,"trial_type":"html-button-response","trial_index":104,"time_elapsed":676288,"internal_node_id":"0.0-4.0-1.48","subject_id":"5eb160d9653c15056ac72f08","study_id":"60edd13110225f80f9f3709b","session_id":"6196cbaeb06ca2a631c2f29c","condition":"contingent","relevant_dimensions":["wings","legs"],"bee_group":{"antennae":"X","wings":"2","pattern":"X","legs":"F"},"bonus":1.4000000000000008},{"rt":805.0999999046326,"stimulus":"bees-with-color/bee-B2DM.svg","response":0,"trial_type":"image-button-response","trial_index":105,"time_elapsed":677094,"internal_node_id":"0.0-4.0-0.49","subject_id":"5eb160d9653c15056ac72f08","study_id":"60edd13110225f80f9f3709b","session_id":"6196cbaeb06ca2a631c2f29c","condition":"contingent","relevant_dimensions":["wings","legs"],"bee_group":{"antennae":"X","wings":"2","pattern":"X","legs":"F"},"action":"harvest","summary":"good-harvest","bonus":1.4000000000000008},{"rt":672.8000000715256,"stimulus":"\n                    <p><b>Action: <em>harvest</em></b></p>\n                    <p>This is the bee that you just saw.</p>\n                    <img src=\"bees-with-color/bee-B2DM.svg\" width=\"200\">\n                    <p><span class=\"greenText\"><b>Successful harvest!</b></span><br>Your pay has increased by $0.02. Your bonus pay is now $0.96.</p>\n            ","response":0,"trial_type":"html-button-response","trial_index":106,"time_elapsed":677768,"internal_node_id":"0.0-4.0-1.49","subject_id":"5eb160d9653c15056ac72f08","study_id":"60edd13110225f80f9f3709b","session_id":"6196cbaeb06ca2a631c2f29c","condition":"contingent","relevant_dimensions":["wings","legs"],"bee_group":{"antennae":"X","wings":"2","pattern":"X","legs":"F"},"bonus":1.4000000000000008},{"rt":945.9000000953674,"stimulus":"bees-with-color/bee-A2SF.svg","response":1,"trial_type":"image-button-response","trial_index":107,"time_elapsed":678715,"internal_node_id":"0.0-4.0-0.50","subject_id":"5eb160d9653c15056ac72f08","study_id":"60edd13110225f80f9f3709b","session_id":"6196cbaeb06ca2a631c2f29c","condition":"contingent","relevant_dimensions":["wings","legs"],"bee_group":{"antennae":"X","wings":"2","pattern":"X","legs":"F"},"action":"avoid","summary":"good-avoid","bonus":1.4000000000000008},{"rt":744.8000000715256,"stimulus":"\n                    <p><b>Action: <em>avoid</em></b></p>\n                    <p>This is the bee that you just saw.</p>\n                    <img src=\"bees-with-color/bee-A2SF.svg\" width=\"200\">\n                    <p><br>Your bonus pay is unchanged, and remains at $0.96.</p>\n            ","response":0,"trial_type":"html-button-response","trial_index":108,"time_elapsed":679461,"internal_node_id":"0.0-4.0-1.50","subject_id":"5eb160d9653c15056ac72f08","study_id":"60edd13110225f80f9f3709b","session_id":"6196cbaeb06ca2a631c2f29c","condition":"contingent","relevant_dimensions":["wings","legs"],"bee_group":{"antennae":"X","wings":"2","pattern":"X","legs":"F"},"bonus":1.4000000000000008},{"rt":688.2000000476837,"stimulus":"bees-with-color/bee-B2SF.svg","response":1,"trial_type":"image-button-response","trial_index":109,"time_elapsed":680151,"internal_node_id":"0.0-4.0-0.51","subject_id":"5eb160d9653c15056ac72f08","study_id":"60edd13110225f80f9f3709b","session_id":"6196cbaeb06ca2a631c2f29c","condition":"contingent","relevant_dimensions":["wings","legs"],"bee_group":{"antennae":"X","wings":"2","pattern":"X","legs":"F"},"action":"avoid","summary":"good-avoid","bonus":1.4000000000000008},{"rt":815.2000000476837,"stimulus":"\n                    <p><b>Action: <em>avoid</em></b></p>\n                    <p>This is the bee that you just saw.</p>\n                    <img src=\"bees-with-color/bee-B2SF.svg\" width=\"200\">\n                    <p><br>Your bonus pay is unchanged, and remains at $0.96.</p>\n            ","response":0,"trial_type":"html-button-response","trial_index":110,"time_elapsed":680967,"internal_node_id":"0.0-4.0-1.51","subject_id":"5eb160d9653c15056ac72f08","study_id":"60edd13110225f80f9f3709b","session_id":"6196cbaeb06ca2a631c2f29c","condition":"contingent","relevant_dimensions":["wings","legs"],"bee_group":{"antennae":"X","wings":"2","pattern":"X","legs":"F"},"bonus":1.4000000000000008},{"rt":827.8000000715256,"stimulus":"bees-with-color/bee-A2DM.svg","response":0,"trial_type":"image-button-response","trial_index":111,"time_elapsed":681796,"internal_node_id":"0.0-4.0-0.52","subject_id":"5eb160d9653c15056ac72f08","study_id":"60edd13110225f80f9f3709b","session_id":"6196cbaeb06ca2a631c2f29c","condition":"contingent","relevant_dimensions":["wings","legs"],"bee_group":{"antennae":"X","wings":"2","pattern":"X","legs":"F"},"action":"harvest","summary":"good-harvest","bonus":1.4000000000000008},{"rt":643.7000000476837,"stimulus":"\n                    <p><b>Action: <em>harvest</em></b></p>\n                    <p>This is the bee that you just saw.</p>\n                    <img src=\"bees-with-color/bee-A2DM.svg\" width=\"200\">\n                    <p><span class=\"greenText\"><b>Successful harvest!</b></span><br>Your pay has increased by $0.02. Your bonus pay is now $0.98.</p>\n            ","response":0,"trial_type":"html-button-response","trial_index":112,"time_elapsed":682441,"internal_node_id":"0.0-4.0-1.52","subject_id":"5eb160d9653c15056ac72f08","study_id":"60edd13110225f80f9f3709b","session_id":"6196cbaeb06ca2a631c2f29c","condition":"contingent","relevant_dimensions":["wings","legs"],"bee_group":{"antennae":"X","wings":"2","pattern":"X","legs":"F"},"bonus":1.4000000000000008},{"rt":757.8999999761581,"stimulus":"bees-with-color/bee-A1SM.svg","response":0,"trial_type":"image-button-response","trial_index":113,"time_elapsed":683200,"internal_node_id":"0.0-4.0-0.53","subject_id":"5eb160d9653c15056ac72f08","study_id":"60edd13110225f80f9f3709b","session_id":"6196cbaeb06ca2a631c2f29c","condition":"contingent","relevant_dimensions":["wings","legs"],"bee_group":{"antennae":"X","wings":"2","pattern":"X","legs":"F"},"action":"harvest","summary":"good-harvest","bonus":1.4000000000000008},{"rt":789.8999999761581,"stimulus":"\n                    <p><b>Action: <em>harvest</em></b></p>\n                    <p>This is the bee that you just saw.</p>\n                    <img src=\"bees-with-color/bee-A1SM.svg\" width=\"200\">\n                    <p><span class=\"greenText\"><b>Successful harvest!</b></span><br>Your pay has increased by $0.02. Your bonus pay is now $1.00.</p>\n            ","response":0,"trial_type":"html-button-response","trial_index":114,"time_elapsed":683991,"internal_node_id":"0.0-4.0-1.53","subject_id":"5eb160d9653c15056ac72f08","study_id":"60edd13110225f80f9f3709b","session_id":"6196cbaeb06ca2a631c2f29c","condition":"contingent","relevant_dimensions":["wings","legs"],"bee_group":{"antennae":"X","wings":"2","pattern":"X","legs":"F"},"bonus":1.4000000000000008},{"rt":796.5,"stimulus":"bees-with-color/bee-B2SM.svg","response":0,"trial_type":"image-button-response","trial_index":115,"time_elapsed":684789,"internal_node_id":"0.0-4.0-0.54","subject_id":"5eb160d9653c15056ac72f08","study_id":"60edd13110225f80f9f3709b","session_id":"6196cbaeb06ca2a631c2f29c","condition":"contingent","relevant_dimensions":["wings","legs"],"bee_group":{"antennae":"X","wings":"2","pattern":"X","legs":"F"},"action":"harvest","summary":"good-harvest","bonus":1.4000000000000008},{"rt":726.7000000476837,"stimulus":"\n                    <p><b>Action: <em>harvest</em></b></p>\n                    <p>This is the bee that you just saw.</p>\n                    <img src=\"bees-with-color/bee-B2SM.svg\" width=\"200\">\n                    <p><span class=\"greenText\"><b>Successful harvest!</b></span><br>Your pay has increased by $0.02. Your bonus pay is now $1.02.</p>\n            ","response":0,"trial_type":"html-button-response","trial_index":116,"time_elapsed":685517,"internal_node_id":"0.0-4.0-1.54","subject_id":"5eb160d9653c15056ac72f08","study_id":"60edd13110225f80f9f3709b","session_id":"6196cbaeb06ca2a631c2f29c","condition":"contingent","relevant_dimensions":["wings","legs"],"bee_group":{"antennae":"X","wings":"2","pattern":"X","legs":"F"},"bonus":1.4000000000000008},{"rt":1108.9000000953674,"stimulus":"bees-with-color/bee-A1DF.svg","response":1,"trial_type":"image-button-response","trial_index":117,"time_elapsed":686627,"internal_node_id":"0.0-4.0-0.55","subject_id":"5eb160d9653c15056ac72f08","study_id":"60edd13110225f80f9f3709b","session_id":"6196cbaeb06ca2a631c2f29c","condition":"contingent","relevant_dimensions":["wings","legs"],"bee_group":{"antennae":"X","wings":"2","pattern":"X","legs":"F"},"action":"avoid","summary":"bad-avoid","bonus":1.4000000000000008},{"rt":1243.2999999523163,"stimulus":"\n                    <p><b>Action: <em>avoid</em></b></p>\n                    <p>This is the bee that you just saw.</p>\n                    <img src=\"bees-with-color/bee-A1DF.svg\" width=\"200\">\n                    <p><br>Your bonus pay is unchanged, and remains at $1.02.</p>\n            ","response":0,"trial_type":"html-button-response","trial_index":118,"time_elapsed":687872,"internal_node_id":"0.0-4.0-1.55","subject_id":"5eb160d9653c15056ac72f08","study_id":"60edd13110225f80f9f3709b","session_id":"6196cbaeb06ca2a631c2f29c","condition":"contingent","relevant_dimensions":["wings","legs"],"bee_group":{"antennae":"X","wings":"2","pattern":"X","legs":"F"},"bonus":1.4000000000000008},{"rt":792.2999999523163,"stimulus":"bees-with-color/bee-A1SF.svg","response":1,"trial_type":"image-button-response","trial_index":119,"time_elapsed":688665,"internal_node_id":"0.0-4.0-0.56","subject_id":"5eb160d9653c15056ac72f08","study_id":"60edd13110225f80f9f3709b","session_id":"6196cbaeb06ca2a631c2f29c","condition":"contingent","relevant_dimensions":["wings","legs"],"bee_group":{"antennae":"X","wings":"2","pattern":"X","legs":"F"},"action":"avoid","summary":"bad-avoid","bonus":1.4000000000000008},{"rt":637.5,"stimulus":"\n                    <p><b>Action: <em>avoid</em></b></p>\n                    <p>This is the bee that you just saw.</p>\n                    <img src=\"bees-with-color/bee-A1SF.svg\" width=\"200\">\n                    <p><br>Your bonus pay is unchanged, and remains at $1.02.</p>\n            ","response":0,"trial_type":"html-button-response","trial_index":120,"time_elapsed":689304,"internal_node_id":"0.0-4.0-1.56","subject_id":"5eb160d9653c15056ac72f08","study_id":"60edd13110225f80f9f3709b","session_id":"6196cbaeb06ca2a631c2f29c","condition":"contingent","relevant_dimensions":["wings","legs"],"bee_group":{"antennae":"X","wings":"2","pattern":"X","legs":"F"},"bonus":1.4000000000000008},{"rt":705.8000000715256,"stimulus":"bees-with-color/bee-B1DF.svg","response":1,"trial_type":"image-button-response","trial_index":121,"time_elapsed":690011,"internal_node_id":"0.0-4.0-0.57","subject_id":"5eb160d9653c15056ac72f08","study_id":"60edd13110225f80f9f3709b","session_id":"6196cbaeb06ca2a631c2f29c","condition":"contingent","relevant_dimensions":["wings","legs"],"bee_group":{"antennae":"X","wings":"2","pattern":"X","legs":"F"},"action":"avoid","summary":"bad-avoid","bonus":1.4000000000000008},{"rt":644.7000000476837,"stimulus":"\n                    <p><b>Action: <em>avoid</em></b></p>\n                    <p>This is the bee that you just saw.</p>\n                    <img src=\"bees-with-color/bee-B1DF.svg\" width=\"200\">\n                    <p><br>Your bonus pay is unchanged, and remains at $1.02.</p>\n            ","response":0,"trial_type":"html-button-response","trial_index":122,"time_elapsed":690657,"internal_node_id":"0.0-4.0-1.57","subject_id":"5eb160d9653c15056ac72f08","study_id":"60edd13110225f80f9f3709b","session_id":"6196cbaeb06ca2a631c2f29c","condition":"contingent","relevant_dimensions":["wings","legs"],"bee_group":{"antennae":"X","wings":"2","pattern":"X","legs":"F"},"bonus":1.4000000000000008},{"rt":670.1000000238419,"stimulus":"bees-with-color/bee-B2DF.svg","response":1,"trial_type":"image-button-response","trial_index":123,"time_elapsed":691328,"internal_node_id":"0.0-4.0-0.58","subject_id":"5eb160d9653c15056ac72f08","study_id":"60edd13110225f80f9f3709b","session_id":"6196cbaeb06ca2a631c2f29c","condition":"contingent","relevant_dimensions":["wings","legs"],"bee_group":{"antennae":"X","wings":"2","pattern":"X","legs":"F"},"action":"avoid","summary":"good-avoid","bonus":1.4000000000000008},{"rt":543.7000000476837,"stimulus":"\n                    <p><b>Action: <em>avoid</em></b></p>\n                    <p>This is the bee that you just saw.</p>\n                    <img src=\"bees-with-color/bee-B2DF.svg\" width=\"200\">\n                    <p><br>Your bonus pay is unchanged, and remains at $1.02.</p>\n            ","response":0,"trial_type":"html-button-response","trial_index":124,"time_elapsed":691873,"internal_node_id":"0.0-4.0-1.58","subject_id":"5eb160d9653c15056ac72f08","study_id":"60edd13110225f80f9f3709b","session_id":"6196cbaeb06ca2a631c2f29c","condition":"contingent","relevant_dimensions":["wings","legs"],"bee_group":{"antennae":"X","wings":"2","pattern":"X","legs":"F"},"bonus":1.4000000000000008},{"rt":872.8999999761581,"stimulus":"bees-with-color/bee-A2SM.svg","response":0,"trial_type":"image-button-response","trial_index":125,"time_elapsed":692747,"internal_node_id":"0.0-4.0-0.59","subject_id":"5eb160d9653c15056ac72f08","study_id":"60edd13110225f80f9f3709b","session_id":"6196cbaeb06ca2a631c2f29c","condition":"contingent","relevant_dimensions":["wings","legs"],"bee_group":{"antennae":"X","wings":"2","pattern":"X","legs":"F"},"action":"harvest","summary":"good-harvest","bonus":1.4000000000000008},{"rt":729,"stimulus":"\n                    <p><b>Action: <em>harvest</em></b></p>\n                    <p>This is the bee that you just saw.</p>\n                    <img src=\"bees-with-color/bee-A2SM.svg\" width=\"200\">\n                    <p><span class=\"greenText\"><b>Successful harvest!</b></span><br>Your pay has increased by $0.02. Your bonus pay is now $1.04.</p>\n            ","response":0,"trial_type":"html-button-response","trial_index":126,"time_elapsed":693477,"internal_node_id":"0.0-4.0-1.59","subject_id":"5eb160d9653c15056ac72f08","study_id":"60edd13110225f80f9f3709b","session_id":"6196cbaeb06ca2a631c2f29c","condition":"contingent","relevant_dimensions":["wings","legs"],"bee_group":{"antennae":"X","wings":"2","pattern":"X","legs":"F"},"bonus":1.4000000000000008},{"rt":831.3999999761581,"stimulus":"bees-with-color/bee-B1SM.svg","response":0,"trial_type":"image-button-response","trial_index":127,"time_elapsed":694310,"internal_node_id":"0.0-4.0-0.60","subject_id":"5eb160d9653c15056ac72f08","study_id":"60edd13110225f80f9f3709b","session_id":"6196cbaeb06ca2a631c2f29c","condition":"contingent","relevant_dimensions":["wings","legs"],"bee_group":{"antennae":"X","wings":"2","pattern":"X","legs":"F"},"action":"harvest","summary":"good-harvest","bonus":1.4000000000000008},{"rt":579.7000000476837,"stimulus":"\n                    <p><b>Action: <em>harvest</em></b></p>\n                    <p>This is the bee that you just saw.</p>\n                    <img src=\"bees-with-color/bee-B1SM.svg\" width=\"200\">\n                    <p><span class=\"greenText\"><b>Successful harvest!</b></span><br>Your pay has increased by $0.02. Your bonus pay is now $1.06.</p>\n            ","response":0,"trial_type":"html-button-response","trial_index":128,"time_elapsed":694891,"internal_node_id":"0.0-4.0-1.60","subject_id":"5eb160d9653c15056ac72f08","study_id":"60edd13110225f80f9f3709b","session_id":"6196cbaeb06ca2a631c2f29c","condition":"contingent","relevant_dimensions":["wings","legs"],"bee_group":{"antennae":"X","wings":"2","pattern":"X","legs":"F"},"bonus":1.4000000000000008},{"rt":947.6999999284744,"stimulus":"bees-with-color/bee-B1SF.svg","response":1,"trial_type":"image-button-response","trial_index":129,"time_elapsed":695840,"internal_node_id":"0.0-4.0-0.61","subject_id":"5eb160d9653c15056ac72f08","study_id":"60edd13110225f80f9f3709b","session_id":"6196cbaeb06ca2a631c2f29c","condition":"contingent","relevant_dimensions":["wings","legs"],"bee_group":{"antennae":"X","wings":"2","pattern":"X","legs":"F"},"action":"avoid","summary":"bad-avoid","bonus":1.4000000000000008},{"rt":619.6999999284744,"stimulus":"\n                    <p><b>Action: <em>avoid</em></b></p>\n                    <p>This is the bee that you just saw.</p>\n                    <img src=\"bees-with-color/bee-B1SF.svg\" width=\"200\">\n                    <p><br>Your bonus pay is unchanged, and remains at $1.06.</p>\n            ","response":0,"trial_type":"html-button-response","trial_index":130,"time_elapsed":696461,"internal_node_id":"0.0-4.0-1.61","subject_id":"5eb160d9653c15056ac72f08","study_id":"60edd13110225f80f9f3709b","session_id":"6196cbaeb06ca2a631c2f29c","condition":"contingent","relevant_dimensions":["wings","legs"],"bee_group":{"antennae":"X","wings":"2","pattern":"X","legs":"F"},"bonus":1.4000000000000008},{"rt":703.6999999284744,"stimulus":"bees-with-color/bee-A1DM.svg","response":0,"trial_type":"image-button-response","trial_index":131,"time_elapsed":697166,"internal_node_id":"0.0-4.0-0.62","subject_id":"5eb160d9653c15056ac72f08","study_id":"60edd13110225f80f9f3709b","session_id":"6196cbaeb06ca2a631c2f29c","condition":"contingent","relevant_dimensions":["wings","legs"],"bee_group":{"antennae":"X","wings":"2","pattern":"X","legs":"F"},"action":"harvest","summary":"good-harvest","bonus":1.4000000000000008},{"rt":899.6999999284744,"stimulus":"\n                    <p><b>Action: <em>harvest</em></b></p>\n                    <p>This is the bee that you just saw.</p>\n                    <img src=\"bees-with-color/bee-A1DM.svg\" width=\"200\">\n                    <p><span class=\"greenText\"><b>Successful harvest!</b></span><br>Your pay has increased by $0.02. Your bonus pay is now $1.08.</p>\n            ","response":0,"trial_type":"html-button-response","trial_index":132,"time_elapsed":698067,"internal_node_id":"0.0-4.0-1.62","subject_id":"5eb160d9653c15056ac72f08","study_id":"60edd13110225f80f9f3709b","session_id":"6196cbaeb06ca2a631c2f29c","condition":"contingent","relevant_dimensions":["wings","legs"],"bee_group":{"antennae":"X","wings":"2","pattern":"X","legs":"F"},"bonus":1.4000000000000008},{"rt":5181.799999952316,"stimulus":"bees-with-color/bee-A2DF.svg","response":1,"trial_type":"image-button-response","trial_index":133,"time_elapsed":703250,"internal_node_id":"0.0-4.0-0.63","subject_id":"5eb160d9653c15056ac72f08","study_id":"60edd13110225f80f9f3709b","session_id":"6196cbaeb06ca2a631c2f29c","condition":"contingent","relevant_dimensions":["wings","legs"],"bee_group":{"antennae":"X","wings":"2","pattern":"X","legs":"F"},"action":"avoid","summary":"good-avoid","bonus":1.4000000000000008},{"rt":1882.3999999761581,"stimulus":"\n                    <p><b>Action: <em>avoid</em></b></p>\n                    <p>This is the bee that you just saw.</p>\n                    <img src=\"bees-with-color/bee-A2DF.svg\" width=\"200\">\n                    <p><br>Your bonus pay is unchanged, and remains at $1.08.</p>\n            ","response":0,"trial_type":"html-button-response","trial_index":134,"time_elapsed":705134,"internal_node_id":"0.0-4.0-1.63","subject_id":"5eb160d9653c15056ac72f08","study_id":"60edd13110225f80f9f3709b","session_id":"6196cbaeb06ca2a631c2f29c","condition":"contingent","relevant_dimensions":["wings","legs"],"bee_group":{"antennae":"X","wings":"2","pattern":"X","legs":"F"},"bonus":1.4000000000000008},{"rt":13587.900000095367,"stimulus":"You have completed the first part of this experiment.<br><br>You will now begin a shorter second part, in which you will receive no feedback.<br>The same rules regarding bonus pay apply.<br><br>Press any key to begin.","response":" ","trial_type":"html-keyboard-response","trial_index":135,"time_elapsed":718723,"internal_node_id":"0.0-5.0","subject_id":"5eb160d9653c15056ac72f08","study_id":"60edd13110225f80f9f3709b","session_id":"6196cbaeb06ca2a631c2f29c","condition":"contingent","relevant_dimensions":["wings","legs"],"bee_group":{"antennae":"X","wings":"2","pattern":"X","legs":"F"},"bonus":1.4000000000000008},{"rt":1734.1000000238419,"stimulus":"bees-with-color/bee-A1SF.svg","response":1,"trial_type":"image-button-response","trial_index":136,"time_elapsed":720465,"internal_node_id":"0.0-6.0-0.0","subject_id":"5eb160d9653c15056ac72f08","study_id":"60edd13110225f80f9f3709b","session_id":"6196cbaeb06ca2a631c2f29c","condition":"contingent","relevant_dimensions":["wings","legs"],"bee_group":{"antennae":"X","wings":"2","pattern":"X","legs":"F"},"bonus":1.4000000000000008},{"rt":2196.899999976158,"stimulus":"bees-with-color/bee-B2DF.svg","response":1,"trial_type":"image-button-response","trial_index":137,"time_elapsed":722664,"internal_node_id":"0.0-6.0-0.1","subject_id":"5eb160d9653c15056ac72f08","study_id":"60edd13110225f80f9f3709b","session_id":"6196cbaeb06ca2a631c2f29c","condition":"contingent","relevant_dimensions":["wings","legs"],"bee_group":{"antennae":"X","wings":"2","pattern":"X","legs":"F"},"bonus":1.4000000000000008},{"rt":916.1000000238419,"stimulus":"bees-with-color/bee-A2DM.svg","response":0,"trial_type":"image-button-response","trial_index":138,"time_elapsed":723582,"internal_node_id":"0.0-6.0-0.2","subject_id":"5eb160d9653c15056ac72f08","study_id":"60edd13110225f80f9f3709b","session_id":"6196cbaeb06ca2a631c2f29c","condition":"contingent","relevant_dimensions":["wings","legs"],"bee_group":{"antennae":"X","wings":"2","pattern":"X","legs":"F"},"bonus":1.4000000000000008},{"rt":902.1999999284744,"stimulus":"bees-with-color/bee-A1DF.svg","response":1,"trial_type":"image-button-response","trial_index":139,"time_elapsed":724485,"internal_node_id":"0.0-6.0-0.3","subject_id":"5eb160d9653c15056ac72f08","study_id":"60edd13110225f80f9f3709b","session_id":"6196cbaeb06ca2a631c2f29c","condition":"contingent","relevant_dimensions":["wings","legs"],"bee_group":{"antennae":"X","wings":"2","pattern":"X","legs":"F"},"bonus":1.4000000000000008},{"rt":1962.1999999284744,"stimulus":"bees-with-color/bee-B1DF.svg","response":1,"trial_type":"image-button-response","trial_index":140,"time_elapsed":726449,"internal_node_id":"0.0-6.0-0.4","subject_id":"5eb160d9653c15056ac72f08","study_id":"60edd13110225f80f9f3709b","session_id":"6196cbaeb06ca2a631c2f29c","condition":"contingent","relevant_dimensions":["wings","legs"],"bee_group":{"antennae":"X","wings":"2","pattern":"X","legs":"F"},"bonus":1.4000000000000008},{"rt":933.1999999284744,"stimulus":"bees-with-color/bee-B2SF.svg","response":1,"trial_type":"image-button-response","trial_index":141,"time_elapsed":727385,"internal_node_id":"0.0-6.0-0.5","subject_id":"5eb160d9653c15056ac72f08","study_id":"60edd13110225f80f9f3709b","session_id":"6196cbaeb06ca2a631c2f29c","condition":"contingent","relevant_dimensions":["wings","legs"],"bee_group":{"antennae":"X","wings":"2","pattern":"X","legs":"F"},"bonus":1.4000000000000008},{"rt":905.8999999761581,"stimulus":"bees-with-color/bee-A1DM.svg","response":0,"trial_type":"image-button-response","trial_index":142,"time_elapsed":728293,"internal_node_id":"0.0-6.0-0.6","subject_id":"5eb160d9653c15056ac72f08","study_id":"60edd13110225f80f9f3709b","session_id":"6196cbaeb06ca2a631c2f29c","condition":"contingent","relevant_dimensions":["wings","legs"],"bee_group":{"antennae":"X","wings":"2","pattern":"X","legs":"F"},"bonus":1.4000000000000008},{"rt":664.6999999284744,"stimulus":"bees-with-color/bee-B1SM.svg","response":0,"trial_type":"image-button-response","trial_index":143,"time_elapsed":728959,"internal_node_id":"0.0-6.0-0.7","subject_id":"5eb160d9653c15056ac72f08","study_id":"60edd13110225f80f9f3709b","session_id":"6196cbaeb06ca2a631c2f29c","condition":"contingent","relevant_dimensions":["wings","legs"],"bee_group":{"antennae":"X","wings":"2","pattern":"X","legs":"F"},"bonus":1.4000000000000008},{"rt":751.1999999284744,"stimulus":"bees-with-color/bee-A1SM.svg","response":0,"trial_type":"image-button-response","trial_index":144,"time_elapsed":729712,"internal_node_id":"0.0-6.0-0.8","subject_id":"5eb160d9653c15056ac72f08","study_id":"60edd13110225f80f9f3709b","session_id":"6196cbaeb06ca2a631c2f29c","condition":"contingent","relevant_dimensions":["wings","legs"],"bee_group":{"antennae":"X","wings":"2","pattern":"X","legs":"F"},"bonus":1.4000000000000008},{"rt":1165.2999999523163,"stimulus":"bees-with-color/bee-B2SM.svg","response":0,"trial_type":"image-button-response","trial_index":145,"time_elapsed":730879,"internal_node_id":"0.0-6.0-0.9","subject_id":"5eb160d9653c15056ac72f08","study_id":"60edd13110225f80f9f3709b","session_id":"6196cbaeb06ca2a631c2f29c","condition":"contingent","relevant_dimensions":["wings","legs"],"bee_group":{"antennae":"X","wings":"2","pattern":"X","legs":"F"},"bonus":1.4000000000000008},{"rt":624.1000000238419,"stimulus":"bees-with-color/bee-B2DM.svg","response":0,"trial_type":"image-button-response","trial_index":146,"time_elapsed":731506,"internal_node_id":"0.0-6.0-0.10","subject_id":"5eb160d9653c15056ac72f08","study_id":"60edd13110225f80f9f3709b","session_id":"6196cbaeb06ca2a631c2f29c","condition":"contingent","relevant_dimensions":["wings","legs"],"bee_group":{"antennae":"X","wings":"2","pattern":"X","legs":"F"},"bonus":1.4000000000000008},{"rt":825.2999999523163,"stimulus":"bees-with-color/bee-A2SF.svg","response":1,"trial_type":"image-button-response","trial_index":147,"time_elapsed":732332,"internal_node_id":"0.0-6.0-0.11","subject_id":"5eb160d9653c15056ac72f08","study_id":"60edd13110225f80f9f3709b","session_id":"6196cbaeb06ca2a631c2f29c","condition":"contingent","relevant_dimensions":["wings","legs"],"bee_group":{"antennae":"X","wings":"2","pattern":"X","legs":"F"},"bonus":1.4000000000000008},{"rt":757.1999999284744,"stimulus":"bees-with-color/bee-A2SM.svg","response":0,"trial_type":"image-button-response","trial_index":148,"time_elapsed":733092,"internal_node_id":"0.0-6.0-0.12","subject_id":"5eb160d9653c15056ac72f08","study_id":"60edd13110225f80f9f3709b","session_id":"6196cbaeb06ca2a631c2f29c","condition":"contingent","relevant_dimensions":["wings","legs"],"bee_group":{"antennae":"X","wings":"2","pattern":"X","legs":"F"},"bonus":1.4000000000000008},{"rt":752.1000000238419,"stimulus":"bees-with-color/bee-B1DM.svg","response":0,"trial_type":"image-button-response","trial_index":149,"time_elapsed":733846,"internal_node_id":"0.0-6.0-0.13","subject_id":"5eb160d9653c15056ac72f08","study_id":"60edd13110225f80f9f3709b","session_id":"6196cbaeb06ca2a631c2f29c","condition":"contingent","relevant_dimensions":["wings","legs"],"bee_group":{"antennae":"X","wings":"2","pattern":"X","legs":"F"},"bonus":1.4000000000000008},{"rt":761.6999999284744,"stimulus":"bees-with-color/bee-A2DF.svg","response":1,"trial_type":"image-button-response","trial_index":150,"time_elapsed":734609,"internal_node_id":"0.0-6.0-0.14","subject_id":"5eb160d9653c15056ac72f08","study_id":"60edd13110225f80f9f3709b","session_id":"6196cbaeb06ca2a631c2f29c","condition":"contingent","relevant_dimensions":["wings","legs"],"bee_group":{"antennae":"X","wings":"2","pattern":"X","legs":"F"},"bonus":1.4000000000000008},{"rt":509,"stimulus":"bees-with-color/bee-B1SF.svg","response":1,"trial_type":"image-button-response","trial_index":151,"time_elapsed":735120,"internal_node_id":"0.0-6.0-0.15","subject_id":"5eb160d9653c15056ac72f08","study_id":"60edd13110225f80f9f3709b","session_id":"6196cbaeb06ca2a631c2f29c","condition":"contingent","relevant_dimensions":["wings","legs"],"bee_group":{"antennae":"X","wings":"2","pattern":"X","legs":"F"},"bonus":1.4000000000000008},{"rt":674.5,"stimulus":"bees-with-color/bee-A2DM.svg","response":0,"trial_type":"image-button-response","trial_index":152,"time_elapsed":735797,"internal_node_id":"0.0-6.0-0.16","subject_id":"5eb160d9653c15056ac72f08","study_id":"60edd13110225f80f9f3709b","session_id":"6196cbaeb06ca2a631c2f29c","condition":"contingent","relevant_dimensions":["wings","legs"],"bee_group":{"antennae":"X","wings":"2","pattern":"X","legs":"F"},"bonus":1.4000000000000008},{"rt":806.3999999761581,"stimulus":"bees-with-color/bee-A2DF.svg","response":1,"trial_type":"image-button-response","trial_index":153,"time_elapsed":736604,"internal_node_id":"0.0-6.0-0.17","subject_id":"5eb160d9653c15056ac72f08","study_id":"60edd13110225f80f9f3709b","session_id":"6196cbaeb06ca2a631c2f29c","condition":"contingent","relevant_dimensions":["wings","legs"],"bee_group":{"antennae":"X","wings":"2","pattern":"X","legs":"F"},"bonus":1.4000000000000008},{"rt":546.5,"stimulus":"bees-with-color/bee-B1DM.svg","response":0,"trial_type":"image-button-response","trial_index":154,"time_elapsed":737152,"internal_node_id":"0.0-6.0-0.18","subject_id":"5eb160d9653c15056ac72f08","study_id":"60edd13110225f80f9f3709b","session_id":"6196cbaeb06ca2a631c2f29c","condition":"contingent","relevant_dimensions":["wings","legs"],"bee_group":{"antennae":"X","wings":"2","pattern":"X","legs":"F"},"bonus":1.4000000000000008},{"rt":885.7000000476837,"stimulus":"bees-with-color/bee-B2SM.svg","response":0,"trial_type":"image-button-response","trial_index":155,"time_elapsed":738039,"internal_node_id":"0.0-6.0-0.19","subject_id":"5eb160d9653c15056ac72f08","study_id":"60edd13110225f80f9f3709b","session_id":"6196cbaeb06ca2a631c2f29c","condition":"contingent","relevant_dimensions":["wings","legs"],"bee_group":{"antennae":"X","wings":"2","pattern":"X","legs":"F"},"bonus":1.4000000000000008},{"rt":613.5,"stimulus":"bees-with-color/bee-A1DF.svg","response":1,"trial_type":"image-button-response","trial_index":156,"time_elapsed":738654,"internal_node_id":"0.0-6.0-0.20","subject_id":"5eb160d9653c15056ac72f08","study_id":"60edd13110225f80f9f3709b","session_id":"6196cbaeb06ca2a631c2f29c","condition":"contingent","relevant_dimensions":["wings","legs"],"bee_group":{"antennae":"X","wings":"2","pattern":"X","legs":"F"},"bonus":1.4000000000000008},{"rt":583.1000000238419,"stimulus":"bees-with-color/bee-A1SM.svg","response":0,"trial_type":"image-button-response","trial_index":157,"time_elapsed":739240,"internal_node_id":"0.0-6.0-0.21","subject_id":"5eb160d9653c15056ac72f08","study_id":"60edd13110225f80f9f3709b","session_id":"6196cbaeb06ca2a631c2f29c","condition":"contingent","relevant_dimensions":["wings","legs"],"bee_group":{"antennae":"X","wings":"2","pattern":"X","legs":"F"},"bonus":1.4000000000000008},{"rt":788.8000000715256,"stimulus":"bees-with-color/bee-B2SF.svg","response":1,"trial_type":"image-button-response","trial_index":158,"time_elapsed":740030,"internal_node_id":"0.0-6.0-0.22","subject_id":"5eb160d9653c15056ac72f08","study_id":"60edd13110225f80f9f3709b","session_id":"6196cbaeb06ca2a631c2f29c","condition":"contingent","relevant_dimensions":["wings","legs"],"bee_group":{"antennae":"X","wings":"2","pattern":"X","legs":"F"},"bonus":1.4000000000000008},{"rt":659.1999999284744,"stimulus":"bees-with-color/bee-B1SF.svg","response":1,"trial_type":"image-button-response","trial_index":159,"time_elapsed":740691,"internal_node_id":"0.0-6.0-0.23","subject_id":"5eb160d9653c15056ac72f08","study_id":"60edd13110225f80f9f3709b","session_id":"6196cbaeb06ca2a631c2f29c","condition":"contingent","relevant_dimensions":["wings","legs"],"bee_group":{"antennae":"X","wings":"2","pattern":"X","legs":"F"},"bonus":1.4000000000000008},{"rt":655.6000000238419,"stimulus":"bees-with-color/bee-A2SF.svg","response":1,"trial_type":"image-button-response","trial_index":160,"time_elapsed":741348,"internal_node_id":"0.0-6.0-0.24","subject_id":"5eb160d9653c15056ac72f08","study_id":"60edd13110225f80f9f3709b","session_id":"6196cbaeb06ca2a631c2f29c","condition":"contingent","relevant_dimensions":["wings","legs"],"bee_group":{"antennae":"X","wings":"2","pattern":"X","legs":"F"},"bonus":1.4000000000000008},{"rt":728.6000000238419,"stimulus":"bees-with-color/bee-A1DM.svg","response":0,"trial_type":"image-button-response","trial_index":161,"time_elapsed":742078,"internal_node_id":"0.0-6.0-0.25","subject_id":"5eb160d9653c15056ac72f08","study_id":"60edd13110225f80f9f3709b","session_id":"6196cbaeb06ca2a631c2f29c","condition":"contingent","relevant_dimensions":["wings","legs"],"bee_group":{"antennae":"X","wings":"2","pattern":"X","legs":"F"},"bonus":1.4000000000000008},{"rt":662.6000000238419,"stimulus":"bees-with-color/bee-B1SM.svg","response":0,"trial_type":"image-button-response","trial_index":162,"time_elapsed":742742,"internal_node_id":"0.0-6.0-0.26","subject_id":"5eb160d9653c15056ac72f08","study_id":"60edd13110225f80f9f3709b","session_id":"6196cbaeb06ca2a631c2f29c","condition":"contingent","relevant_dimensions":["wings","legs"],"bee_group":{"antennae":"X","wings":"2","pattern":"X","legs":"F"},"bonus":1.4000000000000008},{"rt":658.3000000715256,"stimulus":"bees-with-color/bee-B1DF.svg","response":1,"trial_type":"image-button-response","trial_index":163,"time_elapsed":743402,"internal_node_id":"0.0-6.0-0.27","subject_id":"5eb160d9653c15056ac72f08","study_id":"60edd13110225f80f9f3709b","session_id":"6196cbaeb06ca2a631c2f29c","condition":"contingent","relevant_dimensions":["wings","legs"],"bee_group":{"antennae":"X","wings":"2","pattern":"X","legs":"F"},"bonus":1.4000000000000008},{"rt":918.5,"stimulus":"bees-with-color/bee-A1SF.svg","response":1,"trial_type":"image-button-response","trial_index":164,"time_elapsed":744322,"internal_node_id":"0.0-6.0-0.28","subject_id":"5eb160d9653c15056ac72f08","study_id":"60edd13110225f80f9f3709b","session_id":"6196cbaeb06ca2a631c2f29c","condition":"contingent","relevant_dimensions":["wings","legs"],"bee_group":{"antennae":"X","wings":"2","pattern":"X","legs":"F"},"bonus":1.4000000000000008},{"rt":898.3999999761581,"stimulus":"bees-with-color/bee-B2DF.svg","response":1,"trial_type":"image-button-response","trial_index":165,"time_elapsed":745222,"internal_node_id":"0.0-6.0-0.29","subject_id":"5eb160d9653c15056ac72f0