[{"success":true,"trial_type":"fullscreen","trial_index":0,"time_elapsed":4353,"internal_node_id":"0.0-0.0","subject_id":"610d4df86c4abc6b5ced6fa0","study_id":"6197b3f67c2b5cd3b6d9596a","session_id":"6197b577df661afc98bf5fed","condition":"contingent","relevant_dimensions":["antennae","wings"],"bee_group":{"antennae":"B","wings":"1","pattern":"X","legs":"X"},"bonus":0.04},{"success":true,"timeout":false,"failed_images":[],"failed_audio":[],"failed_video":[],"trial_type":"preload","trial_index":1,"time_elapsed":6278,"internal_node_id":"0.0-1.0","subject_id":"610d4df86c4abc6b5ced6fa0","study_id":"6197b3f67c2b5cd3b6d9596a","session_id":"6197b577df661afc98bf5fed","condition":"contingent","relevant_dimensions":["antennae","wings"],"bee_group":{"antennae":"B","wings":"1","pattern":"X","legs":"X"},"bonus":0.04},{"rt":2396.2999999970198,"stimulus":"Welcome! Press any key to begin.","response":"enter","trial_type":"html-keyboard-response","trial_index":2,"time_elapsed":8679,"internal_node_id":"0.0-2.0","subject_id":"610d4df86c4abc6b5ced6fa0","study_id":"6197b3f67c2b5cd3b6d9596a","session_id":"6197b577df661afc98bf5fed","condition":"contingent","relevant_dimensions":["antennae","wings"],"bee_group":{"antennae":"B","wings":"1","pattern":"X","legs":"X"},"bonus":0.04},{"view_history":[{"page_index":0,"viewing_time":2660},{"page_index":1,"viewing_time":7107.29999999702},{"page_index":2,"viewing_time":4759.30000000447},{"page_index":3,"viewing_time":6825.69999999553},{"page_index":4,"viewing_time":4098.30000000447},{"page_index":5,"viewing_time":3372.2999999970198},{"page_index":6,"viewing_time":4638.70000000298},{"page_index":7,"viewing_time":5181.39999999851},{"page_index":6,"viewing_time":4929.89999999851},{"page_index":7,"viewing_time":11841.80000000447},{"page_index":8,"viewing_time":10060.79999999702},{"page_index":9,"viewing_time":715.2000000029802},{"page_index":10,"viewing_time":1658.5},{"page_index":9,"viewing_time":7844},{"page_index":10,"viewing_time":8003.0999999940395},{"page_index":11,"viewing_time":3106.9000000059605},{"page_index":12,"viewing_time":2920},{"page_index":13,"viewing_time":1712.2999999970198},{"page_index":14,"viewing_time":1523.1000000014901}],"rt":92960.29999999702,"trial_type":"instructions","trial_index":3,"time_elapsed":101639,"internal_node_id":"0.0-3.0-0.0","subject_id":"610d4df86c4abc6b5ced6fa0","study_id":"6197b3f67c2b5cd3b6d9596a","session_id":"6197b577df661afc98bf5fed","condition":"contingent","relevant_dimensions":["antennae","wings"],"bee_group":{"antennae":"B","wings":"1","pattern":"X","legs":"X"},"bonus":0.04},{"rt":41396,"response":{"Q0":["Stripes or spots on body","Single or double wings","Antennae or no antennae"]},"question_order":[0],"trial_type":"survey-multi-select","trial_index":4,"time_elapsed":143054,"internal_node_id":"0.0-3.0-1.0","subject_id":"610d4df86c4abc6b5ced6fa0","study_id":"6197b3f67c2b5cd3b6d9596a","session_id":"6197b577df661afc98bf5fed","condition":"contingent","relevant_dimensions":["antennae","wings"],"bee_group":{"antennae":"B","wings":"1","pattern":"X","legs":"X"},"correct":false,"bonus":0.04},{"rt":16991.80000000447,"response":{"Q1":"No.","Q2":"Based on the four features of the bee.","Q3":"You do not learn if it was friendly or dangerous, and do not alter your bonus."},"question_order":[0,1,2],"trial_type":"survey-multi-choice","trial_index":5,"time_elapsed":160055,"internal_node_id":"0.0-3.0-2.0","subject_id":"610d4df86c4abc6b5ced6fa0","study_id":"6197b3f67c2b5cd3b6d9596a","session_id":"6197b577df661afc98bf5fed","condition":"contingent","relevant_dimensions":["antennae","wings"],"bee_group":{"antennae":"B","wings":"1","pattern":"X","legs":"X"},"correct":true,"bonus":0.04},{"rt":3003.60000000149,"stimulus":"<p>You did not answer all comprehension questions correctly.<br>Press <b>continue</b> to review the instructions again.</p>","response":0,"trial_type":"html-button-response","trial_index":6,"time_elapsed":163064,"internal_node_id":"0.0-3.0-3.0","subject_id":"610d4df86c4abc6b5ced6fa0","study_id":"6197b3f67c2b5cd3b6d9596a","session_id":"6197b577df661afc98bf5fed","condition":"contingent","relevant_dimensions":["antennae","wings"],"bee_group":{"antennae":"B","wings":"1","pattern":"X","legs":"X"},"bonus":0.04},{"view_history":[{"page_index":0,"viewing_time":1765.3999999985099},{"page_index":1,"viewing_time":2191.10000000149},{"page_index":2,"viewing_time":2373.5999999940395},{"page_index":3,"viewing_time":1999.9000000059605},{"page_index":4,"viewing_time":4866.69999999553},{"page_index":5,"viewing_time":2051},{"page_index":6,"viewing_time":3951.89999999851},{"page_index":7,"viewing_time":2847.60000000149},{"page_index":8,"viewing_time":746.7000000029802},{"page_index":9,"viewing_time":731.8999999985099},{"page_index":10,"viewing_time":652.6000000014901},{"page_index":11,"viewing_time":1788.5},{"page_index":12,"viewing_time":2241.6999999955297},{"page_index":11,"viewing_time":4058.4000000059605},{"page_index":12,"viewing_time":2503.5999999940395},{"page_index":13,"viewing_time":1383.8000000044703},{"page_index":14,"viewing_time":1285.6999999955297}],"rt":37440.59999999404,"trial_type":"instructions","trial_index":7,"time_elapsed":200507,"internal_node_id":"0.0-3.0-4.0-0.0","subject_id":"610d4df86c4abc6b5ced6fa0","study_id":"6197b3f67c2b5cd3b6d9596a","session_id":"6197b577df661afc98bf5fed","condition":"contingent","relevant_dimensions":["antennae","wings"],"bee_group":{"antennae":"B","wings":"1","pattern":"X","legs":"X"},"bonus":0.04},{"rt":13108.20000000298,"response":{"Q0":["Two or six legs","Stripes or spots on body","Single or double wings","Antennae or no antennae"]},"question_order":[0],"trial_type":"survey-multi-select","trial_index":8,"time_elapsed":213623,"internal_node_id":"0.0-3.0-4.0-1.0","subject_id":"610d4df86c4abc6b5ced6fa0","study_id":"6197b3f67c2b5cd3b6d9596a","session_id":"6197b577df661afc98bf5fed","condition":"contingent","relevant_dimensions":["antennae","wings"],"bee_group":{"antennae":"B","wings":"1","pattern":"X","legs":"X"},"correct":true,"bonus":0.04},{"rt":11747.70000000298,"response":{"Q1":"No.","Q2":"Based on the four features of the bee.","Q3":"You do not learn if it was friendly or dangerous, and do not alter your bonus."},"question_order":[0,1,2],"trial_type":"survey-multi-choice","trial_index":9,"time_elapsed":225375,"internal_node_id":"0.0-3.0-4.0-2.0","subject_id":"610d4df86c4abc6b5ced6fa0","study_id":"6197b3f67c2b5cd3b6d9596a","session_id":"6197b577df661afc98bf5fed","condition":"contingent","relevant_dimensions":["antennae","wings"],"bee_group":{"antennae":"B","wings":"1","pattern":"X","legs":"X"},"correct":true,"bonus":0.04},{"rt":2021,"stimulus":"<p>Congrats, you got everything right<br>When you're ready, click the button below to continue to the experiment.</p>","response":0,"trial_type":"html-button-response","trial_index":10,"time_elapsed":227400,"internal_node_id":"0.0-3.0-4.0-3.0","subject_id":"610d4df86c4abc6b5ced6fa0","study_id":"6197b3f67c2b5cd3b6d9596a","session_id":"6197b577df661afc98bf5fed","condition":"contingent","relevant_dimensions":["antennae","wings"],"bee_group":{"antennae":"B","wings":"1","pattern":"X","legs":"X"},"bonus":0.04},{"rt":6081.9000000059605,"stimulus":"bees-with-color/bee-B1DF.svg","response":1,"trial_type":"image-button-response","trial_index":11,"time_elapsed":233490,"internal_node_id":"0.0-4.0-0.0","subject_id":"610d4df86c4abc6b5ced6fa0","study_id":"6197b3f67c2b5cd3b6d9596a","session_id":"6197b577df661afc98bf5fed","condition":"contingent","relevant_dimensions":["antennae","wings"],"bee_group":{"antennae":"B","wings":"1","pattern":"X","legs":"X"},"action":"avoid","summary":"good-avoid","bonus":0.04},{"rt":5101.10000000149,"stimulus":"\n                    <p><b>Action: <em>avoid</em></b></p>\n                    <p>This is the bee that you just saw.</p>\n                    <img src=\"bees-with-color/bee-B1DF.svg\" width=\"200\">\n                    <p><br>Your bonus pay is unchanged, and remains at $0.54.</p>\n            ","response":0,"trial_type":"html-button-response","trial_index":12,"time_elapsed":238602,"internal_node_id":"0.0-4.0-1.0","subject_id":"610d4df86c4abc6b5ced6fa0","study_id":"6197b3f67c2b5cd3b6d9596a","session_id":"6197b577df661afc98bf5fed","condition":"contingent","relevant_dimensions":["antennae","wings"],"bee_group":{"antennae":"B","wings":"1","pattern":"X","legs":"X"},"bonus":0.04},{"rt":4713.60000000149,"stimulus":"bees-with-color/bee-A2DM.svg","response":1,"trial_type":"image-button-response","trial_index":13,"time_elapsed":243321,"internal_node_id":"0.0-4.0-0.1","subject_id":"610d4df86c4abc6b5ced6fa0","study_id":"6197b3f67c2b5cd3b6d9596a","session_id":"6197b577df661afc98bf5fed","condition":"contingent","relevant_dimensions":["antennae","wings"],"bee_group":{"antennae":"B","wings":"1","pattern":"X","legs":"X"},"action":"avoid","summary":"bad-avoid","bonus":0.04},{"rt":2778,"stimulus":"\n                    <p><b>Action: <em>avoid</em></b></p>\n                    <p>This is the bee that you just saw.</p>\n                    <img src=\"bees-with-color/bee-A2DM.svg\" width=\"200\">\n                    <p><br>Your bonus pay is unchanged, and remains at $0.54.</p>\n            ","response":0,"trial_type":"html-button-response","trial_index":14,"time_elapsed":246103,"internal_node_id":"0.0-4.0-1.1","subject_id":"610d4df86c4abc6b5ced6fa0","study_id":"6197b3f67c2b5cd3b6d9596a","session_id":"6197b577df661afc98bf5fed","condition":"contingent","relevant_dimensions":["antennae","wings"],"bee_group":{"antennae":"B","wings":"1","pattern":"X","legs":"X"},"bonus":0.04},{"rt":3679,"stimulus":"bees-with-color/bee-A1SM.svg","response":0,"trial_type":"image-button-response","trial_index":15,"time_elapsed":249787,"internal_node_id":"0.0-4.0-0.2","subject_id":"610d4df86c4abc6b5ced6fa0","study_id":"6197b3f67c2b5cd3b6d9596a","session_id":"6197b577df661afc98bf5fed","condition":"contingent","relevant_dimensions":["antennae","wings"],"bee_group":{"antennae":"B","wings":"1","pattern":"X","legs":"X"},"action":"harvest","summary":"good-harvest","bonus":0.04},{"rt":3548.8000000044703,"stimulus":"\n                    <p><b>Action: <em>harvest</em></b></p>\n                    <p>This is the bee that you just saw.</p>\n                    <img src=\"bees-with-color/bee-A1SM.svg\" width=\"200\">\n                    <p><span class=\"greenText\"><b>Successful harvest!</b></span><br>Your pay has increased by $0.02. Your bonus pay is now $0.56.</p>\n            ","response":0,"trial_type":"html-button-response","trial_index":16,"time_elapsed":253340,"internal_node_id":"0.0-4.0-1.2","subject_id":"610d4df86c4abc6b5ced6fa0","study_id":"6197b3f67c2b5cd3b6d9596a","session_id":"6197b577df661afc98bf5fed","condition":"contingent","relevant_dimensions":["antennae","wings"],"bee_group":{"antennae":"B","wings":"1","pattern":"X","legs":"X"},"bonus":0.04},{"rt":2949,"stimulus":"bees-with-color/bee-A1SF.svg","response":0,"trial_type":"image-button-response","trial_index":17,"time_elapsed":256294,"internal_node_id":"0.0-4.0-0.3","subject_id":"610d4df86c4abc6b5ced6fa0","study_id":"6197b3f67c2b5cd3b6d9596a","session_id":"6197b577df661afc98bf5fed","condition":"contingent","relevant_dimensions":["antennae","wings"],"bee_group":{"antennae":"B","wings":"1","pattern":"X","legs":"X"},"action":"harvest","summary":"good-harvest","bonus":0.04},{"rt":21884.19999999553,"stimulus":"\n                    <p><b>Action: <em>harvest</em></b></p>\n                    <p>This is the bee that you just saw.</p>\n                    <img src=\"bees-with-color/bee-A1SF.svg\" width=\"200\">\n                    <p><span class=\"greenText\"><b>Successful harvest!</b></span><br>Your pay has increased by $0.02. Your bonus pay is now $0.58.</p>\n            ","response":0,"trial_type":"html-button-response","trial_index":18,"time_elapsed":278183,"internal_node_id":"0.0-4.0-1.3","subject_id":"610d4df86c4abc6b5ced6fa0","study_id":"6197b3f67c2b5cd3b6d9596a","session_id":"6197b577df661afc98bf5fed","condition":"contingent","relevant_dimensions":["antennae","wings"],"bee_group":{"antennae":"B","wings":"1","pattern":"X","legs":"X"},"bonus":0.04},{"rt":1702.7999999970198,"stimulus":"bees-with-color/bee-A1DF.svg","response":1,"trial_type":"image-button-response","trial_index":19,"time_elapsed":279892,"internal_node_id":"0.0-4.0-0.4","subject_id":"610d4df86c4abc6b5ced6fa0","study_id":"6197b3f67c2b5cd3b6d9596a","session_id":"6197b577df661afc98bf5fed","condition":"contingent","relevant_dimensions":["antennae","wings"],"bee_group":{"antennae":"B","wings":"1","pattern":"X","legs":"X"},"action":"avoid","summary":"bad-avoid","bonus":0.04},{"rt":1521.1000000014901,"stimulus":"\n                    <p><b>Action: <em>avoid</em></b></p>\n                    <p>This is the bee that you just saw.</p>\n                    <img src=\"bees-with-color/bee-A1DF.svg\" width=\"200\">\n                    <p><br>Your bonus pay is unchanged, and remains at $0.58.</p>\n            ","response":0,"trial_type":"html-button-response","trial_index":20,"time_elapsed":281416,"internal_node_id":"0.0-4.0-1.4","subject_id":"610d4df86c4abc6b5ced6fa0","study_id":"6197b3f67c2b5cd3b6d9596a","session_id":"6197b577df661afc98bf5fed","condition":"contingent","relevant_dimensions":["antennae","wings"],"bee_group":{"antennae":"B","wings":"1","pattern":"X","legs":"X"},"bonus":0.04},{"rt":3016,"stimulus":"bees-with-color/bee-A2SM.svg","response":1,"trial_type":"image-button-response","trial_index":21,"time_elapsed":284439,"internal_node_id":"0.0-4.0-0.5","subject_id":"610d4df86c4abc6b5ced6fa0","study_id":"6197b3f67c2b5cd3b6d9596a","session_id":"6197b577df661afc98bf5fed","condition":"contingent","relevant_dimensions":["antennae","wings"],"bee_group":{"antennae":"B","wings":"1","pattern":"X","legs":"X"},"action":"avoid","summary":"bad-avoid","bonus":0.04},{"rt":1692.6000000014901,"stimulus":"\n                    <p><b>Action: <em>avoid</em></b></p>\n                    <p>This is the bee that you just saw.</p>\n                    <img src=\"bees-with-color/bee-A2SM.svg\" width=\"200\">\n                    <p><br>Your bonus pay is unchanged, and remains at $0.58.</p>\n            ","response":0,"trial_type":"html-button-response","trial_index":22,"time_elapsed":286135,"internal_node_id":"0.0-4.0-1.5","subject_id":"610d4df86c4abc6b5ced6fa0","study_id":"6197b3f67c2b5cd3b6d9596a","session_id":"6197b577df661afc98bf5fed","condition":"contingent","relevant_dimensions":["antennae","wings"],"bee_group":{"antennae":"B","wings":"1","pattern":"X","legs":"X"},"bonus":0.04},{"rt":5513.5,"stimulus":"bees-with-color/bee-B1SM.svg","response":1,"trial_type":"image-button-response","trial_index":23,"time_elapsed":291655,"internal_node_id":"0.0-4.0-0.6","subject_id":"610d4df86c4abc6b5ced6fa0","study_id":"6197b3f67c2b5cd3b6d9596a","session_id":"6197b577df661afc98bf5fed","condition":"contingent","relevant_dimensions":["antennae","wings"],"bee_group":{"antennae":"B","wings":"1","pattern":"X","legs":"X"},"action":"avoid","summary":"good-avoid","bonus":0.04},{"rt":1538.8000000044703,"stimulus":"\n                    <p><b>Action: <em>avoid</em></b></p>\n                    <p>This is the bee that you just saw.</p>\n                    <img src=\"bees-with-color/bee-B1SM.svg\" width=\"200\">\n                    <p><br>Your bonus pay is unchanged, and remains at $0.58.</p>\n            ","response":0,"trial_type":"html-button-response","trial_index":24,"time_elapsed":293197,"internal_node_id":"0.0-4.0-1.6","subject_id":"610d4df86c4abc6b5ced6fa0","study_id":"6197b3f67c2b5cd3b6d9596a","session_id":"6197b577df661afc98bf5fed","condition":"contingent","relevant_dimensions":["antennae","wings"],"bee_group":{"antennae":"B","wings":"1","pattern":"X","legs":"X"},"bonus":0.04},{"rt":2370.2999999970198,"stimulus":"bees-with-color/bee-B2DF.svg","response":1,"trial_type":"image-button-response","trial_index":25,"time_elapsed":295575,"internal_node_id":"0.0-4.0-0.7","subject_id":"610d4df86c4abc6b5ced6fa0","study_id":"6197b3f67c2b5cd3b6d9596a","session_id":"6197b577df661afc98bf5fed","condition":"contingent","relevant_dimensions":["antennae","wings"],"bee_group":{"antennae":"B","wings":"1","pattern":"X","legs":"X"},"action":"avoid","summary":"bad-avoid","bonus":0.04},{"rt":1946.5,"stimulus":"\n                    <p><b>Action: <em>avoid</em></b></p>\n                    <p>This is the bee that you just saw.</p>\n                    <img src=\"bees-with-color/bee-B2DF.svg\" width=\"200\">\n                    <p><br>Your bonus pay is unchanged, and remains at $0.58.</p>\n            ","response":0,"trial_type":"html-button-response","trial_index":26,"time_elapsed":297523,"internal_node_id":"0.0-4.0-1.7","subject_id":"610d4df86c4abc6b5ced6fa0","study_id":"6197b3f67c2b5cd3b6d9596a","session_id":"6197b577df661afc98bf5fed","condition":"contingent","relevant_dimensions":["antennae","wings"],"bee_group":{"antennae":"B","wings":"1","pattern":"X","legs":"X"},"bonus":0.04},{"rt":1862.1999999955297,"stimulus":"bees-with-color/bee-B2SF.svg","response":0,"trial_type":"image-button-response","trial_index":27,"time_elapsed":299390,"internal_node_id":"0.0-4.0-0.8","subject_id":"610d4df86c4abc6b5ced6fa0","study_id":"6197b3f67c2b5cd3b6d9596a","session_id":"6197b577df661afc98bf5fed","condition":"contingent","relevant_dimensions":["antennae","wings"],"bee_group":{"antennae":"B","wings":"1","pattern":"X","legs":"X"},"action":"harvest","summary":"good-harvest","bonus":0.04},{"rt":1298.8999999985099,"stimulus":"\n                    <p><b>Action: <em>harvest</em></b></p>\n                    <p>This is the bee that you just saw.</p>\n                    <img src=\"bees-with-color/bee-B2SF.svg\" width=\"200\">\n                    <p><span class=\"greenText\"><b>Successful harvest!</b></span><br>Your pay has increased by $0.02. Your bonus pay is now $0.60.</p>\n            ","response":0,"trial_type":"html-button-response","trial_index":28,"time_elapsed":300693,"internal_node_id":"0.0-4.0-1.8","subject_id":"610d4df86c4abc6b5ced6fa0","study_id":"6197b3f67c2b5cd3b6d9596a","session_id":"6197b577df661afc98bf5fed","condition":"contingent","relevant_dimensions":["antennae","wings"],"bee_group":{"antennae":"B","wings":"1","pattern":"X","legs":"X"},"bonus":0.04},{"rt":1407.1000000014901,"stimulus":"bees-with-color/bee-A2SF.svg","response":0,"trial_type":"image-button-response","trial_index":29,"time_elapsed":302105,"internal_node_id":"0.0-4.0-0.9","subject_id":"610d4df86c4abc6b5ced6fa0","study_id":"6197b3f67c2b5cd3b6d9596a","session_id":"6197b577df661afc98bf5fed","condition":"contingent","relevant_dimensions":["antennae","wings"],"bee_group":{"antennae":"B","wings":"1","pattern":"X","legs":"X"},"action":"harvest","summary":"good-harvest","bonus":0.04},{"rt":1398.2999999970198,"stimulus":"\n                    <p><b>Action: <em>harvest</em></b></p>\n                    <p>This is the bee that you just saw.</p>\n                    <img src=\"bees-with-color/bee-A2SF.svg\" width=\"200\">\n                    <p><span class=\"greenText\"><b>Successful harvest!</b></span><br>Your pay has increased by $0.02. Your bonus pay is now $0.62.</p>\n            ","response":0,"trial_type":"html-button-response","trial_index":30,"time_elapsed":303507,"internal_node_id":"0.0-4.0-1.9","subject_id":"610d4df86c4abc6b5ced6fa0","study_id":"6197b3f67c2b5cd3b6d9596a","session_id":"6197b577df661afc98bf5fed","condition":"contingent","relevant_dimensions":["antennae","wings"],"bee_group":{"antennae":"B","wings":"1","pattern":"X","legs":"X"},"bonus":0.04},{"rt":2408.2999999970198,"stimulus":"bees-with-color/bee-B1DM.svg","response":1,"trial_type":"image-button-response","trial_index":31,"time_elapsed":305920,"internal_node_id":"0.0-4.0-0.10","subject_id":"610d4df86c4abc6b5ced6fa0","study_id":"6197b3f67c2b5cd3b6d9596a","session_id":"6197b577df661afc98bf5fed","condition":"contingent","relevant_dimensions":["antennae","wings"],"bee_group":{"antennae":"B","wings":"1","pattern":"X","legs":"X"},"action":"avoid","summary":"good-avoid","bonus":0.04},{"rt":1693.6000000014901,"stimulus":"\n                    <p><b>Action: <em>avoid</em></b></p>\n                    <p>This is the bee that you just saw.</p>\n                    <img src=\"bees-with-color/bee-B1DM.svg\" width=\"200\">\n                    <p><br>Your bonus pay is unchanged, and remains at $0.62.</p>\n            ","response":0,"trial_type":"html-button-response","trial_index":32,"time_elapsed":307617,"internal_node_id":"0.0-4.0-1.10","subject_id":"610d4df86c4abc6b5ced6fa0","study_id":"6197b3f67c2b5cd3b6d9596a","session_id":"6197b577df661afc98bf5fed","condition":"contingent","relevant_dimensions":["antennae","wings"],"bee_group":{"antennae":"B","wings":"1","pattern":"X","legs":"X"},"bonus":0.04},{"rt":2261.3000000044703,"stimulus":"bees-with-color/bee-B2DM.svg","response":0,"trial_type":"image-button-response","trial_index":33,"time_elapsed":309883,"internal_node_id":"0.0-4.0-0.11","subject_id":"610d4df86c4abc6b5ced6fa0","study_id":"6197b3f67c2b5cd3b6d9596a","session_id":"6197b577df661afc98bf5fed","condition":"contingent","relevant_dimensions":["antennae","wings"],"bee_group":{"antennae":"B","wings":"1","pattern":"X","legs":"X"},"action":"harvest","summary":"good-harvest","bonus":0.04},{"rt":1629.5999999940395,"stimulus":"\n                    <p><b>Action: <em>harvest</em></b></p>\n                    <p>This is the bee that you just saw.</p>\n                    <img src=\"bees-with-color/bee-B2DM.svg\" width=\"200\">\n                    <p><span class=\"greenText\"><b>Successful harvest!</b></span><br>Your pay has increased by $0.02. Your bonus pay is now $0.64.</p>\n            ","response":0,"trial_type":"html-button-response","trial_index":34,"time_elapsed":311516,"internal_node_id":"0.0-4.0-1.11","subject_id":"610d4df86c4abc6b5ced6fa0","study_id":"6197b3f67c2b5cd3b6d9596a","session_id":"6197b577df661afc98bf5fed","condition":"contingent","relevant_dimensions":["antennae","wings"],"bee_group":{"antennae":"B","wings":"1","pattern":"X","legs":"X"},"bonus":0.04},{"rt":1755.6000000014901,"stimulus":"bees-with-color/bee-B1SF.svg","response":0,"trial_type":"image-button-response","trial_index":35,"time_elapsed":313276,"internal_node_id":"0.0-4.0-0.12","subject_id":"610d4df86c4abc6b5ced6fa0","study_id":"6197b3f67c2b5cd3b6d9596a","session_id":"6197b577df661afc98bf5fed","condition":"contingent","relevant_dimensions":["antennae","wings"],"bee_group":{"antennae":"B","wings":"1","pattern":"X","legs":"X"},"action":"harvest","summary":"bad-harvest","bonus":0.04},{"rt":1938.5,"stimulus":"\n                    <p><b>Action: <em>harvest</em></b></p>\n                    <p>This is the bee that you just saw.</p>\n                    <img src=\"bees-with-color/bee-B1SF.svg\" width=\"200\">\n                    <p><span class=\"redText\">Bad choice, the bee was angry.</span><br><b>You have been stung!</b><br>Your pay has been decreased by $0.10. Your bonus pay is now $0.54.</p>\n            ","response":0,"trial_type":"html-button-response","trial_index":36,"time_elapsed":315221,"internal_node_id":"0.0-4.0-1.12","subject_id":"610d4df86c4abc6b5ced6fa0","study_id":"6197b3f67c2b5cd3b6d9596a","session_id":"6197b577df661afc98bf5fed","condition":"contingent","relevant_dimensions":["antennae","wings"],"bee_group":{"antennae":"B","wings":"1","pattern":"X","legs":"X"},"bonus":0.04},{"rt":2637.39999999851,"stimulus":"bees-with-color/bee-A2DF.svg","response":0,"trial_type":"image-button-response","trial_index":37,"time_elapsed":317862,"internal_node_id":"0.0-4.0-0.13","subject_id":"610d4df86c4abc6b5ced6fa0","study_id":"6197b3f67c2b5cd3b6d9596a","session_id":"6197b577df661afc98bf5fed","condition":"contingent","relevant_dimensions":["antennae","wings"],"bee_group":{"antennae":"B","wings":"1","pattern":"X","legs":"X"},"action":"harvest","summary":"good-harvest","bonus":0.04},{"rt":1546.3000000044703,"stimulus":"\n                    <p><b>Action: <em>harvest</em></b></p>\n                    <p>This is the bee that you just saw.</p>\n                    <img src=\"bees-with-color/bee-A2DF.svg\" width=\"200\">\n                    <p><span class=\"greenText\"><b>Successful harvest!</b></span><br>Your pay has increased by $0.02. Your bonus pay is now $0.56.</p>\n            ","response":0,"trial_type":"html-button-response","trial_index":38,"time_elapsed":319412,"internal_node_id":"0.0-4.0-1.13","subject_id":"610d4df86c4abc6b5ced6fa0","study_id":"6197b3f67c2b5cd3b6d9596a","session_id":"6197b577df661afc98bf5fed","condition":"contingent","relevant_dimensions":["antennae","wings"],"bee_group":{"antennae":"B","wings":"1","pattern":"X","legs":"X"},"bonus":0.04},{"rt":1704.7000000029802,"stimulus":"bees-with-color/bee-B2SM.svg","response":1,"trial_type":"image-button-response","trial_index":39,"time_elapsed":321121,"internal_node_id":"0.0-4.0-0.14","subject_id":"610d4df86c4abc6b5ced6fa0","study_id":"6197b3f67c2b5cd3b6d9596a","session_id":"6197b577df661afc98bf5fed","condition":"contingent","relevant_dimensions":["antennae","wings"],"bee_group":{"antennae":"B","wings":"1","pattern":"X","legs":"X"},"action":"avoid","summary":"bad-avoid","bonus":0.04},{"rt":1333,"stimulus":"\n                    <p><b>Action: <em>avoid</em></b></p>\n                    <p>This is the bee that you just saw.</p>\n                    <img src=\"bees-with-color/bee-B2SM.svg\" width=\"200\">\n                    <p><br>Your bonus pay is unchanged, and remains at $0.56.</p>\n            ","response":0,"trial_type":"html-button-response","trial_index":40,"time_elapsed":322457,"internal_node_id":"0.0-4.0-1.14","subject_id":"610d4df86c4abc6b5ced6fa0","study_id":"6197b3f67c2b5cd3b6d9596a","session_id":"6197b577df661afc98bf5fed","condition":"contingent","relevant_dimensions":["antennae","wings"],"bee_group":{"antennae":"B","wings":"1","pattern":"X","legs":"X"},"bonus":0.04},{"rt":1769.1000000014901,"stimulus":"bees-with-color/bee-A1DM.svg","response":1,"trial_type":"image-button-response","trial_index":41,"time_elapsed":324233,"internal_node_id":"0.0-4.0-0.15","subject_id":"610d4df86c4abc6b5ced6fa0","study_id":"6197b3f67c2b5cd3b6d9596a","session_id":"6197b577df661afc98bf5fed","condition":"contingent","relevant_dimensions":["antennae","wings"],"bee_group":{"antennae":"B","wings":"1","pattern":"X","legs":"X"},"action":"avoid","summary":"bad-avoid","bonus":0.04},{"rt":1427,"stimulus":"\n                    <p><b>Action: <em>avoid</em></b></p>\n                    <p>This is the bee that you just saw.</p>\n                    <img src=\"bees-with-color/bee-A1DM.svg\" width=\"200\">\n                    <p><br>Your bonus pay is unchanged, and remains at $0.56.</p>\n            ","response":0,"trial_type":"html-button-response","trial_index":42,"time_elapsed":325663,"internal_node_id":"0.0-4.0-1.15","subject_id":"610d4df86c4abc6b5ced6fa0","study_id":"6197b3f67c2b5cd3b6d9596a","session_id":"6197b577df661afc98bf5fed","condition":"contingent","relevant_dimensions":["antennae","wings"],"bee_group":{"antennae":"B","wings":"1","pattern":"X","legs":"X"},"bonus":0.04},{"rt":2659.8000000044703,"stimulus":"bees-with-color/bee-B2DF.svg","response":0,"trial_type":"image-button-response","trial_index":43,"time_elapsed":328326,"internal_node_id":"0.0-4.0-0.16","subject_id":"610d4df86c4abc6b5ced6fa0","study_id":"6197b3f67c2b5cd3b6d9596a","session_id":"6197b577df661afc98bf5fed","condition":"contingent","relevant_dimensions":["antennae","wings"],"bee_group":{"antennae":"B","wings":"1","pattern":"X","legs":"X"},"action":"harvest","summary":"good-harvest","bonus":0.04},{"rt":1313.7999999970198,"stimulus":"\n                    <p><b>Action: <em>harvest</em></b></p>\n                    <p>This is the bee that you just saw.</p>\n                    <img src=\"bees-with-color/bee-B2DF.svg\" width=\"200\">\n                    <p><span class=\"greenText\"><b>Successful harvest!</b></span><br>Your pay has increased by $0.02. Your bonus pay is now $0.58.</p>\n            ","response":0,"trial_type":"html-button-response","trial_index":44,"time_elapsed":329643,"internal_node_id":"0.0-4.0-1.16","subject_id":"610d4df86c4abc6b5ced6fa0","study_id":"6197b3f67c2b5cd3b6d9596a","session_id":"6197b577df661afc98bf5fed","condition":"contingent","relevant_dimensions":["antennae","wings"],"bee_group":{"antennae":"B","wings":"1","pattern":"X","legs":"X"},"bonus":0.04},{"rt":2377,"stimulus":"bees-with-color/bee-A1SM.svg","response":1,"trial_type":"image-button-response","trial_index":45,"time_elapsed":332025,"internal_node_id":"0.0-4.0-0.17","subject_id":"610d4df86c4abc6b5ced6fa0","study_id":"6197b3f67c2b5cd3b6d9596a","session_id":"6197b577df661afc98bf5fed","condition":"contingent","relevant_dimensions":["antennae","wings"],"bee_group":{"antennae":"B","wings":"1","pattern":"X","legs":"X"},"action":"avoid","summary":"bad-avoid","bonus":0.04},{"rt":1410.1000000014901,"stimulus":"\n                    <p><b>Action: <em>avoid</em></b></p>\n                    <p>This is the bee that you just saw.</p>\n                    <img src=\"bees-with-color/bee-A1SM.svg\" width=\"200\">\n                    <p><br>Your bonus pay is unchanged, and remains at $0.58.</p>\n            ","response":0,"trial_type":"html-button-response","trial_index":46,"time_elapsed":333440,"internal_node_id":"0.0-4.0-1.17","subject_id":"610d4df86c4abc6b5ced6fa0","study_id":"6197b3f67c2b5cd3b6d9596a","session_id":"6197b577df661afc98bf5fed","condition":"contingent","relevant_dimensions":["antennae","wings"],"bee_group":{"antennae":"B","wings":"1","pattern":"X","legs":"X"},"bonus":0.04},{"rt":2148.39999999851,"stimulus":"bees-with-color/bee-B1SF.svg","response":1,"trial_type":"image-button-response","trial_index":47,"time_elapsed":335591,"internal_node_id":"0.0-4.0-0.18","subject_id":"610d4df86c4abc6b5ced6fa0","study_id":"6197b3f67c2b5cd3b6d9596a","session_id":"6197b577df661afc98bf5fed","condition":"contingent","relevant_dimensions":["antennae","wings"],"bee_group":{"antennae":"B","wings":"1","pattern":"X","legs":"X"},"action":"avoid","summary":"good-avoid","bonus":0.04},{"rt":1254.1999999955297,"stimulus":"\n                    <p><b>Action: <em>avoid</em></b></p>\n                    <p>This is the bee that you just saw.</p>\n                    <img src=\"bees-with-color/bee-B1SF.svg\" width=\"200\">\n                    <p><br>Your bonus pay is unchanged, and remains at $0.58.</p>\n            ","response":0,"trial_type":"html-button-response","trial_index":48,"time_elapsed":336849,"internal_node_id":"0.0-4.0-1.18","subject_id":"610d4df86c4abc6b5ced6fa0","study_id":"6197b3f67c2b5cd3b6d9596a","session_id":"6197b577df661afc98bf5fed","condition":"contingent","relevant_dimensions":["antennae","wings"],"bee_group":{"antennae":"B","wings":"1","pattern":"X","legs":"X"},"bonus":0.04},{"rt":1753,"stimulus":"bees-with-color/bee-A1DF.svg","response":0,"trial_type":"image-button-response","trial_index":49,"time_elapsed":338607,"internal_node_id":"0.0-4.0-0.19","subject_id":"610d4df86c4abc6b5ced6fa0","study_id":"6197b3f67c2b5cd3b6d9596a","session_id":"6197b577df661afc98bf5fed","condition":"contingent","relevant_dimensions":["antennae","wings"],"bee_group":{"antennae":"B","wings":"1","pattern":"X","legs":"X"},"action":"harvest","summary":"good-harvest","bonus":0.04},{"rt":1272,"stimulus":"\n                    <p><b>Action: <em>harvest</em></b></p>\n                    <p>This is the bee that you just saw.</p>\n                    <img src=\"bees-with-color/bee-A1DF.svg\" width=\"200\">\n                    <p><span class=\"greenText\"><b>Successful harvest!</b></span><br>Your pay has increased by $0.02. Your bonus pay is now $0.60.</p>\n            ","response":0,"trial_type":"html-button-response","trial_index":50,"time_elapsed":339883,"internal_node_id":"0.0-4.0-1.19","subject_id":"610d4df86c4abc6b5ced6fa0","study_id":"6197b3f67c2b5cd3b6d9596a","session_id":"6197b577df661afc98bf5fed","condition":"contingent","relevant_dimensions":["antennae","wings"],"bee_group":{"antennae":"B","wings":"1","pattern":"X","legs":"X"},"bonus":0.04},{"rt":2021.3999999985099,"stimulus":"bees-with-color/bee-B1DM.svg","response":1,"trial_type":"image-button-response","trial_index":51,"time_elapsed":341906,"internal_node_id":"0.0-4.0-0.20","subject_id":"610d4df86c4abc6b5ced6fa0","study_id":"6197b3f67c2b5cd3b6d9596a","session_id":"6197b577df661afc98bf5fed","condition":"contingent","relevant_dimensions":["antennae","wings"],"bee_group":{"antennae":"B","wings":"1","pattern":"X","legs":"X"},"action":"avoid","summary":"good-avoid","bonus":0.04},{"rt":1287.1000000014901,"stimulus":"\n                    <p><b>Action: <em>avoid</em></b></p>\n                    <p>This is the bee that you just saw.</p>\n                    <img src=\"bees-with-color/bee-B1DM.svg\" width=\"200\">\n                    <p><br>Your bonus pay is unchanged, and remains at $0.60.</p>\n            ","response":0,"trial_type":"html-button-response","trial_index":52,"time_elapsed":343198,"internal_node_id":"0.0-4.0-1.20","subject_id":"610d4df86c4abc6b5ced6fa0","study_id":"6197b3f67c2b5cd3b6d9596a","session_id":"6197b577df661afc98bf5fed","condition":"contingent","relevant_dimensions":["antennae","wings"],"bee_group":{"antennae":"B","wings":"1","pattern":"X","legs":"X"},"bonus":0.04},{"rt":3247.8000000044703,"stimulus":"bees-with-color/bee-B2SM.svg","response":1,"trial_type":"image-button-response","trial_index":53,"time_elapsed":346450,"internal_node_id":"0.0-4.0-0.21","subject_id":"610d4df86c4abc6b5ced6fa0","study_id":"6197b3f67c2b5cd3b6d9596a","session_id":"6197b577df661afc98bf5fed","condition":"contingent","relevant_dimensions":["antennae","wings"],"bee_group":{"antennae":"B","wings":"1","pattern":"X","legs":"X"},"action":"avoid","summary":"bad-avoid","bonus":0.04},{"rt":1256.1999999955297,"stimulus":"\n                    <p><b>Action: <em>avoid</em></b></p>\n                    <p>This is the bee that you just saw.</p>\n                    <img src=\"bees-with-color/bee-B2SM.svg\" width=\"200\">\n                    <p><br>Your bonus pay is unchanged, and remains at $0.60.</p>\n            ","response":0,"trial_type":"html-button-response","trial_index":54,"time_elapsed":347712,"internal_node_id":"0.0-4.0-1.21","subject_id":"610d4df86c4abc6b5ced6fa0","study_id":"6197b3f67c2b5cd3b6d9596a","session_id":"6197b577df661afc98bf5fed","condition":"contingent","relevant_dimensions":["antennae","wings"],"bee_group":{"antennae":"B","wings":"1","pattern":"X","legs":"X"},"bonus":0.04},{"rt":2392.7999999970198,"stimulus":"bees-with-color/bee-A2DM.svg","response":0,"trial_type":"image-button-response","trial_index":55,"time_elapsed":350109,"internal_node_id":"0.0-4.0-0.22","subject_id":"610d4df86c4abc6b5ced6fa0","study_id":"6197b3f67c2b5cd3b6d9596a","session_id":"6197b577df661afc98bf5fed","condition":"contingent","relevant_dimensions":["antennae","wings"],"bee_group":{"antennae":"B","wings":"1","pattern":"X","legs":"X"},"action":"harvest","summary":"good-harvest","bonus":0.04},{"rt":1368.8000000044703,"stimulus":"\n                    <p><b>Action: <em>harvest</em></b></p>\n                    <p>This is the bee that you just saw.</p>\n                    <img src=\"bees-with-color/bee-A2DM.svg\" width=\"200\">\n                    <p><span class=\"greenText\"><b>Successful harvest!</b></span><br>Your pay has increased by $0.02. Your bonus pay is now $0.62.</p>\n            ","response":0,"trial_type":"html-button-response","trial_index":56,"time_elapsed":351481,"internal_node_id":"0.0-4.0-1.22","subject_id":"610d4df86c4abc6b5ced6fa0","study_id":"6197b3f67c2b5cd3b6d9596a","session_id":"6197b577df661afc98bf5fed","condition":"contingent","relevant_dimensions":["antennae","wings"],"bee_group":{"antennae":"B","wings":"1","pattern":"X","legs":"X"},"bonus":0.04},{"rt":4679.19999999553,"stimulus":"bees-with-color/bee-B2SF.svg","response":0,"trial_type":"image-button-response","trial_index":57,"time_elapsed":356162,"internal_node_id":"0.0-4.0-0.23","subject_id":"610d4df86c4abc6b5ced6fa0","study_id":"6197b3f67c2b5cd3b6d9596a","session_id":"6197b577df661afc98bf5fed","condition":"contingent","relevant_dimensions":["antennae","wings"],"bee_group":{"antennae":"B","wings":"1","pattern":"X","legs":"X"},"action":"harvest","summary":"good-harvest","bonus":0.04},{"rt":1329.1000000014901,"stimulus":"\n                    <p><b>Action: <em>harvest</em></b></p>\n                    <p>This is the bee that you just saw.</p>\n                    <img src=\"bees-with-color/bee-B2SF.svg\" width=\"200\">\n                    <p><span class=\"greenText\"><b>Successful harvest!</b></span><br>Your pay has increased by $0.02. Your bonus pay is now $0.64.</p>\n            ","response":0,"trial_type":"html-button-response","trial_index":58,"time_elapsed":357494,"internal_node_id":"0.0-4.0-1.23","subject_id":"610d4df86c4abc6b5ced6fa0","study_id":"6197b3f67c2b5cd3b6d9596a","session_id":"6197b577df661afc98bf5fed","condition":"contingent","relevant_dimensions":["antennae","wings"],"bee_group":{"antennae":"B","wings":"1","pattern":"X","legs":"X"},"bonus":0.04},{"rt":1608.5,"stimulus":"bees-with-color/bee-B2DM.svg","response":0,"trial_type":"image-button-response","trial_index":59,"time_elapsed":359107,"internal_node_id":"0.0-4.0-0.24","subject_id":"610d4df86c4abc6b5ced6fa0","study_id":"6197b3f67c2b5cd3b6d9596a","session_id":"6197b577df661afc98bf5fed","condition":"contingent","relevant_dimensions":["antennae","wings"],"bee_group":{"antennae":"B","wings":"1","pattern":"X","legs":"X"},"action":"harvest","summary":"good-harvest","bonus":0.04},{"rt":1242.6000000014901,"stimulus":"\n                    <p><b>Action: <em>harvest</em></b></p>\n                    <p>This is the bee that you just saw.</p>\n                    <img src=\"bees-with-color/bee-B2DM.svg\" width=\"200\">\n                    <p><span class=\"greenText\"><b>Successful harvest!</b></span><br>Your pay has increased by $0.02. Your bonus pay is now $0.66.</p>\n            ","response":0,"trial_type":"html-button-response","trial_index":60,"time_elapsed":360353,"internal_node_id":"0.0-4.0-1.24","subject_id":"610d4df86c4abc6b5ced6fa0","study_id":"6197b3f67c2b5cd3b6d9596a","session_id":"6197b577df661afc98bf5fed","condition":"contingent","relevant_dimensions":["antennae","wings"],"bee_group":{"antennae":"B","wings":"1","pattern":"X","legs":"X"},"bonus":0.04},{"rt":1888.7000000029802,"stimulus":"bees-with-color/bee-A2SM.svg","response":1,"trial_type":"image-button-response","trial_index":61,"time_elapsed":362245,"internal_node_id":"0.0-4.0-0.25","subject_id":"610d4df86c4abc6b5ced6fa0","study_id":"6197b3f67c2b5cd3b6d9596a","session_id":"6197b577df661afc98bf5fed","condition":"contingent","relevant_dimensions":["antennae","wings"],"bee_group":{"antennae":"B","wings":"1","pattern":"X","legs":"X"},"action":"avoid","summary":"bad-avoid","bonus":0.04},{"rt":1354.2999999970198,"stimulus":"\n                    <p><b>Action: <em>avoid</em></b></p>\n                    <p>This is the bee that you just saw.</p>\n                    <img src=\"bees-with-color/bee-A2SM.svg\" width=\"200\">\n                    <p><br>Your bonus pay is unchanged, and remains at $0.66.</p>\n            ","response":0,"trial_type":"html-button-response","trial_index":62,"time_elapsed":363602,"internal_node_id":"0.0-4.0-1.25","subject_id":"610d4df86c4abc6b5ced6fa0","study_id":"6197b3f67c2b5cd3b6d9596a","session_id":"6197b577df661afc98bf5fed","condition":"contingent","relevant_dimensions":["antennae","wings"],"bee_group":{"antennae":"B","wings":"1","pattern":"X","legs":"X"},"bonus":0.04},{"rt":1659.1000000014901,"stimulus":"bees-with-color/bee-A1SF.svg","response":1,"trial_type":"image-button-response","trial_index":63,"time_elapsed":365264,"internal_node_id":"0.0-4.0-0.26","subject_id":"610d4df86c4abc6b5ced6fa0","study_id":"6197b3f67c2b5cd3b6d9596a","session_id":"6197b577df661afc98bf5fed","condition":"contingent","relevant_dimensions":["antennae","wings"],"bee_group":{"antennae":"B","wings":"1","pattern":"X","legs":"X"},"action":"avoid","summary":"bad-avoid","bonus":0.04},{"rt":1208.1000000014901,"stimulus":"\n                    <p><b>Action: <em>avoid</em></b></p>\n                    <p>This is the bee that you just saw.</p>\n                    <img src=\"bees-with-color/bee-A1SF.svg\" width=\"200\">\n                    <p><br>Your bonus pay is unchanged, and remains at $0.66.</p>\n            ","response":0,"trial_type":"html-button-response","trial_index":64,"time_elapsed":366476,"internal_node_id":"0.0-4.0-1.26","subject_id":"610d4df86c4abc6b5ced6fa0","study_id":"6197b3f67c2b5cd3b6d9596a","session_id":"6197b577df661afc98bf5fed","condition":"contingent","relevant_dimensions":["antennae","wings"],"bee_group":{"antennae":"B","wings":"1","pattern":"X","legs":"X"},"bonus":0.04},{"rt":3275.2000000029802,"stimulus":"bees-with-color/bee-A2SF.svg","response":1,"trial_type":"image-button-response","trial_index":65,"time_elapsed":369756,"internal_node_id":"0.0-4.0-0.27","subject_id":"610d4df86c4abc6b5ced6fa0","study_id":"6197b3f67c2b5cd3b6d9596a","session_id":"6197b577df661afc98bf5fed","condition":"contingent","relevant_dimensions":["antennae","wings"],"bee_group":{"antennae":"B","wings":"1","pattern":"X","legs":"X"},"action":"avoid","summary":"bad-avoid","bonus":0.04},{"rt":1322,"stimulus":"\n                    <p><b>Action: <em>avoid</em></b></p>\n                    <p>This is the bee that you just saw.</p>\n                    <img src=\"bees-with-color/bee-A2SF.svg\" width=\"200\">\n                    <p><br>Your bonus pay is unchanged, and remains at $0.66.</p>\n            ","response":0,"trial_type":"html-button-response","trial_index":66,"time_elapsed":371082,"internal_node_id":"0.0-4.0-1.27","subject_id":"610d4df86c4abc6b5ced6fa0","study_id":"6197b3f67c2b5cd3b6d9596a","session_id":"6197b577df661afc98bf5fed","condition":"contingent","relevant_dimensions":["antennae","wings"],"bee_group":{"antennae":"B","wings":"1","pattern":"X","legs":"X"},"bonus":0.04},{"rt":2714.7000000029802,"stimulus":"bees-with-color/bee-B1DF.svg","response":0,"trial_type":"image-button-response","trial_index":67,"time_elapsed":373801,"internal_node_id":"0.0-4.0-0.28","subject_id":"610d4df86c4abc6b5ced6fa0","study_id":"6197b3f67c2b5cd3b6d9596a","session_id":"6197b577df661afc98bf5fed","condition":"contingent","relevant_dimensions":["antennae","wings"],"bee_group":{"antennae":"B","wings":"1","pattern":"X","legs":"X"},"action":"harvest","summary":"bad-harvest","bonus":0.04},{"rt":1402.2999999970198,"stimulus":"\n                    <p><b>Action: <em>harvest</em></b></p>\n                    <p>This is the bee that you just saw.</p>\n                    <img src=\"bees-with-color/bee-B1DF.svg\" width=\"200\">\n                    <p><span class=\"redText\">Bad choice, the bee was angry.</span><br><b>You have been stung!</b><br>Your pay has been decreased by $0.10. Your bonus pay is now $0.56.</p>\n            ","response":0,"trial_type":"html-button-response","trial_index":68,"time_elapsed":375205,"internal_node_id":"0.0-4.0-1.28","subject_id":"610d4df86c4abc6b5ced6fa0","study_id":"6197b3f67c2b5cd3b6d9596a","session_id":"6197b577df661afc98bf5fed","condition":"contingent","relevant_dimensions":["antennae","wings"],"bee_group":{"antennae":"B","wings":"1","pattern":"X","legs":"X"},"bonus":0.04},{"rt":1956.6999999955297,"stimulus":"bees-with-color/bee-A1DM.svg","response":1,"trial_type":"image-button-response","trial_index":69,"time_elapsed":377167,"internal_node_id":"0.0-4.0-0.29","subject_id":"610d4df86c4abc6b5ced6fa0","study_id":"6197b3f67c2b5cd3b6d9596a","session_id":"6197b577df661afc98bf5fed","condition":"contingent","relevant_dimensions":["antennae","wings"],"bee_group":{"antennae":"B","wings":"1","pattern":"X","legs":"X"},"action":"avoid","summary":"bad-avoid","bonus":0.04},{"rt":1616,"stimulus":"\n                    <p><b>Action: <em>avoid</em></b></p>\n                    <p>This is the bee that you just saw.</p>\n                    <img src=\"bees-with-color/bee-A1DM.svg\" width=\"200\">\n                    <p><br>Your bonus pay is unchanged, and remains at $0.56.</p>\n            ","response":0,"trial_type":"html-button-response","trial_index":70,"time_elapsed":378787,"internal_node_id":"0.0-4.0-1.29","subject_id":"610d4df86c4abc6b5ced6fa0","study_id":"6197b3f67c2b5cd3b6d9596a","session_id":"6197b577df661afc98bf5fed","condition":"contingent","relevant_dimensions":["antennae","wings"],"bee_group":{"antennae":"B","wings":"1","pattern":"X","legs":"X"},"bonus":0.04},{"rt":2540.5,"stimulus":"bees-with-color/bee-B1SM.svg","response":1,"trial_type":"image-button-response","trial_index":71,"time_elapsed":381333,"internal_node_id":"0.0-4.0-0.30","subject_id":"610d4df86c4abc6b5ced6fa0","study_id":"6197b3f67c2b5cd3b6d9596a","session_id":"6197b577df661afc98bf5fed","condition":"contingent","relevant_dimensions":["antennae","wings"],"bee_group":{"antennae":"B","wings":"1","pattern":"X","legs":"X"},"action":"avoid","summary":"good-avoid","bonus":0.04},{"rt":1471.2999999970198,"stimulus":"\n                    <p><b>Action: <em>avoid</em></b></p>\n                    <p>This is the bee that you just saw.</p>\n                    <img src=\"bees-with-color/bee-B1SM.svg\" width=\"200\">\n                    <p><br>Your bonus pay is unchanged, and remains at $0.56.</p>\n            ","response":0,"trial_type":"html-button-response","trial_index":72,"time_elapsed":382807,"internal_node_id":"0.0-4.0-1.30","subject_id":"610d4df86c4abc6b5ced6fa0","study_id":"6197b3f67c2b5cd3b6d9596a","session_id":"6197b577df661afc98bf5fed","condition":"contingent","relevant_dimensions":["antennae","wings"],"bee_group":{"antennae":"B","wings":"1","pattern":"X","legs":"X"},"bonus":0.04},{"rt":1826,"stimulus":"bees-with-color/bee-A2DF.svg","response":1,"trial_type":"image-button-response","trial_index":73,"time_elapsed":384638,"internal_node_id":"0.0-4.0-0.31","subject_id":"610d4df86c4abc6b5ced6fa0","study_id":"6197b3f67c2b5cd3b6d9596a","session_id":"6197b577df661afc98bf5fed","condition":"contingent","relevant_dimensions":["antennae","wings"],"bee_group":{"antennae":"B","wings":"1","pattern":"X","legs":"X"},"action":"avoid","summary":"bad-avoid","bonus":0.04},{"rt":1977.5,"stimulus":"\n                    <p><b>Action: <em>avoid</em></b></p>\n                    <p>This is the bee that you just saw.</p>\n                    <img src=\"bees-with-color/bee-A2DF.svg\" width=\"200\">\n                    <p><br>Your bonus pay is unchanged, and remains at $0.56.</p>\n            ","response":0,"trial_type":"html-button-response","trial_index":74,"time_elapsed":386618,"internal_node_id":"0.0-4.0-1.31","subject_id":"610d4df86c4abc6b5ced6fa0","study_id":"6197b3f67c2b5cd3b6d9596a","session_id":"6197b577df661afc98bf5fed","condition":"contingent","relevant_dimensions":["antennae","wings"],"bee_group":{"antennae":"B","wings":"1","pattern":"X","legs":"X"},"bonus":0.04},{"rt":1552.3999999985099,"stimulus":"bees-with-color/bee-B1SF.svg","response":0,"trial_type":"image-button-response","trial_index":75,"time_elapsed":388175,"internal_node_id":"0.0-4.0-0.32","subject_id":"610d4df86c4abc6b5ced6fa0","study_id":"6197b3f67c2b5cd3b6d9596a","session_id":"6197b577df661afc98bf5fed","condition":"contingent","relevant_dimensions":["antennae","wings"],"bee_group":{"antennae":"B","wings":"1","pattern":"X","legs":"X"},"action":"harvest","summary":"bad-harvest","bonus":0.04},{"rt":1719.2999999970198,"stimulus":"\n                    <p><b>Action: <em>harvest</em></b></p>\n                    <p>This is the bee that you just saw.</p>\n                    <img src=\"bees-with-color/bee-B1SF.svg\" width=\"200\">\n                    <p><span class=\"redText\">Bad choice, the bee was angry.</span><br><b>You have been stung!</b><br>Your pay has been decreased by $0.10. Your bonus pay is now $0.46.</p>\n            ","response":0,"trial_type":"html-button-response","trial_index":76,"time_elapsed":389900,"internal_node_id":"0.0-4.0-1.32","subject_id":"610d4df86c4abc6b5ced6fa0","study_id":"6197b3f67c2b5cd3b6d9596a","session_id":"6197b577df661afc98bf5fed","condition":"contingent","relevant_dimensions":["antennae","wings"],"bee_group":{"antennae":"B","wings":"1","pattern":"X","legs":"X"},"bonus":0.04},{"rt":185839.20000000298,"stimulus":"bees-with-color/bee-B1DM.svg","response":0,"trial_type":"image-button-response","trial_index":77,"time_elapsed":575741,"internal_node_id":"0.0-4.0-0.33","subject_id":"610d4df86c4abc6b5ced6fa0","study_id":"6197b3f67c2b5cd3b6d9596a","session_id":"6197b577df661afc98bf5fed","condition":"contingent","relevant_dimensions":["antennae","wings"],"bee_group":{"antennae":"B","wings":"1","pattern":"X","legs":"X"},"action":"harvest","summary":"bad-harvest","bonus":0.04},{"rt":1762.8999999985099,"stimulus":"\n                    <p><b>Action: <em>harvest</em></b></p>\n                    <p>This is the bee that you just saw.</p>\n                    <img src=\"bees-with-color/bee-B1DM.svg\" width=\"200\">\n                    <p><span class=\"redText\">Bad choice, the bee was angry.</span><br><b>You have been stung!</b><br>Your pay has been decreased by $0.10. Your bonus pay is now $0.36.</p>\n            ","response":0,"trial_type":"html-button-response","trial_index":78,"time_elapsed":577509,"internal_node_id":"0.0-4.0-1.33","subject_id":"610d4df86c4abc6b5ced6fa0","study_id":"6197b3f67c2b5cd3b6d9596a","session_id":"6197b577df661afc98bf5fed","condition":"contingent","relevant_dimensions":["antennae","wings"],"bee_group":{"antennae":"B","wings":"1","pattern":"X","legs":"X"},"bonus":0.04},{"rt":2062.2000000029802,"stimulus":"bees-with-color/bee-B2SM.svg","response":0,"trial_type":"image-button-response","trial_index":79,"time_elapsed":579576,"internal_node_id":"0.0-4.0-0.34","subject_id":"610d4df86c4abc6b5ced6fa0","study_id":"6197b3f67c2b5cd3b6d9596a","session_id":"6197b577df661afc98bf5fed","condition":"contingent","relevant_dimensions":["antennae","wings"],"bee_group":{"antennae":"B","wings":"1","pattern":"X","legs":"X"},"action":"harvest","summary":"good-harvest","bonus":0.04},{"rt":1222,"stimulus":"\n                    <p><b>Action: <em>harvest</em></b></p>\n                    <p>This is the bee that you just saw.</p>\n                    <img src=\"bees-with-color/bee-B2SM.svg\" width=\"200\">\n                    <p><span class=\"greenText\"><b>Successful harvest!</b></span><br>Your pay has increased by $0.02. Your bonus pay is now $0.38.</p>\n            ","response":0,"trial_type":"html-button-response","trial_index":80,"time_elapsed":580804,"internal_node_id":"0.0-4.0-1.34","subject_id":"610d4df86c4abc6b5ced6fa0","study_id":"6197b3f67c2b5cd3b6d9596a","session_id":"6197b577df661afc98bf5fed","condition":"contingent","relevant_dimensions":["antennae","wings"],"bee_group":{"antennae":"B","wings":"1","pattern":"X","legs":"X"},"bonus":0.04},{"rt":1805.3999999985099,"stimulus":"bees-with-color/bee-A1DM.svg","response":0,"trial_type":"image-button-response","trial_index":81,"time_elapsed":582613,"internal_node_id":"0.0-4.0-0.35","subject_id":"610d4df86c4abc6b5ced6fa0","study_id":"6197b3f67c2b5cd3b6d9596a","session_id":"6197b577df661afc98bf5fed","condition":"contingent","relevant_dimensions":["antennae","wings"],"bee_group":{"antennae":"B","wings":"1","pattern":"X","legs":"X"},"action":"harvest","summary":"good-harvest","bonus":0.04},{"rt":1411.1000000014901,"stimulus":"\n                    <p><b>Action: <em>harvest</em></b></p>\n                    <p>This is the bee that you just saw.</p>\n                    <img src=\"bees-with-color/bee-A1DM.svg\" width=\"200\">\n                    <p><span class=\"greenText\"><b>Successful harvest!</b></span><br>Your pay has increased by $0.02. Your bonus pay is now $0.40.</p>\n            ","response":0,"trial_type":"html-button-response","trial_index":82,"time_elapsed":584032,"internal_node_id":"0.0-4.0-1.35","subject_id":"610d4df86c4abc6b5ced6fa0","study_id":"6197b3f67c2b5cd3b6d9596a","session_id":"6197b577df661afc98bf5fed","condition":"contingent","relevant_dimensions":["antennae","wings"],"bee_group":{"antennae":"B","wings":"1","pattern":"X","legs":"X"},"bonus":0.04},{"rt":2624.4000000059605,"stimulus":"bees-with-color/bee-A2DF.svg","response":0,"trial_type":"image-button-response","trial_index":83,"time_elapsed":586661,"internal_node_id":"0.0-4.0-0.36","subject_id":"610d4df86c4abc6b5ced6fa0","study_id":"6197b3f67c2b5cd3b6d9596a","session_id":"6197b577df661afc98bf5fed","condition":"contingent","relevant_dimensions":["antennae","wings"],"bee_group":{"antennae":"B","wings":"1","pattern":"X","legs":"X"},"action":"harvest","summary":"good-harvest","bonus":0.04},{"rt":1273.5,"stimulus":"\n                    <p><b>Action: <em>harvest</em></b></p>\n                    <p>This is the bee that you just saw.</p>\n                    <img src=\"bees-with-color/bee-A2DF.svg\" width=\"200\">\n                    <p><span class=\"greenText\"><b>Successful harvest!</b></span><br>Your pay has increased by $0.02. Your bonus pay is now $0.42.</p>\n            ","response":0,"trial_type":"html-button-response","trial_index":84,"time_elapsed":587941,"internal_node_id":"0.0-4.0-1.36","subject_id":"610d4df86c4abc6b5ced6fa0","study_id":"6197b3f67c2b5cd3b6d9596a","session_id":"6197b577df661afc98bf5fed","condition":"contingent","relevant_dimensions":["antennae","wings"],"bee_group":{"antennae":"B","wings":"1","pattern":"X","legs":"X"},"bonus":0.04},{"rt":1532,"stimulus":"bees-with-color/bee-A1SF.svg","response":1,"trial_type":"image-button-response","trial_index":85,"time_elapsed":589476,"internal_node_id":"0.0-4.0-0.37","subject_id":"610d4df86c4abc6b5ced6fa0","study_id":"6197b3f67c2b5cd3b6d9596a","session_id":"6197b577df661afc98bf5fed","condition":"contingent","relevant_dimensions":["antennae","wings"],"bee_group":{"antennae":"B","wings":"1","pattern":"X","legs":"X"},"action":"avoid","summary":"bad-avoid","bonus":0.04},{"rt":1206.6999999955297,"stimulus":"\n                    <p><b>Action: <em>avoid</em></b></p>\n                    <p>This is the bee that you just saw.</p>\n                    <img src=\"bees-with-color/bee-A1SF.svg\" width=\"200\">\n                    <p><br>Your bonus pay is unchanged, and remains at $0.42.</p>\n            ","response":0,"trial_type":"html-button-response","trial_index":86,"time_elapsed":590686,"internal_node_id":"0.0-4.0-1.37","subject_id":"610d4df86c4abc6b5ced6fa0","study_id":"6197b3f67c2b5cd3b6d9596a","session_id":"6197b577df661afc98bf5fed","condition":"contingent","relevant_dimensions":["antennae","wings"],"bee_group":{"antennae":"B","wings":"1","pattern":"X","legs":"X"},"bonus":0.04},{"rt":1270.9000000059605,"stimulus":"bees-with-color/bee-A1SM.svg","response":1,"trial_type":"image-button-response","trial_index":87,"time_elapsed":591962,"internal_node_id":"0.0-4.0-0.38","subject_id":"610d4df86c4abc6b5ced6fa0","study_id":"6197b3f67c2b5cd3b6d9596a","session_id":"6197b577df661afc98bf5fed","condition":"contingent","relevant_dimensions":["antennae","wings"],"bee_group":{"antennae":"B","wings":"1","pattern":"X","legs":"X"},"action":"avoid","summary":"bad-avoid","bonus":0.04},{"rt":2345.5,"stimulus":"\n                    <p><b>Action: <em>avoid</em></b></p>\n                    <p>This is the bee that you just saw.</p>\n                    <img src=\"bees-with-color/bee-A1SM.svg\" width=\"200\">\n                    <p><br>Your bonus pay is unchanged, and remains at $0.42.</p>\n            ","response":0,"trial_type":"html-button-response","trial_index":88,"time_elapsed":594313,"internal_node_id":"0.0-4.0-1.38","subject_id":"610d4df86c4abc6b5ced6fa0","study_id":"6197b3f67c2b5cd3b6d9596a","session_id":"6197b577df661afc98bf5fed","condition":"contingent","relevant_dimensions":["antennae","wings"],"bee_group":{"antennae":"B","wings":"1","pattern":"X","legs":"X"},"bonus":0.04},{"rt":1362.0999999940395,"stimulus":"bees-with-color/bee-A2SM.svg","response":0,"trial_type":"image-button-response","trial_index":89,"time_elapsed":595681,"internal_node_id":"0.0-4.0-0.39","subject_id":"610d4df86c4abc6b5ced6fa0","study_id":"6197b3f67c2b5cd3b6d9596a","session_id":"6197b577df661afc98bf5fed","condition":"contingent","relevant_dimensions":["antennae","wings"],"bee_group":{"antennae":"B","wings":"1","pattern":"X","legs":"X"},"action":"harvest","summary":"good-harvest","bonus":0.04},{"rt":1669.3000000044703,"stimulus":"\n                    <p><b>Action: <em>harvest</em></b></p>\n                    <p>This is the bee that you just saw.</p>\n                    <img src=\"bees-with-color/bee-A2SM.svg\" width=\"200\">\n                    <p><span class=\"greenText\"><b>Successful harvest!</b></span><br>Your pay has increased by $0.02. Your bonus pay is now $0.44.</p>\n            ","response":0,"trial_type":"html-button-response","trial_index":90,"time_elapsed":597355,"internal_node_id":"0.0-4.0-1.39","subject_id":"610d4df86c4abc6b5ced6fa0","study_id":"6197b3f67c2b5cd3b6d9596a","session_id":"6197b577df661afc98bf5fed","condition":"contingent","relevant_dimensions":["antennae","wings"],"bee_group":{"antennae":"B","wings":"1","pattern":"X","legs":"X"},"bonus":0.04},{"rt":1504.2000000029802,"stimulus":"bees-with-color/bee-B2SF.svg","response":0,"trial_type":"image-button-response","trial_index":91,"time_elapsed":598862,"internal_node_id":"0.0-4.0-0.40","subject_id":"610d4df86c4abc6b5ced6fa0","study_id":"6197b3f67c2b5cd3b6d9596a","session_id":"6197b577df661afc98bf5fed","condition":"contingent","relevant_dimensions":["antennae","wings"],"bee_group":{"antennae":"B","wings":"1","pattern":"X","legs":"X"},"action":"harvest","summary":"good-harvest","bonus":0.04},{"rt":1461.7999999970198,"stimulus":"\n                    <p><b>Action: <em>harvest</em></b></p>\n                    <p>This is the bee that you just saw.</p>\n                    <img src=\"bees-with-color/bee-B2SF.svg\" width=\"200\">\n                    <p><span class=\"greenText\"><b>Successful harvest!</b></span><br>Your pay has increased by $0.02. Your bonus pay is now $0.46.</p>\n            ","response":0,"trial_type":"html-button-response","trial_index":92,"time_elapsed":600326,"internal_node_id":"0.0-4.0-1.40","subject_id":"610d4df86c4abc6b5ced6fa0","study_id":"6197b3f67c2b5cd3b6d9596a","session_id":"6197b577df661afc98bf5fed","condition":"contingent","relevant_dimensions":["antennae","wings"],"bee_group":{"antennae":"B","wings":"1","pattern":"X","legs":"X"},"bonus":0.04},{"rt":1194.3999999985099,"stimulus":"bees-with-color/bee-A2SF.svg","response":1,"trial_type":"image-button-response","trial_index":93,"time_elapsed":601525,"internal_node_id":"0.0-4.0-0.41","subject_id":"610d4df86c4abc6b5ced6fa0","study_id":"6197b3f67c2b5cd3b6d9596a","session_id":"6197b577df661afc98bf5fed","condition":"contingent","relevant_dimensions":["antennae","wings"],"bee_group":{"antennae":"B","wings":"1","pattern":"X","legs":"X"},"action":"avoid","summary":"bad-avoid","bonus":0.04},{"rt":1462.2000000029802,"stimulus":"\n                    <p><b>Action: <em>avoid</em></b></p>\n                    <p>This is the bee that you just saw.</p>\n                    <img src=\"bees-with-color/bee-A2SF.svg\" width=\"200\">\n                    <p><br>Your bonus pay is unchanged, and remains at $0.46.</p>\n            ","response":0,"trial_type":"html-button-response","trial_index":94,"time_elapsed":602993,"internal_node_id":"0.0-4.0-1.41","subject_id":"610d4df86c4abc6b5ced6fa0","study_id":"6197b3f67c2b5cd3b6d9596a","session_id":"6197b577df661afc98bf5fed","condition":"contingent","relevant_dimensions":["antennae","wings"],"bee_group":{"antennae":"B","wings":"1","pattern":"X","legs":"X"},"bonus":0.04},{"rt":1298.7999999970198,"stimulus":"bees-with-color/bee-A2DM.svg","response":1,"trial_type":"image-button-response","trial_index":95,"time_elapsed":604297,"internal_node_id":"0.0-4.0-0.42","subject_id":"610d4df86c4abc6b5ced6fa0","study_id":"6197b3f67c2b5cd3b6d9596a","session_id":"6197b577df661afc98bf5fed","condition":"contingent","relevant_dimensions":["antennae","wings"],"bee_group":{"antennae":"B","wings":"1","pattern":"X","legs":"X"},"action":"avoid","summary":"bad-avoid","bonus":0.04},{"rt":1330.5,"stimulus":"\n                    <p><b>Action: <em>avoid</em></b></p>\n                    <p>This is the bee that you just saw.</p>\n                    <img src=\"bees-with-color/bee-A2DM.svg\" width=\"200\">\n                    <p><br>Your bonus pay is unchanged, and remains at $0.46.</p>\n            ","response":0,"trial_type":"html-button-response","trial_index":96,"time_elapsed":605632,"internal_node_id":"0.0-4.0-1.42","subject_id":"610d4df86c4abc6b5ced6fa0","study_id":"6197b3f67c2b5cd3b6d9596a","session_id":"6197b577df661afc98bf5fed","condition":"contingent","relevant_dimensions":["antennae","wings"],"bee_group":{"antennae":"B","wings":"1","pattern":"X","legs":"X"},"bonus":0.04},{"rt":1807.5,"stimulus":"bees-with-color/bee-B1DF.svg","response":1,"trial_type":"image-button-response","trial_index":97,"time_elapsed":607445,"internal_node_id":"0.0-4.0-0.43","subject_id":"610d4df86c4abc6b5ced6fa0","study_id":"6197b3f67c2b5cd3b6d9596a","session_id":"6197b577df661afc98bf5fed","condition":"contingent","relevant_dimensions":["antennae","wings"],"bee_group":{"antennae":"B","wings":"1","pattern":"X","legs":"X"},"action":"avoid","summary":"good-avoid","bonus":0.04},{"rt":1391.5,"stimulus":"\n                    <p><b>Action: <em>avoid</em></b></p>\n                    <p>This is the bee that you just saw.</p>\n                    <img src=\"bees-with-color/bee-B1DF.svg\" width=\"200\">\n                    <p><br>Your bonus pay is unchanged, and remains at $0.46.</p>\n            ","response":0,"trial_type":"html-button-response","trial_index":98,"time_elapsed":608844,"internal_node_id":"0.0-4.0-1.43","subject_id":"610d4df86c4abc6b5ced6fa0","study_id":"6197b3f67c2b5cd3b6d9596a","session_id":"6197b577df661afc98bf5fed","condition":"contingent","relevant_dimensions":["antennae","wings"],"bee_group":{"antennae":"B","wings":"1","pattern":"X","legs":"X"},"bonus":0.04},{"rt":1068.6999999955297,"stimulus":"bees-with-color/bee-B2DF.svg","response":0,"trial_type":"image-button-response","trial_index":99,"time_elapsed":609918,"internal_node_id":"0.0-4.0-0.44","subject_id":"610d4df86c4abc6b5ced6fa0","study_id":"6197b3f67c2b5cd3b6d9596a","session_id":"6197b577df661afc98bf5fed","condition":"contingent","relevant_dimensions":["antennae","wings"],"bee_group":{"antennae":"B","wings":"1","pattern":"X","legs":"X"},"action":"harvest","summary":"good-harvest","bonus":0.04},{"rt":1427.0999999940395,"stimulus":"\n                    <p><b>Action: <em>harvest</em></b></p>\n                    <p>This is the bee that you just saw.</p>\n                    <img src=\"bees-with-color/bee-B2DF.svg\" width=\"200\">\n                    <p><span class=\"greenText\"><b>Successful harvest!</b></span><br>Your pay has increased by $0.02. Your bonus pay is now $0.48.</p>\n            ","response":0,"trial_type":"html-button-response","trial_index":100,"time_elapsed":611351,"internal_node_id":"0.0-4.0-1.44","subject_id":"610d4df86c4abc6b5ced6fa0","study_id":"6197b3f67c2b5cd3b6d9596a","session_id":"6197b577df661afc98bf5fed","condition":"contingent","relevant_dimensions":["antennae","wings"],"bee_group":{"antennae":"B","wings":"1","pattern":"X","legs":"X"},"bonus":0.04},{"rt":1180,"stimulus":"bees-with-color/bee-B2DM.svg","response":0,"trial_type":"image-button-response","trial_index":101,"time_elapsed":612535,"internal_node_id":"0.0-4.0-0.45","subject_id":"610d4df86c4abc6b5ced6fa0","study_id":"6197b3f67c2b5cd3b6d9596a","session_id":"6197b577df661afc98bf5fed","condition":"contingent","relevant_dimensions":["antennae","wings"],"bee_group":{"antennae":"B","wings":"1","pattern":"X","legs":"X"},"action":"harvest","summary":"good-harvest","bonus":0.04},{"rt":1376.5,"stimulus":"\n                    <p><b>Action: <em>harvest</em></b></p>\n                    <p>This is the bee that you just saw.</p>\n                    <img src=\"bees-with-color/bee-B2DM.svg\" width=\"200\">\n                    <p><span class=\"greenText\"><b>Successful harvest!</b></span><br>Your pay has increased by $0.02. Your bonus pay is now $0.50.</p>\n            ","response":0,"trial_type":"html-button-response","trial_index":102,"time_elapsed":613920,"internal_node_id":"0.0-4.0-1.45","subject_id":"610d4df86c4abc6b5ced6fa0","study_id":"6197b3f67c2b5cd3b6d9596a","session_id":"6197b577df661afc98bf5fed","condition":"contingent","relevant_dimensions":["antennae","wings"],"bee_group":{"antennae":"B","wings":"1","pattern":"X","legs":"X"},"bonus":0.04},{"rt":1313.1000000014901,"stimulus":"bees-with-color/bee-A1DF.svg","response":0,"trial_type":"image-button-response","trial_index":103,"time_elapsed":615239,"internal_node_id":"0.0-4.0-0.46","subject_id":"610d4df86c4abc6b5ced6fa0","study_id":"6197b3f67c2b5cd3b6d9596a","session_id":"6197b577df661afc98bf5fed","condition":"contingent","relevant_dimensions":["antennae","wings"],"bee_group":{"antennae":"B","wings":"1","pattern":"X","legs":"X"},"action":"harvest","summary":"good-harvest","bonus":0.04},{"rt":1301.7999999970198,"stimulus":"\n                    <p><b>Action: <em>harvest</em></b></p>\n                    <p>This is the bee that you just saw.</p>\n                    <img src=\"bees-with-color/bee-A1DF.svg\" width=\"200\">\n                    <p><span class=\"greenText\"><b>Successful harvest!</b></span><br>Your pay has increased by $0.02. Your bonus pay is now $0.52.</p>\n            ","response":0,"trial_type":"html-button-response","trial_index":104,"time_elapsed":616544,"internal_node_id":"0.0-4.0-1.46","subject_id":"610d4df86c4abc6b5ced6fa0","study_id":"6197b3f67c2b5cd3b6d9596a","session_id":"6197b577df661afc98bf5fed","condition":"contingent","relevant_dimensions":["antennae","wings"],"bee_group":{"antennae":"B","wings":"1","pattern":"X","legs":"X"},"bonus":0.04},{"rt":1850.8000000044703,"stimulus":"bees-with-color/bee-B1SM.svg","response":0,"trial_type":"image-button-response","trial_index":105,"time_elapsed":618398,"internal_node_id":"0.0-4.0-0.47","subject_id":"610d4df86c4abc6b5ced6fa0","study_id":"6197b3f67c2b5cd3b6d9596a","session_id":"6197b577df661afc98bf5fed","condition":"contingent","relevant_dimensions":["antennae","wings"],"bee_group":{"antennae":"B","wings":"1","pattern":"X","legs":"X"},"action":"harvest","summary":"bad-harvest","bonus":0.04},{"rt":1663.6999999955297,"stimulus":"\n                    <p><b>Action: <em>harvest</em></b></p>\n                    <p>This is the bee that you just saw.</p>\n                    <img src=\"bees-with-color/bee-B1SM.svg\" width=\"200\">\n                    <p><span class=\"redText\">Bad choice, the bee was angry.</span><br><b>You have been stung!</b><br>Your pay has been decreased by $0.10. Your bonus pay is now $0.42.</p>\n            ","response":0,"trial_type":"html-button-response","trial_index":106,"time_elapsed":620065,"internal_node_id":"0.0-4.0-1.47","subject_id":"610d4df86c4abc6b5ced6fa0","study_id":"6197b3f67c2b5cd3b6d9596a","session_id":"6197b577df661afc98bf5fed","condition":"contingent","relevant_dimensions":["antennae","wings"],"bee_group":{"antennae":"B","wings":"1","pattern":"X","legs":"X"},"bonus":0.04},{"rt":1457.0999999940395,"stimulus":"bees-with-color/bee-B1DM.svg","response":1,"trial_type":"image-button-response","trial_index":107,"time_elapsed":621527,"internal_node_id":"0.0-4.0-0.48","subject_id":"610d4df86c4abc6b5ced6fa0","study_id":"6197b3f67c2b5cd3b6d9596a","session_id":"6197b577df661afc98bf5fed","condition":"contingent","relevant_dimensions":["antennae","wings"],"bee_group":{"antennae":"B","wings":"1","pattern":"X","legs":"X"},"action":"avoid","summary":"good-avoid","bonus":0.04},{"rt":1651.5,"stimulus":"\n                    <p><b>Action: <em>avoid</em></b></p>\n                    <p>This is the bee that you just saw.</p>\n                    <img src=\"bees-with-color/bee-B1DM.svg\" width=\"200\">\n                    <p><br>Your bonus pay is unchanged, and remains at $0.42.</p>\n            ","response":0,"trial_type":"html-button-response","trial_index":108,"time_elapsed":623183,"internal_node_id":"0.0-4.0-1.48","subject_id":"610d4df86c4abc6b5ced6fa0","study_id":"6197b3f67c2b5cd3b6d9596a","session_id":"6197b577df661afc98bf5fed","condition":"contingent","relevant_dimensions":["antennae","wings"],"bee_group":{"antennae":"B","wings":"1","pattern":"X","legs":"X"},"bonus":0.04},{"rt":1119.1000000014901,"stimulus":"bees-with-color/bee-A1DF.svg","response":1,"trial_type":"image-button-response","trial_index":109,"time_elapsed":624305,"internal_node_id":"0.0-4.0-0.49","subject_id":"610d4df86c4abc6b5ced6fa0","study_id":"6197b3f67c2b5cd3b6d9596a","session_id":"6197b577df661afc98bf5fed","condition":"contingent","relevant_dimensions":["antennae","wings"],"bee_group":{"antennae":"B","wings":"1","pattern":"X","legs":"X"},"action":"avoid","summary":"bad-avoid","bonus":0.04},{"rt":2358.6999999955297,"stimulus":"\n                    <p><b>Action: <em>avoid</em></b></p>\n                    <p>This is the bee that you just saw.</p>\n                    <img src=\"bees-with-color/bee-A1DF.svg\" width=\"200\">\n                    <p><br>Your bonus pay is unchanged, and remains at $0.42.</p>\n            ","response":0,"trial_type":"html-button-response","trial_index":110,"time_elapsed":626667,"internal_node_id":"0.0-4.0-1.49","subject_id":"610d4df86c4abc6b5ced6fa0","study_id":"6197b3f67c2b5cd3b6d9596a","session_id":"6197b577df661afc98bf5fed","condition":"contingent","relevant_dimensions":["antennae","wings"],"bee_group":{"antennae":"B","wings":"1","pattern":"X","legs":"X"},"bonus":0.04},{"rt":1659.2000000029802,"stimulus":"bees-with-color/bee-B1SM.svg","response":0,"trial_type":"image-button-response","trial_index":111,"time_elapsed":628333,"internal_node_id":"0.0-4.0-0.50","subject_id":"610d4df86c4abc6b5ced6fa0","study_id":"6197b3f67c2b5cd3b6d9596a","session_id":"6197b577df661afc98bf5fed","condition":"contingent","relevant_dimensions":["antennae","wings"],"bee_group":{"antennae":"B","wings":"1","pattern":"X","legs":"X"},"action":"harvest","summary":"bad-harvest","bonus":0.04},{"rt":1519.6000000014901,"stimulus":"\n                    <p><b>Action: <em>harvest</em></b></p>\n                    <p>This is the bee that you just saw.</p>\n                    <img src=\"bees-with-color/bee-B1SM.svg\" width=\"200\">\n                    <p><span class=\"redText\">Bad choice, the bee was angry.</span><br><b>You have been stung!</b><br>Your pay has been decreased by $0.10. Your bonus pay is now $0.32.</p>\n            ","response":0,"trial_type":"html-button-response","trial_index":112,"time_elapsed":629857,"internal_node_id":"0.0-4.0-1.50","subject_id":"610d4df86c4abc6b5ced6fa0","study_id":"6197b3f67c2b5cd3b6d9596a","session_id":"6197b577df661afc98bf5fed","condition":"contingent","relevant_dimensions":["antennae","wings"],"bee_group":{"antennae":"B","wings":"1","pattern":"X","legs":"X"},"bonus":0.04},{"rt":1212.2999999970198,"stimulus":"bees-with-color/bee-A2SM.svg","response":0,"trial_type":"image-button-response","trial_index":113,"time_elapsed":631073,"internal_node_id":"0.0-4.0-0.51","subject_id":"610d4df86c4abc6b5ced6fa0","study_id":"6197b3f67c2b5cd3b6d9596a","session_id":"6197b577df661afc98bf5fed","condition":"contingent","relevant_dimensions":["antennae","wings"],"bee_group":{"antennae":"B","wings":"1","pattern":"X","legs":"X"},"action":"harvest","summary":"good-harvest","bonus":0.04},{"rt":1269.2000000029802,"stimulus":"\n                    <p><b>Action: <em>harvest</em></b></p>\n                    <p>This is the bee that you just saw.</p>\n                    <img src=\"bees-with-color/bee-A2SM.svg\" width=\"200\">\n                    <p><span class=\"greenText\"><b>Successful harvest!</b></span><br>Your pay has increased by $0.02. Your bonus pay is now $0.34.</p>\n            ","response":0,"trial_type":"html-button-response","trial_index":114,"time_elapsed":632346,"internal_node_id":"0.0-4.0-1.51","subject_id":"610d4df86c4abc6b5ced6fa0","study_id":"6197b3f67c2b5cd3b6d9596a","session_id":"6197b577df661afc98bf5fed","condition":"contingent","relevant_dimensions":["antennae","wings"],"bee_group":{"antennae":"B","wings":"1","pattern":"X","legs":"X"},"bonus":0.04},{"rt":1163.8000000044703,"stimulus":"bees-with-color/bee-B2DM.svg","response":0,"trial_type":"image-button-response","trial_index":115,"time_elapsed":633514,"internal_node_id":"0.0-4.0-0.52","subject_id":"610d4df86c4abc6b5ced6fa0","study_id":"6197b3f67c2b5cd3b6d9596a","session_id":"6197b577df661afc98bf5fed","condition":"contingent","relevant_dimensions":["antennae","wings"],"bee_group":{"antennae":"B","wings":"1","pattern":"X","legs":"X"},"action":"harvest","summary":"good-harvest","bonus":0.04},{"rt":1166,"stimulus":"\n                    <p><b>Action: <em>harvest</em></b></p>\n                    <p>This is the bee that you just saw.</p>\n                    <img src=\"bees-with-color/bee-B2DM.svg\" width=\"200\">\n                    <p><span class=\"greenText\"><b>Successful harvest!</b></span><br>Your pay has increased by $0.02. Your bonus pay is now $0.36.</p>\n            ","response":0,"trial_type":"html-button-response","trial_index":116,"time_elapsed":634682,"internal_node_id":"0.0-4.0-1.52","subject_id":"610d4df86c4abc6b5ced6fa0","study_id":"6197b3f67c2b5cd3b6d9596a","session_id":"6197b577df661afc98bf5fed","condition":"contingent","relevant_dimensions":["antennae","wings"],"bee_group":{"antennae":"B","wings":"1","pattern":"X","legs":"X"},"bonus":0.04},{"rt":1256.4000000059605,"stimulus":"bees-with-color/bee-A2DM.svg","response":0,"trial_type":"image-button-response","trial_index":117,"time_elapsed":635943,"internal_node_id":"0.0-4.0-0.53","subject_id":"610d4df86c4abc6b5ced6fa0","study_id":"6197b3f67c2b5cd3b6d9596a","session_id":"6197b577df661afc98bf5fed","condition":"contingent","relevant_dimensions":["antennae","wings"],"bee_group":{"antennae":"B","wings":"1","pattern":"X","legs":"X"},"action":"harvest","summary":"good-harvest","bonus":0.04},{"rt":1254.7999999970198,"stimulus":"\n                    <p><b>Action: <em>harvest</em></b></p>\n                    <p>This is the bee that you just saw.</p>\n                    <img src=\"bees-with-color/bee-A2DM.svg\" width=\"200\">\n                    <p><span class=\"greenText\"><b>Successful harvest!</b></span><br>Your pay has increased by $0.02. Your bonus pay is now $0.38.</p>\n            ","response":0,"trial_type":"html-button-response","trial_index":118,"time_elapsed":637202,"internal_node_id":"0.0-4.0-1.53","subject_id":"610d4df86c4abc6b5ced6fa0","study_id":"6197b3f67c2b5cd3b6d9596a","session_id":"6197b577df661afc98bf5fed","condition":"contingent","relevant_dimensions":["antennae","wings"],"bee_group":{"antennae":"B","wings":"1","pattern":"X","legs":"X"},"bonus":0.04},{"rt":1607.5,"stimulus":"bees-with-color/bee-A2DF.svg","response":1,"trial_type":"image-button-response","trial_index":119,"time_elapsed":638814,"internal_node_id":"0.0-4.0-0.54","subject_id":"610d4df86c4abc6b5ced6fa0","study_id":"6197b3f67c2b5cd3b6d9596a","session_id":"6197b577df661afc98bf5fed","condition":"contingent","relevant_dimensions":["antennae","wings"],"bee_group":{"antennae":"B","wings":"1","pattern":"X","legs":"X"},"action":"avoid","summary":"bad-avoid","bonus":0.04},{"rt":1920.3999999985099,"stimulus":"\n                    <p><b>Action: <em>avoid</em></b></p>\n                    <p>This is the bee that you just saw.</p>\n                    <img src=\"bees-with-color/bee-A2DF.svg\" width=\"200\">\n                    <p><br>Your bonus pay is unchanged, and remains at $0.38.</p>\n            ","response":0,"trial_type":"html-button-response","trial_index":120,"time_elapsed":640740,"internal_node_id":"0.0-4.0-1.54","subject_id":"610d4df86c4abc6b5ced6fa0","study_id":"6197b3f67c2b5cd3b6d9596a","session_id":"6197b577df661afc98bf5fed","condition":"contingent","relevant_dimensions":["antennae","wings"],"bee_group":{"antennae":"B","wings":"1","pattern":"X","legs":"X"},"bonus":0.04},{"rt":1256.6000000014901,"stimulus":"bees-with-color/bee-A2SF.svg","response":1,"trial_type":"image-button-response","trial_index":121,"time_elapsed":642002,"internal_node_id":"0.0-4.0-0.55","subject_id":"610d4df86c4abc6b5ced6fa0","study_id":"6197b3f67c2b5cd3b6d9596a","session_id":"6197b577df661afc98bf5fed","condition":"contingent","relevant_dimensions":["antennae","wings"],"bee_group":{"antennae":"B","wings":"1","pattern":"X","legs":"X"},"action":"avoid","summary":"bad-avoid","bonus":0.04},{"rt":1392.6999999955297,"stimulus":"\n                    <p><b>Action: <em>avoid</em></b></p>\n                    <p>This is the bee that you just saw.</p>\n                    <img src=\"bees-with-color/bee-A2SF.svg\" width=\"200\">\n                    <p><br>Your bonus pay is unchanged, and remains at $0.38.</p>\n            ","response":0,"trial_type":"html-button-response","trial_index":122,"time_elapsed":643401,"internal_node_id":"0.0-4.0-1.55","subject_id":"610d4df86c4abc6b5ced6fa0","study_id":"6197b3f67c2b5cd3b6d9596a","session_id":"6197b577df661afc98bf5fed","condition":"contingent","relevant_dimensions":["antennae","wings"],"bee_group":{"antennae":"B","wings":"1","pattern":"X","legs":"X"},"bonus":0.04},{"rt":1360.3000000044703,"stimulus":"bees-with-color/bee-B2DF.svg","response":0,"trial_type":"image-button-response","trial_index":123,"time_elapsed":644766,"internal_node_id":"0.0-4.0-0.56","subject_id":"610d4df86c4abc6b5ced6fa0","study_id":"6197b3f67c2b5cd3b6d9596a","session_id":"6197b577df661afc98bf5fed","condition":"contingent","relevant_dimensions":["antennae","wings"],"bee_group":{"antennae":"B","wings":"1","pattern":"X","legs":"X"},"action":"harvest","summary":"good-harvest","bonus":0.04},{"rt":1208.8000000044703,"stimulus":"\n                    <p><b>Action: <em>harvest</em></b></p>\n                    <p>This is the bee that you just saw.</p>\n                    <img src=\"bees-with-color/bee-B2DF.svg\" width=\"200\">\n                    <p><span class=\"greenText\"><b>Successful harvest!</b></span><br>Your pay has increased by $0.02. Your bonus pay is now $0.40.</p>\n            ","response":0,"trial_type":"html-button-response","trial_index":124,"time_elapsed":645981,"internal_node_id":"0.0-4.0-1.56","subject_id":"610d4df86c4abc6b5ced6fa0","study_id":"6197b3f67c2b5cd3b6d9596a","session_id":"6197b577df661afc98bf5fed","condition":"contingent","relevant_dimensions":["antennae","wings"],"bee_group":{"antennae":"B","wings":"1","pattern":"X","legs":"X"},"bonus":0.04},{"rt":1484.2000000029802,"stimulus":"bees-with-color/bee-B2SF.svg","response":1,"trial_type":"image-button-response","trial_index":125,"time_elapsed":647471,"internal_node_id":"0.0-4.0-0.57","subject_id":"610d4df86c4abc6b5ced6fa0","study_id":"6197b3f67c2b5cd3b6d9596a","session_id":"6197b577df661afc98bf5fed","condition":"contingent","relevant_dimensions":["antennae","wings"],"bee_group":{"antennae":"B","wings":"1","pattern":"X","legs":"X"},"action":"avoid","summary":"bad-avoid","bonus":0.04},{"rt":1334.3000000044703,"stimulus":"\n                    <p><b>Action: <em>avoid</em></b></p>\n                    <p>This is the bee that you just saw.</p>\n                    <img src=\"bees-with-color/bee-B2SF.svg\" width=\"200\">\n                    <p><br>Your bonus pay is unchanged, and remains at $0.40.</p>\n            ","response":0,"trial_type":"html-button-response","trial_index":126,"time_elapsed":648809,"internal_node_id":"0.0-4.0-1.57","subject_id":"610d4df86c4abc6b5ced6fa0","study_id":"6197b3f67c2b5cd3b6d9596a","session_id":"6197b577df661afc98bf5fed","condition":"contingent","relevant_dimensions":["antennae","wings"],"bee_group":{"antennae":"B","wings":"1","pattern":"X","legs":"X"},"bonus":0.04},{"rt":1163.5,"stimulus":"bees-with-color/bee-B2SM.svg","response":1,"trial_type":"image-button-response","trial_index":127,"time_elapsed":649977,"internal_node_id":"0.0-4.0-0.58","subject_id":"610d4df86c4abc6b5ced6fa0","study_id":"6197b3f67c2b5cd3b6d9596a","session_id":"6197b577df661afc98bf5fed","condition":"contingent","relevant_dimensions":["antennae","wings"],"bee_group":{"antennae":"B","wings":"1","pattern":"X","legs":"X"},"action":"avoid","summary":"bad-avoid","bonus":0.04},{"rt":1239.1000000014901,"stimulus":"\n                    <p><b>Action: <em>avoid</em></b></p>\n                    <p>This is the bee that you just saw.</p>\n                    <img src=\"bees-with-color/bee-B2SM.svg\" width=\"200\">\n                    <p><br>Your bonus pay is unchanged, and remains at $0.40.</p>\n            ","response":0,"trial_type":"html-button-response","trial_index":128,"time_elapsed":651221,"internal_node_id":"0.0-4.0-1.58","subject_id":"610d4df86c4abc6b5ced6fa0","study_id":"6197b3f67c2b5cd3b6d9596a","session_id":"6197b577df661afc98bf5fed","condition":"contingent","relevant_dimensions":["antennae","wings"],"bee_group":{"antennae":"B","wings":"1","pattern":"X","legs":"X"},"bonus":0.04},{"rt":1281.6000000014901,"stimulus":"bees-with-color/bee-B1SF.svg","response":1,"trial_type":"image-button-response","trial_index":129,"time_elapsed":652507,"internal_node_id":"0.0-4.0-0.59","subject_id":"610d4df86c4abc6b5ced6fa0","study_id":"6197b3f67c2b5cd3b6d9596a","session_id":"6197b577df661afc98bf5fed","condition":"contingent","relevant_dimensions":["antennae","wings"],"bee_group":{"antennae":"B","wings":"1","pattern":"X","legs":"X"},"action":"avoid","summary":"good-avoid","bonus":0.04},{"rt":1690.3000000044703,"stimulus":"\n                    <p><b>Action: <em>avoid</em></b></p>\n                    <p>This is the bee that you just saw.</p>\n                    <img src=\"bees-with-color/bee-B1SF.svg\" width=\"200\">\n                    <p><br>Your bonus pay is unchanged, and remains at $0.40.</p>\n            ","response":0,"trial_type":"html-button-response","trial_index":130,"time_elapsed":654202,"internal_node_id":"0.0-4.0-1.59","subject_id":"610d4df86c4abc6b5ced6fa0","study_id":"6197b3f67c2b5cd3b6d9596a","session_id":"6197b577df661afc98bf5fed","condition":"contingent","relevant_dimensions":["antennae","wings"],"bee_group":{"antennae":"B","wings":"1","pattern":"X","legs":"X"},"bonus":0.04},{"rt":1549.1999999955297,"stimulus":"bees-with-color/bee-B1DF.svg","response":0,"trial_type":"image-button-response","trial_index":131,"time_elapsed":655756,"internal_node_id":"0.0-4.0-0.60","subject_id":"610d4df86c4abc6b5ced6fa0","study_id":"6197b3f67c2b5cd3b6d9596a","session_id":"6197b577df661afc98bf5fed","condition":"contingent","relevant_dimensions":["antennae","wings"],"bee_group":{"antennae":"B","wings":"1","pattern":"X","legs":"X"},"action":"harvest","summary":"bad-harvest","bonus":0.04},{"rt":1286.2999999970198,"stimulus":"\n                    <p><b>Action: <em>harvest</em></b></p>\n                    <p>This is the bee that you just saw.</p>\n                    <img src=\"bees-with-color/bee-B1DF.svg\" width=\"200\">\n                    <p><span class=\"redText\">Bad choice, the bee was angry.</span><br><b>You have been stung!</b><br>Your pay has been decreased by $0.10. Your bonus pay is now $0.30.</p>\n            ","response":0,"trial_type":"html-button-response","trial_index":132,"time_elapsed":657047,"internal_node_id":"0.0-4.0-1.60","subject_id":"610d4df86c4abc6b5ced6fa0","study_id":"6197b3f67c2b5cd3b6d9596a","session_id":"6197b577df661afc98bf5fed","condition":"contingent","relevant_dimensions":["antennae","wings"],"bee_group":{"antennae":"B","wings":"1","pattern":"X","legs":"X"},"bonus":0.04},{"rt":1224.7999999970198,"stimulus":"bees-with-color/bee-A1SF.svg","response":1,"trial_type":"image-button-response","trial_index":133,"time_elapsed":658277,"internal_node_id":"0.0-4.0-0.61","subject_id":"610d4df86c4abc6b5ced6fa0","study_id":"6197b3f67c2b5cd3b6d9596a","session_id":"6197b577df661afc98bf5fed","condition":"contingent","relevant_dimensions":["antennae","wings"],"bee_group":{"antennae":"B","wings":"1","pattern":"X","legs":"X"},"action":"avoid","summary":"bad-avoid","bonus":0.04},{"rt":1438.0999999940395,"stimulus":"\n                    <p><b>Action: <em>avoid</em></b></p>\n                    <p>This is the bee that you just saw.</p>\n                    <img src=\"bees-with-color/bee-A1SF.svg\" width=\"200\">\n                    <p><br>Your bonus pay is unchanged, and remains at $0.30.</p>\n            ","response":0,"trial_type":"html-button-response","trial_index":134,"time_elapsed":659721,"internal_node_id":"0.0-4.0-1.61","subject_id":"610d4df86c4abc6b5ced6fa0","study_id":"6197b3f67c2b5cd3b6d9596a","session_id":"6197b577df661afc98bf5fed","condition":"contingent","relevant_dimensions":["antennae","wings"],"bee_group":{"antennae":"B","wings":"1","pattern":"X","legs":"X"},"bonus":0.04},{"rt":1208.7000000029802,"stimulus":"bees-with-color/bee-A1DM.svg","response":0,"trial_type":"image-button-response","trial_index":135,"time_elapsed":660935,"internal_node_id":"0.0-4.0-0.62","subject_id":"610d4df86c4abc6b5ced6fa0","study_id":"6197b3f67c2b5cd3b6d9596a","session_id":"6197b577df661afc98bf5fed","condition":"contingent","relevant_dimensions":["antennae","wings"],"bee_group":{"antennae":"B","wings":"1","pattern":"X","legs":"X"},"action":"harvest","summary":"good-harvest","bonus":0.04},{"rt":1727.1000000014901,"stimulus":"\n                    <p><b>Action: <em>harvest</em></b></p>\n                    <p>This is the bee that you just saw.</p>\n                    <img src=\"bees-with-color/bee-A1DM.svg\" width=\"200\">\n                    <p><span class=\"greenText\"><b>Successful harvest!</b></span><br>Your pay has increased by $0.02. Your bonus pay is now $0.32.</p>\n            ","response":0,"trial_type":"html-button-response","trial_index":136,"time_elapsed":662667,"internal_node_id":"0.0-4.0-1.62","subject_id":"610d4df86c4abc6b5ced6fa0","study_id":"6197b3f67c2b5cd3b6d9596a","session_id":"6197b577df661afc98bf5fed","condition":"contingent","relevant_dimensions":["antennae","wings"],"bee_group":{"antennae":"B","wings":"1","pattern":"X","legs":"X"},"bonus":0.04},{"rt":1271.5,"stimulus":"bees-with-color/bee-A1SM.svg","response":0,"trial_type":"image-button-response","trial_index":137,"time_elapsed":663942,"internal_node_id":"0.0-4.0-0.63","subject_id":"610d4df86c4abc6b5ced6fa0","study_id":"6197b3f67c2b5cd3b6d9596a","session_id":"6197b577df661afc98bf5fed","condition":"contingent","relevant_dimensions":["antennae","wings"],"bee_group":{"antennae":"B","wings":"1","pattern":"X","legs":"X"},"action":"harvest","summary":"good-harvest","bonus":0.04},{"rt":1333.3999999985099,"stimulus":"\n                    <p><b>Action: <em>harvest</em></b></p>\n                    <p>This is the bee that you just saw.</p>\n                    <img src=\"bees-with-color/bee-A1SM.svg\" width=\"200\">\n                    <p><span class=\"greenText\"><b>Successful harvest!</b></span><br>Your pay has increased by $0.02. Your bonus pay is now $0.34.</p>\n            ","response":0,"trial_type":"html-button-response","trial_index":138,"time_elapsed":665281,"internal_node_id":"0.0-4.0-1.63","subject_id":"610d4df86c4abc6b5ced6fa0","study_id":"6197b3f67c2b5cd3b6d9596a","session_id":"6197b577df661afc98bf5fed","condition":"contingent","relevant_dimensions":["antennae","wings"],"bee_group":{"antennae":"B","wings":"1","pattern":"X","legs":"X"},"bonus":0.04},{"rt":4026.5,"stimulus":"You have completed the first part of this experiment.<br><br>You will now begin a shorter second part, in which you will receive no feedback.<br>The same rules regarding bonus pay apply.<br><br>Press any key to begin.","response":"enter","trial_type":"html-keyboard-response","trial_index":139,"time_elapsed":669311,"internal_node_id":"0.0-5.0","subject_id":"610d4df86c4abc6b5ced6fa0","study_id":"6197b3f67c2b5cd3b6d9596a","session_id":"6197b577df661afc98bf5fed","condition":"contingent","relevant_dimensions":["antennae","wings"],"bee_group":{"antennae":"B","wings":"1","pattern":"X","legs":"X"},"bonus":0.04},{"rt":2285.89999999851,"stimulus":"bees-with-color/bee-A1SM.svg","response":1,"trial_type":"image-button-response","trial_index":140,"time_elapsed":671613,"internal_node_id":"0.0-6.0-0.0","subject_id":"610d4df86c4abc6b5ced6fa0","study_id":"6197b3f67c2b5cd3b6d9596a","session_id":"6197b577df661afc98bf5fed","condition":"contingent","relevant_dimensions":["antennae","wings"],"bee_group":{"antennae":"B","wings":"1","pattern":"X","legs":"X"},"bonus":0.04},{"rt":1968.6000000014901,"stimulus":"bees-with-color/bee-B1SF.svg","response":0,"trial_type":"image-button-response","trial_index":141,"time_elapsed":673588,"internal_node_id":"0.0-6.0-0.1","subject_id":"610d4df86c4abc6b5ced6fa0","study_id":"6197b3f67c2b5cd3b6d9596a","session_id":"6197b577df661afc98bf5fed","condition":"contingent","relevant_dimensions":["antennae","wings"],"bee_group":{"antennae":"B","wings":"1","pattern":"X","legs":"X"},"bonus":0.04},{"rt":707.6000000014901,"stimulus":"bees-with-color/bee-B1SM.svg","response":0,"trial_type":"image-button-response","trial_index":142,"time_elapsed":674302,"internal_node_id":"0.0-6.0-0.2","subject_id":"610d4df86c4abc6b5ced6fa0","study_id":"6197b3f67c2b5cd3b6d9596a","session_id":"6197b577df661afc98bf5fed","condition":"contingent","relevant_dimensions":["antennae","wings"],"bee_group":{"antennae":"B","wings":"1","pattern":"X","legs":"X"},"bonus":0.04},{"rt":963.7999999970198,"stimulus":"bees-with-color/bee-A2DM.svg","response":0,"trial_type":"image-button-response","trial_index":143,"time_elapsed":675272,"internal_node_id":"0.0-6.0-0.3","subject_id":"610d4df86c4abc6b5ced6fa0","study_id":"6197b3f67c2b5cd3b6d9596a","session_id":"6197b577df661afc98bf5fed","condition":"contingent","relevant_dimensions":["antennae","wings"],"bee_group":{"antennae":"B","wings":"1","pattern":"X","legs":"X"},"bonus":0.04},{"rt":1762.9000000059605,"stimulus":"bees-with-color/bee-A1DF.svg","response":0,"trial_type":"image-button-response","trial_index":144,"time_elapsed":677041,"internal_node_id":"0.0-6.0-0.4","subject_id":"610d4df86c4abc6b5ced6fa0","study_id":"6197b3f67c2b5cd3b6d9596a","session_id":"6197b577df661afc98bf5fed","condition":"contingent","relevant_dimensions":["antennae","wings"],"bee_group":{"antennae":"B","wings":"1","pattern":"X","legs":"X"},"bonus":0.04},{"rt":1068.7000000029802,"stimulus":"bees-with-color/bee-A2DF.svg","response":1,"trial_type":"image-button-response","trial_index":145,"time_elapsed":678115,"internal_node_id":"0.0-6.0-0.5","subject_id":"610d4df86c4abc6b5ced6fa0","study_id":"6197b3f67c2b5cd3b6d9596a","session_id":"6197b577df661afc98bf5fed","condition":"contingent","relevant_dimensions":["antennae","wings"],"bee_group":{"antennae":"B","wings":"1","pattern":"X","legs":"X"},"bonus":0.04},{"rt":1525.6000000014901,"stimulus":"bees-with-color/bee-B2SF.svg","response":1,"trial_type":"image-button-response","trial_index":146,"time_elapsed":679647,"internal_node_id":"0.0-6.0-0.6","subject_id":"610d4df86c4abc6b5ced6fa0","study_id":"6197b3f67c2b5cd3b6d9596a","session_id":"6197b577df661afc98bf5fed","condition":"contingent","relevant_dimensions":["antennae","wings"],"bee_group":{"antennae":"B","wings":"1","pattern":"X","legs":"X"},"bonus":0.04},{"rt":1899.2000000029802,"stimulus":"bees-with-color/bee-B2SM.svg","response":0,"trial_type":"image-button-response","trial_index":147,"time_elapsed":681551,"internal_node_id":"0.0-6.0-0.7","subject_id":"610d4df86c4abc6b5ced6fa0","study_id":"6197b3f67c2b5cd3b6d9596a","session_id":"6197b577df661afc98bf5fed","condition":"contingent","relevant_dimensions":["antennae","wings"],"bee_group":{"antennae":"B","wings":"1","pattern":"X","legs":"X"},"bonus":0.04},{"rt":2864.39999999851,"stimulus":"bees-with-color/bee-B2DF.svg","response":1,"trial_type":"image-button-response","trial_index":148,"time_elapsed":684421,"internal_node_id":"0.0-6.0-0.8","subject_id":"610d4df86c4abc6b5ced6fa0","study_id":"6197b3f67c2b5cd3b6d9596a","session_id":"6197b577df661afc98bf5fed","condition":"contingent","relevant_dimensions":["antennae","wings"],"bee_group":{"antennae":"B","wings":"1","pattern":"X","legs":"X"},"bonus":0.04},{"rt":1221.1000000014901,"stimulus":"bees-with-color/bee-B1DF.svg","response":1,"trial_type":"image-button-response","trial_index":149,"time_elapsed":685650,"internal_node_id":"0.0-6.0-0.9","subject_id":"610d4df86c4abc6b5ced6fa0","study_id":"6197b3f67c2b5cd3b6d9596a","session_id":"6197b577df661afc98bf5fed","condition":"contingent","relevant_dimensions":["antennae","wings"],"bee_group":{"antennae":"B","wings":"1","pattern":"X","legs":"X"},"bonus":0.04},{"rt":1514.6999999955297,"stimulus":"bees-with-color/bee-A2SM.svg","response":0,"trial_type":"image-button-response","trial_index":150,"time_elapsed":687173,"internal_node_id":"0.0-6.0-0.10","subject_id":"610d4df86c4abc6b5ced6fa0","study_id":"6197b3f67c2b5cd3b6d9596a","session_id":"6197b577df661afc98bf5fed","condition":"contingent","relevant_dimensions":["antennae","wings"],"bee_group":{"antennae":"B","wings":"1","pattern":"X","legs":"X"},"bonus":0.04},{"rt":1844.7999999970198,"stimulus":"bees-with-color/bee-B2DM.svg","response":1,"trial_type":"image-button-response","trial_index":151,"time_elapsed":689023,"internal_node_id":"0.0-6.0-0.11","subject_id":"610d4df86c4abc6b5ced6fa0","study_id":"6197b3f67c2b5cd3b6d9596a","session_id":"6197b577df661afc98bf5fed","condition":"contingent","relevant_dimensions":["antennae","wings"],"bee_group":{"antennae":"B","wings":"1","pattern":"X","legs":"X"},"bonus":0.04},{"rt":1584.6000000014901,"stimulus":"bees-with-color/bee-B1DM.svg","response":0,"trial_type":"image-button-response","trial_index":152,"time_elapsed":690611,"internal_node_id":"0.0-6.0-0.12","subject_id":"610d4df86c4abc6b5ced6fa0","study_id":"6197b3f67c2b5cd3b6d9596a","session_id":"6197b577df661afc98bf5fed","condition":"contingent","relevant_dimensions":["antennae","wings"],"bee_group":{"antennae":"B","wings":"1","pattern":"X","legs":"X"},"bonus":0.04},{"rt":1393.8999999985099,"stimulus":"bees-with-color/bee-A2SF.svg","response":0,"trial_type":"image-button-response","trial_index":153,"time_elapsed":692010,"internal_node_id":"0.0-6.0-0.13","subject_id":"610d4df86c4abc6b5ced6fa0","study_id":"6197b3f67c2b5cd3b6d9596a","session_id":"6197b577df661afc98bf5fed","condition":"contingent","relevant_dimensions":["antennae","wings"],"bee_group":{"antennae":"B","wings":"1","pattern":"X","legs":"X"},"bonus":0.04},{"rt":1164.3999999985099,"stimulus":"bees-with-color/bee-A1SF.svg","response":0,"trial_type":"image-button-response","trial_index":154,"time_elapsed":693180,"internal_node_id":"0.0-6.0-0.14","subject_id":"610d4df86c4abc6b5ced6fa0","study_id":"6197b3f67c2b5cd3b6d9596a","session_id":"6197b577df661afc98bf5fed","condition":"contingent","relevant_dimensions":["antennae","wings"],"bee_group":{"antennae":"B","wings":"1","pattern":"X","legs":"X"},"bonus":0.04},{"rt":1312.6000000014901,"stimulus":"bees-with-color/bee-A1DM.svg","response":1,"trial_type":"image-button-response","trial_index":155,"time_elapsed":694498,"internal_node_id":"0.0-6.0-0.15","subject_id":"610d4df86c4abc6b5ced6fa0","study_id":"6197b3f67c2b5cd3b6d9596a","session_id":"6197b577df661afc98bf5fed","condition":"contingent","relevant_dimensions":["antennae","wings"],"bee_group":{"antennae":"B","wings":"1","pattern":"X","legs":"X"},"bonus":0.04},{"rt":1147,"stimulus":"bees-with-color/bee-A2SF.svg","response":1,"trial_type":"image-button-response","trial_index":156,"time_elapsed":695650,"internal_node_id":"0.0-6.0-0.16","subject_id":"610d4df86c4abc6b5ced6fa0","study_id":"6197b3f67c2b5cd3b6d9596a","session_id":"6197b577df661afc98bf5fed","condition":"contingent","relevant_dimensions":["antennae","wings"],"bee_group":{"antennae":"B","wings":"1","pattern":"X","legs":"X"},"bonus":0.04},{"rt":1427.2999999970198,"stimulus":"bees-with-color/bee-B2DM.svg","response":1,"trial_type":"image-button-response","trial_index":157,"time_elapsed":697084,"internal_node_id":"0.0-6.0-0.17","subject_id":"610d4df86c4abc6b5ced6fa0","study_id":"6197b3f67c2b5cd3b6d9596a","session_id":"6197b577df661afc98bf5fed","condition":"contingent","relevant_dimensions":["antennae","wings"],"bee_group":{"antennae":"B","wings":"1","pattern":"X","legs":"X"},"bonus":0.04},{"rt":1692.1000000014901,"stimulus":"bees-with-color/bee-A2DF.svg","response":1,"trial_type":"image-button-response","trial_index":158,"time_elapsed":698783,"internal_node_id":"0.0-6.0-0.18","subject_id":"610d4df86c4abc6b5ced6fa0","study_id":"6197b3f67c2b5cd3b6d9596a","session_id":"6197b577df661afc98bf5fed","condition":"contingent","relevant_dimensions":["antennae","wings"],"bee_group":{"antennae":"B","wings":"1","pattern":"X","legs":"X"},"bonus":0.04},{"rt":1068.2999999970198,"stimulus":"bees-with-color/bee-B1DM.svg","response":0,"trial_type":"image-button-response","trial_index":159,"time_elapsed":699858,"internal_node_id":"0.0-6.0-0.19","subject_id":"610d4df86c4abc6b5ced6fa0","study_id":"6197b3f67c2b5cd3b6d9596a","session_id":"6197b577df661afc98bf5fed","condition":"contingent","relevant_dimensions":["antennae","wings"],"bee_group":{"antennae":"B","wings":"1","pattern":"X","legs":"X"},"bonus":0.04},{"rt":895.6000000014901,"stimulus":"bees-with-color/bee-B1SF.svg","response":0,"trial_type":"image-button-response","trial_index":160,"time_elapsed":700759,"internal_node_id":"0.0-6.0-0.20","subject_id":"610d4df86c4abc6b5ced6fa0","study_id":"6197b3f67c2b5cd3b6d9596a","session_id":"6197b577df661afc98bf5fed","condition":"contingent","relevant_dimensions":["antennae","wings"],"bee_group":{"antennae":"B","wings":"1","pattern":"X","legs":"X"},"bonus":0.04},{"rt":3306.3000000044703,"stimulus":"bees-with-color/bee-B2SF.svg","response":0,"trial_type":"image-button-response","trial_index":161,"time_elapsed":704072,"internal_node_id":"0.0-6.0-0.21","subject_id":"610d4df86c4abc6b5ced6fa0","study_id":"6197b3f67c2b5cd3b6d9596a","session_id":"6197b577df661afc98bf5fed","condition":"contingent","relevant_dimensions":["antennae","wings"],"bee_group":{"antennae":"B","wings":"1","pattern":"X","legs":"X"},"bonus":0.04},{"rt":1132.3000000044703,"stimulus":"bees-with-color/bee-A1SM.svg","response":1,"trial_type":"image-button-response","trial_index":162,"time_elapsed":705210,"internal_node_id":"0.0-6.0-0.22","subject_id":"610d4df86c4abc6b5ced6fa0","study_id":"6197b3f67c2b5cd3b6d9596a","session_id":"6197b577df661afc98bf5fed","condition":"contingent","relevant_dimensions":["antennae","wings"],"bee_group":{"antennae":"B","wings":"1","pattern":"X","legs":"X"},"bonus":0.04},{"rt":1275.8999999985099,"stimulus":"bees-with-color/bee-A1DF.svg","response":1,"trial_type":"image-button-response","trial_index":163,"time_elapsed":706490,"internal_node_id":"0.0-6.0-0.23","subject_id":"610d4df86c4abc6b5ced6fa0","study_id":"6197b3f67c2b5cd3b6d9596a","session_id":"6197b577df661afc98bf5fed","condition":"contingent","relevant_dimensions":["antennae","wings"],"bee_group":{"antennae":"B","wings":"1","pattern":"X","legs":"X"},"bonus":0.04},{"rt":1238.7999999970198,"stimulus":"bees-with-color/bee-A2SM.svg","response":1,"trial_type":"image-button-response","trial_index":164,"time_elapsed":707735,"internal_node_id":"0.0-6.0-0.24","subject_id":"610d4df86c4abc6b5ced6fa0","study_id":"6197b3f67c2b5cd3b6d9596a","session_id":"6197b577df661afc98bf5fed","condition":"contingent","relevant_dimensions":["antennae","wings"],"bee_group":{"antennae":"B","wings":"1","pattern":"X","legs":"X"},"bonus":0.04},{"rt":1220.3999999985099,"stimulus":"bees-with-color/bee-B1SM.svg","response":0,"trial_type":"image-button-response","trial_index":165,"time_elapsed":708960,"internal_node_id":"0.0-6.0-0.25","subject_id":"610d4df86c4abc6b5ced6fa0","study_id":"6197b3f67c2b5cd3b6d9596a","session_id":"6197b577df661afc98bf5fed","condition":"contingent","relevant_dimensions":["antennae","wings"],"bee_group":{"antennae":"B","wings":"1","pattern":"X","legs":"X"},"bonus":0.04},{"rt":758.3000000044703,"stimulus":"bees-with-color/bee-B1DF.svg","r