[{"success":true,"trial_type":"fullscreen","trial_index":0,"time_elapsed":16829,"internal_node_id":"0.0-0.0","subject_id":"610a90b210c15673103314b8","study_id":"60edd13110225f80f9f3709b","session_id":"6196c1e867a2650ccd3462f8","condition":"contingent","relevant_dimensions":["pattern","legs"],"bee_group":{"antennae":"X","wings":"X","pattern":"D","legs":"F"},"bonus":0.7200000000000011},{"success":true,"timeout":false,"failed_images":[],"failed_audio":[],"failed_video":[],"trial_type":"preload","trial_index":1,"time_elapsed":20399,"internal_node_id":"0.0-1.0","subject_id":"610a90b210c15673103314b8","study_id":"60edd13110225f80f9f3709b","session_id":"6196c1e867a2650ccd3462f8","condition":"contingent","relevant_dimensions":["pattern","legs"],"bee_group":{"antennae":"X","wings":"X","pattern":"D","legs":"F"},"bonus":0.7200000000000011},{"rt":2818.300000011921,"stimulus":"Welcome! Press any key to begin.","response":" ","trial_type":"html-keyboard-response","trial_index":2,"time_elapsed":23220,"internal_node_id":"0.0-2.0","subject_id":"610a90b210c15673103314b8","study_id":"60edd13110225f80f9f3709b","session_id":"6196c1e867a2650ccd3462f8","condition":"contingent","relevant_dimensions":["pattern","legs"],"bee_group":{"antennae":"X","wings":"X","pattern":"D","legs":"F"},"bonus":0.7200000000000011},{"view_history":[{"page_index":0,"viewing_time":11571.40000000596},{"page_index":1,"viewing_time":26600},{"page_index":2,"viewing_time":19712.69999998808},{"page_index":3,"viewing_time":24619.80000001192},{"page_index":4,"viewing_time":10319.699999988079},{"page_index":5,"viewing_time":9996},{"page_index":6,"viewing_time":15414.800000011921},{"page_index":7,"viewing_time":10306.59999999404},{"page_index":8,"viewing_time":5958.0999999940395},{"page_index":9,"viewing_time":7609.800000011921},{"page_index":10,"viewing_time":4716.199999988079},{"page_index":11,"viewing_time":16891.19999998808},{"page_index":12,"viewing_time":15073.800000011921},{"page_index":13,"viewing_time":3194.300000011921},{"page_index":14,"viewing_time":5258.399999976158}],"rt":187243.59999999404,"trial_type":"instructions","trial_index":3,"time_elapsed":210471,"internal_node_id":"0.0-3.0-0.0","subject_id":"610a90b210c15673103314b8","study_id":"60edd13110225f80f9f3709b","session_id":"6196c1e867a2650ccd3462f8","condition":"contingent","relevant_dimensions":["pattern","legs"],"bee_group":{"antennae":"X","wings":"X","pattern":"D","legs":"F"},"bonus":0.7200000000000011},{"rt":23255.5,"response":{"Q0":["Two or six legs","Stripes or spots on body","Single or double wings","Antennae or no antennae"]},"question_order":[0],"trial_type":"survey-multi-select","trial_index":4,"time_elapsed":233738,"internal_node_id":"0.0-3.0-1.0","subject_id":"610a90b210c15673103314b8","study_id":"60edd13110225f80f9f3709b","session_id":"6196c1e867a2650ccd3462f8","condition":"contingent","relevant_dimensions":["pattern","legs"],"bee_group":{"antennae":"X","wings":"X","pattern":"D","legs":"F"},"correct":true,"bonus":0.7200000000000011},{"rt":74199,"response":{"Q1":"No.","Q2":"Based on the four features of the bee.","Q3":"You do not learn if it was friendly or dangerous, and do not alter your bonus."},"question_order":[0,1,2],"trial_type":"survey-multi-choice","trial_index":5,"time_elapsed":307943,"internal_node_id":"0.0-3.0-2.0","subject_id":"610a90b210c15673103314b8","study_id":"60edd13110225f80f9f3709b","session_id":"6196c1e867a2650ccd3462f8","condition":"contingent","relevant_dimensions":["pattern","legs"],"bee_group":{"antennae":"X","wings":"X","pattern":"D","legs":"F"},"correct":true,"bonus":0.7200000000000011},{"rt":5690.4000000059605,"stimulus":"<p>Congrats, you got everything right<br>When you're ready, click the button below to continue to the experiment.</p>","response":0,"trial_type":"html-button-response","trial_index":6,"time_elapsed":313638,"internal_node_id":"0.0-3.0-3.0","subject_id":"610a90b210c15673103314b8","study_id":"60edd13110225f80f9f3709b","session_id":"6196c1e867a2650ccd3462f8","condition":"contingent","relevant_dimensions":["pattern","legs"],"bee_group":{"antennae":"X","wings":"X","pattern":"D","legs":"F"},"bonus":0.7200000000000011},{"rt":10621.90000000596,"stimulus":"bees-with-color/bee-B2SM.svg","response":0,"trial_type":"image-button-response","trial_index":7,"time_elapsed":324268,"internal_node_id":"0.0-4.0-0.0","subject_id":"610a90b210c15673103314b8","study_id":"60edd13110225f80f9f3709b","session_id":"6196c1e867a2650ccd3462f8","condition":"contingent","relevant_dimensions":["pattern","legs"],"bee_group":{"antennae":"X","wings":"X","pattern":"D","legs":"F"},"action":"harvest","summary":"good-harvest","bonus":0.7200000000000011},{"rt":17119,"stimulus":"\n                    <p><b>Action: <em>harvest</em></b></p>\n                    <p>This is the bee that you just saw.</p>\n                    <img src=\"bees-with-color/bee-B2SM.svg\" width=\"200\">\n                    <p><span class=\"greenText\"><b>Successful harvest!</b></span><br>Your pay has increased by $0.02. Your bonus pay is now $0.56.</p>\n            ","response":0,"trial_type":"html-button-response","trial_index":8,"time_elapsed":341397,"internal_node_id":"0.0-4.0-1.0","subject_id":"610a90b210c15673103314b8","study_id":"60edd13110225f80f9f3709b","session_id":"6196c1e867a2650ccd3462f8","condition":"contingent","relevant_dimensions":["pattern","legs"],"bee_group":{"antennae":"X","wings":"X","pattern":"D","legs":"F"},"bonus":0.7200000000000011},{"rt":10067.300000011921,"stimulus":"bees-with-color/bee-B2DF.svg","response":0,"trial_type":"image-button-response","trial_index":9,"time_elapsed":351469,"internal_node_id":"0.0-4.0-0.1","subject_id":"610a90b210c15673103314b8","study_id":"60edd13110225f80f9f3709b","session_id":"6196c1e867a2650ccd3462f8","condition":"contingent","relevant_dimensions":["pattern","legs"],"bee_group":{"antennae":"X","wings":"X","pattern":"D","legs":"F"},"action":"harvest","summary":"bad-harvest","bonus":0.7200000000000011},{"rt":7375.800000011921,"stimulus":"\n                    <p><b>Action: <em>harvest</em></b></p>\n                    <p>This is the bee that you just saw.</p>\n                    <img src=\"bees-with-color/bee-B2DF.svg\" width=\"200\">\n                    <p><span class=\"redText\">Bad choice, the bee was angry.</span><br><b>You have been stung!</b><br>Your pay has been decreased by $0.10. Your bonus pay is now $0.46.</p>\n            ","response":0,"trial_type":"html-button-response","trial_index":10,"time_elapsed":358849,"internal_node_id":"0.0-4.0-1.1","subject_id":"610a90b210c15673103314b8","study_id":"60edd13110225f80f9f3709b","session_id":"6196c1e867a2650ccd3462f8","condition":"contingent","relevant_dimensions":["pattern","legs"],"bee_group":{"antennae":"X","wings":"X","pattern":"D","legs":"F"},"bonus":0.7200000000000011},{"rt":10123,"stimulus":"bees-with-color/bee-B1DM.svg","response":0,"trial_type":"image-button-response","trial_index":11,"time_elapsed":368977,"internal_node_id":"0.0-4.0-0.2","subject_id":"610a90b210c15673103314b8","study_id":"60edd13110225f80f9f3709b","session_id":"6196c1e867a2650ccd3462f8","condition":"contingent","relevant_dimensions":["pattern","legs"],"bee_group":{"antennae":"X","wings":"X","pattern":"D","legs":"F"},"action":"harvest","summary":"good-harvest","bonus":0.7200000000000011},{"rt":7335.5,"stimulus":"\n                    <p><b>Action: <em>harvest</em></b></p>\n                    <p>This is the bee that you just saw.</p>\n                    <img src=\"bees-with-color/bee-B1DM.svg\" width=\"200\">\n                    <p><span class=\"greenText\"><b>Successful harvest!</b></span><br>Your pay has increased by $0.02. Your bonus pay is now $0.48.</p>\n            ","response":0,"trial_type":"html-button-response","trial_index":12,"time_elapsed":376317,"internal_node_id":"0.0-4.0-1.2","subject_id":"610a90b210c15673103314b8","study_id":"60edd13110225f80f9f3709b","session_id":"6196c1e867a2650ccd3462f8","condition":"contingent","relevant_dimensions":["pattern","legs"],"bee_group":{"antennae":"X","wings":"X","pattern":"D","legs":"F"},"bonus":0.7200000000000011},{"rt":3624.9000000059605,"stimulus":"bees-with-color/bee-A2DF.svg","response":0,"trial_type":"image-button-response","trial_index":13,"time_elapsed":379945,"internal_node_id":"0.0-4.0-0.3","subject_id":"610a90b210c15673103314b8","study_id":"60edd13110225f80f9f3709b","session_id":"6196c1e867a2650ccd3462f8","condition":"contingent","relevant_dimensions":["pattern","legs"],"bee_group":{"antennae":"X","wings":"X","pattern":"D","legs":"F"},"action":"harvest","summary":"bad-harvest","bonus":0.7200000000000011},{"rt":9291,"stimulus":"\n                    <p><b>Action: <em>harvest</em></b></p>\n                    <p>This is the bee that you just saw.</p>\n                    <img src=\"bees-with-color/bee-A2DF.svg\" width=\"200\">\n                    <p><span class=\"redText\">Bad choice, the bee was angry.</span><br><b>You have been stung!</b><br>Your pay has been decreased by $0.10. Your bonus pay is now $0.38.</p>\n            ","response":0,"trial_type":"html-button-response","trial_index":14,"time_elapsed":389239,"internal_node_id":"0.0-4.0-1.3","subject_id":"610a90b210c15673103314b8","study_id":"60edd13110225f80f9f3709b","session_id":"6196c1e867a2650ccd3462f8","condition":"contingent","relevant_dimensions":["pattern","legs"],"bee_group":{"antennae":"X","wings":"X","pattern":"D","legs":"F"},"bonus":0.7200000000000011},{"rt":5760,"stimulus":"bees-with-color/bee-A1DM.svg","response":0,"trial_type":"image-button-response","trial_index":15,"time_elapsed":395005,"internal_node_id":"0.0-4.0-0.4","subject_id":"610a90b210c15673103314b8","study_id":"60edd13110225f80f9f3709b","session_id":"6196c1e867a2650ccd3462f8","condition":"contingent","relevant_dimensions":["pattern","legs"],"bee_group":{"antennae":"X","wings":"X","pattern":"D","legs":"F"},"action":"harvest","summary":"good-harvest","bonus":0.7200000000000011},{"rt":3175.5,"stimulus":"\n                    <p><b>Action: <em>harvest</em></b></p>\n                    <p>This is the bee that you just saw.</p>\n                    <img src=\"bees-with-color/bee-A1DM.svg\" width=\"200\">\n                    <p><span class=\"greenText\"><b>Successful harvest!</b></span><br>Your pay has increased by $0.02. Your bonus pay is now $0.40.</p>\n            ","response":0,"trial_type":"html-button-response","trial_index":16,"time_elapsed":398186,"internal_node_id":"0.0-4.0-1.4","subject_id":"610a90b210c15673103314b8","study_id":"60edd13110225f80f9f3709b","session_id":"6196c1e867a2650ccd3462f8","condition":"contingent","relevant_dimensions":["pattern","legs"],"bee_group":{"antennae":"X","wings":"X","pattern":"D","legs":"F"},"bonus":0.7200000000000011},{"rt":4395.800000011921,"stimulus":"bees-with-color/bee-A2SF.svg","response":0,"trial_type":"image-button-response","trial_index":17,"time_elapsed":402586,"internal_node_id":"0.0-4.0-0.5","subject_id":"610a90b210c15673103314b8","study_id":"60edd13110225f80f9f3709b","session_id":"6196c1e867a2650ccd3462f8","condition":"contingent","relevant_dimensions":["pattern","legs"],"bee_group":{"antennae":"X","wings":"X","pattern":"D","legs":"F"},"action":"harvest","summary":"good-harvest","bonus":0.7200000000000011},{"rt":3015.2000000178814,"stimulus":"\n                    <p><b>Action: <em>harvest</em></b></p>\n                    <p>This is the bee that you just saw.</p>\n                    <img src=\"bees-with-color/bee-A2SF.svg\" width=\"200\">\n                    <p><span class=\"greenText\"><b>Successful harvest!</b></span><br>Your pay has increased by $0.02. Your bonus pay is now $0.42.</p>\n            ","response":0,"trial_type":"html-button-response","trial_index":18,"time_elapsed":405604,"internal_node_id":"0.0-4.0-1.5","subject_id":"610a90b210c15673103314b8","study_id":"60edd13110225f80f9f3709b","session_id":"6196c1e867a2650ccd3462f8","condition":"contingent","relevant_dimensions":["pattern","legs"],"bee_group":{"antennae":"X","wings":"X","pattern":"D","legs":"F"},"bonus":0.7200000000000011},{"rt":4586.800000011921,"stimulus":"bees-with-color/bee-B1SF.svg","response":1,"trial_type":"image-button-response","trial_index":19,"time_elapsed":410197,"internal_node_id":"0.0-4.0-0.6","subject_id":"610a90b210c15673103314b8","study_id":"60edd13110225f80f9f3709b","session_id":"6196c1e867a2650ccd3462f8","condition":"contingent","relevant_dimensions":["pattern","legs"],"bee_group":{"antennae":"X","wings":"X","pattern":"D","legs":"F"},"action":"avoid","summary":"bad-avoid","bonus":0.7200000000000011},{"rt":5694.5,"stimulus":"\n                    <p><b>Action: <em>avoid</em></b></p>\n                    <p>This is the bee that you just saw.</p>\n                    <img src=\"bees-with-color/bee-B1SF.svg\" width=\"200\">\n                    <p><br>Your bonus pay is unchanged, and remains at $0.42.</p>\n            ","response":0,"trial_type":"html-button-response","trial_index":20,"time_elapsed":415895,"internal_node_id":"0.0-4.0-1.6","subject_id":"610a90b210c15673103314b8","study_id":"60edd13110225f80f9f3709b","session_id":"6196c1e867a2650ccd3462f8","condition":"contingent","relevant_dimensions":["pattern","legs"],"bee_group":{"antennae":"X","wings":"X","pattern":"D","legs":"F"},"bonus":0.7200000000000011},{"rt":2719.699999988079,"stimulus":"bees-with-color/bee-A1SF.svg","response":0,"trial_type":"image-button-response","trial_index":21,"time_elapsed":418619,"internal_node_id":"0.0-4.0-0.7","subject_id":"610a90b210c15673103314b8","study_id":"60edd13110225f80f9f3709b","session_id":"6196c1e867a2650ccd3462f8","condition":"contingent","relevant_dimensions":["pattern","legs"],"bee_group":{"antennae":"X","wings":"X","pattern":"D","legs":"F"},"action":"harvest","summary":"good-harvest","bonus":0.7200000000000011},{"rt":2767.7999999821186,"stimulus":"\n                    <p><b>Action: <em>harvest</em></b></p>\n                    <p>This is the bee that you just saw.</p>\n                    <img src=\"bees-with-color/bee-A1SF.svg\" width=\"200\">\n                    <p><span class=\"greenText\"><b>Successful harvest!</b></span><br>Your pay has increased by $0.02. Your bonus pay is now $0.44.</p>\n            ","response":0,"trial_type":"html-button-response","trial_index":22,"time_elapsed":421392,"internal_node_id":"0.0-4.0-1.7","subject_id":"610a90b210c15673103314b8","study_id":"60edd13110225f80f9f3709b","session_id":"6196c1e867a2650ccd3462f8","condition":"contingent","relevant_dimensions":["pattern","legs"],"bee_group":{"antennae":"X","wings":"X","pattern":"D","legs":"F"},"bonus":0.7200000000000011},{"rt":3097.2999999821186,"stimulus":"bees-with-color/bee-A2SM.svg","response":0,"trial_type":"image-button-response","trial_index":23,"time_elapsed":424494,"internal_node_id":"0.0-4.0-0.8","subject_id":"610a90b210c15673103314b8","study_id":"60edd13110225f80f9f3709b","session_id":"6196c1e867a2650ccd3462f8","condition":"contingent","relevant_dimensions":["pattern","legs"],"bee_group":{"antennae":"X","wings":"X","pattern":"D","legs":"F"},"action":"harvest","summary":"good-harvest","bonus":0.7200000000000011},{"rt":7900.799999982119,"stimulus":"\n                    <p><b>Action: <em>harvest</em></b></p>\n                    <p>This is the bee that you just saw.</p>\n                    <img src=\"bees-with-color/bee-A2SM.svg\" width=\"200\">\n                    <p><span class=\"greenText\"><b>Successful harvest!</b></span><br>Your pay has increased by $0.02. Your bonus pay is now $0.46.</p>\n            ","response":0,"trial_type":"html-button-response","trial_index":24,"time_elapsed":432398,"internal_node_id":"0.0-4.0-1.8","subject_id":"610a90b210c15673103314b8","study_id":"60edd13110225f80f9f3709b","session_id":"6196c1e867a2650ccd3462f8","condition":"contingent","relevant_dimensions":["pattern","legs"],"bee_group":{"antennae":"X","wings":"X","pattern":"D","legs":"F"},"bonus":0.7200000000000011},{"rt":3415.100000023842,"stimulus":"bees-with-color/bee-A1SM.svg","response":0,"trial_type":"image-button-response","trial_index":25,"time_elapsed":435817,"internal_node_id":"0.0-4.0-0.9","subject_id":"610a90b210c15673103314b8","study_id":"60edd13110225f80f9f3709b","session_id":"6196c1e867a2650ccd3462f8","condition":"contingent","relevant_dimensions":["pattern","legs"],"bee_group":{"antennae":"X","wings":"X","pattern":"D","legs":"F"},"action":"harvest","summary":"good-harvest","bonus":0.7200000000000011},{"rt":3069.5,"stimulus":"\n                    <p><b>Action: <em>harvest</em></b></p>\n                    <p>This is the bee that you just saw.</p>\n                    <img src=\"bees-with-color/bee-A1SM.svg\" width=\"200\">\n                    <p><span class=\"greenText\"><b>Successful harvest!</b></span><br>Your pay has increased by $0.02. Your bonus pay is now $0.48.</p>\n            ","response":0,"trial_type":"html-button-response","trial_index":26,"time_elapsed":438890,"internal_node_id":"0.0-4.0-1.9","subject_id":"610a90b210c15673103314b8","study_id":"60edd13110225f80f9f3709b","session_id":"6196c1e867a2650ccd3462f8","condition":"contingent","relevant_dimensions":["pattern","legs"],"bee_group":{"antennae":"X","wings":"X","pattern":"D","legs":"F"},"bonus":0.7200000000000011},{"rt":2735.5,"stimulus":"bees-with-color/bee-A1DF.svg","response":1,"trial_type":"image-button-response","trial_index":27,"time_elapsed":441631,"internal_node_id":"0.0-4.0-0.10","subject_id":"610a90b210c15673103314b8","study_id":"60edd13110225f80f9f3709b","session_id":"6196c1e867a2650ccd3462f8","condition":"contingent","relevant_dimensions":["pattern","legs"],"bee_group":{"antennae":"X","wings":"X","pattern":"D","legs":"F"},"action":"avoid","summary":"good-avoid","bonus":0.7200000000000011},{"rt":2765,"stimulus":"\n                    <p><b>Action: <em>avoid</em></b></p>\n                    <p>This is the bee that you just saw.</p>\n                    <img src=\"bees-with-color/bee-A1DF.svg\" width=\"200\">\n                    <p><br>Your bonus pay is unchanged, and remains at $0.48.</p>\n            ","response":0,"trial_type":"html-button-response","trial_index":28,"time_elapsed":444401,"internal_node_id":"0.0-4.0-1.10","subject_id":"610a90b210c15673103314b8","study_id":"60edd13110225f80f9f3709b","session_id":"6196c1e867a2650ccd3462f8","condition":"contingent","relevant_dimensions":["pattern","legs"],"bee_group":{"antennae":"X","wings":"X","pattern":"D","legs":"F"},"bonus":0.7200000000000011},{"rt":7871.5999999940395,"stimulus":"bees-with-color/bee-B2DM.svg","response":0,"trial_type":"image-button-response","trial_index":29,"time_elapsed":452276,"internal_node_id":"0.0-4.0-0.11","subject_id":"610a90b210c15673103314b8","study_id":"60edd13110225f80f9f3709b","session_id":"6196c1e867a2650ccd3462f8","condition":"contingent","relevant_dimensions":["pattern","legs"],"bee_group":{"antennae":"X","wings":"X","pattern":"D","legs":"F"},"action":"harvest","summary":"good-harvest","bonus":0.7200000000000011},{"rt":2206.300000011921,"stimulus":"\n                    <p><b>Action: <em>harvest</em></b></p>\n                    <p>This is the bee that you just saw.</p>\n                    <img src=\"bees-with-color/bee-B2DM.svg\" width=\"200\">\n                    <p><span class=\"greenText\"><b>Successful harvest!</b></span><br>Your pay has increased by $0.02. Your bonus pay is now $0.50.</p>\n            ","response":0,"trial_type":"html-button-response","trial_index":30,"time_elapsed":454487,"internal_node_id":"0.0-4.0-1.11","subject_id":"610a90b210c15673103314b8","study_id":"60edd13110225f80f9f3709b","session_id":"6196c1e867a2650ccd3462f8","condition":"contingent","relevant_dimensions":["pattern","legs"],"bee_group":{"antennae":"X","wings":"X","pattern":"D","legs":"F"},"bonus":0.7200000000000011},{"rt":2847.800000011921,"stimulus":"bees-with-color/bee-B1DF.svg","response":0,"trial_type":"image-button-response","trial_index":31,"time_elapsed":457339,"internal_node_id":"0.0-4.0-0.12","subject_id":"610a90b210c15673103314b8","study_id":"60edd13110225f80f9f3709b","session_id":"6196c1e867a2650ccd3462f8","condition":"contingent","relevant_dimensions":["pattern","legs"],"bee_group":{"antennae":"X","wings":"X","pattern":"D","legs":"F"},"action":"harvest","summary":"bad-harvest","bonus":0.7200000000000011},{"rt":4413,"stimulus":"\n                    <p><b>Action: <em>harvest</em></b></p>\n                    <p>This is the bee that you just saw.</p>\n                    <img src=\"bees-with-color/bee-B1DF.svg\" width=\"200\">\n                    <p><span class=\"redText\">Bad choice, the bee was angry.</span><br><b>You have been stung!</b><br>Your pay has been decreased by $0.10. Your bonus pay is now $0.40.</p>\n            ","response":0,"trial_type":"html-button-response","trial_index":32,"time_elapsed":461761,"internal_node_id":"0.0-4.0-1.12","subject_id":"610a90b210c15673103314b8","study_id":"60edd13110225f80f9f3709b","session_id":"6196c1e867a2650ccd3462f8","condition":"contingent","relevant_dimensions":["pattern","legs"],"bee_group":{"antennae":"X","wings":"X","pattern":"D","legs":"F"},"bonus":0.7200000000000011},{"rt":2305.4000000059605,"stimulus":"bees-with-color/bee-A2DM.svg","response":0,"trial_type":"image-button-response","trial_index":33,"time_elapsed":464070,"internal_node_id":"0.0-4.0-0.13","subject_id":"610a90b210c15673103314b8","study_id":"60edd13110225f80f9f3709b","session_id":"6196c1e867a2650ccd3462f8","condition":"contingent","relevant_dimensions":["pattern","legs"],"bee_group":{"antennae":"X","wings":"X","pattern":"D","legs":"F"},"action":"harvest","summary":"good-harvest","bonus":0.7200000000000011},{"rt":2353.2999999821186,"stimulus":"\n                    <p><b>Action: <em>harvest</em></b></p>\n                    <p>This is the bee that you just saw.</p>\n                    <img src=\"bees-with-color/bee-A2DM.svg\" width=\"200\">\n                    <p><span class=\"greenText\"><b>Successful harvest!</b></span><br>Your pay has increased by $0.02. Your bonus pay is now $0.42.</p>\n            ","response":0,"trial_type":"html-button-response","trial_index":34,"time_elapsed":466427,"internal_node_id":"0.0-4.0-1.13","subject_id":"610a90b210c15673103314b8","study_id":"60edd13110225f80f9f3709b","session_id":"6196c1e867a2650ccd3462f8","condition":"contingent","relevant_dimensions":["pattern","legs"],"bee_group":{"antennae":"X","wings":"X","pattern":"D","legs":"F"},"bonus":0.7200000000000011},{"rt":3167.0999999940395,"stimulus":"bees-with-color/bee-B2SF.svg","response":0,"trial_type":"image-button-response","trial_index":35,"time_elapsed":469598,"internal_node_id":"0.0-4.0-0.14","subject_id":"610a90b210c15673103314b8","study_id":"60edd13110225f80f9f3709b","session_id":"6196c1e867a2650ccd3462f8","condition":"contingent","relevant_dimensions":["pattern","legs"],"bee_group":{"antennae":"X","wings":"X","pattern":"D","legs":"F"},"action":"harvest","summary":"good-harvest","bonus":0.7200000000000011},{"rt":2976,"stimulus":"\n                    <p><b>Action: <em>harvest</em></b></p>\n                    <p>This is the bee that you just saw.</p>\n                    <img src=\"bees-with-color/bee-B2SF.svg\" width=\"200\">\n                    <p><span class=\"greenText\"><b>Successful harvest!</b></span><br>Your pay has increased by $0.02. Your bonus pay is now $0.44.</p>\n            ","response":0,"trial_type":"html-button-response","trial_index":36,"time_elapsed":472577,"internal_node_id":"0.0-4.0-1.14","subject_id":"610a90b210c15673103314b8","study_id":"60edd13110225f80f9f3709b","session_id":"6196c1e867a2650ccd3462f8","condition":"contingent","relevant_dimensions":["pattern","legs"],"bee_group":{"antennae":"X","wings":"X","pattern":"D","legs":"F"},"bonus":0.7200000000000011},{"rt":2413.5999999940395,"stimulus":"bees-with-color/bee-B1SM.svg","response":0,"trial_type":"image-button-response","trial_index":37,"time_elapsed":474996,"internal_node_id":"0.0-4.0-0.15","subject_id":"610a90b210c15673103314b8","study_id":"60edd13110225f80f9f3709b","session_id":"6196c1e867a2650ccd3462f8","condition":"contingent","relevant_dimensions":["pattern","legs"],"bee_group":{"antennae":"X","wings":"X","pattern":"D","legs":"F"},"action":"harvest","summary":"good-harvest","bonus":0.7200000000000011},{"rt":1807.2999999821186,"stimulus":"\n                    <p><b>Action: <em>harvest</em></b></p>\n                    <p>This is the bee that you just saw.</p>\n                    <img src=\"bees-with-color/bee-B1SM.svg\" width=\"200\">\n                    <p><span class=\"greenText\"><b>Successful harvest!</b></span><br>Your pay has increased by $0.02. Your bonus pay is now $0.46.</p>\n            ","response":0,"trial_type":"html-button-response","trial_index":38,"time_elapsed":476809,"internal_node_id":"0.0-4.0-1.15","subject_id":"610a90b210c15673103314b8","study_id":"60edd13110225f80f9f3709b","session_id":"6196c1e867a2650ccd3462f8","condition":"contingent","relevant_dimensions":["pattern","legs"],"bee_group":{"antennae":"X","wings":"X","pattern":"D","legs":"F"},"bonus":0.7200000000000011},{"rt":2813.600000023842,"stimulus":"bees-with-color/bee-A2DM.svg","response":0,"trial_type":"image-button-response","trial_index":39,"time_elapsed":479626,"internal_node_id":"0.0-4.0-0.16","subject_id":"610a90b210c15673103314b8","study_id":"60edd13110225f80f9f3709b","session_id":"6196c1e867a2650ccd3462f8","condition":"contingent","relevant_dimensions":["pattern","legs"],"bee_group":{"antennae":"X","wings":"X","pattern":"D","legs":"F"},"action":"harvest","summary":"good-harvest","bonus":0.7200000000000011},{"rt":2196.4000000059605,"stimulus":"\n                    <p><b>Action: <em>harvest</em></b></p>\n                    <p>This is the bee that you just saw.</p>\n                    <img src=\"bees-with-color/bee-A2DM.svg\" width=\"200\">\n                    <p><span class=\"greenText\"><b>Successful harvest!</b></span><br>Your pay has increased by $0.02. Your bonus pay is now $0.48.</p>\n            ","response":0,"trial_type":"html-button-response","trial_index":40,"time_elapsed":481826,"internal_node_id":"0.0-4.0-1.16","subject_id":"610a90b210c15673103314b8","study_id":"60edd13110225f80f9f3709b","session_id":"6196c1e867a2650ccd3462f8","condition":"contingent","relevant_dimensions":["pattern","legs"],"bee_group":{"antennae":"X","wings":"X","pattern":"D","legs":"F"},"bonus":0.7200000000000011},{"rt":2226.2000000178814,"stimulus":"bees-with-color/bee-B2SF.svg","response":0,"trial_type":"image-button-response","trial_index":41,"time_elapsed":484056,"internal_node_id":"0.0-4.0-0.17","subject_id":"610a90b210c15673103314b8","study_id":"60edd13110225f80f9f3709b","session_id":"6196c1e867a2650ccd3462f8","condition":"contingent","relevant_dimensions":["pattern","legs"],"bee_group":{"antennae":"X","wings":"X","pattern":"D","legs":"F"},"action":"harvest","summary":"good-harvest","bonus":0.7200000000000011},{"rt":4016.800000011921,"stimulus":"\n                    <p><b>Action: <em>harvest</em></b></p>\n                    <p>This is the bee that you just saw.</p>\n                    <img src=\"bees-with-color/bee-B2SF.svg\" width=\"200\">\n                    <p><span class=\"greenText\"><b>Successful harvest!</b></span><br>Your pay has increased by $0.02. Your bonus pay is now $0.50.</p>\n            ","response":0,"trial_type":"html-button-response","trial_index":42,"time_elapsed":488079,"internal_node_id":"0.0-4.0-1.17","subject_id":"610a90b210c15673103314b8","study_id":"60edd13110225f80f9f3709b","session_id":"6196c1e867a2650ccd3462f8","condition":"contingent","relevant_dimensions":["pattern","legs"],"bee_group":{"antennae":"X","wings":"X","pattern":"D","legs":"F"},"bonus":0.7200000000000011},{"rt":5120.899999976158,"stimulus":"bees-with-color/bee-B1DF.svg","response":0,"trial_type":"image-button-response","trial_index":43,"time_elapsed":493204,"internal_node_id":"0.0-4.0-0.18","subject_id":"610a90b210c15673103314b8","study_id":"60edd13110225f80f9f3709b","session_id":"6196c1e867a2650ccd3462f8","condition":"contingent","relevant_dimensions":["pattern","legs"],"bee_group":{"antennae":"X","wings":"X","pattern":"D","legs":"F"},"action":"harvest","summary":"bad-harvest","bonus":0.7200000000000011},{"rt":2791.300000011921,"stimulus":"\n                    <p><b>Action: <em>harvest</em></b></p>\n                    <p>This is the bee that you just saw.</p>\n                    <img src=\"bees-with-color/bee-B1DF.svg\" width=\"200\">\n                    <p><span class=\"redText\">Bad choice, the bee was angry.</span><br><b>You have been stung!</b><br>Your pay has been decreased by $0.10. Your bonus pay is now $0.40.</p>\n            ","response":0,"trial_type":"html-button-response","trial_index":44,"time_elapsed":495998,"internal_node_id":"0.0-4.0-1.18","subject_id":"610a90b210c15673103314b8","study_id":"60edd13110225f80f9f3709b","session_id":"6196c1e867a2650ccd3462f8","condition":"contingent","relevant_dimensions":["pattern","legs"],"bee_group":{"antennae":"X","wings":"X","pattern":"D","legs":"F"},"bonus":0.7200000000000011},{"rt":2187.399999976158,"stimulus":"bees-with-color/bee-B1SF.svg","response":0,"trial_type":"image-button-response","trial_index":45,"time_elapsed":498191,"internal_node_id":"0.0-4.0-0.19","subject_id":"610a90b210c15673103314b8","study_id":"60edd13110225f80f9f3709b","session_id":"6196c1e867a2650ccd3462f8","condition":"contingent","relevant_dimensions":["pattern","legs"],"bee_group":{"antennae":"X","wings":"X","pattern":"D","legs":"F"},"action":"harvest","summary":"good-harvest","bonus":0.7200000000000011},{"rt":1794.0999999940395,"stimulus":"\n                    <p><b>Action: <em>harvest</em></b></p>\n                    <p>This is the bee that you just saw.</p>\n                    <img src=\"bees-with-color/bee-B1SF.svg\" width=\"200\">\n                    <p><span class=\"greenText\"><b>Successful harvest!</b></span><br>Your pay has increased by $0.02. Your bonus pay is now $0.42.</p>\n            ","response":0,"trial_type":"html-button-response","trial_index":46,"time_elapsed":499989,"internal_node_id":"0.0-4.0-1.19","subject_id":"610a90b210c15673103314b8","study_id":"60edd13110225f80f9f3709b","session_id":"6196c1e867a2650ccd3462f8","condition":"contingent","relevant_dimensions":["pattern","legs"],"bee_group":{"antennae":"X","wings":"X","pattern":"D","legs":"F"},"bonus":0.7200000000000011},{"rt":2788.5999999940395,"stimulus":"bees-with-color/bee-B2DF.svg","response":0,"trial_type":"image-button-response","trial_index":47,"time_elapsed":502784,"internal_node_id":"0.0-4.0-0.20","subject_id":"610a90b210c15673103314b8","study_id":"60edd13110225f80f9f3709b","session_id":"6196c1e867a2650ccd3462f8","condition":"contingent","relevant_dimensions":["pattern","legs"],"bee_group":{"antennae":"X","wings":"X","pattern":"D","legs":"F"},"action":"harvest","summary":"bad-harvest","bonus":0.7200000000000011},{"rt":4310.100000023842,"stimulus":"\n                    <p><b>Action: <em>harvest</em></b></p>\n                    <p>This is the bee that you just saw.</p>\n                    <img src=\"bees-with-color/bee-B2DF.svg\" width=\"200\">\n                    <p><span class=\"redText\">Bad choice, the bee was angry.</span><br><b>You have been stung!</b><br>Your pay has been decreased by $0.10. Your bonus pay is now $0.32.</p>\n            ","response":0,"trial_type":"html-button-response","trial_index":48,"time_elapsed":507097,"internal_node_id":"0.0-4.0-1.20","subject_id":"610a90b210c15673103314b8","study_id":"60edd13110225f80f9f3709b","session_id":"6196c1e867a2650ccd3462f8","condition":"contingent","relevant_dimensions":["pattern","legs"],"bee_group":{"antennae":"X","wings":"X","pattern":"D","legs":"F"},"bonus":0.7200000000000011},{"rt":1868.1000000238419,"stimulus":"bees-with-color/bee-B1SM.svg","response":0,"trial_type":"image-button-response","trial_index":49,"time_elapsed":508971,"internal_node_id":"0.0-4.0-0.21","subject_id":"610a90b210c15673103314b8","study_id":"60edd13110225f80f9f3709b","session_id":"6196c1e867a2650ccd3462f8","condition":"contingent","relevant_dimensions":["pattern","legs"],"bee_group":{"antennae":"X","wings":"X","pattern":"D","legs":"F"},"action":"harvest","summary":"good-harvest","bonus":0.7200000000000011},{"rt":2236.0999999940395,"stimulus":"\n                    <p><b>Action: <em>harvest</em></b></p>\n                    <p>This is the bee that you just saw.</p>\n                    <img src=\"bees-with-color/bee-B1SM.svg\" width=\"200\">\n                    <p><span class=\"greenText\"><b>Successful harvest!</b></span><br>Your pay has increased by $0.02. Your bonus pay is now $0.34.</p>\n            ","response":0,"trial_type":"html-button-response","trial_index":50,"time_elapsed":511214,"internal_node_id":"0.0-4.0-1.21","subject_id":"610a90b210c15673103314b8","study_id":"60edd13110225f80f9f3709b","session_id":"6196c1e867a2650ccd3462f8","condition":"contingent","relevant_dimensions":["pattern","legs"],"bee_group":{"antennae":"X","wings":"X","pattern":"D","legs":"F"},"bonus":0.7200000000000011},{"rt":2246.5999999940395,"stimulus":"bees-with-color/bee-B2DM.svg","response":0,"trial_type":"image-button-response","trial_index":51,"time_elapsed":513468,"internal_node_id":"0.0-4.0-0.22","subject_id":"610a90b210c15673103314b8","study_id":"60edd13110225f80f9f3709b","session_id":"6196c1e867a2650ccd3462f8","condition":"contingent","relevant_dimensions":["pattern","legs"],"bee_group":{"antennae":"X","wings":"X","pattern":"D","legs":"F"},"action":"harvest","summary":"good-harvest","bonus":0.7200000000000011},{"rt":2899.2999999821186,"stimulus":"\n                    <p><b>Action: <em>harvest</em></b></p>\n                    <p>This is the bee that you just saw.</p>\n                    <img src=\"bees-with-color/bee-B2DM.svg\" width=\"200\">\n                    <p><span class=\"greenText\"><b>Successful harvest!</b></span><br>Your pay has increased by $0.02. Your bonus pay is now $0.36.</p>\n            ","response":0,"trial_type":"html-button-response","trial_index":52,"time_elapsed":516370,"internal_node_id":"0.0-4.0-1.22","subject_id":"610a90b210c15673103314b8","study_id":"60edd13110225f80f9f3709b","session_id":"6196c1e867a2650ccd3462f8","condition":"contingent","relevant_dimensions":["pattern","legs"],"bee_group":{"antennae":"X","wings":"X","pattern":"D","legs":"F"},"bonus":0.7200000000000011},{"rt":2610.9000000059605,"stimulus":"bees-with-color/bee-B1DM.svg","response":0,"trial_type":"image-button-response","trial_index":53,"time_elapsed":518987,"internal_node_id":"0.0-4.0-0.23","subject_id":"610a90b210c15673103314b8","study_id":"60edd13110225f80f9f3709b","session_id":"6196c1e867a2650ccd3462f8","condition":"contingent","relevant_dimensions":["pattern","legs"],"bee_group":{"antennae":"X","wings":"X","pattern":"D","legs":"F"},"action":"harvest","summary":"good-harvest","bonus":0.7200000000000011},{"rt":2024.9000000059605,"stimulus":"\n                    <p><b>Action: <em>harvest</em></b></p>\n                    <p>This is the bee that you just saw.</p>\n                    <img src=\"bees-with-color/bee-B1DM.svg\" width=\"200\">\n                    <p><span class=\"greenText\"><b>Successful harvest!</b></span><br>Your pay has increased by $0.02. Your bonus pay is now $0.38.</p>\n            ","response":0,"trial_type":"html-button-response","trial_index":54,"time_elapsed":521018,"internal_node_id":"0.0-4.0-1.23","subject_id":"610a90b210c15673103314b8","study_id":"60edd13110225f80f9f3709b","session_id":"6196c1e867a2650ccd3462f8","condition":"contingent","relevant_dimensions":["pattern","legs"],"bee_group":{"antennae":"X","wings":"X","pattern":"D","legs":"F"},"bonus":0.7200000000000011},{"rt":2107.5999999940395,"stimulus":"bees-with-color/bee-A1SF.svg","response":0,"trial_type":"image-button-response","trial_index":55,"time_elapsed":523131,"internal_node_id":"0.0-4.0-0.24","subject_id":"610a90b210c15673103314b8","study_id":"60edd13110225f80f9f3709b","session_id":"6196c1e867a2650ccd3462f8","condition":"contingent","relevant_dimensions":["pattern","legs"],"bee_group":{"antennae":"X","wings":"X","pattern":"D","legs":"F"},"action":"harvest","summary":"good-harvest","bonus":0.7200000000000011},{"rt":2020.199999988079,"stimulus":"\n                    <p><b>Action: <em>harvest</em></b></p>\n                    <p>This is the bee that you just saw.</p>\n                    <img src=\"bees-with-color/bee-A1SF.svg\" width=\"200\">\n                    <p><span class=\"greenText\"><b>Successful harvest!</b></span><br>Your pay has increased by $0.02. Your bonus pay is now $0.40.</p>\n            ","response":0,"trial_type":"html-button-response","trial_index":56,"time_elapsed":525156,"internal_node_id":"0.0-4.0-1.24","subject_id":"610a90b210c15673103314b8","study_id":"60edd13110225f80f9f3709b","session_id":"6196c1e867a2650ccd3462f8","condition":"contingent","relevant_dimensions":["pattern","legs"],"bee_group":{"antennae":"X","wings":"X","pattern":"D","legs":"F"},"bonus":0.7200000000000011},{"rt":4070.0999999940395,"stimulus":"bees-with-color/bee-A2DF.svg","response":0,"trial_type":"image-button-response","trial_index":57,"time_elapsed":529232,"internal_node_id":"0.0-4.0-0.25","subject_id":"610a90b210c15673103314b8","study_id":"60edd13110225f80f9f3709b","session_id":"6196c1e867a2650ccd3462f8","condition":"contingent","relevant_dimensions":["pattern","legs"],"bee_group":{"antennae":"X","wings":"X","pattern":"D","legs":"F"},"action":"harvest","summary":"bad-harvest","bonus":0.7200000000000011},{"rt":5091.699999988079,"stimulus":"\n                    <p><b>Action: <em>harvest</em></b></p>\n                    <p>This is the bee that you just saw.</p>\n                    <img src=\"bees-with-color/bee-A2DF.svg\" width=\"200\">\n                    <p><span class=\"redText\">Bad choice, the bee was angry.</span><br><b>You have been stung!</b><br>Your pay has been decreased by $0.10. Your bonus pay is now $0.30.</p>\n            ","response":0,"trial_type":"html-button-response","trial_index":58,"time_elapsed":534327,"internal_node_id":"0.0-4.0-1.25","subject_id":"610a90b210c15673103314b8","study_id":"60edd13110225f80f9f3709b","session_id":"6196c1e867a2650ccd3462f8","condition":"contingent","relevant_dimensions":["pattern","legs"],"bee_group":{"antennae":"X","wings":"X","pattern":"D","legs":"F"},"bonus":0.7200000000000011},{"rt":2213.199999988079,"stimulus":"bees-with-color/bee-A2SM.svg","response":0,"trial_type":"image-button-response","trial_index":59,"time_elapsed":536546,"internal_node_id":"0.0-4.0-0.26","subject_id":"610a90b210c15673103314b8","study_id":"60edd13110225f80f9f3709b","session_id":"6196c1e867a2650ccd3462f8","condition":"contingent","relevant_dimensions":["pattern","legs"],"bee_group":{"antennae":"X","wings":"X","pattern":"D","legs":"F"},"action":"harvest","summary":"good-harvest","bonus":0.7200000000000011},{"rt":1875.7000000178814,"stimulus":"\n                    <p><b>Action: <em>harvest</em></b></p>\n                    <p>This is the bee that you just saw.</p>\n                    <img src=\"bees-with-color/bee-A2SM.svg\" width=\"200\">\n                    <p><span class=\"greenText\"><b>Successful harvest!</b></span><br>Your pay has increased by $0.02. Your bonus pay is now $0.32.</p>\n            ","response":0,"trial_type":"html-button-response","trial_index":60,"time_elapsed":538427,"internal_node_id":"0.0-4.0-1.26","subject_id":"610a90b210c15673103314b8","study_id":"60edd13110225f80f9f3709b","session_id":"6196c1e867a2650ccd3462f8","condition":"contingent","relevant_dimensions":["pattern","legs"],"bee_group":{"antennae":"X","wings":"X","pattern":"D","legs":"F"},"bonus":0.7200000000000011},{"rt":2379.9000000059605,"stimulus":"bees-with-color/bee-A1SM.svg","response":0,"trial_type":"image-button-response","trial_index":61,"time_elapsed":540811,"internal_node_id":"0.0-4.0-0.27","subject_id":"610a90b210c15673103314b8","study_id":"60edd13110225f80f9f3709b","session_id":"6196c1e867a2650ccd3462f8","condition":"contingent","relevant_dimensions":["pattern","legs"],"bee_group":{"antennae":"X","wings":"X","pattern":"D","legs":"F"},"action":"harvest","summary":"good-harvest","bonus":0.7200000000000011},{"rt":1678.800000011921,"stimulus":"\n                    <p><b>Action: <em>harvest</em></b></p>\n                    <p>This is the bee that you just saw.</p>\n                    <img src=\"bees-with-color/bee-A1SM.svg\" width=\"200\">\n                    <p><span class=\"greenText\"><b>Successful harvest!</b></span><br>Your pay has increased by $0.02. Your bonus pay is now $0.34.</p>\n            ","response":0,"trial_type":"html-button-response","trial_index":62,"time_elapsed":542494,"internal_node_id":"0.0-4.0-1.27","subject_id":"610a90b210c15673103314b8","study_id":"60edd13110225f80f9f3709b","session_id":"6196c1e867a2650ccd3462f8","condition":"contingent","relevant_dimensions":["pattern","legs"],"bee_group":{"antennae":"X","wings":"X","pattern":"D","legs":"F"},"bonus":0.7200000000000011},{"rt":2973.899999976158,"stimulus":"bees-with-color/bee-A1DF.svg","response":0,"trial_type":"image-button-response","trial_index":63,"time_elapsed":545475,"internal_node_id":"0.0-4.0-0.28","subject_id":"610a90b210c15673103314b8","study_id":"60edd13110225f80f9f3709b","session_id":"6196c1e867a2650ccd3462f8","condition":"contingent","relevant_dimensions":["pattern","legs"],"bee_group":{"antennae":"X","wings":"X","pattern":"D","legs":"F"},"action":"harvest","summary":"bad-harvest","bonus":0.7200000000000011},{"rt":2008.8999999761581,"stimulus":"\n                    <p><b>Action: <em>harvest</em></b></p>\n                    <p>This is the bee that you just saw.</p>\n                    <img src=\"bees-with-color/bee-A1DF.svg\" width=\"200\">\n                    <p><span class=\"redText\">Bad choice, the bee was angry.</span><br><b>You have been stung!</b><br>Your pay has been decreased by $0.10. Your bonus pay is now $0.24.</p>\n            ","response":0,"trial_type":"html-button-response","trial_index":64,"time_elapsed":547488,"internal_node_id":"0.0-4.0-1.28","subject_id":"610a90b210c15673103314b8","study_id":"60edd13110225f80f9f3709b","session_id":"6196c1e867a2650ccd3462f8","condition":"contingent","relevant_dimensions":["pattern","legs"],"bee_group":{"antennae":"X","wings":"X","pattern":"D","legs":"F"},"bonus":0.7200000000000011},{"rt":1753.3999999761581,"stimulus":"bees-with-color/bee-B2SM.svg","response":0,"trial_type":"image-button-response","trial_index":65,"time_elapsed":549248,"internal_node_id":"0.0-4.0-0.29","subject_id":"610a90b210c15673103314b8","study_id":"60edd13110225f80f9f3709b","session_id":"6196c1e867a2650ccd3462f8","condition":"contingent","relevant_dimensions":["pattern","legs"],"bee_group":{"antennae":"X","wings":"X","pattern":"D","legs":"F"},"action":"harvest","summary":"good-harvest","bonus":0.7200000000000011},{"rt":2110.2000000178814,"stimulus":"\n                    <p><b>Action: <em>harvest</em></b></p>\n                    <p>This is the bee that you just saw.</p>\n                    <img src=\"bees-with-color/bee-B2SM.svg\" width=\"200\">\n                    <p><span class=\"greenText\"><b>Successful harvest!</b></span><br>Your pay has increased by $0.02. Your bonus pay is now $0.26.</p>\n            ","response":0,"trial_type":"html-button-response","trial_index":66,"time_elapsed":551363,"internal_node_id":"0.0-4.0-1.29","subject_id":"610a90b210c15673103314b8","study_id":"60edd13110225f80f9f3709b","session_id":"6196c1e867a2650ccd3462f8","condition":"contingent","relevant_dimensions":["pattern","legs"],"bee_group":{"antennae":"X","wings":"X","pattern":"D","legs":"F"},"bonus":0.7200000000000011},{"rt":1685.9000000059605,"stimulus":"bees-with-color/bee-A2SF.svg","response":0,"trial_type":"image-button-response","trial_index":67,"time_elapsed":553054,"internal_node_id":"0.0-4.0-0.30","subject_id":"610a90b210c15673103314b8","study_id":"60edd13110225f80f9f3709b","session_id":"6196c1e867a2650ccd3462f8","condition":"contingent","relevant_dimensions":["pattern","legs"],"bee_group":{"antennae":"X","wings":"X","pattern":"D","legs":"F"},"action":"harvest","summary":"good-harvest","bonus":0.7200000000000011},{"rt":2024.4000000059605,"stimulus":"\n                    <p><b>Action: <em>harvest</em></b></p>\n                    <p>This is the bee that you just saw.</p>\n                    <img src=\"bees-with-color/bee-A2SF.svg\" width=\"200\">\n                    <p><span class=\"greenText\"><b>Successful harvest!</b></span><br>Your pay has increased by $0.02. Your bonus pay is now $0.28.</p>\n            ","response":0,"trial_type":"html-button-response","trial_index":68,"time_elapsed":555079,"internal_node_id":"0.0-4.0-1.30","subject_id":"610a90b210c15673103314b8","study_id":"60edd13110225f80f9f3709b","session_id":"6196c1e867a2650ccd3462f8","condition":"contingent","relevant_dimensions":["pattern","legs"],"bee_group":{"antennae":"X","wings":"X","pattern":"D","legs":"F"},"bonus":0.7200000000000011},{"rt":7629.800000011921,"stimulus":"bees-with-color/bee-A1DM.svg","response":0,"trial_type":"image-button-response","trial_index":69,"time_elapsed":562713,"internal_node_id":"0.0-4.0-0.31","subject_id":"610a90b210c15673103314b8","study_id":"60edd13110225f80f9f3709b","session_id":"6196c1e867a2650ccd3462f8","condition":"contingent","relevant_dimensions":["pattern","legs"],"bee_group":{"antennae":"X","wings":"X","pattern":"D","legs":"F"},"action":"harvest","summary":"good-harvest","bonus":0.7200000000000011},{"rt":2004.4000000059605,"stimulus":"\n                    <p><b>Action: <em>harvest</em></b></p>\n                    <p>This is the bee that you just saw.</p>\n                    <img src=\"bees-with-color/bee-A1DM.svg\" width=\"200\">\n                    <p><span class=\"greenText\"><b>Successful harvest!</b></span><br>Your pay has increased by $0.02. Your bonus pay is now $0.30.</p>\n            ","response":0,"trial_type":"html-button-response","trial_index":70,"time_elapsed":564721,"internal_node_id":"0.0-4.0-1.31","subject_id":"610a90b210c15673103314b8","study_id":"60edd13110225f80f9f3709b","session_id":"6196c1e867a2650ccd3462f8","condition":"contingent","relevant_dimensions":["pattern","legs"],"bee_group":{"antennae":"X","wings":"X","pattern":"D","legs":"F"},"bonus":0.7200000000000011},{"rt":1971,"stimulus":"bees-with-color/bee-B2SM.svg","response":0,"trial_type":"image-button-response","trial_index":71,"time_elapsed":566696,"internal_node_id":"0.0-4.0-0.32","subject_id":"610a90b210c15673103314b8","study_id":"60edd13110225f80f9f3709b","session_id":"6196c1e867a2650ccd3462f8","condition":"contingent","relevant_dimensions":["pattern","legs"],"bee_group":{"antennae":"X","wings":"X","pattern":"D","legs":"F"},"action":"harvest","summary":"good-harvest","bonus":0.7200000000000011},{"rt":1759.2999999821186,"stimulus":"\n                    <p><b>Action: <em>harvest</em></b></p>\n                    <p>This is the bee that you just saw.</p>\n                    <img src=\"bees-with-color/bee-B2SM.svg\" width=\"200\">\n                    <p><span class=\"greenText\"><b>Successful harvest!</b></span><br>Your pay has increased by $0.02. Your bonus pay is now $0.32.</p>\n            ","response":0,"trial_type":"html-button-response","trial_index":72,"time_elapsed":568459,"internal_node_id":"0.0-4.0-1.32","subject_id":"610a90b210c15673103314b8","study_id":"60edd13110225f80f9f3709b","session_id":"6196c1e867a2650ccd3462f8","condition":"contingent","relevant_dimensions":["pattern","legs"],"bee_group":{"antennae":"X","wings":"X","pattern":"D","legs":"F"},"bonus":0.7200000000000011},{"rt":2426.300000011921,"stimulus":"bees-with-color/bee-B1SM.svg","response":0,"trial_type":"image-button-response","trial_index":73,"time_elapsed":570889,"internal_node_id":"0.0-4.0-0.33","subject_id":"610a90b210c15673103314b8","study_id":"60edd13110225f80f9f3709b","session_id":"6196c1e867a2650ccd3462f8","condition":"contingent","relevant_dimensions":["pattern","legs"],"bee_group":{"antennae":"X","wings":"X","pattern":"D","legs":"F"},"action":"harvest","summary":"good-harvest","bonus":0.7200000000000011},{"rt":2033.9000000059605,"stimulus":"\n                    <p><b>Action: <em>harvest</em></b></p>\n                    <p>This is the bee that you just saw.</p>\n                    <img src=\"bees-with-color/bee-B1SM.svg\" width=\"200\">\n                    <p><span class=\"greenText\"><b>Successful harvest!</b></span><br>Your pay has increased by $0.02. Your bonus pay is now $0.34.</p>\n            ","response":0,"trial_type":"html-button-response","trial_index":74,"time_elapsed":572926,"internal_node_id":"0.0-4.0-1.33","subject_id":"610a90b210c15673103314b8","study_id":"60edd13110225f80f9f3709b","session_id":"6196c1e867a2650ccd3462f8","condition":"contingent","relevant_dimensions":["pattern","legs"],"bee_group":{"antennae":"X","wings":"X","pattern":"D","legs":"F"},"bonus":0.7200000000000011},{"rt":3744.0999999940395,"stimulus":"bees-with-color/bee-B1SF.svg","response":0,"trial_type":"image-button-response","trial_index":75,"time_elapsed":576675,"internal_node_id":"0.0-4.0-0.34","subject_id":"610a90b210c15673103314b8","study_id":"60edd13110225f80f9f3709b","session_id":"6196c1e867a2650ccd3462f8","condition":"contingent","relevant_dimensions":["pattern","legs"],"bee_group":{"antennae":"X","wings":"X","pattern":"D","legs":"F"},"action":"harvest","summary":"good-harvest","bonus":0.7200000000000011},{"rt":2822.2000000178814,"stimulus":"\n                    <p><b>Action: <em>harvest</em></b></p>\n                    <p>This is the bee that you just saw.</p>\n                    <img src=\"bees-with-color/bee-B1SF.svg\" width=\"200\">\n                    <p><span class=\"greenText\"><b>Successful harvest!</b></span><br>Your pay has increased by $0.02. Your bonus pay is now $0.36.</p>\n            ","response":0,"trial_type":"html-button-response","trial_index":76,"time_elapsed":579501,"internal_node_id":"0.0-4.0-1.34","subject_id":"610a90b210c15673103314b8","study_id":"60edd13110225f80f9f3709b","session_id":"6196c1e867a2650ccd3462f8","condition":"contingent","relevant_dimensions":["pattern","legs"],"bee_group":{"antennae":"X","wings":"X","pattern":"D","legs":"F"},"bonus":0.7200000000000011},{"rt":4650.100000023842,"stimulus":"bees-with-color/bee-A1DM.svg","response":1,"trial_type":"image-button-response","trial_index":77,"time_elapsed":584157,"internal_node_id":"0.0-4.0-0.35","subject_id":"610a90b210c15673103314b8","study_id":"60edd13110225f80f9f3709b","session_id":"6196c1e867a2650ccd3462f8","condition":"contingent","relevant_dimensions":["pattern","legs"],"bee_group":{"antennae":"X","wings":"X","pattern":"D","legs":"F"},"action":"avoid","summary":"bad-avoid","bonus":0.7200000000000011},{"rt":2282.800000011921,"stimulus":"\n                    <p><b>Action: <em>avoid</em></b></p>\n                    <p>This is the bee that you just saw.</p>\n                    <img src=\"bees-with-color/bee-A1DM.svg\" width=\"200\">\n                    <p><br>Your bonus pay is unchanged, and remains at $0.36.</p>\n            ","response":0,"trial_type":"html-button-response","trial_index":78,"time_elapsed":586444,"internal_node_id":"0.0-4.0-1.35","subject_id":"610a90b210c15673103314b8","study_id":"60edd13110225f80f9f3709b","session_id":"6196c1e867a2650ccd3462f8","condition":"contingent","relevant_dimensions":["pattern","legs"],"bee_group":{"antennae":"X","wings":"X","pattern":"D","legs":"F"},"bonus":0.7200000000000011},{"rt":11699.40000000596,"stimulus":"bees-with-color/bee-A2DF.svg","response":0,"trial_type":"image-button-response","trial_index":79,"time_elapsed":598147,"internal_node_id":"0.0-4.0-0.36","subject_id":"610a90b210c15673103314b8","study_id":"60edd13110225f80f9f3709b","session_id":"6196c1e867a2650ccd3462f8","condition":"contingent","relevant_dimensions":["pattern","legs"],"bee_group":{"antennae":"X","wings":"X","pattern":"D","legs":"F"},"action":"harvest","summary":"bad-harvest","bonus":0.7200000000000011},{"rt":3558,"stimulus":"\n                    <p><b>Action: <em>harvest</em></b></p>\n                    <p>This is the bee that you just saw.</p>\n                    <img src=\"bees-with-color/bee-A2DF.svg\" width=\"200\">\n                    <p><span class=\"redText\">Bad choice, the bee was angry.</span><br><b>You have been stung!</b><br>Your pay has been decreased by $0.10. Your bonus pay is now $0.26.</p>\n            ","response":0,"trial_type":"html-button-response","trial_index":80,"time_elapsed":601709,"internal_node_id":"0.0-4.0-1.36","subject_id":"610a90b210c15673103314b8","study_id":"60edd13110225f80f9f3709b","session_id":"6196c1e867a2650ccd3462f8","condition":"contingent","relevant_dimensions":["pattern","legs"],"bee_group":{"antennae":"X","wings":"X","pattern":"D","legs":"F"},"bonus":0.7200000000000011},{"rt":1720.9000000059605,"stimulus":"bees-with-color/bee-A1DF.svg","response":0,"trial_type":"image-button-response","trial_index":81,"time_elapsed":603435,"internal_node_id":"0.0-4.0-0.37","subject_id":"610a90b210c15673103314b8","study_id":"60edd13110225f80f9f3709b","session_id":"6196c1e867a2650ccd3462f8","condition":"contingent","relevant_dimensions":["pattern","legs"],"bee_group":{"antennae":"X","wings":"X","pattern":"D","legs":"F"},"action":"harvest","summary":"bad-harvest","bonus":0.7200000000000011},{"rt":2599.199999988079,"stimulus":"\n                    <p><b>Action: <em>harvest</em></b></p>\n                    <p>This is the bee that you just saw.</p>\n                    <img src=\"bees-with-color/bee-A1DF.svg\" width=\"200\">\n                    <p><span class=\"redText\">Bad choice, the bee was angry.</span><br><b>You have been stung!</b><br>Your pay has been decreased by $0.10. Your bonus pay is now $0.16.</p>\n            ","response":0,"trial_type":"html-button-response","trial_index":82,"time_elapsed":606041,"internal_node_id":"0.0-4.0-1.37","subject_id":"610a90b210c15673103314b8","study_id":"60edd13110225f80f9f3709b","session_id":"6196c1e867a2650ccd3462f8","condition":"contingent","relevant_dimensions":["pattern","legs"],"bee_group":{"antennae":"X","wings":"X","pattern":"D","legs":"F"},"bonus":0.7200000000000011},{"rt":1581.5999999940395,"stimulus":"bees-with-color/bee-A1SF.svg","response":0,"trial_type":"image-button-response","trial_index":83,"time_elapsed":607627,"internal_node_id":"0.0-4.0-0.38","subject_id":"610a90b210c15673103314b8","study_id":"60edd13110225f80f9f3709b","session_id":"6196c1e867a2650ccd3462f8","condition":"contingent","relevant_dimensions":["pattern","legs"],"bee_group":{"antennae":"X","wings":"X","pattern":"D","legs":"F"},"action":"harvest","summary":"good-harvest","bonus":0.7200000000000011},{"rt":2034.9000000059605,"stimulus":"\n                    <p><b>Action: <em>harvest</em></b></p>\n                    <p>This is the bee that you just saw.</p>\n                    <img src=\"bees-with-color/bee-A1SF.svg\" width=\"200\">\n                    <p><span class=\"greenText\"><b>Successful harvest!</b></span><br>Your pay has increased by $0.02. Your bonus pay is now $0.18.</p>\n            ","response":0,"trial_type":"html-button-response","trial_index":84,"time_elapsed":609665,"internal_node_id":"0.0-4.0-1.38","subject_id":"610a90b210c15673103314b8","study_id":"60edd13110225f80f9f3709b","session_id":"6196c1e867a2650ccd3462f8","condition":"contingent","relevant_dimensions":["pattern","legs"],"bee_group":{"antennae":"X","wings":"X","pattern":"D","legs":"F"},"bonus":0.7200000000000011},{"rt":2282.0999999940395,"stimulus":"bees-with-color/bee-B2DM.svg","response":0,"trial_type":"image-button-response","trial_index":85,"time_elapsed":611950,"internal_node_id":"0.0-4.0-0.39","subject_id":"610a90b210c15673103314b8","study_id":"60edd13110225f80f9f3709b","session_id":"6196c1e867a2650ccd3462f8","condition":"contingent","relevant_dimensions":["pattern","legs"],"bee_group":{"antennae":"X","wings":"X","pattern":"D","legs":"F"},"action":"harvest","summary":"good-harvest","bonus":0.7200000000000011},{"rt":3710.4000000059605,"stimulus":"\n                    <p><b>Action: <em>harvest</em></b></p>\n                    <p>This is the bee that you just saw.</p>\n                    <img src=\"bees-with-color/bee-B2DM.svg\" width=\"200\">\n                    <p><span class=\"greenText\"><b>Successful harvest!</b></span><br>Your pay has increased by $0.02. Your bonus pay is now $0.20.</p>\n            ","response":0,"trial_type":"html-button-response","trial_index":86,"time_elapsed":615670,"internal_node_id":"0.0-4.0-1.39","subject_id":"610a90b210c15673103314b8","study_id":"60edd13110225f80f9f3709b","session_id":"6196c1e867a2650ccd3462f8","condition":"contingent","relevant_dimensions":["pattern","legs"],"bee_group":{"antennae":"X","wings":"X","pattern":"D","legs":"F"},"bonus":0.7200000000000011},{"rt":7847.4000000059605,"stimulus":"bees-with-color/bee-A2DM.svg","response":1,"trial_type":"image-button-response","trial_index":87,"time_elapsed":623526,"internal_node_id":"0.0-4.0-0.40","subject_id":"610a90b210c15673103314b8","study_id":"60edd13110225f80f9f3709b","session_id":"6196c1e867a2650ccd3462f8","condition":"contingent","relevant_dimensions":["pattern","legs"],"bee_group":{"antennae":"X","wings":"X","pattern":"D","legs":"F"},"action":"avoid","summary":"bad-avoid","bonus":0.7200000000000011},{"rt":2997.5999999940395,"stimulus":"\n                    <p><b>Action: <em>avoid</em></b></p>\n                    <p>This is the bee that you just saw.</p>\n                    <img src=\"bees-with-color/bee-A2DM.svg\" width=\"200\">\n                    <p><br>Your bonus pay is unchanged, and remains at $0.20.</p>\n            ","response":0,"trial_type":"html-button-response","trial_index":88,"time_elapsed":626528,"internal_node_id":"0.0-4.0-1.40","subject_id":"610a90b210c15673103314b8","study_id":"60edd13110225f80f9f3709b","session_id":"6196c1e867a2650ccd3462f8","condition":"contingent","relevant_dimensions":["pattern","legs"],"bee_group":{"antennae":"X","wings":"X","pattern":"D","legs":"F"},"bonus":0.7200000000000011},{"rt":1825.199999988079,"stimulus":"bees-with-color/bee-A1SM.svg","response":0,"trial_type":"image-button-response","trial_index":89,"time_elapsed":628360,"internal_node_id":"0.0-4.0-0.41","subject_id":"610a90b210c15673103314b8","study_id":"60edd13110225f80f9f3709b","session_id":"6196c1e867a2650ccd3462f8","condition":"contingent","relevant_dimensions":["pattern","legs"],"bee_group":{"antennae":"X","wings":"X","pattern":"D","legs":"F"},"action":"harvest","summary":"good-harvest","bonus":0.7200000000000011},{"rt":2717.300000011921,"stimulus":"\n                    <p><b>Action: <em>harvest</em></b></p>\n                    <p>This is the bee that you just saw.</p>\n                    <img src=\"bees-with-color/bee-A1SM.svg\" width=\"200\">\n                    <p><span class=\"greenText\"><b>Successful harvest!</b></span><br>Your pay has increased by $0.02. Your bonus pay is now $0.22.</p>\n            ","response":0,"trial_type":"html-button-response","trial_index":90,"time_elapsed":631082,"internal_node_id":"0.0-4.0-1.41","subject_id":"610a90b210c15673103314b8","study_id":"60edd13110225f80f9f3709b","session_id":"6196c1e867a2650ccd3462f8","condition":"contingent","relevant_dimensions":["pattern","legs"],"bee_group":{"antennae":"X","wings":"X","pattern":"D","legs":"F"},"bonus":0.7200000000000011},{"rt":2357.9000000059605,"stimulus":"bees-with-color/bee-A2SF.svg","response":0,"trial_type":"image-button-response","trial_index":91,"time_elapsed":633445,"internal_node_id":"0.0-4.0-0.42","subject_id":"610a90b210c15673103314b8","study_id":"60edd13110225f80f9f3709b","session_id":"6196c1e867a2650ccd3462f8","condition":"contingent","relevant_dimensions":["pattern","legs"],"bee_group":{"antennae":"X","wings":"X","pattern":"D","legs":"F"},"action":"harvest","summary":"good-harvest","bonus":0.7200000000000011},{"rt":2296.4000000059605,"stimulus":"\n                    <p><b>Action: <em>harvest</em></b></p>\n                    <p>This is the bee that you just saw.</p>\n                    <img src=\"bees-with-color/bee-A2SF.svg\" width=\"200\">\n                    <p><span class=\"greenText\"><b>Successful harvest!</b></span><br>Your pay has increased by $0.02. Your bonus pay is now $0.24.</p>\n            ","response":0,"trial_type":"html-button-response","trial_index":92,"time_elapsed":635745,"internal_node_id":"0.0-4.0-1.42","subject_id":"610a90b210c15673103314b8","study_id":"60edd13110225f80f9f3709b","session_id":"6196c1e867a2650ccd3462f8","condition":"contingent","relevant_dimensions":["pattern","legs"],"bee_group":{"antennae":"X","wings":"X","pattern":"D","legs":"F"},"bonus":0.7200000000000011},{"rt":3055.5,"stimulus":"bees-with-color/bee-B2DF.svg","response":1,"trial_type":"image-button-response","trial_index":93,"time_elapsed":638808,"internal_node_id":"0.0-4.0-0.43","subject_id":"610a90b210c15673103314b8","study_id":"60edd13110225f80f9f3709b","session_id":"6196c1e867a2650ccd3462f8","condition":"contingent","relevant_dimensions":["pattern","legs"],"bee_group":{"antennae":"X","wings":"X","pattern":"D","legs":"F"},"action":"avoid","summary":"good-avoid","bonus":0.7200000000000011},{"rt":1735.5,"stimulus":"\n                    <p><b>Action: <em>avoid</em></b></p>\n                    <p>This is the bee that you just saw.</p>\n                    <img src=\"bees-with-color/bee-B2DF.svg\" width=\"200\">\n                    <p><br>Your bonus pay is unchanged, and remains at $0.24.</p>\n            ","response":0,"trial_type":"html-button-response","trial_index":94,"time_elapsed":640549,"internal_node_id":"0.0-4.0-1.43","subject_id":"610a90b210c15673103314b8","study_id":"60edd13110225f80f9f3709b","session_id":"6196c1e867a2650ccd3462f8","condition":"contingent","relevant_dimensions":["pattern","legs"],"bee_group":{"antennae":"X","wings":"X","pattern":"D","legs":"F"},"bonus":0.7200000000000011},{"rt":4556.4000000059605,"stimulus":"bees-with-color/bee-B1DF.svg","response":1,"trial_type":"image-button-response","trial_index":95,"time_elapsed":645110,"internal_node_id":"0.0-4.0-0.44","subject_id":"610a90b210c15673103314b8","study_id":"60edd13110225f80f9f3709b","session_id":"6196c1e867a2650ccd3462f8","condition":"contingent","relevant_dimensions":["pattern","legs"],"bee_group":{"antennae":"X","wings":"X","pattern":"D","legs":"F"},"action":"avoid","summary":"good-avoid","bonus":0.7200000000000011},{"rt":1869.5,"stimulus":"\n                    <p><b>Action: <em>avoid</em></b></p>\n                    <p>This is the bee that you just saw.</p>\n                    <img src=\"bees-with-color/bee-B1DF.svg\" width=\"200\">\n                    <p><br>Your bonus pay is unchanged, and remains at $0.24.</p>\n            ","response":0,"trial_type":"html-button-response","trial_index":96,"time_elapsed":646984,"internal_node_id":"0.0-4.0-1.44","subject_id":"610a90b210c15673103314b8","study_id":"60edd13110225f80f9f3709b","session_id":"6196c1e867a2650ccd3462f8","condition":"contingent","relevant_dimensions":["pattern","legs"],"bee_group":{"antennae":"X","wings":"X","pattern":"D","legs":"F"},"bonus":0.7200000000000011},{"rt":3794.9000000059605,"stimulus":"bees-with-color/bee-B1DM.svg","response":0,"trial_type":"image-button-response","trial_index":97,"time_elapsed":650784,"internal_node_id":"0.0-4.0-0.45","subject_id":"610a90b210c15673103314b8","study_id":"60edd13110225f80f9f3709b","session_id":"6196c1e867a2650ccd3462f8","condition":"contingent","relevant_dimensions":["pattern","legs"],"bee_group":{"antennae":"X","wings":"X","pattern":"D","legs":"F"},"action":"harvest","summary":"good-harvest","bonus":0.7200000000000011},{"rt":1617.1000000238419,"stimulus":"\n                    <p><b>Action: <em>harvest</em></b></p>\n                    <p>This is the bee that you just saw.</p>\n                    <img src=\"bees-with-color/bee-B1DM.svg\" width=\"200\">\n                    <p><span class=\"greenText\"><b>Successful harvest!</b></span><br>Your pay has increased by $0.02. Your bonus pay is now $0.26.</p>\n            ","response":0,"trial_type":"html-button-response","trial_index":98,"time_elapsed":652407,"internal_node_id":"0.0-4.0-1.45","subject_id":"610a90b210c15673103314b8","study_id":"60edd13110225f80f9f3709b","session_id":"6196c1e867a2650ccd3462f8","condition":"contingent","relevant_dimensions":["pattern","legs"],"bee_group":{"antennae":"X","wings":"X","pattern":"D","legs":"F"},"bonus":0.7200000000000011},{"rt":1831.2000000178814,"stimulus":"bees-with-color/bee-B2SF.svg","response":0,"trial_type":"image-button-response","trial_index":99,"time_elapsed":654243,"internal_node_id":"0.0-4.0-0.46","subject_id":"610a90b210c15673103314b8","study_id":"60edd13110225f80f9f3709b","session_id":"6196c1e867a2650ccd3462f8","condition":"contingent","relevant_dimensions":["pattern","legs"],"bee_group":{"antennae":"X","wings":"X","pattern":"D","legs":"F"},"action":"harvest","summary":"good-harvest","bonus":0.7200000000000011},{"rt":1945.4000000059605,"stimulus":"\n                    <p><b>Action: <em>harvest</em></b></p>\n                    <p>This is the bee that you just saw.</p>\n                    <img src=\"bees-with-color/bee-B2SF.svg\" width=\"200\">\n                    <p><span class=\"greenText\"><b>Successful harvest!</b></span><br>Your pay has increased by $0.02. Your bonus pay is now $0.28.</p>\n            ","response":0,"trial_type":"html-button-response","trial_index":100,"time_elapsed":656193,"internal_node_id":"0.0-4.0-1.46","subject_id":"610a90b210c15673103314b8","study_id":"60edd13110225f80f9f3709b","session_id":"6196c1e867a2650ccd3462f8","condition":"contingent","relevant_dimensions":["pattern","legs"],"bee_group":{"antennae":"X","wings":"X","pattern":"D","legs":"F"},"bonus":0.7200000000000011},{"rt":1985.5,"stimulus":"bees-with-color/bee-A2SM.svg","response":0,"trial_type":"image-button-response","trial_index":101,"time_elapsed":658184,"internal_node_id":"0.0-4.0-0.47","subject_id":"610a90b210c15673103314b8","study_id":"60edd13110225f80f9f3709b","session_id":"6196c1e867a2650ccd3462f8","condition":"contingent","relevant_dimensions":["pattern","legs"],"bee_group":{"antennae":"X","wings":"X","pattern":"D","legs":"F"},"action":"harvest","summary":"good-harvest","bonus":0.7200000000000011},{"rt":1782,"stimulus":"\n                    <p><b>Action: <em>harvest</em></b></p>\n                    <p>This is the bee that you just saw.</p>\n                    <img src=\"bees-with-color/bee-A2SM.svg\" width=\"200\">\n                    <p><span class=\"greenText\"><b>Successful harvest!</b></span><br>Your pay has increased by $0.02. Your bonus pay is now $0.30.</p>\n            ","response":0,"trial_type":"html-button-response","trial_index":102,"time_elapsed":659971,"internal_node_id":"0.0-4.0-1.47","subject_id":"610a90b210c15673103314b8","study_id":"60edd13110225f80f9f3709b","session_id":"6196c1e867a2650ccd3462f8","condition":"contingent","relevant_dimensions":["pattern","legs"],"bee_group":{"antennae":"X","wings":"X","pattern":"D","legs":"F"},"bonus":0.7200000000000011},{"rt":2942.9000000059605,"stimulus":"bees-with-color/bee-A1DF.svg","response":1,"trial_type":"image-button-response","trial_index":103,"time_elapsed":662919,"internal_node_id":"0.0-4.0-0.48","subject_id":"610a90b210c15673103314b8","study_id":"60edd13110225f80f9f3709b","session_id":"6196c1e867a2650ccd3462f8","condition":"contingent","relevant_dimensions":["pattern","legs"],"bee_group":{"antennae":"X","wings":"X","pattern":"D","legs":"F"},"action":"avoid","summary":"good-avoid","bonus":0.7200000000000011},{"rt":1793.0999999940395,"stimulus":"\n                    <p><b>Action: <em>avoid</em></b></p>\n                    <p>This is the bee that you just saw.</p>\n                    <img src=\"bees-with-color/bee-A1DF.svg\" width=\"200\">\n                    <p><br>Your bonus pay is unchanged, and remains at $0.30.</p>\n            ","response":0,"trial_type":"html-button-response","trial_index":104,"time_elapsed":664718,"internal_node_id":"0.0-4.0-1.48","subject_id":"610a90b210c15673103314b8","study_id":"60edd13110225f80f9f3709b","session_id":"6196c1e867a2650ccd3462f8","condition":"contingent","relevant_dimensions":["pattern","legs"],"bee_group":{"antennae":"X","wings":"X","pattern":"D","legs":"F"},"bonus":0.7200000000000011},{"rt":1625.5999999940395,"stimulus":"bees-with-color/bee-A2SM.svg","response":0,"trial_type":"image-button-response","trial_index":105,"time_elapsed":666347,"internal_node_id":"0.0-4.0-0.49","subject_id":"610a90b210c15673103314b8","study_id":"60edd13110225f80f9f3709b","session_id":"6196c1e867a2650ccd3462f8","condition":"contingent","relevant_dimensions":["pattern","legs"],"bee_group":{"antennae":"X","wings":"X","pattern":"D","legs":"F"},"action":"harvest","summary":"good-harvest","bonus":0.7200000000000011},{"rt":2048,"stimulus":"\n                    <p><b>Action: <em>harvest</em></b></p>\n                    <p>This is the bee that you just saw.</p>\n                    <img src=\"bees-with-color/bee-A2SM.svg\" width=\"200\">\n                    <p><span class=\"greenText\"><b>Successful harvest!</b></span><br>Your pay has increased by $0.02. Your bonus pay is now $0.32.</p>\n            ","response":0,"trial_type":"html-button-response","trial_index":106,"time_elapsed":668399,"internal_node_id":"0.0-4.0-1.49","subject_id":"610a90b210c15673103314b8","study_id":"60edd13110225f80f9f3709b","session_id":"6196c1e867a2650ccd3462f8","condition":"contingent","relevant_dimensions":["pattern","legs"],"bee_group":{"antennae":"X","wings":"X","pattern":"D","legs":"F"},"bonus":0.7200000000000011},{"rt":2036.5,"stimulus":"bees-with-color/bee-B2SF.svg","response":0,"trial_type":"image-button-response","trial_index":107,"time_elapsed":670440,"internal_node_id":"0.0-4.0-0.50","subject_id":"610a90b210c15673103314b8","study_id":"60edd13110225f80f9f3709b","session_id":"6196c1e867a2650ccd3462f8","condition":"contingent","relevant_dimensions":["pattern","legs"],"bee_group":{"antennae":"X","wings":"X","pattern":"D","legs":"F"},"action":"harvest","summary":"good-harvest","bonus":0.7200000000000011},{"rt":2110.600000023842,"stimulus":"\n                    <p><b>Action: <em>harvest</em></b></p>\n                    <p>This is the bee that you just saw.</p>\n                    <img src=\"bees-with-color/bee-B2SF.svg\" width=\"200\">\n                    <p><span class=\"greenText\"><b>Successful harvest!</b></span><br>Your pay has increased by $0.02. Your bonus pay is now $0.34.</p>\n            ","response":0,"trial_type":"html-button-response","trial_index":108,"time_elapsed":672554,"internal_node_id":"0.0-4.0-1.50","subject_id":"610a90b210c15673103314b8","study_id":"60edd13110225f80f9f3709b","session_id":"6196c1e867a2650ccd3462f8","condition":"contingent","relevant_dimensions":["pattern","legs"],"bee_group":{"antennae":"X","wings":"X","pattern":"D","legs":"F"},"bonus":0.7200000000000011},{"rt":2811.800000011921,"stimulus":"bees-with-color/bee-B2DM.svg","response":1,"trial_type":"image-button-response","trial_index":109,"time_elapsed":675373,"internal_node_id":"0.0-4.0-0.51","subject_id":"610a90b210c15673103314b8","study_id":"60edd13110225f80f9f3709b","session_id":"6196c1e867a2650ccd3462f8","condition":"contingent","relevant_dimensions":["pattern","legs"],"bee_group":{"antennae":"X","wings":"X","pattern":"D","legs":"F"},"action":"avoid","summary":"bad-avoid","bonus":0.7200000000000011},{"rt":2148.7000000178814,"stimulus":"\n                    <p><b>Action: <em>avoid</em></b></p>\n                    <p>This is the bee that you just saw.</p>\n                    <img src=\"bees-with-color/bee-B2DM.svg\" width=\"200\">\n                    <p><br>Your bonus pay is unchanged, and remains at $0.34.</p>\n            ","response":0,"trial_type":"html-button-response","trial_index":110,"time_elapsed":677528,"internal_node_id":"0.0-4.0-1.51","subject_id":"610a90b210c15673103314b8","study_id":"60edd13110225f80f9f3709b","session_id":"6196c1e867a2650ccd3462f8","condition":"contingent","relevant_dimensions":["pattern","legs"],"bee_group":{"antennae":"X","wings":"X","pattern":"D","legs":"F"},"bonus":0.7200000000000011},{"rt":1853.5,"stimulus":"bees-with-color/bee-B1SF.svg","response":0,"trial_type":"image-button-response","trial_index":111,"time_elapsed":679386,"internal_node_id":"0.0-4.0-0.52","subject_id":"610a90b210c15673103314b8","study_id":"60edd13110225f80f9f3709b","session_id":"6196c1e867a2650ccd3462f8","condition":"contingent","relevant_dimensions":["pattern","legs"],"bee_group":{"antennae":"X","wings":"X","pattern":"D","legs":"F"},"action":"harvest","summary":"good-harvest","bonus":0.7200000000000011},{"rt":7116.0999999940395,"stimulus":"\n                    <p><b>Action: <em>harvest</em></b></p>\n                    <p>This is the bee that you just saw.</p>\n                    <img src=\"bees-with-color/bee-B1SF.svg\" width=\"200\">\n                    <p><span class=\"greenText\"><b>Successful harvest!</b></span><br>Your pay has increased by $0.02. Your bonus pay is now $0.36.</p>\n            ","response":0,"trial_type":"html-button-response","trial_index":112,"time_elapsed":686506,"internal_node_id":"0.0-4.0-1.52","subject_id":"610a90b210c15673103314b8","study_id":"60edd13110225f80f9f3709b","session_id":"6196c1e867a2650ccd3462f8","condition":"contingent","relevant_dimensions":["pattern","legs"],"bee_group":{"antennae":"X","wings":"X","pattern":"D","legs":"F"},"bonus":0.7200000000000011},{"rt":6942,"stimulus":"bees-with-color/bee-A2DF.svg","response":0,"trial_type":"image-button-response","trial_index":113,"time_elapsed":693454,"internal_node_id":"0.0-4.0-0.53","subject_id":"610a90b210c15673103314b8","study_id":"60edd13110225f80f9f3709b","session_id":"6196c1e867a2650ccd3462f8","condition":"contingent","relevant_dimensions":["pattern","legs"],"bee_group":{"antennae":"X","wings":"X","pattern":"D","legs":"F"},"action":"harvest","summary":"bad-harvest","bonus":0.7200000000000011},{"rt":1826,"stimulus":"\n                    <p><b>Action: <em>harvest</em></b></p>\n                    <p>This is the bee that you just saw.</p>\n                    <img src=\"bees-with-color/bee-A2DF.svg\" width=\"200\">\n                    <p><span class=\"redText\">Bad choice, the bee was angry.</span><br><b>You have been stung!</b><br>Your pay has been decreased by $0.10. Your bonus pay is now $0.26.</p>\n            ","response":0,"trial_type":"html-button-response","trial_index":114,"time_elapsed":695283,"internal_node_id":"0.0-4.0-1.53","subject_id":"610a90b210c15673103314b8","study_id":"60edd13110225f80f9f3709b","session_id":"6196c1e867a2650ccd3462f8","condition":"contingent","relevant_dimensions":["pattern","legs"],"bee_group":{"antennae":"X","wings":"X","pattern":"D","legs":"F"},"bonus":0.7200000000000011},{"rt":2196.9000000059605,"stimulus":"bees-with-color/bee-A1SM.svg","response":0,"trial_type":"image-button-response","trial_index":115,"time_elapsed":697484,"internal_node_id":"0.0-4.0-0.54","subject_id":"610a90b210c15673103314b8","study_id":"60edd13110225f80f9f3709b","session_id":"6196c1e867a2650ccd3462f8","condition":"contingent","relevant_dimensions":["pattern","legs"],"bee_group":{"antennae":"X","wings":"X","pattern":"D","legs":"F"},"action":"harvest","summary":"good-harvest","bonus":0.7200000000000011},{"rt":2187.699999988079,"stimulus":"\n                    <p><b>Action: <em>harvest</em></b></p>\n                    <p>This is the bee that you just saw.</p>\n                    <img src=\"bees-with-color/bee-A1SM.svg\" width=\"200\">\n                    <p><span class=\"greenText\"><b>Successful harvest!</b></span><br>Your pay has increased by $0.02. Your bonus pay is now $0.28.</p>\n            ","response":0,"trial_type":"html-button-response","trial_index":116,"time_elapsed":699676,"internal_node_id":"0.0-4.0-1.54","subject_id":"610a90b210c15673103314b8","study_id":"60edd13110225f80f9f3709b","session_id":"6196c1e867a2650ccd3462f8","condition":"contingent","relevant_dimensions":["pattern","legs"],"bee_group":{"antennae":"X","wings":"X","pattern":"D","legs":"F"},"bonus":0.7200000000000011},{"rt":1695.0999999940395,"stimulus":"bees-with-color/bee-B1SM.svg","response":0,"trial_type":"image-button-response","trial_index":117,"time_elapsed":701376,"internal_node_id":"0.0-4.0-0.55","subject_id":"610a90b210c15673103314b8","study_id":"60edd13110225f80f9f3709b","session_id":"6196c1e867a2650ccd3462f8","condition":"contingent","relevant_dimensions":["pattern","legs"],"bee_group":{"antennae":"X","wings":"X","pattern":"D","legs":"F"},"action":"harvest","summary":"good-harvest","bonus":0.7200000000000011},{"rt":1638.5,"stimulus":"\n                    <p><b>Action: <em>harvest</em></b></p>\n                    <p>This is the bee that you just saw.</p>\n                    <img src=\"bees-with-color/bee-B1SM.svg\" width=\"200\">\n                    <p><span class=\"greenText\"><b>Successful harvest!</b></span><br>Your pay has increased by $0.02. Your bonus pay is now $0.30.</p>\n            ","response":0,"trial_type":"html-button-response","trial_index":118,"time_elapsed":703019,"internal_node_id":"0.0-4.0-1.55","subject_id":"610a90b210c15673103314b8","study_id":"60edd13110225f80f9f3709b","session_id":"6196c1e867a2650ccd3462f8","condition":"contingent","relevant_dimensions":["pattern","legs"],"bee_group":{"antennae":"X","wings":"X","pattern":"D","legs":"F"},"bonus":0.7200000000000011},{"rt":2221.4000000059605,"stimulus":"bees-with-color/bee-B1DM.svg","response":1,"trial_type":"image-button-response","trial_index":119,"time_elapsed":705243,"internal_node_id":"0.0-4.0-0.56","subject_id":"610a90b210c15673103314b8","study_id":"60edd13110225f80f9f3709b","session_id":"6196c1e867a2650ccd3462f8","condition":"contingent","relevant_dimensions":["pattern","legs"],"bee_group":{"antennae":"X","wings":"X","pattern":"D","legs":"F"},"action":"avoid","summary":"bad-avoid","bonus":0.7200000000000011},{"rt":1663.2999999821186,"stimulus":"\n                    <p><b>Action: <em>avoid</em></b></p>\n                    <p>This is the bee that you just saw.</p>\n                    <img src=\"bees-with-color/bee-B1DM.svg\" width=\"200\">\n                    <p><br>Your bonus pay is unchanged, and remains at $0.30.</p>\n            ","response":0,"trial_type":"html-button-response","trial_index":120,"time_elapsed":706911,"internal_node_id":"0.0-4.0-1.56","subject_id":"610a90b210c15673103314b8","study_id":"60edd13110225f80f9f3709b","session_id":"6196c1e867a2650ccd3462f8","condition":"contingent","relevant_dimensions":["pattern","legs"],"bee_group":{"antennae":"X","wings":"X","pattern":"D","legs":"F"},"bonus":0.7200000000000011},{"rt":1794.199999988079,"stimulus":"bees-with-color/bee-A1SF.svg","response":0,"trial_type":"image-button-response","trial_index":121,"time_elapsed":708710,"internal_node_id":"0.0-4.0-0.57","subject_id":"610a90b210c15673103314b8","study_id":"60edd13110225f80f9f3709b","session_id":"6196c1e867a2650ccd3462f8","condition":"contingent","relevant_dimensions":["pattern","legs"],"bee_group":{"antennae":"X","wings":"X","pattern":"D","legs":"F"},"action":"harvest","summary":"good-harvest","bonus":0.7200000000000011},{"rt":1979.5999999940395,"stimulus":"\n                    <p><b>Action: <em>harvest</em></b></p>\n                    <p>This is the bee that you just saw.</p>\n                    <img src=\"bees-with-color/bee-A1SF.svg\" width=\"200\">\n                    <p><span class=\"greenText\"><b>Successful harvest!</b></span><br>Your pay has increased by $0.02. Your bonus pay is now $0.32.</p>\n            ","response":0,"trial_type":"html-button-response","trial_index":122,"time_elapsed":710694,"internal_node_id":"0.0-4.0-1.57","subject_id":"610a90b210c15673103314b8","study_id":"60edd13110225f80f9f3709b","session_id":"6196c1e867a2650ccd3462f8","condition":"contingent","relevant_dimensions":["pattern","legs"],"bee_group":{"antennae":"X","wings":"X","pattern":"D","legs":"F"},"bonus":0.7200000000000011},{"rt":4780.9000000059605,"stimulus":"bees-with-color/bee-A1DM.svg","response":0,"trial_type":"image-button-response","trial_index":123,"time_elapsed":715479,"internal_node_id":"0.0-4.0-0.58","subject_id":"610a90b210c15673103314b8","study_id":"60edd13110225f80f9f3709b","session_id":"6196c1e867a2650ccd3462f8","condition":"contingent","relevant_dimensions":["pattern","legs"],"bee_group":{"antennae":"X","wings":"X","pattern":"D","legs":"F"},"action":"harvest","summary":"good-harvest","bonus":0.7200000000000011},{"rt":1848.199999988079,"stimulus":"\n                    <p><b>Action: <em>harvest</em></b></p>\n                    <p>This is the bee that you just saw.</p>\n                    <img src=\"bees-with-color/bee-A1DM.svg\" width=\"200\">\n                    <p><span class=\"greenText\"><b>Successful harvest!</b></span><br>Your pay has increased by $0.02. Your bonus pay is now $0.34.</p>\n            ","response":0,"trial_type":"html-button-response","trial_index":124,"time_elapsed":717331,"internal_node_id":"0.0-4.0-1.58","subject_id":"610a90b210c15673103314b8","study_id":"60edd13110225f80f9f3709b","session_id":"6196c1e867a2650ccd3462f8","condition":"contingent","relevant_dimensions":["pattern","legs"],"bee_group":{"antennae":"X","wings":"X","pattern":"D","legs":"F"},"bonus":0.7200000000000011},{"rt":1879.199999988079,"stimulus":"bees-with-color/bee-B2SM.svg","response":0,"trial_type":"image-button-response","trial_index":125,"time_elapsed":719215,"internal_node_id":"0.0-4.0-0.59","subject_id":"610a90b210c15673103314b8","study_id":"60edd13110225f80f9f3709b","session_id":"6196c1e867a2650ccd3462f8","condition":"contingent","relevant_dimensions":["pattern","legs"],"bee_group":{"antennae":"X","wings":"X","pattern":"D","legs":"F"},"action":"harvest","summary":"good-harvest","bonus":0.7200000000000011},{"rt":1764,"stimulus":"\n                    <p><b>Action: <em>harvest</em></b></p>\n                    <p>This is the bee that you just saw.</p>\n                    <img src=\"bees-with-color/bee-B2SM.svg\" width=\"200\">\n                    <p><span class=\"greenText\"><b>Successful harvest!</b></span><br>Your pay has increased by $0.02. Your bonus pay is now $0.36.</p>\n            ","response":0,"trial_type":"html-button-response","trial_index":126,"time_elapsed":720983,"internal_node_id":"0.0-4.0-1.59","subject_id":"610a90b210c15673103314b8","study_id":"60edd13110225f80f9f3709b","session_id":"6196c1e867a2650ccd3462f8","condition":"contingent","relevant_dimensions":["pattern","legs"],"bee_group":{"antennae":"X","wings":"X","pattern":"D","legs":"F"},"bonus":0.7200000000000011},{"rt":1964.199999988079,"stimulus":"bees-with-color/bee-B1DF.svg","response":1,"trial_type":"image-button-response","trial_index":127,"time_elapsed":722952,"internal_node_id":"0.0-4.0-0.60","subject_id":"610a90b210c15673103314b8","study_id":"60edd13110225f80f9f3709b","session_id":"6196c1e867a2650ccd3462f8","condition":"contingent","relevant_dimensions":["pattern","legs"],"bee_group":{"antennae":"X","wings":"X","pattern":"D","legs":"F"},"action":"avoid","summary":"good-avoid","bonus":0.7200000000000011},{"rt":2271.800000011921,"stimulus":"\n                    <p><b>Action: <em>avoid</em></b></p>\n                    <p>This is the bee that you just saw.</p>\n                    <img src=\"bees-with-color/bee-B1DF.svg\" width=\"200\">\n                    <p><br>Your bonus pay is unchanged, and remains at $0.36.</p>\n            ","response":0,"trial_type":"html-button-response","trial_index":128,"time_elapsed":725229,"internal_node_id":"0.0-4.0-1.60","subject_id":"610a90b210c15673103314b8","study_id":"60edd13110225f80f9f3709b","session_id":"6196c1e867a2650ccd3462f8","condition":"contingent","relevant_dimensions":["pattern","legs"],"bee_group":{"antennae":"X","wings":"X","pattern":"D","legs":"F"},"bonus":0.7200000000000011},{"rt":1973.800000011921,"stimulus":"bees-with-color/bee-A2SF.svg","response":0,"trial_type":"image-button-response","trial_index":129,"time_elapsed":727211,"internal_node_id":"0.0-4.0-0.61","subject_id":"610a90b210c15673103314b8","study_id":"60edd13110225f80f9f3709b","session_id":"6196c1e867a2650ccd3462f8","condition":"contingent","relevant_dimensions":["pattern","legs"],"bee_group":{"antennae":"X","wings":"X","pattern":"D","legs":"F"},"action":"harvest","summary":"good-harvest","bonus":0.7200000000000011},{"rt":2197.100000023842,"stimulus":"\n                    <p><b>Action: <em>harvest</em></b></p>\n                    <p>This is the bee that you just saw.</p>\n                    <img src=\"bees-with-color/bee-A2SF.svg\" width=\"200\">\n                    <p><span class=\"greenText\"><b>Successful harvest!</b></span><br>Your pay has increased by $0.02. Your bonus pay is now $0.38.</p>\n            ","response":0,"trial_type":"html-button-response","trial_index":130,"time_elapsed":729413,"internal_node_id":"0.0-4.0-1.61","subject_id":"610a90b210c15673103314b8","study_id":"60edd13110225f80f9f3709b","session_id":"6196c1e867a2650ccd3462f8","condition":"contingent","relevant_dimensions":["pattern","legs"],"bee_group":{"antennae":"X","wings":"X","pattern":"D","legs":"F"},"bonus":0.7200000000000011},{"rt":2087.0999999940395,"stimulus":"bees-with-color/bee-B2DF.svg","response":1,"trial_type":"image-button-response","trial_index":131,"time_elapsed":731505,"internal_node_id":"0.0-4.0-0.62","subject_id":"610a90b210c15673103314b8","study_id":"60edd13110225f80f9f3709b","session_id":"6196c1e867a2650ccd3462f8","condition":"contingent","relevant_dimensions":["pattern","legs"],"bee_group":{"antennae":"X","wings":"X","pattern":"D","legs":"F"},"action":"avoid","summary":"good-avoid","bonus":0.7200000000000011},{"rt":1655.7999999821186,"stimulus":"\n                    <p><b>Action: <em>avoid</em></b></p>\n                    <p>This is the bee that you just saw.</p>\n                    <img src=\"bees-with-color/bee-B2DF.svg\" width=\"200\">\n                    <p><br>Your bonus pay is unchanged, and remains at $0.38.</p>\n            ","response":0,"trial_type":"html-button-response","trial_index":132,"time_elapsed":733169,"internal_node_id":"0.0-4.0-1.62","subject_id":"610a90b210c15673103314b8","study_id":"60edd13110225f80f9f3709b","session_id":"6196c1e867a2650ccd3462f8","condition":"contingent","relevant_dimensions":["pattern","legs"],"bee_group":{"antennae":"X","wings":"X","pattern":"D","legs":"F"},"bonus":0.7200000000000011},{"rt":2960.800000011921,"stimulus":"bees-with-color/bee-A2DM.svg","response":0,"trial_type":"image-button-response","trial_index":133,"time_elapsed":736135,"internal_node_id":"0.0-4.0-0.63","subject_id":"610a90b210c15673103314b8","study_id":"60edd13110225f80f9f3709b","session_id":"6196c1e867a2650ccd3462f8","condition":"contingent","relevant_dimensions":["pattern","legs"],"bee_group":{"antennae":"X","wings":"X","pattern":"D","legs":"F"},"action":"harvest","summary":"good-harvest","bonus":0.7200000000000011},{"rt":1472.2000000178814,"stimulus":"\n                    <p><b>Action: <em>harvest</em></b></p>\n                    <p>This is the bee that you just saw.</p>\n                    <img src=\"bees-with-color/bee-A2DM.svg\" width=\"200\">\n                    <p><span class=\"greenText\"><b>Successful harvest!</b></span><br>Your pay has increased by $0.02. Your bonus pay is now $0.40.</p>\n            ","response":0,"trial_type":"html-button-response","trial_index":134,"time_elapsed":737613,"internal_node_id":"0.0-4.0-1.63","subject_id":"610a90b210c15673103314b8","study_id":"60edd13110225f80f9f3709b","session_id":"6196c1e867a2650ccd3462f8","condition":"contingent","relevant_dimensions":["pattern","legs"],"bee_group":{"antennae":"X","wings":"X","pattern":"D","legs":"F"},"bonus":0.7200000000000011},{"rt":20161.5,"stimulus":"You have completed the first part of this experiment.<br><br>You will now begin a shorter second part, in which you will receive no feedback.<br>The same rules regarding bonus pay apply.<br><br>Press any key to begin.","response":" ","trial_type":"html-keyboard-response","trial_index":135,"time_elapsed":757779,"internal_node_id":"0.0-5.0","subject_id":"610a90b210c15673103314b8","study_id":"60edd13110225f80f9f3709b","session_id":"6196c1e867a2650ccd3462f8","condition":"contingent","relevant_dimensions":["pattern","legs"],"bee_group":{"antennae":"X","wings":"X","pattern":"D","legs":"F"},"bonus":0.7200000000000011},{"rt":10044.800000011921,"stimulus":"bees-with-color/bee-A1DF.svg","response":0,"trial_type":"image-button-response","trial_index":136,"time_elapsed":767882,"internal_node_id":"0.0-6.0-0.0","subject_id":"610a90b210c15673103314b8","study_id":"60edd13110225f80f9f3709b","session_id":"6196c1e867a2650ccd3462f8","condition":"contingent","relevant_dimensions":["pattern","legs"],"bee_group":{"antennae":"X","wings":"X","pattern":"D","legs":"F"},"bonus":0.7200000000000011},{"rt":2979.0999999940395,"stimulus":"bees-with-color/bee-B1DM.svg","response":1,"trial_type":"image-button-response","trial_index":137,"time_elapsed":770867,"internal_node_id":"0.0-6.0-0.1","subject_id":"610a90b210c15673103314b8","study_id":"60edd13110225f80f9f3709b","session_id":"6196c1e867a2650ccd3462f8","condition":"contingent","relevant_dimensions":["pattern","legs"],"bee_group":{"antennae":"X","wings":"X","pattern":"D","legs":"F"},"bonus":0.7200000000000011},{"rt":3155.5,"stimulus":"bees-with-color/bee-A2DM.svg","response":0,"trial_type":"image-button-response","trial_index":138,"time_elapsed":774028,"internal_node_id":"0.0-6.0-0.2","subject_id":"610a90b210c15673103314b8","study_id":"60edd13110225f80f9f3709b","session_id":"6196c1e867a2650ccd3462f8","condition":"contingent","relevant_dimensions":["pattern","legs"],"bee_group":{"antennae":"X","wings":"X","pattern":"D","legs":"F"},"bonus":0.7200000000000011},{"rt":2418.4000000059605,"stimulus":"bees-with-color/bee-B2DF.svg","response":1,"trial_type":"image-button-response","trial_index":139,"time_elapsed":776452,"internal_node_id":"0.0-6.0-0.3","subject_id":"610a90b210c15673103314b8","study_id":"60edd13110225f80f9f3709b","session_id":"6196c1e867a2650ccd3462f8","condition":"contingent","relevant_dimensions":["pattern","legs"],"bee_group":{"antennae":"X","wings":"X","pattern":"D","legs":"F"},"bonus":0.7200000000000011},{"rt":1789.1000000238419,"stimulus":"bees-with-color/bee-B2SF.svg","response":0,"trial_type":"image-button-response","trial_index":140,"time_elapsed":778248,"internal_node_id":"0.0-6.0-0.4","subject_id":"610a90b210c15673103314b8","study_id":"60edd13110225f80f9f3709b","session_id":"6196c1e867a2650ccd3462f8","condition":"contingent","relevant_dimensions":["pattern","legs"],"bee_group":{"antennae":"X","wings":"X","pattern":"D","legs":"F"},"bonus":0.7200000000000011},{"rt":1820,"stimulus":"bees-with-color/bee-B2SM.svg","response":0,"trial_type":"image-button-response","trial_index":141,"time_elapsed":780072,"internal_node_id":"0.0-6.0-0.5","subject_id":"610a90b210c15673103314b8","study_id":"60edd13110225f80f9f3709b","session_id":"6196c1e867a2650ccd3462f8","condition":"contingent","relevant_dimensions":["pattern","legs"],"bee_group":{"antennae":"X","wings":"X","pattern":"D","legs":"F"},"bonus":0.7200000000000011},{"rt":1681.699999988079,"stimulus":"bees-with-color/bee-A2SF.svg","response":0,"trial_type":"image-button-response","trial_index":142,"time_elapsed":781762,"internal_node_id":"0.0-6.0-0.6","subject_id":"610a90b210c15673103314b8","study_id":"60edd13110225f80f9f3709b","session_id":"6196c1e867a2650ccd3462f8","condition":"contingent","relevant_dimensions":["pattern","legs"],"bee_group":{"antennae":"X","wings":"X","pattern":"D","legs":"F"},"bonus":0.7200000000000011},{"rt":1470.7000000178814,"stimulus":"bees-with-color/bee-B1SM.svg","response":0,"trial_type":"image-button-response","trial_index":143,"time_elapsed":783239,"internal_node_id":"0.0-6.0-0.7","subject_id":"610a90b210c15673103314b8","study_id":"60edd13110225f80f9f3709b","session_id":"6196c1e867a2650ccd3462f8","condition":"contingent","relevant_dimensions":["pattern","legs"],"bee_group":{"antennae":"X","wings":"X","pattern":"D","legs":"F"},"bonus":0.7200000000000011},{"rt":176.19999998807907,"stimulus":"bees-with-color/bee-A1SF.svg","response":0,"trial_type":"image-button-response","trial_index":144,"time_elapsed":783422,"internal_node_id":"0.0-6.0-0.8","subject_id":"610a90b210c15673103314b8","study_id":"60edd13110225f80f9f3709b","session_id":"6196c1e867a2650ccd3462f8","condition":"contingent","relevant_dimensions":["pattern","legs"],"bee_group":{"antennae":"X","wings":"X","pattern":"D","legs":"F"},"bonus":0.7200000000000011},{"rt":1738,"stimulus":"bees-with-color/bee-B1SF.svg","response":0,"trial_type":"image-button-response","trial_index":145,"time_elapsed":785168,"internal_node_id":"0.0-6.0-0.9","subject_id":"610a90b210c15673103314b8","study_id":"60edd13110225f80f9f3709b","session_id":"6196c1e867a2650ccd3462f8","condition":"contingent","relevant_dimensions":["pattern","legs"],"bee_group":{"antennae":"X","wings":"X","pattern":"D","legs":"F"},"bonus":0.7200000000000011},{"rt":2123.5,"stimulus":"bees-with-color/bee-B2DM.svg","response":1,"trial_type":"image-button-response","trial_index":146,"time_elapsed":787298,"internal_node_id":"0.0-6.0-0.10","subject_id":"610a90b210c15673103314b8","study_id":"60edd13110225f80f9f3709b","session_id":"6196c1e867a2650ccd3462f8","condition":"contingent","relevant_dimensions":["pattern","legs"],"bee_group":{"antennae":"X","wings":"X","pattern":"D","legs":"F"},"bonus":0.7200000000000011},{"rt":3708.5,"stimulus":"bees-with-color/bee-A2DF.svg","response":1,"trial_type":"image-button-response","trial_index":147,"time_elapsed":791012,"internal_node_id":"0.0-6.0-0.11","subject_id":"610a90b210c15673103314b8","study_id":"60edd13110225f80f9f3709b","session_id":"6196c1e867a2650ccd3462f8","condition":"contingent","relevant_dimensions":["pattern","legs"],"bee_group":{"antennae":"X","wings":"X","pattern":"D","legs":"F"},"bonus":0.7200000000000011},{"rt":1614.7000000178814,"stimulus":"bees-with-color/bee-B1DF.svg","response":1,"trial_type":"image-button-response","trial_index":148,"time_elapsed":792633,"internal_node_id":"0.0-6.0-0.12","subject_id":"610a90b210c15673103314b8","study_id":"60edd13110225f80f9f3709b","session_id":"6196c1e867a2650ccd3462f8","condition":"contingent","relevant_dimensions":["pattern","legs"],"bee_group":{"antennae":"X","wings":"X","pattern":"D","legs":"F"},"bonus":0.7200000000000011},{"rt":1818.800000011921,"stimulus":"bees-with-color/bee-A1SM.svg","response":0,"trial_type":"image-button-response","trial_index":149,"time_elapsed":794457,"internal_node_id":"0.0-6.0-0.13","subject_id":"610a90b210c15673103314b8","study_id":"60edd13110225f80f9f3709b","session_id":"6196c1e867a2650ccd3462f8","condition":"contingent","relevant_dimensions":["pattern","legs"],"bee_group":{"antennae":"X","wings":"X","pattern":"D","legs":"F"},"bonus":0.7200000000000011},{"rt":2560,"stimulus":"bees-with-color/bee-A1DM.svg","response":0,"trial_type":"image-button-response","trial_index":150,"time_elapsed":797023,"internal_node_id":"0.0-6.0-0.14","subject_id":"610a90b210c15673103314b8","study_id":"60edd13110225f80f9f3709b","session_id":"6196c1e867a2650ccd3462f8","condition":"contingent","relevant_dimensions":["pattern","legs"],"bee_group":{"antennae":"X","wings":"X","pattern":"D","legs":"F"},"bonus":0.7200000000000011},{"rt":1216.4000000059605,"stimulus":"bees-with-color/bee-A2SM.svg","response":0,"trial_type":"image-button-response","trial_index":151,"time_elapsed":798246,"internal_node_id":"0.0-6.0-0.15","subject_id":"610a90b210c15673103314b8","study_id":"60edd13110225f80f9f3709b","session_id":"6196c1e867a2650ccd3462f8","condition":"contingent","relevant_dimensions":["pattern","legs"],"bee_group":{"antennae":"X","wings":"X","pattern":"D","legs":"F"},"bonus":0.7200000000000011},{"rt":1187.5999999940395,"stimulus":"bees-with-color/bee-A1SM.svg","response":0,"trial_type":"image-button-response","trial_index":152,"time_elapsed":799440,"internal_node_id":"0.0-6.0-0.16","subject_id":"610a90b210c15673103314b8","study_id":"60edd13110225f80f9f3709b","session_id":"6196c1e867a2650ccd3462f8","condition":"contingent","relevant_dimensions":["pattern","legs"],"bee_group":{"antennae":"X","wings":"X","pattern":"D","legs":"F"},"bonus":0.7200000000000011},{"rt":1676.4000000059605,"stimulus":"bees-with-color/bee-B1DF.svg","response":1,"trial_type":"image-button-response","trial_index":153,"time_elapsed":801122,"internal_node_id":"0.0-6.0-0.17","subject_id":"610a90b210c15673103314b8","study_id":"60edd13110225f80f9f3709b","session_id":"6196c1e867a2650ccd3462f8","condition":"contingent","relevant_dimensions":["pattern","legs"],"bee_group":{"antennae":"X","wings":"X","pattern":"D","legs":"F"},"bonus":0.7200000000000011},{"rt":4711.200000017881,"stimulus":"bees-with-color/bee-B1DM.svg","response":0,"trial_type":"image-button-response","trial_index":154,"time_elapsed":805840,"internal_node_id":"0.0-6.0-0.18","subject_id":"610a90b210c15673103314b8","study_id":"60edd13110225f80f9f3709b","session_id":"6196c1e867a2650ccd3462f8","condition":"contingent","relevant_dimensions":["pattern","legs"],"bee_group":{"antennae":"X","wings":"X","pattern":"D","legs":"F"},"bonus":0.7200000000000011},{"rt":2784,"stimulus":"bees-with-color/bee-A1DM.svg","response":1,"trial_type":"image-button-response","trial_index":155,"time_elapsed":808629,"internal_node_id":"0.0-6.0-0.19","subject_id":"610a90b210c15673103314b8","study_id":"60edd13110225f80f9f3709b","session_id":"6196c1e867a2650ccd3462f8","condition":"contingent","relevant_dimensions":["pattern","legs"],"bee_group":{"antennae":"X","wings":"X","pattern":"D","legs":"F"},"bonus":0.7200000000000011},{"rt":1523.4000000059605,"stimulus":"bees-with-color/bee-A1DF.svg","response":1,"trial_type":"image-button-response","trial_index":156,"time_elapsed":810159,"internal_node_id":"0.0-6.0-0.20","subject_id":"610a90b210c15673103314b8","study_id":"60edd13110225f80f9f3709b","session_id":"6196c1e867a2650ccd3462f8","condition":"contingent","relevant_dimensions":["pattern","legs"],"bee_group":{"antennae":"X","wings":"X","pattern":"D","legs":"F"},"bonus":0.7200000000000011},{"rt":3316.800000011921,"stimulus":"bees-with-color/bee-A2DM.svg","response":0,"trial_type":"image-button-response","trial_index":157,"time_elapsed":813480,"internal_node_id":"0.0-6.0-0.21","subject_id":"610a90b210c15673103314b8","study_id":"60edd13110225f80f9f3709b","session_id":"6196c1e867a2650ccd3462f8","condition":"contingent","relevant_dimensions":["pattern","legs"],"bee_group":{"antennae":"X","wings":"X","pattern":"D","legs":"F"},"bonus":0.7200000000000011},{"rt":1261.5999999940395,"stimulus":"bees-with-color/bee-A2SF.svg","response":0,"trial_type":"image-button-response","trial_index":158,"time_elapsed":814747,"internal_node_id":"0.0-6.0-0.22","subject_id":"610a90b210c15673103314b8","study_id":"60edd13110225f80f9f3709b","session_id":"6196c1e867a2650ccd3462f8","condition":"contingent","relevant_dimensions":["pattern","legs"],"bee_group":{"antennae":"X","wings":"X","pattern":"D","legs":"F"},"bonus":0.7200000000000011},{"rt":1384.300000011921,"stimulus":"bees-with-color/bee-B2SM.svg","response":0,"trial_type":"image-button-response","trial_index":159,"time_elapsed":816136,"internal_node_id":"0.0-6.0-0.23","subject_id":"610a90b210c15673103314b8","study_id":"60edd13110225f80f9f3709b","session_id":"6196c1e867a2650ccd3462f8","condition":"contingent","relevant_dimensions":["pattern","legs"],"bee_group":{"antennae":"X","wings":"X","pattern":"D","legs":"F"},"bonus":0.7200000000000011},{"rt":1399.0999999940395,"stimulus":"bees-with-color/bee-A1SF.svg","response":0,"trial_type":"image-button-response","trial_index":160,"time_elapsed":817542,"internal_node_id":"0.0-6.0-0.24","subject_id":"610a90b210c15673103314b8","study_id":"60edd13110225f80f9f3709b","session_id":"6196c1e867a2650ccd3462f8","condition":"contingent","relevant_dimensions":["pattern","legs"],"bee_group":{"antennae":"X","wings":"X","pattern":"D","legs":"F"},"bonus":0.7200000000000011},