[{"success":true,"trial_type":"fullscreen","trial_index":0,"time_elapsed":46556,"internal_node_id":"0.0-0.0","subject_id":"614a360a9ff931cef70c2a33","study_id":"6197b3f67c2b5cd3b6d9596a","session_id":"619beeeb8f142c0b9fc7d2e3","condition":"contingent","relevant_dimensions":["wings","legs"],"bee_group":{"antennae":"X","wings":"2","pattern":"X","legs":"F"},"bonus":0.08000000000000107},{"success":true,"timeout":false,"failed_images":[],"failed_audio":[],"failed_video":[],"trial_type":"preload","trial_index":1,"time_elapsed":48342,"internal_node_id":"0.0-1.0","subject_id":"614a360a9ff931cef70c2a33","study_id":"6197b3f67c2b5cd3b6d9596a","session_id":"619beeeb8f142c0b9fc7d2e3","condition":"contingent","relevant_dimensions":["wings","legs"],"bee_group":{"antennae":"X","wings":"2","pattern":"X","legs":"F"},"bonus":0.08000000000000107},{"rt":3342.4000000059605,"stimulus":"Welcome! Press any key to begin.","response":"b","trial_type":"html-keyboard-response","trial_index":2,"time_elapsed":51686,"internal_node_id":"0.0-2.0","subject_id":"614a360a9ff931cef70c2a33","study_id":"6197b3f67c2b5cd3b6d9596a","session_id":"619beeeb8f142c0b9fc7d2e3","condition":"contingent","relevant_dimensions":["wings","legs"],"bee_group":{"antennae":"X","wings":"2","pattern":"X","legs":"F"},"bonus":0.08000000000000107},{"view_history":[{"page_index":0,"viewing_time":4938.20000000298},{"page_index":1,"viewing_time":11769.40000000596},{"page_index":2,"viewing_time":6438.899999991059},{"page_index":3,"viewing_time":13273.20000000298},{"page_index":4,"viewing_time":8340.20000000298},{"page_index":5,"viewing_time":5776.70000000298},{"page_index":6,"viewing_time":10430.5},{"page_index":7,"viewing_time":7876.20000000298},{"page_index":6,"viewing_time":2331.0999999940395},{"page_index":7,"viewing_time":3290.0999999940395},{"page_index":8,"viewing_time":4618.300000011921},{"page_index":9,"viewing_time":3481.3999999910593},{"page_index":10,"viewing_time":2521.2999999970198},{"page_index":11,"viewing_time":10046.70000000298},{"page_index":12,"viewing_time":5194.70000000298},{"page_index":13,"viewing_time":1727.2000000029802},{"page_index":14,"viewing_time":4630.20000000298}],"rt":106684.90000000596,"trial_type":"instructions","trial_index":3,"time_elapsed":158371,"internal_node_id":"0.0-3.0-0.0","subject_id":"614a360a9ff931cef70c2a33","study_id":"6197b3f67c2b5cd3b6d9596a","session_id":"619beeeb8f142c0b9fc7d2e3","condition":"contingent","relevant_dimensions":["wings","legs"],"bee_group":{"antennae":"X","wings":"2","pattern":"X","legs":"F"},"bonus":0.08000000000000107},{"rt":18097.39999999106,"response":{"Q0":["Two or six legs","Stripes or spots on body","Single or double wings","Antennae or no antennae"]},"question_order":[0],"trial_type":"survey-multi-select","trial_index":4,"time_elapsed":176473,"internal_node_id":"0.0-3.0-1.0","subject_id":"614a360a9ff931cef70c2a33","study_id":"6197b3f67c2b5cd3b6d9596a","session_id":"619beeeb8f142c0b9fc7d2e3","condition":"contingent","relevant_dimensions":["wings","legs"],"bee_group":{"antennae":"X","wings":"2","pattern":"X","legs":"F"},"correct":true,"bonus":0.08000000000000107},{"rt":30668,"response":{"Q1":"No.","Q2":"Based on the four features of the bee.","Q3":"You do not learn if it was friendly or dangerous, and do not alter your bonus."},"question_order":[0,1,2],"trial_type":"survey-multi-choice","trial_index":5,"time_elapsed":207145,"internal_node_id":"0.0-3.0-2.0","subject_id":"614a360a9ff931cef70c2a33","study_id":"6197b3f67c2b5cd3b6d9596a","session_id":"619beeeb8f142c0b9fc7d2e3","condition":"contingent","relevant_dimensions":["wings","legs"],"bee_group":{"antennae":"X","wings":"2","pattern":"X","legs":"F"},"correct":true,"bonus":0.08000000000000107},{"rt":6447.5999999940395,"stimulus":"<p>Congrats, you got everything right<br>When you're ready, click the button below to continue to the experiment.</p>","response":0,"trial_type":"html-button-response","trial_index":6,"time_elapsed":213595,"internal_node_id":"0.0-3.0-3.0","subject_id":"614a360a9ff931cef70c2a33","study_id":"6197b3f67c2b5cd3b6d9596a","session_id":"619beeeb8f142c0b9fc7d2e3","condition":"contingent","relevant_dimensions":["wings","legs"],"bee_group":{"antennae":"X","wings":"2","pattern":"X","legs":"F"},"bonus":0.08000000000000107},{"rt":2708.9000000059605,"stimulus":"bees-with-color/bee-B1SF.svg","response":0,"trial_type":"image-button-response","trial_index":7,"time_elapsed":216309,"internal_node_id":"0.0-4.0-0.0","subject_id":"614a360a9ff931cef70c2a33","study_id":"6197b3f67c2b5cd3b6d9596a","session_id":"619beeeb8f142c0b9fc7d2e3","condition":"contingent","relevant_dimensions":["wings","legs"],"bee_group":{"antennae":"X","wings":"2","pattern":"X","legs":"F"},"action":"harvest","summary":"good-harvest","bonus":0.08000000000000107},{"rt":45519,"stimulus":"\n                    <p><b>Action: <em>harvest</em></b></p>\n                    <p>This is the bee that you just saw.</p>\n                    <img src=\"bees-with-color/bee-B1SF.svg\" width=\"200\">\n                    <p><span class=\"greenText\"><b>Successful harvest!</b></span><br>Your pay has increased by $0.02. Your bonus pay is now $0.56.</p>\n            ","response":0,"trial_type":"html-button-response","trial_index":8,"time_elapsed":261832,"internal_node_id":"0.0-4.0-1.0","subject_id":"614a360a9ff931cef70c2a33","study_id":"6197b3f67c2b5cd3b6d9596a","session_id":"619beeeb8f142c0b9fc7d2e3","condition":"contingent","relevant_dimensions":["wings","legs"],"bee_group":{"antennae":"X","wings":"2","pattern":"X","legs":"F"},"bonus":0.08000000000000107},{"rt":4452.5,"stimulus":"bees-with-color/bee-B2DF.svg","response":1,"trial_type":"image-button-response","trial_index":9,"time_elapsed":266288,"internal_node_id":"0.0-4.0-0.1","subject_id":"614a360a9ff931cef70c2a33","study_id":"6197b3f67c2b5cd3b6d9596a","session_id":"619beeeb8f142c0b9fc7d2e3","condition":"contingent","relevant_dimensions":["wings","legs"],"bee_group":{"antennae":"X","wings":"2","pattern":"X","legs":"F"},"action":"avoid","summary":"good-avoid","bonus":0.08000000000000107},{"rt":2974,"stimulus":"\n                    <p><b>Action: <em>avoid</em></b></p>\n                    <p>This is the bee that you just saw.</p>\n                    <img src=\"bees-with-color/bee-B2DF.svg\" width=\"200\">\n                    <p><br>Your bonus pay is unchanged, and remains at $0.56.</p>\n            ","response":0,"trial_type":"html-button-response","trial_index":10,"time_elapsed":269266,"internal_node_id":"0.0-4.0-1.1","subject_id":"614a360a9ff931cef70c2a33","study_id":"6197b3f67c2b5cd3b6d9596a","session_id":"619beeeb8f142c0b9fc7d2e3","condition":"contingent","relevant_dimensions":["wings","legs"],"bee_group":{"antennae":"X","wings":"2","pattern":"X","legs":"F"},"bonus":0.08000000000000107},{"rt":1702.7999999970198,"stimulus":"bees-with-color/bee-A1SM.svg","response":0,"trial_type":"image-button-response","trial_index":11,"time_elapsed":270972,"internal_node_id":"0.0-4.0-0.2","subject_id":"614a360a9ff931cef70c2a33","study_id":"6197b3f67c2b5cd3b6d9596a","session_id":"619beeeb8f142c0b9fc7d2e3","condition":"contingent","relevant_dimensions":["wings","legs"],"bee_group":{"antennae":"X","wings":"2","pattern":"X","legs":"F"},"action":"harvest","summary":"good-harvest","bonus":0.08000000000000107},{"rt":2730.7000000029802,"stimulus":"\n                    <p><b>Action: <em>harvest</em></b></p>\n                    <p>This is the bee that you just saw.</p>\n                    <img src=\"bees-with-color/bee-A1SM.svg\" width=\"200\">\n                    <p><span class=\"greenText\"><b>Successful harvest!</b></span><br>Your pay has increased by $0.02. Your bonus pay is now $0.58.</p>\n            ","response":0,"trial_type":"html-button-response","trial_index":12,"time_elapsed":273706,"internal_node_id":"0.0-4.0-1.2","subject_id":"614a360a9ff931cef70c2a33","study_id":"6197b3f67c2b5cd3b6d9596a","session_id":"619beeeb8f142c0b9fc7d2e3","condition":"contingent","relevant_dimensions":["wings","legs"],"bee_group":{"antennae":"X","wings":"2","pattern":"X","legs":"F"},"bonus":0.08000000000000107},{"rt":4779,"stimulus":"bees-with-color/bee-A2SM.svg","response":0,"trial_type":"image-button-response","trial_index":13,"time_elapsed":278488,"internal_node_id":"0.0-4.0-0.3","subject_id":"614a360a9ff931cef70c2a33","study_id":"6197b3f67c2b5cd3b6d9596a","session_id":"619beeeb8f142c0b9fc7d2e3","condition":"contingent","relevant_dimensions":["wings","legs"],"bee_group":{"antennae":"X","wings":"2","pattern":"X","legs":"F"},"action":"harvest","summary":"good-harvest","bonus":0.08000000000000107},{"rt":985.2999999970198,"stimulus":"\n                    <p><b>Action: <em>harvest</em></b></p>\n                    <p>This is the bee that you just saw.</p>\n                    <img src=\"bees-with-color/bee-A2SM.svg\" width=\"200\">\n                    <p><span class=\"greenText\"><b>Successful harvest!</b></span><br>Your pay has increased by $0.02. Your bonus pay is now $0.60.</p>\n            ","response":0,"trial_type":"html-button-response","trial_index":14,"time_elapsed":279476,"internal_node_id":"0.0-4.0-1.3","subject_id":"614a360a9ff931cef70c2a33","study_id":"6197b3f67c2b5cd3b6d9596a","session_id":"619beeeb8f142c0b9fc7d2e3","condition":"contingent","relevant_dimensions":["wings","legs"],"bee_group":{"antennae":"X","wings":"2","pattern":"X","legs":"F"},"bonus":0.08000000000000107},{"rt":1668.3999999910593,"stimulus":"bees-with-color/bee-A1SF.svg","response":0,"trial_type":"image-button-response","trial_index":15,"time_elapsed":281148,"internal_node_id":"0.0-4.0-0.4","subject_id":"614a360a9ff931cef70c2a33","study_id":"6197b3f67c2b5cd3b6d9596a","session_id":"619beeeb8f142c0b9fc7d2e3","condition":"contingent","relevant_dimensions":["wings","legs"],"bee_group":{"antennae":"X","wings":"2","pattern":"X","legs":"F"},"action":"harvest","summary":"good-harvest","bonus":0.08000000000000107},{"rt":1039.800000011921,"stimulus":"\n                    <p><b>Action: <em>harvest</em></b></p>\n                    <p>This is the bee that you just saw.</p>\n                    <img src=\"bees-with-color/bee-A1SF.svg\" width=\"200\">\n                    <p><span class=\"greenText\"><b>Successful harvest!</b></span><br>Your pay has increased by $0.02. Your bonus pay is now $0.62.</p>\n            ","response":0,"trial_type":"html-button-response","trial_index":16,"time_elapsed":282191,"internal_node_id":"0.0-4.0-1.4","subject_id":"614a360a9ff931cef70c2a33","study_id":"6197b3f67c2b5cd3b6d9596a","session_id":"619beeeb8f142c0b9fc7d2e3","condition":"contingent","relevant_dimensions":["wings","legs"],"bee_group":{"antennae":"X","wings":"2","pattern":"X","legs":"F"},"bonus":0.08000000000000107},{"rt":47640.60000000894,"stimulus":"bees-with-color/bee-A2SF.svg","response":1,"trial_type":"image-button-response","trial_index":17,"time_elapsed":329834,"internal_node_id":"0.0-4.0-0.5","subject_id":"614a360a9ff931cef70c2a33","study_id":"6197b3f67c2b5cd3b6d9596a","session_id":"619beeeb8f142c0b9fc7d2e3","condition":"contingent","relevant_dimensions":["wings","legs"],"bee_group":{"antennae":"X","wings":"2","pattern":"X","legs":"F"},"action":"avoid","summary":"good-avoid","bonus":0.08000000000000107},{"rt":1138.7000000029802,"stimulus":"\n                    <p><b>Action: <em>avoid</em></b></p>\n                    <p>This is the bee that you just saw.</p>\n                    <img src=\"bees-with-color/bee-A2SF.svg\" width=\"200\">\n                    <p><br>Your bonus pay is unchanged, and remains at $0.62.</p>\n            ","response":0,"trial_type":"html-button-response","trial_index":18,"time_elapsed":330976,"internal_node_id":"0.0-4.0-1.5","subject_id":"614a360a9ff931cef70c2a33","study_id":"6197b3f67c2b5cd3b6d9596a","session_id":"619beeeb8f142c0b9fc7d2e3","condition":"contingent","relevant_dimensions":["wings","legs"],"bee_group":{"antennae":"X","wings":"2","pattern":"X","legs":"F"},"bonus":0.08000000000000107},{"rt":1481.2000000029802,"stimulus":"bees-with-color/bee-A1DM.svg","response":1,"trial_type":"image-button-response","trial_index":19,"time_elapsed":332461,"internal_node_id":"0.0-4.0-0.6","subject_id":"614a360a9ff931cef70c2a33","study_id":"6197b3f67c2b5cd3b6d9596a","session_id":"619beeeb8f142c0b9fc7d2e3","condition":"contingent","relevant_dimensions":["wings","legs"],"bee_group":{"antennae":"X","wings":"2","pattern":"X","legs":"F"},"action":"avoid","summary":"bad-avoid","bonus":0.08000000000000107},{"rt":984.2999999970198,"stimulus":"\n                    <p><b>Action: <em>avoid</em></b></p>\n                    <p>This is the bee that you just saw.</p>\n                    <img src=\"bees-with-color/bee-A1DM.svg\" width=\"200\">\n                    <p><br>Your bonus pay is unchanged, and remains at $0.62.</p>\n            ","response":0,"trial_type":"html-button-response","trial_index":20,"time_elapsed":333448,"internal_node_id":"0.0-4.0-1.6","subject_id":"614a360a9ff931cef70c2a33","study_id":"6197b3f67c2b5cd3b6d9596a","session_id":"619beeeb8f142c0b9fc7d2e3","condition":"contingent","relevant_dimensions":["wings","legs"],"bee_group":{"antennae":"X","wings":"2","pattern":"X","legs":"F"},"bonus":0.08000000000000107},{"rt":1646.7999999970198,"stimulus":"bees-with-color/bee-A2DM.svg","response":0,"trial_type":"image-button-response","trial_index":21,"time_elapsed":335098,"internal_node_id":"0.0-4.0-0.7","subject_id":"614a360a9ff931cef70c2a33","study_id":"6197b3f67c2b5cd3b6d9596a","session_id":"619beeeb8f142c0b9fc7d2e3","condition":"contingent","relevant_dimensions":["wings","legs"],"bee_group":{"antennae":"X","wings":"2","pattern":"X","legs":"F"},"action":"harvest","summary":"good-harvest","bonus":0.08000000000000107},{"rt":826.9000000059605,"stimulus":"\n                    <p><b>Action: <em>harvest</em></b></p>\n                    <p>This is the bee that you just saw.</p>\n                    <img src=\"bees-with-color/bee-A2DM.svg\" width=\"200\">\n                    <p><span class=\"greenText\"><b>Successful harvest!</b></span><br>Your pay has increased by $0.02. Your bonus pay is now $0.64.</p>\n            ","response":0,"trial_type":"html-button-response","trial_index":22,"time_elapsed":335928,"internal_node_id":"0.0-4.0-1.7","subject_id":"614a360a9ff931cef70c2a33","study_id":"6197b3f67c2b5cd3b6d9596a","session_id":"619beeeb8f142c0b9fc7d2e3","condition":"contingent","relevant_dimensions":["wings","legs"],"bee_group":{"antennae":"X","wings":"2","pattern":"X","legs":"F"},"bonus":0.08000000000000107},{"rt":1906.199999988079,"stimulus":"bees-with-color/bee-B2DM.svg","response":1,"trial_type":"image-button-response","trial_index":23,"time_elapsed":337838,"internal_node_id":"0.0-4.0-0.8","subject_id":"614a360a9ff931cef70c2a33","study_id":"6197b3f67c2b5cd3b6d9596a","session_id":"619beeeb8f142c0b9fc7d2e3","condition":"contingent","relevant_dimensions":["wings","legs"],"bee_group":{"antennae":"X","wings":"2","pattern":"X","legs":"F"},"action":"avoid","summary":"bad-avoid","bonus":0.08000000000000107},{"rt":1705.5,"stimulus":"\n                    <p><b>Action: <em>avoid</em></b></p>\n                    <p>This is the bee that you just saw.</p>\n                    <img src=\"bees-with-color/bee-B2DM.svg\" width=\"200\">\n                    <p><br>Your bonus pay is unchanged, and remains at $0.64.</p>\n            ","response":0,"trial_type":"html-button-response","trial_index":24,"time_elapsed":339546,"internal_node_id":"0.0-4.0-1.8","subject_id":"614a360a9ff931cef70c2a33","study_id":"6197b3f67c2b5cd3b6d9596a","session_id":"619beeeb8f142c0b9fc7d2e3","condition":"contingent","relevant_dimensions":["wings","legs"],"bee_group":{"antennae":"X","wings":"2","pattern":"X","legs":"F"},"bonus":0.08000000000000107},{"rt":1281.300000011921,"stimulus":"bees-with-color/bee-B1SM.svg","response":1,"trial_type":"image-button-response","trial_index":25,"time_elapsed":340831,"internal_node_id":"0.0-4.0-0.9","subject_id":"614a360a9ff931cef70c2a33","study_id":"6197b3f67c2b5cd3b6d9596a","session_id":"619beeeb8f142c0b9fc7d2e3","condition":"contingent","relevant_dimensions":["wings","legs"],"bee_group":{"antennae":"X","wings":"2","pattern":"X","legs":"F"},"action":"avoid","summary":"bad-avoid","bonus":0.08000000000000107},{"rt":1605.4000000059605,"stimulus":"\n                    <p><b>Action: <em>avoid</em></b></p>\n                    <p>This is the bee that you just saw.</p>\n                    <img src=\"bees-with-color/bee-B1SM.svg\" width=\"200\">\n                    <p><br>Your bonus pay is unchanged, and remains at $0.64.</p>\n            ","response":0,"trial_type":"html-button-response","trial_index":26,"time_elapsed":342438,"internal_node_id":"0.0-4.0-1.9","subject_id":"614a360a9ff931cef70c2a33","study_id":"6197b3f67c2b5cd3b6d9596a","session_id":"619beeeb8f142c0b9fc7d2e3","condition":"contingent","relevant_dimensions":["wings","legs"],"bee_group":{"antennae":"X","wings":"2","pattern":"X","legs":"F"},"bonus":0.08000000000000107},{"rt":877.7999999970198,"stimulus":"bees-with-color/bee-A2DF.svg","response":0,"trial_type":"image-button-response","trial_index":27,"time_elapsed":343318,"internal_node_id":"0.0-4.0-0.10","subject_id":"614a360a9ff931cef70c2a33","study_id":"6197b3f67c2b5cd3b6d9596a","session_id":"619beeeb8f142c0b9fc7d2e3","condition":"contingent","relevant_dimensions":["wings","legs"],"bee_group":{"antennae":"X","wings":"2","pattern":"X","legs":"F"},"action":"harvest","summary":"bad-harvest","bonus":0.08000000000000107},{"rt":1048,"stimulus":"\n                    <p><b>Action: <em>harvest</em></b></p>\n                    <p>This is the bee that you just saw.</p>\n                    <img src=\"bees-with-color/bee-A2DF.svg\" width=\"200\">\n                    <p><span class=\"redText\">Bad choice, the bee was angry.</span><br><b>You have been stung!</b><br>Your pay has been decreased by $0.10. Your bonus pay is now $0.54.</p>\n            ","response":0,"trial_type":"html-button-response","trial_index":28,"time_elapsed":344368,"internal_node_id":"0.0-4.0-1.10","subject_id":"614a360a9ff931cef70c2a33","study_id":"6197b3f67c2b5cd3b6d9596a","session_id":"619beeeb8f142c0b9fc7d2e3","condition":"contingent","relevant_dimensions":["wings","legs"],"bee_group":{"antennae":"X","wings":"2","pattern":"X","legs":"F"},"bonus":0.08000000000000107},{"rt":1013.5999999940395,"stimulus":"bees-with-color/bee-B1DF.svg","response":1,"trial_type":"image-button-response","trial_index":29,"time_elapsed":345383,"internal_node_id":"0.0-4.0-0.11","subject_id":"614a360a9ff931cef70c2a33","study_id":"6197b3f67c2b5cd3b6d9596a","session_id":"619beeeb8f142c0b9fc7d2e3","condition":"contingent","relevant_dimensions":["wings","legs"],"bee_group":{"antennae":"X","wings":"2","pattern":"X","legs":"F"},"action":"avoid","summary":"bad-avoid","bonus":0.08000000000000107},{"rt":1468,"stimulus":"\n                    <p><b>Action: <em>avoid</em></b></p>\n                    <p>This is the bee that you just saw.</p>\n                    <img src=\"bees-with-color/bee-B1DF.svg\" width=\"200\">\n                    <p><br>Your bonus pay is unchanged, and remains at $0.54.</p>\n            ","response":0,"trial_type":"html-button-response","trial_index":30,"time_elapsed":346854,"internal_node_id":"0.0-4.0-1.11","subject_id":"614a360a9ff931cef70c2a33","study_id":"6197b3f67c2b5cd3b6d9596a","session_id":"619beeeb8f142c0b9fc7d2e3","condition":"contingent","relevant_dimensions":["wings","legs"],"bee_group":{"antennae":"X","wings":"2","pattern":"X","legs":"F"},"bonus":0.08000000000000107},{"rt":1118.2999999970198,"stimulus":"bees-with-color/bee-B2SM.svg","response":0,"trial_type":"image-button-response","trial_index":31,"time_elapsed":347974,"internal_node_id":"0.0-4.0-0.12","subject_id":"614a360a9ff931cef70c2a33","study_id":"6197b3f67c2b5cd3b6d9596a","session_id":"619beeeb8f142c0b9fc7d2e3","condition":"contingent","relevant_dimensions":["wings","legs"],"bee_group":{"antennae":"X","wings":"2","pattern":"X","legs":"F"},"action":"harvest","summary":"good-harvest","bonus":0.08000000000000107},{"rt":674.5,"stimulus":"\n                    <p><b>Action: <em>harvest</em></b></p>\n                    <p>This is the bee that you just saw.</p>\n                    <img src=\"bees-with-color/bee-B2SM.svg\" width=\"200\">\n                    <p><span class=\"greenText\"><b>Successful harvest!</b></span><br>Your pay has increased by $0.02. Your bonus pay is now $0.56.</p>\n            ","response":0,"trial_type":"html-button-response","trial_index":32,"time_elapsed":348650,"internal_node_id":"0.0-4.0-1.12","subject_id":"614a360a9ff931cef70c2a33","study_id":"6197b3f67c2b5cd3b6d9596a","session_id":"619beeeb8f142c0b9fc7d2e3","condition":"contingent","relevant_dimensions":["wings","legs"],"bee_group":{"antennae":"X","wings":"2","pattern":"X","legs":"F"},"bonus":0.08000000000000107},{"rt":749.6000000089407,"stimulus":"bees-with-color/bee-B1DM.svg","response":0,"trial_type":"image-button-response","trial_index":33,"time_elapsed":349403,"internal_node_id":"0.0-4.0-0.13","subject_id":"614a360a9ff931cef70c2a33","study_id":"6197b3f67c2b5cd3b6d9596a","session_id":"619beeeb8f142c0b9fc7d2e3","condition":"contingent","relevant_dimensions":["wings","legs"],"bee_group":{"antennae":"X","wings":"2","pattern":"X","legs":"F"},"action":"harvest","summary":"good-harvest","bonus":0.08000000000000107},{"rt":779.1999999880791,"stimulus":"\n                    <p><b>Action: <em>harvest</em></b></p>\n                    <p>This is the bee that you just saw.</p>\n                    <img src=\"bees-with-color/bee-B1DM.svg\" width=\"200\">\n                    <p><span class=\"greenText\"><b>Successful harvest!</b></span><br>Your pay has increased by $0.02. Your bonus pay is now $0.58.</p>\n            ","response":0,"trial_type":"html-button-response","trial_index":34,"time_elapsed":350184,"internal_node_id":"0.0-4.0-1.13","subject_id":"614a360a9ff931cef70c2a33","study_id":"6197b3f67c2b5cd3b6d9596a","session_id":"619beeeb8f142c0b9fc7d2e3","condition":"contingent","relevant_dimensions":["wings","legs"],"bee_group":{"antennae":"X","wings":"2","pattern":"X","legs":"F"},"bonus":0.08000000000000107},{"rt":924.4000000059605,"stimulus":"bees-with-color/bee-B2SF.svg","response":1,"trial_type":"image-button-response","trial_index":35,"time_elapsed":351110,"internal_node_id":"0.0-4.0-0.14","subject_id":"614a360a9ff931cef70c2a33","study_id":"6197b3f67c2b5cd3b6d9596a","session_id":"619beeeb8f142c0b9fc7d2e3","condition":"contingent","relevant_dimensions":["wings","legs"],"bee_group":{"antennae":"X","wings":"2","pattern":"X","legs":"F"},"action":"avoid","summary":"good-avoid","bonus":0.08000000000000107},{"rt":1047.9000000059605,"stimulus":"\n                    <p><b>Action: <em>avoid</em></b></p>\n                    <p>This is the bee that you just saw.</p>\n                    <img src=\"bees-with-color/bee-B2SF.svg\" width=\"200\">\n                    <p><br>Your bonus pay is unchanged, and remains at $0.58.</p>\n            ","response":0,"trial_type":"html-button-response","trial_index":36,"time_elapsed":352160,"internal_node_id":"0.0-4.0-1.14","subject_id":"614a360a9ff931cef70c2a33","study_id":"6197b3f67c2b5cd3b6d9596a","session_id":"619beeeb8f142c0b9fc7d2e3","condition":"contingent","relevant_dimensions":["wings","legs"],"bee_group":{"antennae":"X","wings":"2","pattern":"X","legs":"F"},"bonus":0.08000000000000107},{"rt":1150.9000000059605,"stimulus":"bees-with-color/bee-A1DF.svg","response":0,"trial_type":"image-button-response","trial_index":37,"time_elapsed":353313,"internal_node_id":"0.0-4.0-0.15","subject_id":"614a360a9ff931cef70c2a33","study_id":"6197b3f67c2b5cd3b6d9596a","session_id":"619beeeb8f142c0b9fc7d2e3","condition":"contingent","relevant_dimensions":["wings","legs"],"bee_group":{"antennae":"X","wings":"2","pattern":"X","legs":"F"},"action":"harvest","summary":"good-harvest","bonus":0.08000000000000107},{"rt":764,"stimulus":"\n                    <p><b>Action: <em>harvest</em></b></p>\n                    <p>This is the bee that you just saw.</p>\n                    <img src=\"bees-with-color/bee-A1DF.svg\" width=\"200\">\n                    <p><span class=\"greenText\"><b>Successful harvest!</b></span><br>Your pay has increased by $0.02. Your bonus pay is now $0.60.</p>\n            ","response":0,"trial_type":"html-button-response","trial_index":38,"time_elapsed":354080,"internal_node_id":"0.0-4.0-1.15","subject_id":"614a360a9ff931cef70c2a33","study_id":"6197b3f67c2b5cd3b6d9596a","session_id":"619beeeb8f142c0b9fc7d2e3","condition":"contingent","relevant_dimensions":["wings","legs"],"bee_group":{"antennae":"X","wings":"2","pattern":"X","legs":"F"},"bonus":0.08000000000000107},{"rt":1275.8999999910593,"stimulus":"bees-with-color/bee-B2DM.svg","response":1,"trial_type":"image-button-response","trial_index":39,"time_elapsed":355358,"internal_node_id":"0.0-4.0-0.16","subject_id":"614a360a9ff931cef70c2a33","study_id":"6197b3f67c2b5cd3b6d9596a","session_id":"619beeeb8f142c0b9fc7d2e3","condition":"contingent","relevant_dimensions":["wings","legs"],"bee_group":{"antennae":"X","wings":"2","pattern":"X","legs":"F"},"action":"avoid","summary":"bad-avoid","bonus":0.08000000000000107},{"rt":2263.8999999910593,"stimulus":"\n                    <p><b>Action: <em>avoid</em></b></p>\n                    <p>This is the bee that you just saw.</p>\n                    <img src=\"bees-with-color/bee-B2DM.svg\" width=\"200\">\n                    <p><br>Your bonus pay is unchanged, and remains at $0.60.</p>\n            ","response":0,"trial_type":"html-button-response","trial_index":40,"time_elapsed":357624,"internal_node_id":"0.0-4.0-1.16","subject_id":"614a360a9ff931cef70c2a33","study_id":"6197b3f67c2b5cd3b6d9596a","session_id":"619beeeb8f142c0b9fc7d2e3","condition":"contingent","relevant_dimensions":["wings","legs"],"bee_group":{"antennae":"X","wings":"2","pattern":"X","legs":"F"},"bonus":0.08000000000000107},{"rt":1107,"stimulus":"bees-with-color/bee-A2DF.svg","response":0,"trial_type":"image-button-response","trial_index":41,"time_elapsed":358734,"internal_node_id":"0.0-4.0-0.17","subject_id":"614a360a9ff931cef70c2a33","study_id":"6197b3f67c2b5cd3b6d9596a","session_id":"619beeeb8f142c0b9fc7d2e3","condition":"contingent","relevant_dimensions":["wings","legs"],"bee_group":{"antennae":"X","wings":"2","pattern":"X","legs":"F"},"action":"harvest","summary":"bad-harvest","bonus":0.08000000000000107},{"rt":853.2000000029802,"stimulus":"\n                    <p><b>Action: <em>harvest</em></b></p>\n                    <p>This is the bee that you just saw.</p>\n                    <img src=\"bees-with-color/bee-A2DF.svg\" width=\"200\">\n                    <p><span class=\"redText\">Bad choice, the bee was angry.</span><br><b>You have been stung!</b><br>Your pay has been decreased by $0.10. Your bonus pay is now $0.50.</p>\n            ","response":0,"trial_type":"html-button-response","trial_index":42,"time_elapsed":359589,"internal_node_id":"0.0-4.0-1.17","subject_id":"614a360a9ff931cef70c2a33","study_id":"6197b3f67c2b5cd3b6d9596a","session_id":"619beeeb8f142c0b9fc7d2e3","condition":"contingent","relevant_dimensions":["wings","legs"],"bee_group":{"antennae":"X","wings":"2","pattern":"X","legs":"F"},"bonus":0.08000000000000107},{"rt":938,"stimulus":"bees-with-color/bee-B1SF.svg","response":0,"trial_type":"image-button-response","trial_index":43,"time_elapsed":360530,"internal_node_id":"0.0-4.0-0.18","subject_id":"614a360a9ff931cef70c2a33","study_id":"6197b3f67c2b5cd3b6d9596a","session_id":"619beeeb8f142c0b9fc7d2e3","condition":"contingent","relevant_dimensions":["wings","legs"],"bee_group":{"antennae":"X","wings":"2","pattern":"X","legs":"F"},"action":"harvest","summary":"good-harvest","bonus":0.08000000000000107},{"rt":964.9000000059605,"stimulus":"\n                    <p><b>Action: <em>harvest</em></b></p>\n                    <p>This is the bee that you just saw.</p>\n                    <img src=\"bees-with-color/bee-B1SF.svg\" width=\"200\">\n                    <p><span class=\"greenText\"><b>Successful harvest!</b></span><br>Your pay has increased by $0.02. Your bonus pay is now $0.52.</p>\n            ","response":0,"trial_type":"html-button-response","trial_index":44,"time_elapsed":361497,"internal_node_id":"0.0-4.0-1.18","subject_id":"614a360a9ff931cef70c2a33","study_id":"6197b3f67c2b5cd3b6d9596a","session_id":"619beeeb8f142c0b9fc7d2e3","condition":"contingent","relevant_dimensions":["wings","legs"],"bee_group":{"antennae":"X","wings":"2","pattern":"X","legs":"F"},"bonus":0.08000000000000107},{"rt":1158.4000000059605,"stimulus":"bees-with-color/bee-B2SM.svg","response":0,"trial_type":"image-button-response","trial_index":45,"time_elapsed":362658,"internal_node_id":"0.0-4.0-0.19","subject_id":"614a360a9ff931cef70c2a33","study_id":"6197b3f67c2b5cd3b6d9596a","session_id":"619beeeb8f142c0b9fc7d2e3","condition":"contingent","relevant_dimensions":["wings","legs"],"bee_group":{"antennae":"X","wings":"2","pattern":"X","legs":"F"},"action":"harvest","summary":"good-harvest","bonus":0.08000000000000107},{"rt":804.2999999970198,"stimulus":"\n                    <p><b>Action: <em>harvest</em></b></p>\n                    <p>This is the bee that you just saw.</p>\n                    <img src=\"bees-with-color/bee-B2SM.svg\" width=\"200\">\n                    <p><span class=\"greenText\"><b>Successful harvest!</b></span><br>Your pay has increased by $0.02. Your bonus pay is now $0.54.</p>\n            ","response":0,"trial_type":"html-button-response","trial_index":46,"time_elapsed":363464,"internal_node_id":"0.0-4.0-1.19","subject_id":"614a360a9ff931cef70c2a33","study_id":"6197b3f67c2b5cd3b6d9596a","session_id":"619beeeb8f142c0b9fc7d2e3","condition":"contingent","relevant_dimensions":["wings","legs"],"bee_group":{"antennae":"X","wings":"2","pattern":"X","legs":"F"},"bonus":0.08000000000000107},{"rt":780.2000000029802,"stimulus":"bees-with-color/bee-A1DM.svg","response":0,"trial_type":"image-button-response","trial_index":47,"time_elapsed":364247,"internal_node_id":"0.0-4.0-0.20","subject_id":"614a360a9ff931cef70c2a33","study_id":"6197b3f67c2b5cd3b6d9596a","session_id":"619beeeb8f142c0b9fc7d2e3","condition":"contingent","relevant_dimensions":["wings","legs"],"bee_group":{"antennae":"X","wings":"2","pattern":"X","legs":"F"},"action":"harvest","summary":"good-harvest","bonus":0.08000000000000107},{"rt":833.5999999940395,"stimulus":"\n                    <p><b>Action: <em>harvest</em></b></p>\n                    <p>This is the bee that you just saw.</p>\n                    <img src=\"bees-with-color/bee-A1DM.svg\" width=\"200\">\n                    <p><span class=\"greenText\"><b>Successful harvest!</b></span><br>Your pay has increased by $0.02. Your bonus pay is now $0.56.</p>\n            ","response":0,"trial_type":"html-button-response","trial_index":48,"time_elapsed":365083,"internal_node_id":"0.0-4.0-1.20","subject_id":"614a360a9ff931cef70c2a33","study_id":"6197b3f67c2b5cd3b6d9596a","session_id":"619beeeb8f142c0b9fc7d2e3","condition":"contingent","relevant_dimensions":["wings","legs"],"bee_group":{"antennae":"X","wings":"2","pattern":"X","legs":"F"},"bonus":0.08000000000000107},{"rt":1550,"stimulus":"bees-with-color/bee-A1DF.svg","response":1,"trial_type":"image-button-response","trial_index":49,"time_elapsed":366635,"internal_node_id":"0.0-4.0-0.21","subject_id":"614a360a9ff931cef70c2a33","study_id":"6197b3f67c2b5cd3b6d9596a","session_id":"619beeeb8f142c0b9fc7d2e3","condition":"contingent","relevant_dimensions":["wings","legs"],"bee_group":{"antennae":"X","wings":"2","pattern":"X","legs":"F"},"action":"avoid","summary":"bad-avoid","bonus":0.08000000000000107},{"rt":780.2000000029802,"stimulus":"\n                    <p><b>Action: <em>avoid</em></b></p>\n                    <p>This is the bee that you just saw.</p>\n                    <img src=\"bees-with-color/bee-A1DF.svg\" width=\"200\">\n                    <p><br>Your bonus pay is unchanged, and remains at $0.56.</p>\n            ","response":0,"trial_type":"html-button-response","trial_index":50,"time_elapsed":367418,"internal_node_id":"0.0-4.0-1.21","subject_id":"614a360a9ff931cef70c2a33","study_id":"6197b3f67c2b5cd3b6d9596a","session_id":"619beeeb8f142c0b9fc7d2e3","condition":"contingent","relevant_dimensions":["wings","legs"],"bee_group":{"antennae":"X","wings":"2","pattern":"X","legs":"F"},"bonus":0.08000000000000107},{"rt":950.6999999880791,"stimulus":"bees-with-color/bee-A2SF.svg","response":0,"trial_type":"image-button-response","trial_index":51,"time_elapsed":368371,"internal_node_id":"0.0-4.0-0.22","subject_id":"614a360a9ff931cef70c2a33","study_id":"6197b3f67c2b5cd3b6d9596a","session_id":"619beeeb8f142c0b9fc7d2e3","condition":"contingent","relevant_dimensions":["wings","legs"],"bee_group":{"antennae":"X","wings":"2","pattern":"X","legs":"F"},"action":"harvest","summary":"bad-harvest","bonus":0.08000000000000107},{"rt":736.7999999970198,"stimulus":"\n                    <p><b>Action: <em>harvest</em></b></p>\n                    <p>This is the bee that you just saw.</p>\n                    <img src=\"bees-with-color/bee-A2SF.svg\" width=\"200\">\n                    <p><span class=\"redText\">Bad choice, the bee was angry.</span><br><b>You have been stung!</b><br>Your pay has been decreased by $0.10. Your bonus pay is now $0.46.</p>\n            ","response":0,"trial_type":"html-button-response","trial_index":52,"time_elapsed":369110,"internal_node_id":"0.0-4.0-1.22","subject_id":"614a360a9ff931cef70c2a33","study_id":"6197b3f67c2b5cd3b6d9596a","session_id":"619beeeb8f142c0b9fc7d2e3","condition":"contingent","relevant_dimensions":["wings","legs"],"bee_group":{"antennae":"X","wings":"2","pattern":"X","legs":"F"},"bonus":0.08000000000000107},{"rt":1241.199999988079,"stimulus":"bees-with-color/bee-A1SF.svg","response":0,"trial_type":"image-button-response","trial_index":53,"time_elapsed":370354,"internal_node_id":"0.0-4.0-0.23","subject_id":"614a360a9ff931cef70c2a33","study_id":"6197b3f67c2b5cd3b6d9596a","session_id":"619beeeb8f142c0b9fc7d2e3","condition":"contingent","relevant_dimensions":["wings","legs"],"bee_group":{"antennae":"X","wings":"2","pattern":"X","legs":"F"},"action":"harvest","summary":"good-harvest","bonus":0.08000000000000107},{"rt":743.3999999910593,"stimulus":"\n                    <p><b>Action: <em>harvest</em></b></p>\n                    <p>This is the bee that you just saw.</p>\n                    <img src=\"bees-with-color/bee-A1SF.svg\" width=\"200\">\n                    <p><span class=\"greenText\"><b>Successful harvest!</b></span><br>Your pay has increased by $0.02. Your bonus pay is now $0.48.</p>\n            ","response":0,"trial_type":"html-button-response","trial_index":54,"time_elapsed":371100,"internal_node_id":"0.0-4.0-1.23","subject_id":"614a360a9ff931cef70c2a33","study_id":"6197b3f67c2b5cd3b6d9596a","session_id":"619beeeb8f142c0b9fc7d2e3","condition":"contingent","relevant_dimensions":["wings","legs"],"bee_group":{"antennae":"X","wings":"2","pattern":"X","legs":"F"},"bonus":0.08000000000000107},{"rt":625,"stimulus":"bees-with-color/bee-B1DM.svg","response":0,"trial_type":"image-button-response","trial_index":55,"time_elapsed":371727,"internal_node_id":"0.0-4.0-0.24","subject_id":"614a360a9ff931cef70c2a33","study_id":"6197b3f67c2b5cd3b6d9596a","session_id":"619beeeb8f142c0b9fc7d2e3","condition":"contingent","relevant_dimensions":["wings","legs"],"bee_group":{"antennae":"X","wings":"2","pattern":"X","legs":"F"},"action":"harvest","summary":"good-harvest","bonus":0.08000000000000107},{"rt":973.0999999940395,"stimulus":"\n                    <p><b>Action: <em>harvest</em></b></p>\n                    <p>This is the bee that you just saw.</p>\n                    <img src=\"bees-with-color/bee-B1DM.svg\" width=\"200\">\n                    <p><span class=\"greenText\"><b>Successful harvest!</b></span><br>Your pay has increased by $0.02. Your bonus pay is now $0.50.</p>\n            ","response":0,"trial_type":"html-button-response","trial_index":56,"time_elapsed":372703,"internal_node_id":"0.0-4.0-1.24","subject_id":"614a360a9ff931cef70c2a33","study_id":"6197b3f67c2b5cd3b6d9596a","session_id":"619beeeb8f142c0b9fc7d2e3","condition":"contingent","relevant_dimensions":["wings","legs"],"bee_group":{"antennae":"X","wings":"2","pattern":"X","legs":"F"},"bonus":0.08000000000000107},{"rt":736.2000000029802,"stimulus":"bees-with-color/bee-B1SM.svg","response":0,"trial_type":"image-button-response","trial_index":57,"time_elapsed":373441,"internal_node_id":"0.0-4.0-0.25","subject_id":"614a360a9ff931cef70c2a33","study_id":"6197b3f67c2b5cd3b6d9596a","session_id":"619beeeb8f142c0b9fc7d2e3","condition":"contingent","relevant_dimensions":["wings","legs"],"bee_group":{"antennae":"X","wings":"2","pattern":"X","legs":"F"},"action":"harvest","summary":"good-harvest","bonus":0.08000000000000107},{"rt":744,"stimulus":"\n                    <p><b>Action: <em>harvest</em></b></p>\n                    <p>This is the bee that you just saw.</p>\n                    <img src=\"bees-with-color/bee-B1SM.svg\" width=\"200\">\n                    <p><span class=\"greenText\"><b>Successful harvest!</b></span><br>Your pay has increased by $0.02. Your bonus pay is now $0.52.</p>\n            ","response":0,"trial_type":"html-button-response","trial_index":58,"time_elapsed":374188,"internal_node_id":"0.0-4.0-1.25","subject_id":"614a360a9ff931cef70c2a33","study_id":"6197b3f67c2b5cd3b6d9596a","session_id":"619beeeb8f142c0b9fc7d2e3","condition":"contingent","relevant_dimensions":["wings","legs"],"bee_group":{"antennae":"X","wings":"2","pattern":"X","legs":"F"},"bonus":0.08000000000000107},{"rt":1040.4000000059605,"stimulus":"bees-with-color/bee-B2SF.svg","response":1,"trial_type":"image-button-response","trial_index":59,"time_elapsed":375231,"internal_node_id":"0.0-4.0-0.26","subject_id":"614a360a9ff931cef70c2a33","study_id":"6197b3f67c2b5cd3b6d9596a","session_id":"619beeeb8f142c0b9fc7d2e3","condition":"contingent","relevant_dimensions":["wings","legs"],"bee_group":{"antennae":"X","wings":"2","pattern":"X","legs":"F"},"action":"avoid","summary":"good-avoid","bonus":0.08000000000000107},{"rt":722.8999999910593,"stimulus":"\n                    <p><b>Action: <em>avoid</em></b></p>\n                    <p>This is the bee that you just saw.</p>\n                    <img src=\"bees-with-color/bee-B2SF.svg\" width=\"200\">\n                    <p><br>Your bonus pay is unchanged, and remains at $0.52.</p>\n            ","response":0,"trial_type":"html-button-response","trial_index":60,"time_elapsed":375956,"internal_node_id":"0.0-4.0-1.26","subject_id":"614a360a9ff931cef70c2a33","study_id":"6197b3f67c2b5cd3b6d9596a","session_id":"619beeeb8f142c0b9fc7d2e3","condition":"contingent","relevant_dimensions":["wings","legs"],"bee_group":{"antennae":"X","wings":"2","pattern":"X","legs":"F"},"bonus":0.08000000000000107},{"rt":999.5,"stimulus":"bees-with-color/bee-A1SM.svg","response":0,"trial_type":"image-button-response","trial_index":61,"time_elapsed":376958,"internal_node_id":"0.0-4.0-0.27","subject_id":"614a360a9ff931cef70c2a33","study_id":"6197b3f67c2b5cd3b6d9596a","session_id":"619beeeb8f142c0b9fc7d2e3","condition":"contingent","relevant_dimensions":["wings","legs"],"bee_group":{"antennae":"X","wings":"2","pattern":"X","legs":"F"},"action":"harvest","summary":"good-harvest","bonus":0.08000000000000107},{"rt":693.7999999970198,"stimulus":"\n                    <p><b>Action: <em>harvest</em></b></p>\n                    <p>This is the bee that you just saw.</p>\n                    <img src=\"bees-with-color/bee-A1SM.svg\" width=\"200\">\n                    <p><span class=\"greenText\"><b>Successful harvest!</b></span><br>Your pay has increased by $0.02. Your bonus pay is now $0.54.</p>\n            ","response":0,"trial_type":"html-button-response","trial_index":62,"time_elapsed":377655,"internal_node_id":"0.0-4.0-1.27","subject_id":"614a360a9ff931cef70c2a33","study_id":"6197b3f67c2b5cd3b6d9596a","session_id":"619beeeb8f142c0b9fc7d2e3","condition":"contingent","relevant_dimensions":["wings","legs"],"bee_group":{"antennae":"X","wings":"2","pattern":"X","legs":"F"},"bonus":0.08000000000000107},{"rt":998.5,"stimulus":"bees-with-color/bee-B2DF.svg","response":0,"trial_type":"image-button-response","trial_index":63,"time_elapsed":378656,"internal_node_id":"0.0-4.0-0.28","subject_id":"614a360a9ff931cef70c2a33","study_id":"6197b3f67c2b5cd3b6d9596a","session_id":"619beeeb8f142c0b9fc7d2e3","condition":"contingent","relevant_dimensions":["wings","legs"],"bee_group":{"antennae":"X","wings":"2","pattern":"X","legs":"F"},"action":"harvest","summary":"bad-harvest","bonus":0.08000000000000107},{"rt":1056,"stimulus":"\n                    <p><b>Action: <em>harvest</em></b></p>\n                    <p>This is the bee that you just saw.</p>\n                    <img src=\"bees-with-color/bee-B2DF.svg\" width=\"200\">\n                    <p><span class=\"redText\">Bad choice, the bee was angry.</span><br><b>You have been stung!</b><br>Your pay has been decreased by $0.10. Your bonus pay is now $0.44.</p>\n            ","response":0,"trial_type":"html-button-response","trial_index":64,"time_elapsed":379714,"internal_node_id":"0.0-4.0-1.28","subject_id":"614a360a9ff931cef70c2a33","study_id":"6197b3f67c2b5cd3b6d9596a","session_id":"619beeeb8f142c0b9fc7d2e3","condition":"contingent","relevant_dimensions":["wings","legs"],"bee_group":{"antennae":"X","wings":"2","pattern":"X","legs":"F"},"bonus":0.08000000000000107},{"rt":640.7000000029802,"stimulus":"bees-with-color/bee-B1DF.svg","response":1,"trial_type":"image-button-response","trial_index":65,"time_elapsed":380357,"internal_node_id":"0.0-4.0-0.29","subject_id":"614a360a9ff931cef70c2a33","study_id":"6197b3f67c2b5cd3b6d9596a","session_id":"619beeeb8f142c0b9fc7d2e3","condition":"contingent","relevant_dimensions":["wings","legs"],"bee_group":{"antennae":"X","wings":"2","pattern":"X","legs":"F"},"action":"avoid","summary":"bad-avoid","bonus":0.08000000000000107},{"rt":937.5999999940395,"stimulus":"\n                    <p><b>Action: <em>avoid</em></b></p>\n                    <p>This is the bee that you just saw.</p>\n                    <img src=\"bees-with-color/bee-B1DF.svg\" width=\"200\">\n                    <p><br>Your bonus pay is unchanged, and remains at $0.44.</p>\n            ","response":0,"trial_type":"html-button-response","trial_index":66,"time_elapsed":381296,"internal_node_id":"0.0-4.0-1.29","subject_id":"614a360a9ff931cef70c2a33","study_id":"6197b3f67c2b5cd3b6d9596a","session_id":"619beeeb8f142c0b9fc7d2e3","condition":"contingent","relevant_dimensions":["wings","legs"],"bee_group":{"antennae":"X","wings":"2","pattern":"X","legs":"F"},"bonus":0.08000000000000107},{"rt":889.2000000029802,"stimulus":"bees-with-color/bee-A2DM.svg","response":0,"trial_type":"image-button-response","trial_index":67,"time_elapsed":382187,"internal_node_id":"0.0-4.0-0.30","subject_id":"614a360a9ff931cef70c2a33","study_id":"6197b3f67c2b5cd3b6d9596a","session_id":"619beeeb8f142c0b9fc7d2e3","condition":"contingent","relevant_dimensions":["wings","legs"],"bee_group":{"antennae":"X","wings":"2","pattern":"X","legs":"F"},"action":"harvest","summary":"good-harvest","bonus":0.08000000000000107},{"rt":806.9000000059605,"stimulus":"\n                    <p><b>Action: <em>harvest</em></b></p>\n                    <p>This is the bee that you just saw.</p>\n                    <img src=\"bees-with-color/bee-A2DM.svg\" width=\"200\">\n                    <p><span class=\"greenText\"><b>Successful harvest!</b></span><br>Your pay has increased by $0.02. Your bonus pay is now $0.46.</p>\n            ","response":0,"trial_type":"html-button-response","trial_index":68,"time_elapsed":382996,"internal_node_id":"0.0-4.0-1.30","subject_id":"614a360a9ff931cef70c2a33","study_id":"6197b3f67c2b5cd3b6d9596a","session_id":"619beeeb8f142c0b9fc7d2e3","condition":"contingent","relevant_dimensions":["wings","legs"],"bee_group":{"antennae":"X","wings":"2","pattern":"X","legs":"F"},"bonus":0.08000000000000107},{"rt":757.7000000029802,"stimulus":"bees-with-color/bee-A2SM.svg","response":0,"trial_type":"image-button-response","trial_index":69,"time_elapsed":383755,"internal_node_id":"0.0-4.0-0.31","subject_id":"614a360a9ff931cef70c2a33","study_id":"6197b3f67c2b5cd3b6d9596a","session_id":"619beeeb8f142c0b9fc7d2e3","condition":"contingent","relevant_dimensions":["wings","legs"],"bee_group":{"antennae":"X","wings":"2","pattern":"X","legs":"F"},"action":"harvest","summary":"good-harvest","bonus":0.08000000000000107},{"rt":985.4000000059605,"stimulus":"\n                    <p><b>Action: <em>harvest</em></b></p>\n                    <p>This is the bee that you just saw.</p>\n                    <img src=\"bees-with-color/bee-A2SM.svg\" width=\"200\">\n                    <p><span class=\"greenText\"><b>Successful harvest!</b></span><br>Your pay has increased by $0.02. Your bonus pay is now $0.48.</p>\n            ","response":0,"trial_type":"html-button-response","trial_index":70,"time_elapsed":384743,"internal_node_id":"0.0-4.0-1.31","subject_id":"614a360a9ff931cef70c2a33","study_id":"6197b3f67c2b5cd3b6d9596a","session_id":"619beeeb8f142c0b9fc7d2e3","condition":"contingent","relevant_dimensions":["wings","legs"],"bee_group":{"antennae":"X","wings":"2","pattern":"X","legs":"F"},"bonus":0.08000000000000107},{"rt":607.2000000029802,"stimulus":"bees-with-color/bee-A2SM.svg","response":0,"trial_type":"image-button-response","trial_index":71,"time_elapsed":385352,"internal_node_id":"0.0-4.0-0.32","subject_id":"614a360a9ff931cef70c2a33","study_id":"6197b3f67c2b5cd3b6d9596a","session_id":"619beeeb8f142c0b9fc7d2e3","condition":"contingent","relevant_dimensions":["wings","legs"],"bee_group":{"antennae":"X","wings":"2","pattern":"X","legs":"F"},"action":"harvest","summary":"good-harvest","bonus":0.08000000000000107},{"rt":1248.7999999970198,"stimulus":"\n                    <p><b>Action: <em>harvest</em></b></p>\n                    <p>This is the bee that you just saw.</p>\n                    <img src=\"bees-with-color/bee-A2SM.svg\" width=\"200\">\n                    <p><span class=\"greenText\"><b>Successful harvest!</b></span><br>Your pay has increased by $0.02. Your bonus pay is now $0.50.</p>\n            ","response":0,"trial_type":"html-button-response","trial_index":72,"time_elapsed":386603,"internal_node_id":"0.0-4.0-1.32","subject_id":"614a360a9ff931cef70c2a33","study_id":"6197b3f67c2b5cd3b6d9596a","session_id":"619beeeb8f142c0b9fc7d2e3","condition":"contingent","relevant_dimensions":["wings","legs"],"bee_group":{"antennae":"X","wings":"2","pattern":"X","legs":"F"},"bonus":0.08000000000000107},{"rt":916.7999999970198,"stimulus":"bees-with-color/bee-A2SF.svg","response":0,"trial_type":"image-button-response","trial_index":73,"time_elapsed":387522,"internal_node_id":"0.0-4.0-0.33","subject_id":"614a360a9ff931cef70c2a33","study_id":"6197b3f67c2b5cd3b6d9596a","session_id":"619beeeb8f142c0b9fc7d2e3","condition":"contingent","relevant_dimensions":["wings","legs"],"bee_group":{"antennae":"X","wings":"2","pattern":"X","legs":"F"},"action":"harvest","summary":"bad-harvest","bonus":0.08000000000000107},{"rt":742.4000000059605,"stimulus":"\n                    <p><b>Action: <em>harvest</em></b></p>\n                    <p>This is the bee that you just saw.</p>\n                    <img src=\"bees-with-color/bee-A2SF.svg\" width=\"200\">\n                    <p><span class=\"redText\">Bad choice, the bee was angry.</span><br><b>You have been stung!</b><br>Your pay has been decreased by $0.10. Your bonus pay is now $0.40.</p>\n            ","response":0,"trial_type":"html-button-response","trial_index":74,"time_elapsed":388266,"internal_node_id":"0.0-4.0-1.33","subject_id":"614a360a9ff931cef70c2a33","study_id":"6197b3f67c2b5cd3b6d9596a","session_id":"619beeeb8f142c0b9fc7d2e3","condition":"contingent","relevant_dimensions":["wings","legs"],"bee_group":{"antennae":"X","wings":"2","pattern":"X","legs":"F"},"bonus":0.08000000000000107},{"rt":985.7000000029802,"stimulus":"bees-with-color/bee-B1DM.svg","response":0,"trial_type":"image-button-response","trial_index":75,"time_elapsed":389254,"internal_node_id":"0.0-4.0-0.34","subject_id":"614a360a9ff931cef70c2a33","study_id":"6197b3f67c2b5cd3b6d9596a","session_id":"619beeeb8f142c0b9fc7d2e3","condition":"contingent","relevant_dimensions":["wings","legs"],"bee_group":{"antennae":"X","wings":"2","pattern":"X","legs":"F"},"action":"harvest","summary":"good-harvest","bonus":0.08000000000000107},{"rt":1034.4000000059605,"stimulus":"\n                    <p><b>Action: <em>harvest</em></b></p>\n                    <p>This is the bee that you just saw.</p>\n                    <img src=\"bees-with-color/bee-B1DM.svg\" width=\"200\">\n                    <p><span class=\"greenText\"><b>Successful harvest!</b></span><br>Your pay has increased by $0.02. Your bonus pay is now $0.42.</p>\n            ","response":0,"trial_type":"html-button-response","trial_index":76,"time_elapsed":390291,"internal_node_id":"0.0-4.0-1.34","subject_id":"614a360a9ff931cef70c2a33","study_id":"6197b3f67c2b5cd3b6d9596a","session_id":"619beeeb8f142c0b9fc7d2e3","condition":"contingent","relevant_dimensions":["wings","legs"],"bee_group":{"antennae":"X","wings":"2","pattern":"X","legs":"F"},"bonus":0.08000000000000107},{"rt":626.8000000119209,"stimulus":"bees-with-color/bee-B1DF.svg","response":0,"trial_type":"image-button-response","trial_index":77,"time_elapsed":390920,"internal_node_id":"0.0-4.0-0.35","subject_id":"614a360a9ff931cef70c2a33","study_id":"6197b3f67c2b5cd3b6d9596a","session_id":"619beeeb8f142c0b9fc7d2e3","condition":"contingent","relevant_dimensions":["wings","legs"],"bee_group":{"antennae":"X","wings":"2","pattern":"X","legs":"F"},"action":"harvest","summary":"good-harvest","bonus":0.08000000000000107},{"rt":1305.6000000089407,"stimulus":"\n                    <p><b>Action: <em>harvest</em></b></p>\n                    <p>This is the bee that you just saw.</p>\n                    <img src=\"bees-with-color/bee-B1DF.svg\" width=\"200\">\n                    <p><span class=\"greenText\"><b>Successful harvest!</b></span><br>Your pay has increased by $0.02. Your bonus pay is now $0.44.</p>\n            ","response":0,"trial_type":"html-button-response","trial_index":78,"time_elapsed":392228,"internal_node_id":"0.0-4.0-1.35","subject_id":"614a360a9ff931cef70c2a33","study_id":"6197b3f67c2b5cd3b6d9596a","session_id":"619beeeb8f142c0b9fc7d2e3","condition":"contingent","relevant_dimensions":["wings","legs"],"bee_group":{"antennae":"X","wings":"2","pattern":"X","legs":"F"},"bonus":0.08000000000000107},{"rt":881.1999999880791,"stimulus":"bees-with-color/bee-A2DF.svg","response":0,"trial_type":"image-button-response","trial_index":79,"time_elapsed":393111,"internal_node_id":"0.0-4.0-0.36","subject_id":"614a360a9ff931cef70c2a33","study_id":"6197b3f67c2b5cd3b6d9596a","session_id":"619beeeb8f142c0b9fc7d2e3","condition":"contingent","relevant_dimensions":["wings","legs"],"bee_group":{"antennae":"X","wings":"2","pattern":"X","legs":"F"},"action":"harvest","summary":"bad-harvest","bonus":0.08000000000000107},{"rt":710.2000000029802,"stimulus":"\n                    <p><b>Action: <em>harvest</em></b></p>\n                    <p>This is the bee that you just saw.</p>\n                    <img src=\"bees-with-color/bee-A2DF.svg\" width=\"200\">\n                    <p><span class=\"redText\">Bad choice, the bee was angry.</span><br><b>You have been stung!</b><br>Your pay has been decreased by $0.10. Your bonus pay is now $0.34.</p>\n            ","response":0,"trial_type":"html-button-response","trial_index":80,"time_elapsed":393823,"internal_node_id":"0.0-4.0-1.36","subject_id":"614a360a9ff931cef70c2a33","study_id":"6197b3f67c2b5cd3b6d9596a","session_id":"619beeeb8f142c0b9fc7d2e3","condition":"contingent","relevant_dimensions":["wings","legs"],"bee_group":{"antennae":"X","wings":"2","pattern":"X","legs":"F"},"bonus":0.08000000000000107},{"rt":1081,"stimulus":"bees-with-color/bee-B1SF.svg","response":1,"trial_type":"image-button-response","trial_index":81,"time_elapsed":394907,"internal_node_id":"0.0-4.0-0.37","subject_id":"614a360a9ff931cef70c2a33","study_id":"6197b3f67c2b5cd3b6d9596a","session_id":"619beeeb8f142c0b9fc7d2e3","condition":"contingent","relevant_dimensions":["wings","legs"],"bee_group":{"antennae":"X","wings":"2","pattern":"X","legs":"F"},"action":"avoid","summary":"bad-avoid","bonus":0.08000000000000107},{"rt":709,"stimulus":"\n                    <p><b>Action: <em>avoid</em></b></p>\n                    <p>This is the bee that you just saw.</p>\n                    <img src=\"bees-with-color/bee-B1SF.svg\" width=\"200\">\n                    <p><br>Your bonus pay is unchanged, and remains at $0.34.</p>\n            ","response":0,"trial_type":"html-button-response","trial_index":82,"time_elapsed":395618,"internal_node_id":"0.0-4.0-1.37","subject_id":"614a360a9ff931cef70c2a33","study_id":"6197b3f67c2b5cd3b6d9596a","session_id":"619beeeb8f142c0b9fc7d2e3","condition":"contingent","relevant_dimensions":["wings","legs"],"bee_group":{"antennae":"X","wings":"2","pattern":"X","legs":"F"},"bonus":0.08000000000000107},{"rt":710.1000000089407,"stimulus":"bees-with-color/bee-B2DM.svg","response":0,"trial_type":"image-button-response","trial_index":83,"time_elapsed":396331,"internal_node_id":"0.0-4.0-0.38","subject_id":"614a360a9ff931cef70c2a33","study_id":"6197b3f67c2b5cd3b6d9596a","session_id":"619beeeb8f142c0b9fc7d2e3","condition":"contingent","relevant_dimensions":["wings","legs"],"bee_group":{"antennae":"X","wings":"2","pattern":"X","legs":"F"},"action":"harvest","summary":"good-harvest","bonus":0.08000000000000107},{"rt":750.3999999910593,"stimulus":"\n                    <p><b>Action: <em>harvest</em></b></p>\n                    <p>This is the bee that you just saw.</p>\n                    <img src=\"bees-with-color/bee-B2DM.svg\" width=\"200\">\n                    <p><span class=\"greenText\"><b>Successful harvest!</b></span><br>Your pay has increased by $0.02. Your bonus pay is now $0.36.</p>\n            ","response":0,"trial_type":"html-button-response","trial_index":84,"time_elapsed":397083,"internal_node_id":"0.0-4.0-1.38","subject_id":"614a360a9ff931cef70c2a33","study_id":"6197b3f67c2b5cd3b6d9596a","session_id":"619beeeb8f142c0b9fc7d2e3","condition":"contingent","relevant_dimensions":["wings","legs"],"bee_group":{"antennae":"X","wings":"2","pattern":"X","legs":"F"},"bonus":0.08000000000000107},{"rt":764.5999999940395,"stimulus":"bees-with-color/bee-A2DM.svg","response":0,"trial_type":"image-button-response","trial_index":85,"time_elapsed":397850,"internal_node_id":"0.0-4.0-0.39","subject_id":"614a360a9ff931cef70c2a33","study_id":"6197b3f67c2b5cd3b6d9596a","session_id":"619beeeb8f142c0b9fc7d2e3","condition":"contingent","relevant_dimensions":["wings","legs"],"bee_group":{"antennae":"X","wings":"2","pattern":"X","legs":"F"},"action":"harvest","summary":"good-harvest","bonus":0.08000000000000107},{"rt":700.5,"stimulus":"\n                    <p><b>Action: <em>harvest</em></b></p>\n                    <p>This is the bee that you just saw.</p>\n                    <img src=\"bees-with-color/bee-A2DM.svg\" width=\"200\">\n                    <p><span class=\"greenText\"><b>Successful harvest!</b></span><br>Your pay has increased by $0.02. Your bonus pay is now $0.38.</p>\n            ","response":0,"trial_type":"html-button-response","trial_index":86,"time_elapsed":398553,"internal_node_id":"0.0-4.0-1.39","subject_id":"614a360a9ff931cef70c2a33","study_id":"6197b3f67c2b5cd3b6d9596a","session_id":"619beeeb8f142c0b9fc7d2e3","condition":"contingent","relevant_dimensions":["wings","legs"],"bee_group":{"antennae":"X","wings":"2","pattern":"X","legs":"F"},"bonus":0.08000000000000107},{"rt":580,"stimulus":"bees-with-color/bee-B2SF.svg","response":0,"trial_type":"image-button-response","trial_index":87,"time_elapsed":399134,"internal_node_id":"0.0-4.0-0.40","subject_id":"614a360a9ff931cef70c2a33","study_id":"6197b3f67c2b5cd3b6d9596a","session_id":"619beeeb8f142c0b9fc7d2e3","condition":"contingent","relevant_dimensions":["wings","legs"],"bee_group":{"antennae":"X","wings":"2","pattern":"X","legs":"F"},"action":"harvest","summary":"bad-harvest","bonus":0.08000000000000107},{"rt":687.5,"stimulus":"\n                    <p><b>Action: <em>harvest</em></b></p>\n                    <p>This is the bee that you just saw.</p>\n                    <img src=\"bees-with-color/bee-B2SF.svg\" width=\"200\">\n                    <p><span class=\"redText\">Bad choice, the bee was angry.</span><br><b>You have been stung!</b><br>Your pay has been decreased by $0.10. Your bonus pay is now $0.28.</p>\n            ","response":0,"trial_type":"html-button-response","trial_index":88,"time_elapsed":399824,"internal_node_id":"0.0-4.0-1.40","subject_id":"614a360a9ff931cef70c2a33","study_id":"6197b3f67c2b5cd3b6d9596a","session_id":"619beeeb8f142c0b9fc7d2e3","condition":"contingent","relevant_dimensions":["wings","legs"],"bee_group":{"antennae":"X","wings":"2","pattern":"X","legs":"F"},"bonus":0.08000000000000107},{"rt":1559.3999999910593,"stimulus":"bees-with-color/bee-A1DF.svg","response":0,"trial_type":"image-button-response","trial_index":89,"time_elapsed":401386,"internal_node_id":"0.0-4.0-0.41","subject_id":"614a360a9ff931cef70c2a33","study_id":"6197b3f67c2b5cd3b6d9596a","session_id":"619beeeb8f142c0b9fc7d2e3","condition":"contingent","relevant_dimensions":["wings","legs"],"bee_group":{"antennae":"X","wings":"2","pattern":"X","legs":"F"},"action":"harvest","summary":"good-harvest","bonus":0.08000000000000107},{"rt":646.2000000029802,"stimulus":"\n                    <p><b>Action: <em>harvest</em></b></p>\n                    <p>This is the bee that you just saw.</p>\n                    <img src=\"bees-with-color/bee-A1DF.svg\" width=\"200\">\n                    <p><span class=\"greenText\"><b>Successful harvest!</b></span><br>Your pay has increased by $0.02. Your bonus pay is now $0.30.</p>\n            ","response":0,"trial_type":"html-button-response","trial_index":90,"time_elapsed":402034,"internal_node_id":"0.0-4.0-1.41","subject_id":"614a360a9ff931cef70c2a33","study_id":"6197b3f67c2b5cd3b6d9596a","session_id":"619beeeb8f142c0b9fc7d2e3","condition":"contingent","relevant_dimensions":["wings","legs"],"bee_group":{"antennae":"X","wings":"2","pattern":"X","legs":"F"},"bonus":0.08000000000000107},{"rt":674.5999999940395,"stimulus":"bees-with-color/bee-A1DM.svg","response":1,"trial_type":"image-button-response","trial_index":91,"time_elapsed":402712,"internal_node_id":"0.0-4.0-0.42","subject_id":"614a360a9ff931cef70c2a33","study_id":"6197b3f67c2b5cd3b6d9596a","session_id":"619beeeb8f142c0b9fc7d2e3","condition":"contingent","relevant_dimensions":["wings","legs"],"bee_group":{"antennae":"X","wings":"2","pattern":"X","legs":"F"},"action":"avoid","summary":"bad-avoid","bonus":0.08000000000000107},{"rt":950.2999999970198,"stimulus":"\n                    <p><b>Action: <em>avoid</em></b></p>\n                    <p>This is the bee that you just saw.</p>\n                    <img src=\"bees-with-color/bee-A1DM.svg\" width=\"200\">\n                    <p><br>Your bonus pay is unchanged, and remains at $0.30.</p>\n            ","response":0,"trial_type":"html-button-response","trial_index":92,"time_elapsed":403664,"internal_node_id":"0.0-4.0-1.42","subject_id":"614a360a9ff931cef70c2a33","study_id":"6197b3f67c2b5cd3b6d9596a","session_id":"619beeeb8f142c0b9fc7d2e3","condition":"contingent","relevant_dimensions":["wings","legs"],"bee_group":{"antennae":"X","wings":"2","pattern":"X","legs":"F"},"bonus":0.08000000000000107},{"rt":889,"stimulus":"bees-with-color/bee-B1SM.svg","response":0,"trial_type":"image-button-response","trial_index":93,"time_elapsed":404556,"internal_node_id":"0.0-4.0-0.43","subject_id":"614a360a9ff931cef70c2a33","study_id":"6197b3f67c2b5cd3b6d9596a","session_id":"619beeeb8f142c0b9fc7d2e3","condition":"contingent","relevant_dimensions":["wings","legs"],"bee_group":{"antennae":"X","wings":"2","pattern":"X","legs":"F"},"action":"harvest","summary":"good-harvest","bonus":0.08000000000000107},{"rt":569.5,"stimulus":"\n                    <p><b>Action: <em>harvest</em></b></p>\n                    <p>This is the bee that you just saw.</p>\n                    <img src=\"bees-with-color/bee-B1SM.svg\" width=\"200\">\n                    <p><span class=\"greenText\"><b>Successful harvest!</b></span><br>Your pay has increased by $0.02. Your bonus pay is now $0.32.</p>\n            ","response":0,"trial_type":"html-button-response","trial_index":94,"time_elapsed":405127,"internal_node_id":"0.0-4.0-1.43","subject_id":"614a360a9ff931cef70c2a33","study_id":"6197b3f67c2b5cd3b6d9596a","session_id":"619beeeb8f142c0b9fc7d2e3","condition":"contingent","relevant_dimensions":["wings","legs"],"bee_group":{"antennae":"X","wings":"2","pattern":"X","legs":"F"},"bonus":0.08000000000000107},{"rt":1272.5,"stimulus":"bees-with-color/bee-A1SF.svg","response":0,"trial_type":"image-button-response","trial_index":95,"time_elapsed":406402,"internal_node_id":"0.0-4.0-0.44","subject_id":"614a360a9ff931cef70c2a33","study_id":"6197b3f67c2b5cd3b6d9596a","session_id":"619beeeb8f142c0b9fc7d2e3","condition":"contingent","relevant_dimensions":["wings","legs"],"bee_group":{"antennae":"X","wings":"2","pattern":"X","legs":"F"},"action":"harvest","summary":"good-harvest","bonus":0.08000000000000107},{"rt":578.3999999910593,"stimulus":"\n                    <p><b>Action: <em>harvest</em></b></p>\n                    <p>This is the bee that you just saw.</p>\n                    <img src=\"bees-with-color/bee-A1SF.svg\" width=\"200\">\n                    <p><span class=\"greenText\"><b>Successful harvest!</b></span><br>Your pay has increased by $0.02. Your bonus pay is now $0.34.</p>\n            ","response":0,"trial_type":"html-button-response","trial_index":96,"time_elapsed":406983,"internal_node_id":"0.0-4.0-1.44","subject_id":"614a360a9ff931cef70c2a33","study_id":"6197b3f67c2b5cd3b6d9596a","session_id":"619beeeb8f142c0b9fc7d2e3","condition":"contingent","relevant_dimensions":["wings","legs"],"bee_group":{"antennae":"X","wings":"2","pattern":"X","legs":"F"},"bonus":0.08000000000000107},{"rt":944.2000000029802,"stimulus":"bees-with-color/bee-A1SM.svg","response":0,"trial_type":"image-button-response","trial_index":97,"time_elapsed":407930,"internal_node_id":"0.0-4.0-0.45","subject_id":"614a360a9ff931cef70c2a33","study_id":"6197b3f67c2b5cd3b6d9596a","session_id":"619beeeb8f142c0b9fc7d2e3","condition":"contingent","relevant_dimensions":["wings","legs"],"bee_group":{"antennae":"X","wings":"2","pattern":"X","legs":"F"},"action":"harvest","summary":"good-harvest","bonus":0.08000000000000107},{"rt":583.5,"stimulus":"\n                    <p><b>Action: <em>harvest</em></b></p>\n                    <p>This is the bee that you just saw.</p>\n                    <img src=\"bees-with-color/bee-A1SM.svg\" width=\"200\">\n                    <p><span class=\"greenText\"><b>Successful harvest!</b></span><br>Your pay has increased by $0.02. Your bonus pay is now $0.36.</p>\n            ","response":0,"trial_type":"html-button-response","trial_index":98,"time_elapsed":408516,"internal_node_id":"0.0-4.0-1.45","subject_id":"614a360a9ff931cef70c2a33","study_id":"6197b3f67c2b5cd3b6d9596a","session_id":"619beeeb8f142c0b9fc7d2e3","condition":"contingent","relevant_dimensions":["wings","legs"],"bee_group":{"antennae":"X","wings":"2","pattern":"X","legs":"F"},"bonus":0.08000000000000107},{"rt":743.9000000059605,"stimulus":"bees-with-color/bee-B2DF.svg","response":0,"trial_type":"image-button-response","trial_index":99,"time_elapsed":409262,"internal_node_id":"0.0-4.0-0.46","subject_id":"614a360a9ff931cef70c2a33","study_id":"6197b3f67c2b5cd3b6d9596a","session_id":"619beeeb8f142c0b9fc7d2e3","condition":"contingent","relevant_dimensions":["wings","legs"],"bee_group":{"antennae":"X","wings":"2","pattern":"X","legs":"F"},"action":"harvest","summary":"bad-harvest","bonus":0.08000000000000107},{"rt":652.7999999970198,"stimulus":"\n                    <p><b>Action: <em>harvest</em></b></p>\n                    <p>This is the bee that you just saw.</p>\n                    <img src=\"bees-with-color/bee-B2DF.svg\" width=\"200\">\n                    <p><span class=\"redText\">Bad choice, the bee was angry.</span><br><b>You have been stung!</b><br>Your pay has been decreased by $0.10. Your bonus pay is now $0.26.</p>\n            ","response":0,"trial_type":"html-button-response","trial_index":100,"time_elapsed":409918,"internal_node_id":"0.0-4.0-1.46","subject_id":"614a360a9ff931cef70c2a33","study_id":"6197b3f67c2b5cd3b6d9596a","session_id":"619beeeb8f142c0b9fc7d2e3","condition":"contingent","relevant_dimensions":["wings","legs"],"bee_group":{"antennae":"X","wings":"2","pattern":"X","legs":"F"},"bonus":0.08000000000000107},{"rt":931.4000000059605,"stimulus":"bees-with-color/bee-B2SM.svg","response":0,"trial_type":"image-button-response","trial_index":101,"time_elapsed":410851,"internal_node_id":"0.0-4.0-0.47","subject_id":"614a360a9ff931cef70c2a33","study_id":"6197b3f67c2b5cd3b6d9596a","session_id":"619beeeb8f142c0b9fc7d2e3","condition":"contingent","relevant_dimensions":["wings","legs"],"bee_group":{"antennae":"X","wings":"2","pattern":"X","legs":"F"},"action":"harvest","summary":"good-harvest","bonus":0.08000000000000107},{"rt":1397.2000000029802,"stimulus":"\n                    <p><b>Action: <em>harvest</em></b></p>\n                    <p>This is the bee that you just saw.</p>\n                    <img src=\"bees-with-color/bee-B2SM.svg\" width=\"200\">\n                    <p><span class=\"greenText\"><b>Successful harvest!</b></span><br>Your pay has increased by $0.02. Your bonus pay is now $0.28.</p>\n            ","response":0,"trial_type":"html-button-response","trial_index":102,"time_elapsed":412251,"internal_node_id":"0.0-4.0-1.47","subject_id":"614a360a9ff931cef70c2a33","study_id":"6197b3f67c2b5cd3b6d9596a","session_id":"619beeeb8f142c0b9fc7d2e3","condition":"contingent","relevant_dimensions":["wings","legs"],"bee_group":{"antennae":"X","wings":"2","pattern":"X","legs":"F"},"bonus":0.08000000000000107},{"rt":951.5,"stimulus":"bees-with-color/bee-A2DM.svg","response":1,"trial_type":"image-button-response","trial_index":103,"time_elapsed":413205,"internal_node_id":"0.0-4.0-0.48","subject_id":"614a360a9ff931cef70c2a33","study_id":"6197b3f67c2b5cd3b6d9596a","session_id":"619beeeb8f142c0b9fc7d2e3","condition":"contingent","relevant_dimensions":["wings","legs"],"bee_group":{"antennae":"X","wings":"2","pattern":"X","legs":"F"},"action":"avoid","summary":"bad-avoid","bonus":0.08000000000000107},{"rt":903.0999999940395,"stimulus":"\n                    <p><b>Action: <em>avoid</em></b></p>\n                    <p>This is the bee that you just saw.</p>\n                    <img src=\"bees-with-color/bee-A2DM.svg\" width=\"200\">\n                    <p><br>Your bonus pay is unchanged, and remains at $0.28.</p>\n            ","response":0,"trial_type":"html-button-response","trial_index":104,"time_elapsed":414110,"internal_node_id":"0.0-4.0-1.48","subject_id":"614a360a9ff931cef70c2a33","study_id":"6197b3f67c2b5cd3b6d9596a","session_id":"619beeeb8f142c0b9fc7d2e3","condition":"contingent","relevant_dimensions":["wings","legs"],"bee_group":{"antennae":"X","wings":"2","pattern":"X","legs":"F"},"bonus":0.08000000000000107},{"rt":578.1000000089407,"stimulus":"bees-with-color/bee-B2DM.svg","response":0,"trial_type":"image-button-response","trial_index":105,"time_elapsed":414690,"internal_node_id":"0.0-4.0-0.49","subject_id":"614a360a9ff931cef70c2a33","study_id":"6197b3f67c2b5cd3b6d9596a","session_id":"619beeeb8f142c0b9fc7d2e3","condition":"contingent","relevant_dimensions":["wings","legs"],"bee_group":{"antennae":"X","wings":"2","pattern":"X","legs":"F"},"action":"harvest","summary":"good-harvest","bonus":0.08000000000000107},{"rt":682.2000000029802,"stimulus":"\n                    <p><b>Action: <em>harvest</em></b></p>\n                    <p>This is the bee that you just saw.</p>\n                    <img src=\"bees-with-color/bee-B2DM.svg\" width=\"200\">\n                    <p><span class=\"greenText\"><b>Successful harvest!</b></span><br>Your pay has increased by $0.02. Your bonus pay is now $0.30.</p>\n            ","response":0,"trial_type":"html-button-response","trial_index":106,"time_elapsed":415374,"internal_node_id":"0.0-4.0-1.49","subject_id":"614a360a9ff931cef70c2a33","study_id":"6197b3f67c2b5cd3b6d9596a","session_id":"619beeeb8f142c0b9fc7d2e3","condition":"contingent","relevant_dimensions":["wings","legs"],"bee_group":{"antennae":"X","wings":"2","pattern":"X","legs":"F"},"bonus":0.08000000000000107},{"rt":584.9000000059605,"stimulus":"bees-with-color/bee-A2SM.svg","response":0,"trial_type":"image-button-response","trial_index":107,"time_elapsed":415961,"internal_node_id":"0.0-4.0-0.50","subject_id":"614a360a9ff931cef70c2a33","study_id":"6197b3f67c2b5cd3b6d9596a","session_id":"619beeeb8f142c0b9fc7d2e3","condition":"contingent","relevant_dimensions":["wings","legs"],"bee_group":{"antennae":"X","wings":"2","pattern":"X","legs":"F"},"action":"harvest","summary":"good-harvest","bonus":0.08000000000000107},{"rt":612.7999999970198,"stimulus":"\n                    <p><b>Action: <em>harvest</em></b></p>\n                    <p>This is the bee that you just saw.</p>\n                    <img src=\"bees-with-color/bee-A2SM.svg\" width=\"200\">\n                    <p><span class=\"greenText\"><b>Successful harvest!</b></span><br>Your pay has increased by $0.02. Your bonus pay is now $0.32.</p>\n            ","response":0,"trial_type":"html-button-response","trial_index":108,"time_elapsed":416576,"internal_node_id":"0.0-4.0-1.50","subject_id":"614a360a9ff931cef70c2a33","study_id":"6197b3f67c2b5cd3b6d9596a","session_id":"619beeeb8f142c0b9fc7d2e3","condition":"contingent","relevant_dimensions":["wings","legs"],"bee_group":{"antennae":"X","wings":"2","pattern":"X","legs":"F"},"bonus":0.08000000000000107},{"rt":562.7999999970198,"stimulus":"bees-with-color/bee-B1SF.svg","response":0,"trial_type":"image-button-response","trial_index":109,"time_elapsed":417140,"internal_node_id":"0.0-4.0-0.51","subject_id":"614a360a9ff931cef70c2a33","study_id":"6197b3f67c2b5cd3b6d9596a","session_id":"619beeeb8f142c0b9fc7d2e3","condition":"contingent","relevant_dimensions":["wings","legs"],"bee_group":{"antennae":"X","wings":"2","pattern":"X","legs":"F"},"action":"harvest","summary":"good-harvest","bonus":0.08000000000000107},{"rt":710.2000000029802,"stimulus":"\n                    <p><b>Action: <em>harvest</em></b></p>\n                    <p>This is the bee that you just saw.</p>\n                    <img src=\"bees-with-color/bee-B1SF.svg\" width=\"200\">\n                    <p><span class=\"greenText\"><b>Successful harvest!</b></span><br>Your pay has increased by $0.02. Your bonus pay is now $0.34.</p>\n            ","response":0,"trial_type":"html-button-response","trial_index":110,"time_elapsed":417853,"internal_node_id":"0.0-4.0-1.51","subject_id":"614a360a9ff931cef70c2a33","study_id":"6197b3f67c2b5cd3b6d9596a","session_id":"619beeeb8f142c0b9fc7d2e3","condition":"contingent","relevant_dimensions":["wings","legs"],"bee_group":{"antennae":"X","wings":"2","pattern":"X","legs":"F"},"bonus":0.08000000000000107},{"rt":1165.5,"stimulus":"bees-with-color/bee-B1DM.svg","response":0,"trial_type":"image-button-response","trial_index":111,"time_elapsed":419020,"internal_node_id":"0.0-4.0-0.52","subject_id":"614a360a9ff931cef70c2a33","study_id":"6197b3f67c2b5cd3b6d9596a","session_id":"619beeeb8f142c0b9fc7d2e3","condition":"contingent","relevant_dimensions":["wings","legs"],"bee_group":{"antennae":"X","wings":"2","pattern":"X","legs":"F"},"action":"harvest","summary":"good-harvest","bonus":0.08000000000000107},{"rt":612.7000000029802,"stimulus":"\n                    <p><b>Action: <em>harvest</em></b></p>\n                    <p>This is the bee that you just saw.</p>\n                    <img src=\"bees-with-color/bee-B1DM.svg\" width=\"200\">\n                    <p><span class=\"greenText\"><b>Successful harvest!</b></span><br>Your pay has increased by $0.02. Your bonus pay is now $0.36.</p>\n            ","response":0,"trial_type":"html-button-response","trial_index":112,"time_elapsed":419636,"internal_node_id":"0.0-4.0-1.52","subject_id":"614a360a9ff931cef70c2a33","study_id":"6197b3f67c2b5cd3b6d9596a","session_id":"619beeeb8f142c0b9fc7d2e3","condition":"contingent","relevant_dimensions":["wings","legs"],"bee_group":{"antennae":"X","wings":"2","pattern":"X","legs":"F"},"bonus":0.08000000000000107},{"rt":578,"stimulus":"bees-with-color/bee-B2SF.svg","response":1,"trial_type":"image-button-response","trial_index":113,"time_elapsed":420215,"internal_node_id":"0.0-4.0-0.53","subject_id":"614a360a9ff931cef70c2a33","study_id":"6197b3f67c2b5cd3b6d9596a","session_id":"619beeeb8f142c0b9fc7d2e3","condition":"contingent","relevant_dimensions":["wings","legs"],"bee_group":{"antennae":"X","wings":"2","pattern":"X","legs":"F"},"action":"avoid","summary":"good-avoid","bonus":0.08000000000000107},{"rt":729.1000000089407,"stimulus":"\n                    <p><b>Action: <em>avoid</em></b></p>\n                    <p>This is the bee that you just saw.</p>\n                    <img src=\"bees-with-color/bee-B2SF.svg\" width=\"200\">\n                    <p><br>Your bonus pay is unchanged, and remains at $0.36.</p>\n            ","response":0,"trial_type":"html-button-response","trial_index":114,"time_elapsed":420947,"internal_node_id":"0.0-4.0-1.53","subject_id":"614a360a9ff931cef70c2a33","study_id":"6197b3f67c2b5cd3b6d9596a","session_id":"619beeeb8f142c0b9fc7d2e3","condition":"contingent","relevant_dimensions":["wings","legs"],"bee_group":{"antennae":"X","wings":"2","pattern":"X","legs":"F"},"bonus":0.08000000000000107},{"rt":1042.699999988079,"stimulus":"bees-with-color/bee-A1DM.svg","response":1,"trial_type":"image-button-response","trial_index":115,"time_elapsed":421991,"internal_node_id":"0.0-4.0-0.54","subject_id":"614a360a9ff931cef70c2a33","study_id":"6197b3f67c2b5cd3b6d9596a","session_id":"619beeeb8f142c0b9fc7d2e3","condition":"contingent","relevant_dimensions":["wings","legs"],"bee_group":{"antennae":"X","wings":"2","pattern":"X","legs":"F"},"action":"avoid","summary":"bad-avoid","bonus":0.08000000000000107},{"rt":529.7999999970198,"stimulus":"\n                    <p><b>Action: <em>avoid</em></b></p>\n                    <p>This is the bee that you just saw.</p>\n                    <img src=\"bees-with-color/bee-A1DM.svg\" width=\"200\">\n                    <p><br>Your bonus pay is unchanged, and remains at $0.36.</p>\n            ","response":0,"trial_type":"html-button-response","trial_index":116,"time_elapsed":422523,"internal_node_id":"0.0-4.0-1.54","subject_id":"614a360a9ff931cef70c2a33","study_id":"6197b3f67c2b5cd3b6d9596a","session_id":"619beeeb8f142c0b9fc7d2e3","condition":"contingent","relevant_dimensions":["wings","legs"],"bee_group":{"antennae":"X","wings":"2","pattern":"X","legs":"F"},"bonus":0.08000000000000107},{"rt":1144.7999999970198,"stimulus":"bees-with-color/bee-B2DF.svg","response":0,"trial_type":"image-button-response","trial_index":117,"time_elapsed":423670,"internal_node_id":"0.0-4.0-0.55","subject_id":"614a360a9ff931cef70c2a33","study_id":"6197b3f67c2b5cd3b6d9596a","session_id":"619beeeb8f142c0b9fc7d2e3","condition":"contingent","relevant_dimensions":["wings","legs"],"bee_group":{"antennae":"X","wings":"2","pattern":"X","legs":"F"},"action":"harvest","summary":"bad-harvest","bonus":0.08000000000000107},{"rt":861.5999999940395,"stimulus":"\n                    <p><b>Action: <em>harvest</em></b></p>\n                    <p>This is the bee that you just saw.</p>\n                    <img src=\"bees-with-color/bee-B2DF.svg\" width=\"200\">\n                    <p><span class=\"redText\">Bad choice, the bee was angry.</span><br><b>You have been stung!</b><br>Your pay has been decreased by $0.10. Your bonus pay is now $0.26.</p>\n            ","response":0,"trial_type":"html-button-response","trial_index":118,"time_elapsed":424534,"internal_node_id":"0.0-4.0-1.55","subject_id":"614a360a9ff931cef70c2a33","study_id":"6197b3f67c2b5cd3b6d9596a","session_id":"619beeeb8f142c0b9fc7d2e3","condition":"contingent","relevant_dimensions":["wings","legs"],"bee_group":{"antennae":"X","wings":"2","pattern":"X","legs":"F"},"bonus":0.08000000000000107},{"rt":976.4000000059605,"stimulus":"bees-with-color/bee-A1SF.svg","response":0,"trial_type":"image-button-response","trial_index":119,"time_elapsed":425512,"internal_node_id":"0.0-4.0-0.56","subject_id":"614a360a9ff931cef70c2a33","study_id":"6197b3f67c2b5cd3b6d9596a","session_id":"619beeeb8f142c0b9fc7d2e3","condition":"contingent","relevant_dimensions":["wings","legs"],"bee_group":{"antennae":"X","wings":"2","pattern":"X","legs":"F"},"action":"harvest","summary":"good-harvest","bonus":0.08000000000000107},{"rt":695,"stimulus":"\n                    <p><b>Action: <em>harvest</em></b></p>\n                    <p>This is the bee that you just saw.</p>\n                    <img src=\"bees-with-color/bee-A1SF.svg\" width=\"200\">\n                    <p><span class=\"greenText\"><b>Successful harvest!</b></span><br>Your pay has increased by $0.02. Your bonus pay is now $0.28.</p>\n            ","response":0,"trial_type":"html-button-response","trial_index":120,"time_elapsed":426210,"internal_node_id":"0.0-4.0-1.56","subject_id":"614a360a9ff931cef70c2a33","study_id":"6197b3f67c2b5cd3b6d9596a","session_id":"619beeeb8f142c0b9fc7d2e3","condition":"contingent","relevant_dimensions":["wings","legs"],"bee_group":{"antennae":"X","wings":"2","pattern":"X","legs":"F"},"bonus":0.08000000000000107},{"rt":667.0999999940395,"stimulus":"bees-with-color/bee-A1SM.svg","response":0,"trial_type":"image-button-response","trial_index":121,"time_elapsed":426879,"internal_node_id":"0.0-4.0-0.57","subject_id":"614a360a9ff931cef70c2a33","study_id":"6197b3f67c2b5cd3b6d9596a","session_id":"619beeeb8f142c0b9fc7d2e3","condition":"contingent","relevant_dimensions":["wings","legs"],"bee_group":{"antennae":"X","wings":"2","pattern":"X","legs":"F"},"action":"harvest","summary":"good-harvest","bonus":0.08000000000000107},{"rt":786.7999999970198,"stimulus":"\n                    <p><b>Action: <em>harvest</em></b></p>\n                    <p>This is the bee that you just saw.</p>\n                    <img src=\"bees-with-color/bee-A1SM.svg\" width=\"200\">\n                    <p><span class=\"greenText\"><b>Successful harvest!</b></span><br>Your pay has increased by $0.02. Your bonus pay is now $0.30.</p>\n            ","response":0,"trial_type":"html-button-response","trial_index":122,"time_elapsed":427668,"internal_node_id":"0.0-4.0-1.57","subject_id":"614a360a9ff931cef70c2a33","study_id":"6197b3f67c2b5cd3b6d9596a","session_id":"619beeeb8f142c0b9fc7d2e3","condition":"contingent","relevant_dimensions":["wings","legs"],"bee_group":{"antennae":"X","wings":"2","pattern":"X","legs":"F"},"bonus":0.08000000000000107},{"rt":675.2000000029802,"stimulus":"bees-with-color/bee-B1SM.svg","response":0,"trial_type":"image-button-response","trial_index":123,"time_elapsed":428345,"internal_node_id":"0.0-4.0-0.58","subject_id":"614a360a9ff931cef70c2a33","study_id":"6197b3f67c2b5cd3b6d9596a","session_id":"619beeeb8f142c0b9fc7d2e3","condition":"contingent","relevant_dimensions":["wings","legs"],"bee_group":{"antennae":"X","wings":"2","pattern":"X","legs":"F"},"action":"harvest","summary":"good-harvest","bonus":0.08000000000000107},{"rt":619.5,"stimulus":"\n                    <p><b>Action: <em>harvest</em></b></p>\n                    <p>This is the bee that you just saw.</p>\n                    <img src=\"bees-with-color/bee-B1SM.svg\" width=\"200\">\n                    <p><span class=\"greenText\"><b>Successful harvest!</b></span><br>Your pay has increased by $0.02. Your bonus pay is now $0.32.</p>\n            ","response":0,"trial_type":"html-button-response","trial_index":124,"time_elapsed":428967,"internal_node_id":"0.0-4.0-1.58","subject_id":"614a360a9ff931cef70c2a33","study_id":"6197b3f67c2b5cd3b6d9596a","session_id":"619beeeb8f142c0b9fc7d2e3","condition":"contingent","relevant_dimensions":["wings","legs"],"bee_group":{"antennae":"X","wings":"2","pattern":"X","legs":"F"},"bonus":0.08000000000000107},{"rt":558,"stimulus":"bees-with-color/bee-B1DF.svg","response":0,"trial_type":"image-button-response","trial_index":125,"time_elapsed":429527,"internal_node_id":"0.0-4.0-0.59","subject_id":"614a360a9ff931cef70c2a33","study_id":"6197b3f67c2b5cd3b6d9596a","session_id":"619beeeb8f142c0b9fc7d2e3","condition":"contingent","relevant_dimensions":["wings","legs"],"bee_group":{"antennae":"X","wings":"2","pattern":"X","legs":"F"},"action":"harvest","summary":"good-harvest","bonus":0.08000000000000107},{"rt":639.9000000059605,"stimulus":"\n                    <p><b>Action: <em>harvest</em></b></p>\n                    <p>This is the bee that you just saw.</p>\n                    <img src=\"bees-with-color/bee-B1DF.svg\" width=\"200\">\n                    <p><span class=\"greenText\"><b>Successful harvest!</b></span><br>Your pay has increased by $0.02. Your bonus pay is now $0.34.</p>\n            ","response":0,"trial_type":"html-button-response","trial_index":126,"time_elapsed":430169,"internal_node_id":"0.0-4.0-1.59","subject_id":"614a360a9ff931cef70c2a33","study_id":"6197b3f67c2b5cd3b6d9596a","session_id":"619beeeb8f142c0b9fc7d2e3","condition":"contingent","relevant_dimensions":["wings","legs"],"bee_group":{"antennae":"X","wings":"2","pattern":"X","legs":"F"},"bonus":0.08000000000000107},{"rt":1027.4000000059605,"stimulus":"bees-with-color/bee-A2DF.svg","response":1,"trial_type":"image-button-response","trial_index":127,"time_elapsed":431199,"internal_node_id":"0.0-4.0-0.60","subject_id":"614a360a9ff931cef70c2a33","study_id":"6197b3f67c2b5cd3b6d9596a","session_id":"619beeeb8f142c0b9fc7d2e3","condition":"contingent","relevant_dimensions":["wings","legs"],"bee_group":{"antennae":"X","wings":"2","pattern":"X","legs":"F"},"action":"avoid","summary":"good-avoid","bonus":0.08000000000000107},{"rt":619.2000000029802,"stimulus":"\n                    <p><b>Action: <em>avoid</em></b></p>\n                    <p>This is the bee that you just saw.</p>\n                    <img src=\"bees-with-color/bee-A2DF.svg\" width=\"200\">\n                    <p><br>Your bonus pay is unchanged, and remains at $0.34.</p>\n            ","response":0,"trial_type":"html-button-response","trial_index":128,"time_elapsed":431820,"internal_node_id":"0.0-4.0-1.60","subject_id":"614a360a9ff931cef70c2a33","study_id":"6197b3f67c2b5cd3b6d9596a","session_id":"619beeeb8f142c0b9fc7d2e3","condition":"contingent","relevant_dimensions":["wings","legs"],"bee_group":{"antennae":"X","wings":"2","pattern":"X","legs":"F"},"bonus":0.08000000000000107},{"rt":640.5,"stimulus":"bees-with-color/bee-A1DF.svg","response":0,"trial_type":"image-button-response","trial_index":129,"time_elapsed":432463,"internal_node_id":"0.0-4.0-0.61","subject_id":"614a360a9ff931cef70c2a33","study_id":"6197b3f67c2b5cd3b6d9596a","session_id":"619beeeb8f142c0b9fc7d2e3","condition":"contingent","relevant_dimensions":["wings","legs"],"bee_group":{"antennae":"X","wings":"2","pattern":"X","legs":"F"},"action":"harvest","summary":"good-harvest","bonus":0.08000000000000107},{"rt":667.6999999880791,"stimulus":"\n                    <p><b>Action: <em>harvest</em></b></p>\n                    <p>This is the bee that you just saw.</p>\n                    <img src=\"bees-with-color/bee-A1DF.svg\" width=\"200\">\n                    <p><span class=\"greenText\"><b>Successful harvest!</b></span><br>Your pay has increased by $0.02. Your bonus pay is now $0.36.</p>\n            ","response":0,"trial_type":"html-button-response","trial_index":130,"time_elapsed":433133,"internal_node_id":"0.0-4.0-1.61","subject_id":"614a360a9ff931cef70c2a33","study_id":"6197b3f67c2b5cd3b6d9596a","session_id":"619beeeb8f142c0b9fc7d2e3","condition":"contingent","relevant_dimensions":["wings","legs"],"bee_group":{"antennae":"X","wings":"2","pattern":"X","legs":"F"},"bonus":0.08000000000000107},{"rt":965.0999999940395,"stimulus":"bees-with-color/bee-A2SF.svg","response":1,"trial_type":"image-button-response","trial_index":131,"time_elapsed":434100,"internal_node_id":"0.0-4.0-0.62","subject_id":"614a360a9ff931cef70c2a33","study_id":"6197b3f67c2b5cd3b6d9596a","session_id":"619beeeb8f142c0b9fc7d2e3","condition":"contingent","relevant_dimensions":["wings","legs"],"bee_group":{"antennae":"X","wings":"2","pattern":"X","legs":"F"},"action":"avoid","summary":"good-avoid","bonus":0.08000000000000107},{"rt":626.2999999970198,"stimulus":"\n                    <p><b>Action: <em>avoid</em></b></p>\n                    <p>This is the bee that you just saw.</p>\n                    <img src=\"bees-with-color/bee-A2SF.svg\" width=\"200\">\n                    <p><br>Your bonus pay is unchanged, and remains at $0.36.</p>\n            ","response":0,"trial_type":"html-button-response","trial_index":132,"time_elapsed":434729,"internal_node_id":"0.0-4.0-1.62","subject_id":"614a360a9ff931cef70c2a33","study_id":"6197b3f67c2b5cd3b6d9596a","session_id":"619beeeb8f142c0b9fc7d2e3","condition":"contingent","relevant_dimensions":["wings","legs"],"bee_group":{"antennae":"X","wings":"2","pattern":"X","legs":"F"},"bonus":0.08000000000000107},{"rt":1787.300000011921,"stimulus":"bees-with-color/bee-B2SM.svg","response":0,"trial_type":"image-button-response","trial_index":133,"time_elapsed":436518,"internal_node_id":"0.0-4.0-0.63","subject_id":"614a360a9ff931cef70c2a33","study_id":"6197b3f67c2b5cd3b6d9596a","session_id":"619beeeb8f142c0b9fc7d2e3","condition":"contingent","relevant_dimensions":["wings","legs"],"bee_group":{"antennae":"X","wings":"2","pattern":"X","legs":"F"},"action":"harvest","summary":"good-harvest","bonus":0.08000000000000107},{"rt":2025.9000000059605,"stimulus":"\n                    <p><b>Action: <em>harvest</em></b></p>\n                    <p>This is the bee that you just saw.</p>\n                    <img src=\"bees-with-color/bee-B2SM.svg\" width=\"200\">\n                    <p><span class=\"greenText\"><b>Successful harvest!</b></span><br>Your pay has increased by $0.02. Your bonus pay is now $0.38.</p>\n            ","response":0,"trial_type":"html-button-response","trial_index":134,"time_elapsed":438547,"internal_node_id":"0.0-4.0-1.63","subject_id":"614a360a9ff931cef70c2a33","study_id":"6197b3f67c2b5cd3b6d9596a","session_id":"619beeeb8f142c0b9fc7d2e3","condition":"contingent","relevant_dimensions":["wings","legs"],"bee_group":{"antennae":"X","wings":"2","pattern":"X","legs":"F"},"bonus":0.08000000000000107},{"rt":7386.9000000059605,"stimulus":"You have completed the first part of this experiment.<br><br>You will now begin a shorter second part, in which you will receive no feedback.<br>The same rules regarding bonus pay apply.<br><br>Press any key to begin.","response":"b","trial_type":"html-keyboard-response","trial_index":135,"time_elapsed":445936,"internal_node_id":"0.0-5.0","subject_id":"614a360a9ff931cef70c2a33","study_id":"6197b3f67c2b5cd3b6d9596a","session_id":"619beeeb8f142c0b9fc7d2e3","condition":"contingent","relevant_dimensions":["wings","legs"],"bee_group":{"antennae":"X","wings":"2","pattern":"X","legs":"F"},"bonus":0.08000000000000107},{"rt":4129.800000011921,"stimulus":"bees-with-color/bee-A1SF.svg","response":0,"trial_type":"image-button-response","trial_index":136,"time_elapsed":450075,"internal_node_id":"0.0-6.0-0.0","subject_id":"614a360a9ff931cef70c2a33","study_id":"6197b3f67c2b5cd3b6d9596a","session_id":"619beeeb8f142c0b9fc7d2e3","condition":"contingent","relevant_dimensions":["wings","legs"],"bee_group":{"antennae":"X","wings":"2","pattern":"X","legs":"F"},"bonus":0.08000000000000107},{"rt":1370,"stimulus":"bees-with-color/bee-B2SF.svg","response":1,"trial_type":"image-button-response","trial_index":137,"time_elapsed":451449,"internal_node_id":"0.0-6.0-0.1","subject_id":"614a360a9ff931cef70c2a33","study_id":"6197b3f67c2b5cd3b6d9596a","session_id":"619beeeb8f142c0b9fc7d2e3","condition":"contingent","relevant_dimensions":["wings","legs"],"bee_group":{"antennae":"X","wings":"2","pattern":"X","legs":"F"},"bonus":0.08000000000000107},{"rt":1170,"stimulus":"bees-with-color/bee-B2DM.svg","response":0,"trial_type":"image-button-response","trial_index":138,"time_elapsed":452623,"internal_node_id":"0.0-6.0-0.2","subject_id":"614a360a9ff931cef70c2a33","study_id":"6197b3f67c2b5cd3b6d9596a","session_id":"619beeeb8f142c0b9fc7d2e3","condition":"contingent","relevant_dimensions":["wings","legs"],"bee_group":{"antennae":"X","wings":"2","pattern":"X","legs":"F"},"bonus":0.08000000000000107},{"rt":2110.5999999940395,"stimulus":"bees-with-color/bee-B1DF.svg","response":0,"trial_type":"image-button-response","trial_index":139,"time_elapsed":454737,"internal_node_id":"0.0-6.0-0.3","subject_id":"614a360a9ff931cef70c2a33","study_id":"6197b3f67c2b5cd3b6d9596a","session_id":"619beeeb8f142c0b9fc7d2e3","condition":"contingent","relevant_dimensions":["wings","legs"],"bee_group":{"antennae":"X","wings":"2","pattern":"X","legs":"F"},"bonus":0.08000000000000107},{"rt":887.9000000059605,"stimulus":"bees-with-color/bee-B1DM.svg","response":0,"trial_type":"image-button-response","trial_index":140,"time_elapsed":455628,"internal_node_id":"0.0-6.0-0.4","subject_id":"614a360a9ff931cef70c2a33","study_id":"6197b3f67c2b5cd3b6d9596a","session_id":"619beeeb8f142c0b9fc7d2e3","condition":"contingent","relevant_dimensions":["wings","legs"],"bee_group":{"antennae":"X","wings":"2","pattern":"X","legs":"F"},"bonus":0.08000000000000107},{"rt":824.8999999910593,"stimulus":"bees-with-color/bee-A1DM.svg","response":1,"trial_type":"image-button-response","trial_index":141,"time_elapsed":456457,"internal_node_id":"0.0-6.0-0.5","subject_id":"614a360a9ff931cef70c2a33","study_id":"6197b3f67c2b5cd3b6d9596a","session_id":"619beeeb8f142c0b9fc7d2e3","condition":"contingent","relevant_dimensions":["wings","legs"],"bee_group":{"antennae":"X","wings":"2","pattern":"X","legs":"F"},"bonus":0.08000000000000107},{"rt":1281.0999999940395,"stimulus":"bees-with-color/bee-A2SM.svg","response":1,"trial_type":"image-button-response","trial_index":142,"time_elapsed":457742,"internal_node_id":"0.0-6.0-0.6","subject_id":"614a360a9ff931cef70c2a33","study_id":"6197b3f67c2b5cd3b6d9596a","session_id":"619beeeb8f142c0b9fc7d2e3","condition":"contingent","relevant_dimensions":["wings","legs"],"bee_group":{"antennae":"X","wings":"2","pattern":"X","legs":"F"},"bonus":0.08000000000000107},{"rt":742.0999999940395,"stimulus":"bees-with-color/bee-A2DF.svg","response":0,"trial_type":"image-button-response","trial_index":143,"time_elapsed":458487,"internal_node_id":"0.0-6.0-0.7","subject_id":"614a360a9ff931cef70c2a33","study_id":"6197b3f67c2b5cd3b6d9596a","session_id":"619beeeb8f142c0b9fc7d2e3","condition":"contingent","relevant_dimensions":["wings","legs"],"bee_group":{"antennae":"X","wings":"2","pattern":"X","legs":"F"},"bonus":0.08000000000000107},{"rt":958.4000000059605,"stimulus":"bees-with-color/bee-A1DF.svg","response":0,"trial_type":"image-button-response","trial_index":144,"time_elapsed":459448,"internal_node_id":"0.0-6.0-0.8","subject_id":"614a360a9ff931cef70c2a33","study_id":"6197b3f67c2b5cd3b6d9596a","session_id":"619beeeb8f142c0b9fc7d2e3","condition":"contingent","relevant_dimensions":["wings","legs"],"bee_group":{"antennae":"X","wings":"2","pattern":"X","legs":"F"},"bonus":0.08000000000000107},{"rt":1474.4000000059605,"stimulus":"bees-with-color/bee-A1SM.svg","response":0,"trial_type":"image-button-response","trial_index":145,"time_elapsed":460926,"internal_node_id":"0.0-6.0-0.9","subject_id":"614a360a9ff931cef70c2a33","study_id":"6197b3f67c2b5cd3b6d9596a","session_id":"619beeeb8f142c0b9fc7d2e3","condition":"contingent","relevant_dimensions":["wings","legs"],"bee_group":{"antennae":"X","wings":"2","pattern":"X","legs":"F"},"bonus":0.08000000000000107},{"rt":1006,"stimulus":"bees-with-color/bee-B2SM.svg","response":1,"trial_type":"image-button-response","trial_index":146,"time_elapsed":461935,"internal_node_id":"0.0-6.0-0.10","subject_id":"614a360a9ff931cef70c2a33","study_id":"6197b3f67c2b5cd3b6d9596a","session_id":"619beeeb8f142c0b9fc7d2e3","condition":"contingent","relevant_dimensions":["wings","legs"],"bee_group":{"antennae":"X","wings":"2","pattern":"X","legs":"F"},"bonus":0.08000000000000107},{"rt":1005.2000000029802,"stimulus":"bees-with-color/bee-B1SM.svg","response":1,"trial_type":"image-button-response","trial_index":147,"time_elapsed":462943,"internal_node_id":"0.0-6.0-0.11","subject_id":"614a360a9ff931cef70c2a33","study_id":"6197b3f67c2b5cd3b6d9596a","session_id":"619beeeb8f142c0b9fc7d2e3","condition":"contingent","relevant_dimensions":["wings","legs"],"bee_group":{"antennae":"X","wings":"2","pattern":"X","legs":"F"},"bonus":0.08000000000000107},{"rt":487.6000000089407,"stimulus":"bees-with-color/bee-B2DF.svg","response":0,"trial_type":"image-button-response","trial_index":148,"time_elapsed":463434,"internal_node_id":"0.0-6.0-0.12","subject_id":"614a360a9ff931cef70c2a33","study_id":"6197b3f67c2b5cd3b6d9596a","session_id":"619beeeb8f142c0b9fc7d2e3","condition":"contingent","relevant_dimensions":["wings","legs"],"bee_group":{"antennae":"X","wings":"2","pattern":"X","legs":"F"},"bonus":0.08000000000000107},{"rt":506.59999999403954,"stimulus":"bees-with-color/bee-B1SF.svg","response":0,"trial_type":"image-button-response","trial_index":149,"time_elapsed":463943,"internal_node_id":"0.0-6.0-0.13","subject_id":"614a360a9ff931cef70c2a33","study_id":"6197b3f67c2b5cd3b6d9596a","session_id":"619beeeb8f142c0b9fc7d2e3","condition":"contingent","relevant_dimensions":["wings","legs"],"bee_group":{"antennae":"X","wings":"2","pattern":"X","legs":"F"},"bonus":0.08000000000000107},{"rt":807.9000000059605,"stimulus":"bees-with-color/bee-A2SF.svg","response":1,"trial_type":"image-button-response","trial_index":150,"time_elapsed":464753,"internal_node_id":"0.0-6.0-0.14","subject_id":"614a360a9ff931cef70c2a33","study_id":"6197b3f67c2b5cd3b6d9596a","session_id":"619beeeb8f142c0b9fc7d2e3","condition":"contingent","relevant_dimensions":["wings","legs"],"bee_group":{"antennae":"X","wings":"2","pattern":"X","legs":"F"},"bonus":0.08000000000000107},{"rt":1412.8999999910593,"stimulus":"bees-with-color/bee-A2DM.svg","response":0,"trial_type":"image-button-response","trial_index":151,"time_elapsed":466170,"internal_node_id":"0.0-6.0-0.15","subject_id":"614a360a9ff931cef70c2a33","study_id":"6197b3f67c2b5cd3b6d9596a","session_id":"619beeeb8f142c0b9fc7d2e3","condition":"contingent","relevant_dimensions":["wings","legs"],"bee_group":{"antennae":"X","wings":"2","pattern":"X","legs":"F"},"bonus":0.08000000000000107},{"rt":818.5,"stimulus":"bees-with-color/bee-A1DM.svg","response":0,"trial_type":"image-button-response","trial_index":152,"time_elapsed":466991,"internal_node_id":"0.0-6.0-0.16","subject_id":"614a360a9ff931cef70c2a33","study_id":"6197b3f67c2b5cd3b6d9596a","session_id":"619beeeb8f142c0b9fc7d2e3","condition":"contingent","relevant_dimensions":["wings","legs"],"bee_group":{"antennae":"X","wings":"2","pattern":"X","legs":"F"},"bonus":0.08000000000000107},{"rt":606.3999999910593,"stimulus":"bees-with-color/bee-B2SM.svg","response":1,"trial_type":"image-button-response","trial_index":153,"time_elapsed":467600,"internal_node_id":"0.0-6.0-0.17","subject_id":"614a360a9ff931cef70c2a33","study_id":"6197b3f67c2b5cd3b6d9596a","session_id":"619beeeb8f142c0b9fc7d2e3","condition":"contingent","relevant_dimensions":["wings","legs"],"bee_group":{"antennae":"X","wings":"2","pattern":"X","legs":"F"},"bonus":0.08000000000000107},{"rt":1157.2000000029802,"stimulus":"bees-with-color/bee-A2DF.svg","response":0,"trial_type":"image-button-response","trial_index":154,"time_elapsed":468760,"internal_node_id":"0.0-6.0-0.18","subject_id":"614a360a9ff931cef70c2a33","study_id":"6197b3f67c2b5cd3b6d9596a","session_id":"619beeeb8f142c0b9fc7d2e3","condition":"contingent","relevant_dimensions":["wings","legs"],"bee_group":{"antennae":"X","wings":"2","pattern":"X","legs":"F"},"bonus":0.08000000000000107},{"rt":807.2000000029802,"stimulus":"bees-with-color/bee-A2SF.svg","response":0,"trial_type":"image-button-response","trial_index":155,"time_elapsed":469569,"internal_node_id":"0.0-6.0-0.19","subject_id":"614a360a9ff931cef70c2a33","study_id":"6197b3f67c2b5cd3b6d9596a","session_id":"619beeeb8f142c0b9fc7d2e3","condition":"contingent","relevant_dimensions":["wings","legs"],"bee_group":{"antennae":"X","wings":"2","pattern":"X","legs":"F"},"bonus":0.08000000000000107},{"rt":896.7000000029802,"stimulus":"bees-with-color/bee-B1SM.svg","response":1,"trial_type":"image-button-response","trial_index":156,"time_elapsed":470469,"internal_node_id":"0.0-6.0-0.20","subject_id":"614a360a9ff931cef70c2a33","study_id":"6197b3f67c2b5cd3b6d9596a","session_id":"619beeeb8f142c0b9fc7d2e3","condition":"contingent","relevant_dimensions":["wings","legs"],"bee_group":{"antennae":"X","wings":"2","pattern":"X","legs":"F"},"bonus":0.08000000000000107},{"rt":1298.800000011921,"stimulus":"bees-with-color/bee-B1DM.svg","response":1,"trial_type":"image-button-response","trial_index":157,"time_elapsed":471771,"internal_node_id":"0.0-6.0-0.21","subject_id":"614a360a9ff931cef70c2a33","study_id":"6197b3f67c2b5cd3b6d9596a","session_id":"619beeeb8f142c0b9fc7d2e3","condition":"contingent","relevant_dimensions":["wings","legs"],"bee_group":{"antennae":"X","wings":"2","pattern":"X","legs":"F"},"bonus":0.08000000000000107},{"rt":1448.5999999940395,"stimulus":"bees-with-color/bee-B1DF.svg","response":0,"trial_type":"image-button-response","trial_index":158,"time_elapsed":473222,"internal_node_id":"0.0-6.0-0.22","subject_id":"614a360a9ff931cef70c2a33","study_id":"6197b3f67c2b5cd3b6d9596a","session_id":"619beeeb8f142c0b9fc7d2e3","condition":"contingent","relevant_dimensions":["wings","legs"],"bee_group":{"antennae":"X","wings":"2","pattern":"X","legs":"F"},"bonus":0.08000000000000107},{"rt":370.29999999701977,"stimulus":"bees-with-color/bee-A2DM.svg","response":0,"trial_type":"image-button-response","trial_index":159,"time_elapsed":473595,"internal_node_id":"0.0-6.0-0.23","subject_id":"614a360a9ff931cef70c2a33","study_id":"6197b3f67c2b5cd3b6d9596a","session_id":"619beeeb8f142c0b9fc7d2e3","condition":"contingent","relevant_dimensions":["wings","legs"],"bee_group":{"antennae":"X","wings":"2","pattern":"X","legs":"F"},"bonus":0.08000000000000107},{"rt":1206.5,"stimulus":"bees-with-color/bee-A1SF.svg","response":0,"trial_type":"image-button-response","trial_index":160,"time_elapsed":474804,"internal_node_id":"0.0-6.0-0.24","subject_id":"614a360a9ff931cef70c2a33","study_id":"6197b3f67c2b5cd3b6d9596a","session_id":"619beeeb8f142c0b9fc7d2e3","condition":"contingent","relevant_dimensions":["wings","legs"],"bee_group":{"antennae":"X","wings":"2","pattern":"X","legs":"F"},"bonus":0.08000000000000107},{"rt":1144.2000000029802,"stimulus":"bees-with-color/bee-A1DF.svg","response":1,"trial_type":"image-button-response","trial_index":161,"time_elapsed":475950,"internal_node_id":"0.0-6.0-0.25","subject_id":"614a360a9ff931cef70c2a33","study_id":"6197b3f67c2b5cd3b6d9596a","session_id":"619beeeb8f142c0b9fc7d2e3","condition":"contingent","relevant_dimensions":["wings","legs"],"bee_group":{"antennae":"X","wings":"2","pattern":"X","legs":"F"},"bonus":0.08000000000000107},{"rt":1304.0999999940395,"stimulus":"bees-with-color/bee-B1SF.svg","response":0,"trial_type":"image-button-response","trial_index":162,"time_elapsed":477257,"internal_node_id":"0.0-6.0-0.26","subject_id":"614a360a9ff931cef70c2a33","study_id":"6197b3f67c2b5cd3b6d95