[{"success":true,"trial_type":"fullscreen","trial_index":0,"time_elapsed":222247,"internal_node_id":"0.0-0.0","subject_id":"60c352545305f1a05a888b79","study_id":"6197b3f67c2b5cd3b6d9596a","session_id":"6197b88961e524386ae21388","condition":"full-information","relevant_dimensions":["wings","legs"],"bee_group":{"antennae":"X","wings":"1","pattern":"X","legs":"F"},"bonus":1.6200000000000012},{"success":true,"timeout":false,"failed_images":[],"failed_audio":[],"failed_video":[],"trial_type":"preload","trial_index":1,"time_elapsed":224540,"internal_node_id":"0.0-1.0","subject_id":"60c352545305f1a05a888b79","study_id":"6197b3f67c2b5cd3b6d9596a","session_id":"6197b88961e524386ae21388","condition":"full-information","relevant_dimensions":["wings","legs"],"bee_group":{"antennae":"X","wings":"1","pattern":"X","legs":"F"},"bonus":1.6200000000000012},{"rt":4069.2000000001863,"stimulus":"Welcome! Press any key to begin.","response":" ","trial_type":"html-keyboard-response","trial_index":2,"time_elapsed":228611,"internal_node_id":"0.0-2.0","subject_id":"60c352545305f1a05a888b79","study_id":"6197b3f67c2b5cd3b6d9596a","session_id":"6197b88961e524386ae21388","condition":"full-information","relevant_dimensions":["wings","legs"],"bee_group":{"antennae":"X","wings":"1","pattern":"X","legs":"F"},"bonus":1.6200000000000012},{"view_history":[{"page_index":0,"viewing_time":4916.399999999907},{"page_index":1,"viewing_time":11253},{"page_index":2,"viewing_time":14066.100000000093},{"page_index":3,"viewing_time":39952},{"page_index":4,"viewing_time":20616.399999999907},{"page_index":5,"viewing_time":20877.600000000093},{"page_index":6,"viewing_time":15015.899999999907},{"page_index":7,"viewing_time":4456.100000000093},{"page_index":8,"viewing_time":2201.899999999907},{"page_index":9,"viewing_time":1901.8999999999069},{"page_index":10,"viewing_time":1509.5},{"page_index":11,"viewing_time":16226.5},{"page_index":12,"viewing_time":16848.200000000186},{"page_index":13,"viewing_time":1211.8999999999069},{"page_index":14,"viewing_time":4288.199999999721}],"rt":175342.59999999963,"trial_type":"instructions","trial_index":3,"time_elapsed":403956,"internal_node_id":"0.0-3.0-0.0","subject_id":"60c352545305f1a05a888b79","study_id":"6197b3f67c2b5cd3b6d9596a","session_id":"6197b88961e524386ae21388","condition":"full-information","relevant_dimensions":["wings","legs"],"bee_group":{"antennae":"X","wings":"1","pattern":"X","legs":"F"},"bonus":1.6200000000000012},{"rt":21855.799999999814,"response":{"Q0":["Two or six legs","Stripes or spots on body","Single or double wings","Antennae or no antennae"]},"question_order":[0],"trial_type":"survey-multi-select","trial_index":4,"time_elapsed":425825,"internal_node_id":"0.0-3.0-1.0","subject_id":"60c352545305f1a05a888b79","study_id":"6197b3f67c2b5cd3b6d9596a","session_id":"6197b88961e524386ae21388","condition":"full-information","relevant_dimensions":["wings","legs"],"bee_group":{"antennae":"X","wings":"1","pattern":"X","legs":"F"},"correct":true,"bonus":1.6200000000000012},{"rt":17631.799999999814,"response":{"Q1":"No.","Q2":"Based on the four features of the bee.","Q3":"You learn if it was friendly or dangerous, but do not alter your bonus."},"question_order":[0,1,2],"trial_type":"survey-multi-choice","trial_index":5,"time_elapsed":443461,"internal_node_id":"0.0-3.0-2.0","subject_id":"60c352545305f1a05a888b79","study_id":"6197b3f67c2b5cd3b6d9596a","session_id":"6197b88961e524386ae21388","condition":"full-information","relevant_dimensions":["wings","legs"],"bee_group":{"antennae":"X","wings":"1","pattern":"X","legs":"F"},"correct":true,"bonus":1.6200000000000012},{"rt":2483.0999999996275,"stimulus":"<p>Congrats, you got everything right<br>When you're ready, click the button below to continue to the experiment.</p>","response":0,"trial_type":"html-button-response","trial_index":6,"time_elapsed":445949,"internal_node_id":"0.0-3.0-3.0","subject_id":"60c352545305f1a05a888b79","study_id":"6197b3f67c2b5cd3b6d9596a","session_id":"6197b88961e524386ae21388","condition":"full-information","relevant_dimensions":["wings","legs"],"bee_group":{"antennae":"X","wings":"1","pattern":"X","legs":"F"},"bonus":1.6200000000000012},{"rt":33378.200000000186,"stimulus":"bees-with-color/bee-A2DM.svg","response":1,"trial_type":"image-button-response","trial_index":7,"time_elapsed":479333,"internal_node_id":"0.0-4.0-0.0","subject_id":"60c352545305f1a05a888b79","study_id":"6197b3f67c2b5cd3b6d9596a","session_id":"6197b88961e524386ae21388","condition":"full-information","relevant_dimensions":["wings","legs"],"bee_group":{"antennae":"X","wings":"1","pattern":"X","legs":"F"},"action":"avoid","summary":"bad-avoid","bonus":1.6200000000000012},{"rt":7641.5,"stimulus":"\n                    <p><b>Action: <em>avoid</em></b></p>\n                    <p>This is the bee that you just saw.</p>\n                    <img src=\"bees-with-color/bee-A2DM.svg\" width=\"200\">\n                    <p><span class=\"redText\">Bad choice,</span> the bee was friendly.<br>Your bonus pay is unchanged, and remains at $0.54.</p>\n            ","response":0,"trial_type":"html-button-response","trial_index":8,"time_elapsed":486978,"internal_node_id":"0.0-4.0-1.0","subject_id":"60c352545305f1a05a888b79","study_id":"6197b3f67c2b5cd3b6d9596a","session_id":"6197b88961e524386ae21388","condition":"full-information","relevant_dimensions":["wings","legs"],"bee_group":{"antennae":"X","wings":"1","pattern":"X","legs":"F"},"bonus":1.6200000000000012},{"rt":3346.9000000003725,"stimulus":"bees-with-color/bee-B1SM.svg","response":0,"trial_type":"image-button-response","trial_index":9,"time_elapsed":490328,"internal_node_id":"0.0-4.0-0.1","subject_id":"60c352545305f1a05a888b79","study_id":"6197b3f67c2b5cd3b6d9596a","session_id":"6197b88961e524386ae21388","condition":"full-information","relevant_dimensions":["wings","legs"],"bee_group":{"antennae":"X","wings":"1","pattern":"X","legs":"F"},"action":"harvest","summary":"good-harvest","bonus":1.6200000000000012},{"rt":15627.200000000186,"stimulus":"\n                    <p><b>Action: <em>harvest</em></b></p>\n                    <p>This is the bee that you just saw.</p>\n                    <img src=\"bees-with-color/bee-B1SM.svg\" width=\"200\">\n                    <p><span class=\"greenText\"><b>Successful harvest!</b></span><br>Your pay has increased by $0.02. Your bonus pay is now $0.56.</p>\n            ","response":0,"trial_type":"html-button-response","trial_index":10,"time_elapsed":505957,"internal_node_id":"0.0-4.0-1.1","subject_id":"60c352545305f1a05a888b79","study_id":"6197b3f67c2b5cd3b6d9596a","session_id":"6197b88961e524386ae21388","condition":"full-information","relevant_dimensions":["wings","legs"],"bee_group":{"antennae":"X","wings":"1","pattern":"X","legs":"F"},"bonus":1.6200000000000012},{"rt":9472.80000000028,"stimulus":"bees-with-color/bee-B2DM.svg","response":1,"trial_type":"image-button-response","trial_index":11,"time_elapsed":515433,"internal_node_id":"0.0-4.0-0.2","subject_id":"60c352545305f1a05a888b79","study_id":"6197b3f67c2b5cd3b6d9596a","session_id":"6197b88961e524386ae21388","condition":"full-information","relevant_dimensions":["wings","legs"],"bee_group":{"antennae":"X","wings":"1","pattern":"X","legs":"F"},"action":"avoid","summary":"bad-avoid","bonus":1.6200000000000012},{"rt":2075.100000000093,"stimulus":"\n                    <p><b>Action: <em>avoid</em></b></p>\n                    <p>This is the bee that you just saw.</p>\n                    <img src=\"bees-with-color/bee-B2DM.svg\" width=\"200\">\n                    <p><span class=\"redText\">Bad choice,</span> the bee was friendly.<br>Your bonus pay is unchanged, and remains at $0.56.</p>\n            ","response":0,"trial_type":"html-button-response","trial_index":12,"time_elapsed":517511,"internal_node_id":"0.0-4.0-1.2","subject_id":"60c352545305f1a05a888b79","study_id":"6197b3f67c2b5cd3b6d9596a","session_id":"6197b88961e524386ae21388","condition":"full-information","relevant_dimensions":["wings","legs"],"bee_group":{"antennae":"X","wings":"1","pattern":"X","legs":"F"},"bonus":1.6200000000000012},{"rt":2070.5,"stimulus":"bees-with-color/bee-B1SF.svg","response":0,"trial_type":"image-button-response","trial_index":13,"time_elapsed":519585,"internal_node_id":"0.0-4.0-0.3","subject_id":"60c352545305f1a05a888b79","study_id":"6197b3f67c2b5cd3b6d9596a","session_id":"6197b88961e524386ae21388","condition":"full-information","relevant_dimensions":["wings","legs"],"bee_group":{"antennae":"X","wings":"1","pattern":"X","legs":"F"},"action":"harvest","summary":"bad-harvest","bonus":1.6200000000000012},{"rt":26886.799999999814,"stimulus":"\n                    <p><b>Action: <em>harvest</em></b></p>\n                    <p>This is the bee that you just saw.</p>\n                    <img src=\"bees-with-color/bee-B1SF.svg\" width=\"200\">\n                    <p><span class=\"redText\">Bad choice, the bee was angry.</span><br><b>You have been stung!</b><br>Your pay has been decreased by $0.10. Your bonus pay is now $0.46.</p>\n            ","response":0,"trial_type":"html-button-response","trial_index":14,"time_elapsed":546474,"internal_node_id":"0.0-4.0-1.3","subject_id":"60c352545305f1a05a888b79","study_id":"6197b3f67c2b5cd3b6d9596a","session_id":"6197b88961e524386ae21388","condition":"full-information","relevant_dimensions":["wings","legs"],"bee_group":{"antennae":"X","wings":"1","pattern":"X","legs":"F"},"bonus":1.6200000000000012},{"rt":5794.299999999814,"stimulus":"bees-with-color/bee-A1SF.svg","response":0,"trial_type":"image-button-response","trial_index":15,"time_elapsed":552272,"internal_node_id":"0.0-4.0-0.4","subject_id":"60c352545305f1a05a888b79","study_id":"6197b3f67c2b5cd3b6d9596a","session_id":"6197b88961e524386ae21388","condition":"full-information","relevant_dimensions":["wings","legs"],"bee_group":{"antennae":"X","wings":"1","pattern":"X","legs":"F"},"action":"harvest","summary":"bad-harvest","bonus":1.6200000000000012},{"rt":16708.299999999814,"stimulus":"\n                    <p><b>Action: <em>harvest</em></b></p>\n                    <p>This is the bee that you just saw.</p>\n                    <img src=\"bees-with-color/bee-A1SF.svg\" width=\"200\">\n                    <p><span class=\"redText\">Bad choice, the bee was angry.</span><br><b>You have been stung!</b><br>Your pay has been decreased by $0.10. Your bonus pay is now $0.36.</p>\n            ","response":0,"trial_type":"html-button-response","trial_index":16,"time_elapsed":568983,"internal_node_id":"0.0-4.0-1.4","subject_id":"60c352545305f1a05a888b79","study_id":"6197b3f67c2b5cd3b6d9596a","session_id":"6197b88961e524386ae21388","condition":"full-information","relevant_dimensions":["wings","legs"],"bee_group":{"antennae":"X","wings":"1","pattern":"X","legs":"F"},"bonus":1.6200000000000012},{"rt":2398.6999999997206,"stimulus":"bees-with-color/bee-A2SF.svg","response":0,"trial_type":"image-button-response","trial_index":17,"time_elapsed":571384,"internal_node_id":"0.0-4.0-0.5","subject_id":"60c352545305f1a05a888b79","study_id":"6197b3f67c2b5cd3b6d9596a","session_id":"6197b88961e524386ae21388","condition":"full-information","relevant_dimensions":["wings","legs"],"bee_group":{"antennae":"X","wings":"1","pattern":"X","legs":"F"},"action":"harvest","summary":"good-harvest","bonus":1.6200000000000012},{"rt":14363.399999999907,"stimulus":"\n                    <p><b>Action: <em>harvest</em></b></p>\n                    <p>This is the bee that you just saw.</p>\n                    <img src=\"bees-with-color/bee-A2SF.svg\" width=\"200\">\n                    <p><span class=\"greenText\"><b>Successful harvest!</b></span><br>Your pay has increased by $0.02. Your bonus pay is now $0.38.</p>\n            ","response":0,"trial_type":"html-button-response","trial_index":18,"time_elapsed":585750,"internal_node_id":"0.0-4.0-1.5","subject_id":"60c352545305f1a05a888b79","study_id":"6197b3f67c2b5cd3b6d9596a","session_id":"6197b88961e524386ae21388","condition":"full-information","relevant_dimensions":["wings","legs"],"bee_group":{"antennae":"X","wings":"1","pattern":"X","legs":"F"},"bonus":1.6200000000000012},{"rt":5776.700000000186,"stimulus":"bees-with-color/bee-B2SF.svg","response":1,"trial_type":"image-button-response","trial_index":19,"time_elapsed":591532,"internal_node_id":"0.0-4.0-0.6","subject_id":"60c352545305f1a05a888b79","study_id":"6197b3f67c2b5cd3b6d9596a","session_id":"6197b88961e524386ae21388","condition":"full-information","relevant_dimensions":["wings","legs"],"bee_group":{"antennae":"X","wings":"1","pattern":"X","legs":"F"},"action":"avoid","summary":"bad-avoid","bonus":1.6200000000000012},{"rt":21570.600000000093,"stimulus":"\n                    <p><b>Action: <em>avoid</em></b></p>\n                    <p>This is the bee that you just saw.</p>\n                    <img src=\"bees-with-color/bee-B2SF.svg\" width=\"200\">\n                    <p><span class=\"redText\">Bad choice,</span> the bee was friendly.<br>Your bonus pay is unchanged, and remains at $0.38.</p>\n            ","response":0,"trial_type":"html-button-response","trial_index":20,"time_elapsed":613107,"internal_node_id":"0.0-4.0-1.6","subject_id":"60c352545305f1a05a888b79","study_id":"6197b3f67c2b5cd3b6d9596a","session_id":"6197b88961e524386ae21388","condition":"full-information","relevant_dimensions":["wings","legs"],"bee_group":{"antennae":"X","wings":"1","pattern":"X","legs":"F"},"bonus":1.6200000000000012},{"rt":24486.100000000093,"stimulus":"bees-with-color/bee-A1SM.svg","response":1,"trial_type":"image-button-response","trial_index":21,"time_elapsed":637596,"internal_node_id":"0.0-4.0-0.7","subject_id":"60c352545305f1a05a888b79","study_id":"6197b3f67c2b5cd3b6d9596a","session_id":"6197b88961e524386ae21388","condition":"full-information","relevant_dimensions":["wings","legs"],"bee_group":{"antennae":"X","wings":"1","pattern":"X","legs":"F"},"action":"avoid","summary":"bad-avoid","bonus":1.6200000000000012},{"rt":20556.19999999972,"stimulus":"\n                    <p><b>Action: <em>avoid</em></b></p>\n                    <p>This is the bee that you just saw.</p>\n                    <img src=\"bees-with-color/bee-A1SM.svg\" width=\"200\">\n                    <p><span class=\"redText\">Bad choice,</span> the bee was friendly.<br>Your bonus pay is unchanged, and remains at $0.38.</p>\n            ","response":0,"trial_type":"html-button-response","trial_index":22,"time_elapsed":658156,"internal_node_id":"0.0-4.0-1.7","subject_id":"60c352545305f1a05a888b79","study_id":"6197b3f67c2b5cd3b6d9596a","session_id":"6197b88961e524386ae21388","condition":"full-information","relevant_dimensions":["wings","legs"],"bee_group":{"antennae":"X","wings":"1","pattern":"X","legs":"F"},"bonus":1.6200000000000012},{"rt":6752.600000000093,"stimulus":"bees-with-color/bee-B2DF.svg","response":1,"trial_type":"image-button-response","trial_index":23,"time_elapsed":664913,"internal_node_id":"0.0-4.0-0.8","subject_id":"60c352545305f1a05a888b79","study_id":"6197b3f67c2b5cd3b6d9596a","session_id":"6197b88961e524386ae21388","condition":"full-information","relevant_dimensions":["wings","legs"],"bee_group":{"antennae":"X","wings":"1","pattern":"X","legs":"F"},"action":"avoid","summary":"bad-avoid","bonus":1.6200000000000012},{"rt":35952.60000000009,"stimulus":"\n                    <p><b>Action: <em>avoid</em></b></p>\n                    <p>This is the bee that you just saw.</p>\n                    <img src=\"bees-with-color/bee-B2DF.svg\" width=\"200\">\n                    <p><span class=\"redText\">Bad choice,</span> the bee was friendly.<br>Your bonus pay is unchanged, and remains at $0.38.</p>\n            ","response":0,"trial_type":"html-button-response","trial_index":24,"time_elapsed":700868,"internal_node_id":"0.0-4.0-1.8","subject_id":"60c352545305f1a05a888b79","study_id":"6197b3f67c2b5cd3b6d9596a","session_id":"6197b88961e524386ae21388","condition":"full-information","relevant_dimensions":["wings","legs"],"bee_group":{"antennae":"X","wings":"1","pattern":"X","legs":"F"},"bonus":1.6200000000000012},{"rt":9633.5,"stimulus":"bees-with-color/bee-A1DM.svg","response":0,"trial_type":"image-button-response","trial_index":25,"time_elapsed":710505,"internal_node_id":"0.0-4.0-0.9","subject_id":"60c352545305f1a05a888b79","study_id":"6197b3f67c2b5cd3b6d9596a","session_id":"6197b88961e524386ae21388","condition":"full-information","relevant_dimensions":["wings","legs"],"bee_group":{"antennae":"X","wings":"1","pattern":"X","legs":"F"},"action":"harvest","summary":"good-harvest","bonus":1.6200000000000012},{"rt":22547.5,"stimulus":"\n                    <p><b>Action: <em>harvest</em></b></p>\n                    <p>This is the bee that you just saw.</p>\n                    <img src=\"bees-with-color/bee-A1DM.svg\" width=\"200\">\n                    <p><span class=\"greenText\"><b>Successful harvest!</b></span><br>Your pay has increased by $0.02. Your bonus pay is now $0.40.</p>\n            ","response":0,"trial_type":"html-button-response","trial_index":26,"time_elapsed":733054,"internal_node_id":"0.0-4.0-1.9","subject_id":"60c352545305f1a05a888b79","study_id":"6197b3f67c2b5cd3b6d9596a","session_id":"6197b88961e524386ae21388","condition":"full-information","relevant_dimensions":["wings","legs"],"bee_group":{"antennae":"X","wings":"1","pattern":"X","legs":"F"},"bonus":1.6200000000000012},{"rt":18181,"stimulus":"bees-with-color/bee-B1DM.svg","response":0,"trial_type":"image-button-response","trial_index":27,"time_elapsed":751240,"internal_node_id":"0.0-4.0-0.10","subject_id":"60c352545305f1a05a888b79","study_id":"6197b3f67c2b5cd3b6d9596a","session_id":"6197b88961e524386ae21388","condition":"full-information","relevant_dimensions":["wings","legs"],"bee_group":{"antennae":"X","wings":"1","pattern":"X","legs":"F"},"action":"harvest","summary":"good-harvest","bonus":1.6200000000000012},{"rt":22119.299999999814,"stimulus":"\n                    <p><b>Action: <em>harvest</em></b></p>\n                    <p>This is the bee that you just saw.</p>\n                    <img src=\"bees-with-color/bee-B1DM.svg\" width=\"200\">\n                    <p><span class=\"greenText\"><b>Successful harvest!</b></span><br>Your pay has increased by $0.02. Your bonus pay is now $0.42.</p>\n            ","response":0,"trial_type":"html-button-response","trial_index":28,"time_elapsed":773362,"internal_node_id":"0.0-4.0-1.10","subject_id":"60c352545305f1a05a888b79","study_id":"6197b3f67c2b5cd3b6d9596a","session_id":"6197b88961e524386ae21388","condition":"full-information","relevant_dimensions":["wings","legs"],"bee_group":{"antennae":"X","wings":"1","pattern":"X","legs":"F"},"bonus":1.6200000000000012},{"rt":25348.799999999814,"stimulus":"bees-with-color/bee-A1DF.svg","response":1,"trial_type":"image-button-response","trial_index":29,"time_elapsed":798716,"internal_node_id":"0.0-4.0-0.11","subject_id":"60c352545305f1a05a888b79","study_id":"6197b3f67c2b5cd3b6d9596a","session_id":"6197b88961e524386ae21388","condition":"full-information","relevant_dimensions":["wings","legs"],"bee_group":{"antennae":"X","wings":"1","pattern":"X","legs":"F"},"action":"avoid","summary":"good-avoid","bonus":1.6200000000000012},{"rt":8218.700000000186,"stimulus":"\n                    <p><b>Action: <em>avoid</em></b></p>\n                    <p>This is the bee that you just saw.</p>\n                    <img src=\"bees-with-color/bee-A1DF.svg\" width=\"200\">\n                    <p><span class=\"greenText\">Good choice!</span>  This bee would have stung you.<br>Your bonus pay is unchanged, and remains at $0.42.</p>\n            ","response":0,"trial_type":"html-button-response","trial_index":30,"time_elapsed":806937,"internal_node_id":"0.0-4.0-1.11","subject_id":"60c352545305f1a05a888b79","study_id":"6197b3f67c2b5cd3b6d9596a","session_id":"6197b88961e524386ae21388","condition":"full-information","relevant_dimensions":["wings","legs"],"bee_group":{"antennae":"X","wings":"1","pattern":"X","legs":"F"},"bonus":1.6200000000000012},{"rt":25331.799999999814,"stimulus":"bees-with-color/bee-A2DF.svg","response":1,"trial_type":"image-button-response","trial_index":31,"time_elapsed":832271,"internal_node_id":"0.0-4.0-0.12","subject_id":"60c352545305f1a05a888b79","study_id":"6197b3f67c2b5cd3b6d9596a","session_id":"6197b88961e524386ae21388","condition":"full-information","relevant_dimensions":["wings","legs"],"bee_group":{"antennae":"X","wings":"1","pattern":"X","legs":"F"},"action":"avoid","summary":"bad-avoid","bonus":1.6200000000000012},{"rt":6250.299999999814,"stimulus":"\n                    <p><b>Action: <em>avoid</em></b></p>\n                    <p>This is the bee that you just saw.</p>\n                    <img src=\"bees-with-color/bee-A2DF.svg\" width=\"200\">\n                    <p><span class=\"redText\">Bad choice,</span> the bee was friendly.<br>Your bonus pay is unchanged, and remains at $0.42.</p>\n            ","response":0,"trial_type":"html-button-response","trial_index":32,"time_elapsed":838525,"internal_node_id":"0.0-4.0-1.12","subject_id":"60c352545305f1a05a888b79","study_id":"6197b3f67c2b5cd3b6d9596a","session_id":"6197b88961e524386ae21388","condition":"full-information","relevant_dimensions":["wings","legs"],"bee_group":{"antennae":"X","wings":"1","pattern":"X","legs":"F"},"bonus":1.6200000000000012},{"rt":17698.299999999814,"stimulus":"bees-with-color/bee-B2SM.svg","response":1,"trial_type":"image-button-response","trial_index":33,"time_elapsed":856226,"internal_node_id":"0.0-4.0-0.13","subject_id":"60c352545305f1a05a888b79","study_id":"6197b3f67c2b5cd3b6d9596a","session_id":"6197b88961e524386ae21388","condition":"full-information","relevant_dimensions":["wings","legs"],"bee_group":{"antennae":"X","wings":"1","pattern":"X","legs":"F"},"action":"avoid","summary":"bad-avoid","bonus":1.6200000000000012},{"rt":17420.299999999814,"stimulus":"\n                    <p><b>Action: <em>avoid</em></b></p>\n                    <p>This is the bee that you just saw.</p>\n                    <img src=\"bees-with-color/bee-B2SM.svg\" width=\"200\">\n                    <p><span class=\"redText\">Bad choice,</span> the bee was friendly.<br>Your bonus pay is unchanged, and remains at $0.42.</p>\n            ","response":0,"trial_type":"html-button-response","trial_index":34,"time_elapsed":873649,"internal_node_id":"0.0-4.0-1.13","subject_id":"60c352545305f1a05a888b79","study_id":"6197b3f67c2b5cd3b6d9596a","session_id":"6197b88961e524386ae21388","condition":"full-information","relevant_dimensions":["wings","legs"],"bee_group":{"antennae":"X","wings":"1","pattern":"X","legs":"F"},"bonus":1.6200000000000012},{"rt":11790.299999999814,"stimulus":"bees-with-color/bee-B1DF.svg","response":1,"trial_type":"image-button-response","trial_index":35,"time_elapsed":885444,"internal_node_id":"0.0-4.0-0.14","subject_id":"60c352545305f1a05a888b79","study_id":"6197b3f67c2b5cd3b6d9596a","session_id":"6197b88961e524386ae21388","condition":"full-information","relevant_dimensions":["wings","legs"],"bee_group":{"antennae":"X","wings":"1","pattern":"X","legs":"F"},"action":"avoid","summary":"good-avoid","bonus":1.6200000000000012},{"rt":17014,"stimulus":"\n                    <p><b>Action: <em>avoid</em></b></p>\n                    <p>This is the bee that you just saw.</p>\n                    <img src=\"bees-with-color/bee-B1DF.svg\" width=\"200\">\n                    <p><span class=\"greenText\">Good choice!</span>  This bee would have stung you.<br>Your bonus pay is unchanged, and remains at $0.42.</p>\n            ","response":0,"trial_type":"html-button-response","trial_index":36,"time_elapsed":902461,"internal_node_id":"0.0-4.0-1.14","subject_id":"60c352545305f1a05a888b79","study_id":"6197b3f67c2b5cd3b6d9596a","session_id":"6197b88961e524386ae21388","condition":"full-information","relevant_dimensions":["wings","legs"],"bee_group":{"antennae":"X","wings":"1","pattern":"X","legs":"F"},"bonus":1.6200000000000012},{"rt":21367.700000000186,"stimulus":"bees-with-color/bee-A2SM.svg","response":0,"trial_type":"image-button-response","trial_index":37,"time_elapsed":923832,"internal_node_id":"0.0-4.0-0.15","subject_id":"60c352545305f1a05a888b79","study_id":"6197b3f67c2b5cd3b6d9596a","session_id":"6197b88961e524386ae21388","condition":"full-information","relevant_dimensions":["wings","legs"],"bee_group":{"antennae":"X","wings":"1","pattern":"X","legs":"F"},"action":"harvest","summary":"good-harvest","bonus":1.6200000000000012},{"rt":21299.599999999627,"stimulus":"\n                    <p><b>Action: <em>harvest</em></b></p>\n                    <p>This is the bee that you just saw.</p>\n                    <img src=\"bees-with-color/bee-A2SM.svg\" width=\"200\">\n                    <p><span class=\"greenText\"><b>Successful harvest!</b></span><br>Your pay has increased by $0.02. Your bonus pay is now $0.44.</p>\n            ","response":0,"trial_type":"html-button-response","trial_index":38,"time_elapsed":945135,"internal_node_id":"0.0-4.0-1.15","subject_id":"60c352545305f1a05a888b79","study_id":"6197b3f67c2b5cd3b6d9596a","session_id":"6197b88961e524386ae21388","condition":"full-information","relevant_dimensions":["wings","legs"],"bee_group":{"antennae":"X","wings":"1","pattern":"X","legs":"F"},"bonus":1.6200000000000012},{"rt":5069.899999999441,"stimulus":"bees-with-color/bee-B1DF.svg","response":1,"trial_type":"image-button-response","trial_index":39,"time_elapsed":950208,"internal_node_id":"0.0-4.0-0.16","subject_id":"60c352545305f1a05a888b79","study_id":"6197b3f67c2b5cd3b6d9596a","session_id":"6197b88961e524386ae21388","condition":"full-information","relevant_dimensions":["wings","legs"],"bee_group":{"antennae":"X","wings":"1","pattern":"X","legs":"F"},"action":"avoid","summary":"good-avoid","bonus":1.6200000000000012},{"rt":1426.9000000003725,"stimulus":"\n                    <p><b>Action: <em>avoid</em></b></p>\n                    <p>This is the bee that you just saw.</p>\n                    <img src=\"bees-with-color/bee-B1DF.svg\" width=\"200\">\n                    <p><span class=\"greenText\">Good choice!</span>  This bee would have stung you.<br>Your bonus pay is unchanged, and remains at $0.44.</p>\n            ","response":0,"trial_type":"html-button-response","trial_index":40,"time_elapsed":951637,"internal_node_id":"0.0-4.0-1.16","subject_id":"60c352545305f1a05a888b79","study_id":"6197b3f67c2b5cd3b6d9596a","session_id":"6197b88961e524386ae21388","condition":"full-information","relevant_dimensions":["wings","legs"],"bee_group":{"antennae":"X","wings":"1","pattern":"X","legs":"F"},"bonus":1.6200000000000012},{"rt":24496.200000000186,"stimulus":"bees-with-color/bee-A2SF.svg","response":0,"trial_type":"image-button-response","trial_index":41,"time_elapsed":976136,"internal_node_id":"0.0-4.0-0.17","subject_id":"60c352545305f1a05a888b79","study_id":"6197b3f67c2b5cd3b6d9596a","session_id":"6197b88961e524386ae21388","condition":"full-information","relevant_dimensions":["wings","legs"],"bee_group":{"antennae":"X","wings":"1","pattern":"X","legs":"F"},"action":"harvest","summary":"good-harvest","bonus":1.6200000000000012},{"rt":876.3999999994412,"stimulus":"\n                    <p><b>Action: <em>harvest</em></b></p>\n                    <p>This is the bee that you just saw.</p>\n                    <img src=\"bees-with-color/bee-A2SF.svg\" width=\"200\">\n                    <p><span class=\"greenText\"><b>Successful harvest!</b></span><br>Your pay has increased by $0.02. Your bonus pay is now $0.46.</p>\n            ","response":0,"trial_type":"html-button-response","trial_index":42,"time_elapsed":977015,"internal_node_id":"0.0-4.0-1.17","subject_id":"60c352545305f1a05a888b79","study_id":"6197b3f67c2b5cd3b6d9596a","session_id":"6197b88961e524386ae21388","condition":"full-information","relevant_dimensions":["wings","legs"],"bee_group":{"antennae":"X","wings":"1","pattern":"X","legs":"F"},"bonus":1.6200000000000012},{"rt":19576.799999999814,"stimulus":"bees-with-color/bee-B2SF.svg","response":0,"trial_type":"image-button-response","trial_index":43,"time_elapsed":996595,"internal_node_id":"0.0-4.0-0.18","subject_id":"60c352545305f1a05a888b79","study_id":"6197b3f67c2b5cd3b6d9596a","session_id":"6197b88961e524386ae21388","condition":"full-information","relevant_dimensions":["wings","legs"],"bee_group":{"antennae":"X","wings":"1","pattern":"X","legs":"F"},"action":"harvest","summary":"good-harvest","bonus":1.6200000000000012},{"rt":1055.7000000001863,"stimulus":"\n                    <p><b>Action: <em>harvest</em></b></p>\n                    <p>This is the bee that you just saw.</p>\n                    <img src=\"bees-with-color/bee-B2SF.svg\" width=\"200\">\n                    <p><span class=\"greenText\"><b>Successful harvest!</b></span><br>Your pay has increased by $0.02. Your bonus pay is now $0.48.</p>\n            ","response":0,"trial_type":"html-button-response","trial_index":44,"time_elapsed":997656,"internal_node_id":"0.0-4.0-1.18","subject_id":"60c352545305f1a05a888b79","study_id":"6197b3f67c2b5cd3b6d9596a","session_id":"6197b88961e524386ae21388","condition":"full-information","relevant_dimensions":["wings","legs"],"bee_group":{"antennae":"X","wings":"1","pattern":"X","legs":"F"},"bonus":1.6200000000000012},{"rt":24545,"stimulus":"bees-with-color/bee-B2SM.svg","response":0,"trial_type":"image-button-response","trial_index":45,"time_elapsed":1022204,"internal_node_id":"0.0-4.0-0.19","subject_id":"60c352545305f1a05a888b79","study_id":"6197b3f67c2b5cd3b6d9596a","session_id":"6197b88961e524386ae21388","condition":"full-information","relevant_dimensions":["wings","legs"],"bee_group":{"antennae":"X","wings":"1","pattern":"X","legs":"F"},"action":"harvest","summary":"good-harvest","bonus":1.6200000000000012},{"rt":802.5,"stimulus":"\n                    <p><b>Action: <em>harvest</em></b></p>\n                    <p>This is the bee that you just saw.</p>\n                    <img src=\"bees-with-color/bee-B2SM.svg\" width=\"200\">\n                    <p><span class=\"greenText\"><b>Successful harvest!</b></span><br>Your pay has increased by $0.02. Your bonus pay is now $0.50.</p>\n            ","response":0,"trial_type":"html-button-response","trial_index":46,"time_elapsed":1023010,"internal_node_id":"0.0-4.0-1.19","subject_id":"60c352545305f1a05a888b79","study_id":"6197b3f67c2b5cd3b6d9596a","session_id":"6197b88961e524386ae21388","condition":"full-information","relevant_dimensions":["wings","legs"],"bee_group":{"antennae":"X","wings":"1","pattern":"X","legs":"F"},"bonus":1.6200000000000012},{"rt":39539.5,"stimulus":"bees-with-color/bee-A2DM.svg","response":0,"trial_type":"image-button-response","trial_index":47,"time_elapsed":1062552,"internal_node_id":"0.0-4.0-0.20","subject_id":"60c352545305f1a05a888b79","study_id":"6197b3f67c2b5cd3b6d9596a","session_id":"6197b88961e524386ae21388","condition":"full-information","relevant_dimensions":["wings","legs"],"bee_group":{"antennae":"X","wings":"1","pattern":"X","legs":"F"},"action":"harvest","summary":"good-harvest","bonus":1.6200000000000012},{"rt":811,"stimulus":"\n                    <p><b>Action: <em>harvest</em></b></p>\n                    <p>This is the bee that you just saw.</p>\n                    <img src=\"bees-with-color/bee-A2DM.svg\" width=\"200\">\n                    <p><span class=\"greenText\"><b>Successful harvest!</b></span><br>Your pay has increased by $0.02. Your bonus pay is now $0.52.</p>\n            ","response":0,"trial_type":"html-button-response","trial_index":48,"time_elapsed":1063365,"internal_node_id":"0.0-4.0-1.20","subject_id":"60c352545305f1a05a888b79","study_id":"6197b3f67c2b5cd3b6d9596a","session_id":"6197b88961e524386ae21388","condition":"full-information","relevant_dimensions":["wings","legs"],"bee_group":{"antennae":"X","wings":"1","pattern":"X","legs":"F"},"bonus":1.6200000000000012},{"rt":23511.900000000373,"stimulus":"bees-with-color/bee-B1SM.svg","response":0,"trial_type":"image-button-response","trial_index":49,"time_elapsed":1086880,"internal_node_id":"0.0-4.0-0.21","subject_id":"60c352545305f1a05a888b79","study_id":"6197b3f67c2b5cd3b6d9596a","session_id":"6197b88961e524386ae21388","condition":"full-information","relevant_dimensions":["wings","legs"],"bee_group":{"antennae":"X","wings":"1","pattern":"X","legs":"F"},"action":"harvest","summary":"good-harvest","bonus":1.6200000000000012},{"rt":1004.2000000001863,"stimulus":"\n                    <p><b>Action: <em>harvest</em></b></p>\n                    <p>This is the bee that you just saw.</p>\n                    <img src=\"bees-with-color/bee-B1SM.svg\" width=\"200\">\n                    <p><span class=\"greenText\"><b>Successful harvest!</b></span><br>Your pay has increased by $0.02. Your bonus pay is now $0.54.</p>\n            ","response":0,"trial_type":"html-button-response","trial_index":50,"time_elapsed":1087886,"internal_node_id":"0.0-4.0-1.21","subject_id":"60c352545305f1a05a888b79","study_id":"6197b3f67c2b5cd3b6d9596a","session_id":"6197b88961e524386ae21388","condition":"full-information","relevant_dimensions":["wings","legs"],"bee_group":{"antennae":"X","wings":"1","pattern":"X","legs":"F"},"bonus":1.6200000000000012},{"rt":16754,"stimulus":"bees-with-color/bee-A1DF.svg","response":1,"trial_type":"image-button-response","trial_index":51,"time_elapsed":1104644,"internal_node_id":"0.0-4.0-0.22","subject_id":"60c352545305f1a05a888b79","study_id":"6197b3f67c2b5cd3b6d9596a","session_id":"6197b88961e524386ae21388","condition":"full-information","relevant_dimensions":["wings","legs"],"bee_group":{"antennae":"X","wings":"1","pattern":"X","legs":"F"},"action":"avoid","summary":"good-avoid","bonus":1.6200000000000012},{"rt":992,"stimulus":"\n                    <p><b>Action: <em>avoid</em></b></p>\n                    <p>This is the bee that you just saw.</p>\n                    <img src=\"bees-with-color/bee-A1DF.svg\" width=\"200\">\n                    <p><span class=\"greenText\">Good choice!</span>  This bee would have stung you.<br>Your bonus pay is unchanged, and remains at $0.54.</p>\n            ","response":0,"trial_type":"html-button-response","trial_index":52,"time_elapsed":1105639,"internal_node_id":"0.0-4.0-1.22","subject_id":"60c352545305f1a05a888b79","study_id":"6197b3f67c2b5cd3b6d9596a","session_id":"6197b88961e524386ae21388","condition":"full-information","relevant_dimensions":["wings","legs"],"bee_group":{"antennae":"X","wings":"1","pattern":"X","legs":"F"},"bonus":1.6200000000000012},{"rt":22000,"stimulus":"bees-with-color/bee-A1SM.svg","response":0,"trial_type":"image-button-response","trial_index":53,"time_elapsed":1127642,"internal_node_id":"0.0-4.0-0.23","subject_id":"60c352545305f1a05a888b79","study_id":"6197b3f67c2b5cd3b6d9596a","session_id":"6197b88961e524386ae21388","condition":"full-information","relevant_dimensions":["wings","legs"],"bee_group":{"antennae":"X","wings":"1","pattern":"X","legs":"F"},"action":"harvest","summary":"good-harvest","bonus":1.6200000000000012},{"rt":1037.7000000001863,"stimulus":"\n                    <p><b>Action: <em>harvest</em></b></p>\n                    <p>This is the bee that you just saw.</p>\n                    <img src=\"bees-with-color/bee-A1SM.svg\" width=\"200\">\n                    <p><span class=\"greenText\"><b>Successful harvest!</b></span><br>Your pay has increased by $0.02. Your bonus pay is now $0.56.</p>\n            ","response":0,"trial_type":"html-button-response","trial_index":54,"time_elapsed":1128681,"internal_node_id":"0.0-4.0-1.23","subject_id":"60c352545305f1a05a888b79","study_id":"6197b3f67c2b5cd3b6d9596a","session_id":"6197b88961e524386ae21388","condition":"full-information","relevant_dimensions":["wings","legs"],"bee_group":{"antennae":"X","wings":"1","pattern":"X","legs":"F"},"bonus":1.6200000000000012},{"rt":25607.900000000373,"stimulus":"bees-with-color/bee-B2DM.svg","response":1,"trial_type":"image-button-response","trial_index":55,"time_elapsed":1154293,"internal_node_id":"0.0-4.0-0.24","subject_id":"60c352545305f1a05a888b79","study_id":"6197b3f67c2b5cd3b6d9596a","session_id":"6197b88961e524386ae21388","condition":"full-information","relevant_dimensions":["wings","legs"],"bee_group":{"antennae":"X","wings":"1","pattern":"X","legs":"F"},"action":"avoid","summary":"bad-avoid","bonus":1.6200000000000012},{"rt":13743.5,"stimulus":"\n                    <p><b>Action: <em>avoid</em></b></p>\n                    <p>This is the bee that you just saw.</p>\n                    <img src=\"bees-with-color/bee-B2DM.svg\" width=\"200\">\n                    <p><span class=\"redText\">Bad choice,</span> the bee was friendly.<br>Your bonus pay is unchanged, and remains at $0.56.</p>\n            ","response":0,"trial_type":"html-button-response","trial_index":56,"time_elapsed":1168040,"internal_node_id":"0.0-4.0-1.24","subject_id":"60c352545305f1a05a888b79","study_id":"6197b3f67c2b5cd3b6d9596a","session_id":"6197b88961e524386ae21388","condition":"full-information","relevant_dimensions":["wings","legs"],"bee_group":{"antennae":"X","wings":"1","pattern":"X","legs":"F"},"bonus":1.6200000000000012},{"rt":45425.799999999814,"stimulus":"bees-with-color/bee-A1DM.svg","response":0,"trial_type":"image-button-response","trial_index":57,"time_elapsed":1213469,"internal_node_id":"0.0-4.0-0.25","subject_id":"60c352545305f1a05a888b79","study_id":"6197b3f67c2b5cd3b6d9596a","session_id":"6197b88961e524386ae21388","condition":"full-information","relevant_dimensions":["wings","legs"],"bee_group":{"antennae":"X","wings":"1","pattern":"X","legs":"F"},"action":"harvest","summary":"good-harvest","bonus":1.6200000000000012},{"rt":836.1999999992549,"stimulus":"\n                    <p><b>Action: <em>harvest</em></b></p>\n                    <p>This is the bee that you just saw.</p>\n                    <img src=\"bees-with-color/bee-A1DM.svg\" width=\"200\">\n                    <p><span class=\"greenText\"><b>Successful harvest!</b></span><br>Your pay has increased by $0.02. Your bonus pay is now $0.58.</p>\n            ","response":0,"trial_type":"html-button-response","trial_index":58,"time_elapsed":1214308,"internal_node_id":"0.0-4.0-1.25","subject_id":"60c352545305f1a05a888b79","study_id":"6197b3f67c2b5cd3b6d9596a","session_id":"6197b88961e524386ae21388","condition":"full-information","relevant_dimensions":["wings","legs"],"bee_group":{"antennae":"X","wings":"1","pattern":"X","legs":"F"},"bonus":1.6200000000000012},{"rt":15050.399999999441,"stimulus":"bees-with-color/bee-B2DF.svg","response":0,"trial_type":"image-button-response","trial_index":59,"time_elapsed":1229361,"internal_node_id":"0.0-4.0-0.26","subject_id":"60c352545305f1a05a888b79","study_id":"6197b3f67c2b5cd3b6d9596a","session_id":"6197b88961e524386ae21388","condition":"full-information","relevant_dimensions":["wings","legs"],"bee_group":{"antennae":"X","wings":"1","pattern":"X","legs":"F"},"action":"harvest","summary":"good-harvest","bonus":1.6200000000000012},{"rt":869.1999999992549,"stimulus":"\n                    <p><b>Action: <em>harvest</em></b></p>\n                    <p>This is the bee that you just saw.</p>\n                    <img src=\"bees-with-color/bee-B2DF.svg\" width=\"200\">\n                    <p><span class=\"greenText\"><b>Successful harvest!</b></span><br>Your pay has increased by $0.02. Your bonus pay is now $0.60.</p>\n            ","response":0,"trial_type":"html-button-response","trial_index":60,"time_elapsed":1230234,"internal_node_id":"0.0-4.0-1.26","subject_id":"60c352545305f1a05a888b79","study_id":"6197b3f67c2b5cd3b6d9596a","session_id":"6197b88961e524386ae21388","condition":"full-information","relevant_dimensions":["wings","legs"],"bee_group":{"antennae":"X","wings":"1","pattern":"X","legs":"F"},"bonus":1.6200000000000012},{"rt":9450.5,"stimulus":"bees-with-color/bee-A2SM.svg","response":0,"trial_type":"image-button-response","trial_index":61,"time_elapsed":1239688,"internal_node_id":"0.0-4.0-0.27","subject_id":"60c352545305f1a05a888b79","study_id":"6197b3f67c2b5cd3b6d9596a","session_id":"6197b88961e524386ae21388","condition":"full-information","relevant_dimensions":["wings","legs"],"bee_group":{"antennae":"X","wings":"1","pattern":"X","legs":"F"},"action":"harvest","summary":"good-harvest","bonus":1.6200000000000012},{"rt":3337,"stimulus":"\n                    <p><b>Action: <em>harvest</em></b></p>\n                    <p>This is the bee that you just saw.</p>\n                    <img src=\"bees-with-color/bee-A2SM.svg\" width=\"200\">\n                    <p><span class=\"greenText\"><b>Successful harvest!</b></span><br>Your pay has increased by $0.02. Your bonus pay is now $0.62.</p>\n            ","response":0,"trial_type":"html-button-response","trial_index":62,"time_elapsed":1243028,"internal_node_id":"0.0-4.0-1.27","subject_id":"60c352545305f1a05a888b79","study_id":"6197b3f67c2b5cd3b6d9596a","session_id":"6197b88961e524386ae21388","condition":"full-information","relevant_dimensions":["wings","legs"],"bee_group":{"antennae":"X","wings":"1","pattern":"X","legs":"F"},"bonus":1.6200000000000012},{"rt":28928.299999999814,"stimulus":"bees-with-color/bee-A1SF.svg","response":1,"trial_type":"image-button-response","trial_index":63,"time_elapsed":1271960,"internal_node_id":"0.0-4.0-0.28","subject_id":"60c352545305f1a05a888b79","study_id":"6197b3f67c2b5cd3b6d9596a","session_id":"6197b88961e524386ae21388","condition":"full-information","relevant_dimensions":["wings","legs"],"bee_group":{"antennae":"X","wings":"1","pattern":"X","legs":"F"},"action":"avoid","summary":"good-avoid","bonus":1.6200000000000012},{"rt":13863.600000000559,"stimulus":"\n                    <p><b>Action: <em>avoid</em></b></p>\n                    <p>This is the bee that you just saw.</p>\n                    <img src=\"bees-with-color/bee-A1SF.svg\" width=\"200\">\n                    <p><span class=\"greenText\">Good choice!</span>  This bee would have stung you.<br>Your bonus pay is unchanged, and remains at $0.62.</p>\n            ","response":0,"trial_type":"html-button-response","trial_index":64,"time_elapsed":1285826,"internal_node_id":"0.0-4.0-1.28","subject_id":"60c352545305f1a05a888b79","study_id":"6197b3f67c2b5cd3b6d9596a","session_id":"6197b88961e524386ae21388","condition":"full-information","relevant_dimensions":["wings","legs"],"bee_group":{"antennae":"X","wings":"1","pattern":"X","legs":"F"},"bonus":1.6200000000000012},{"rt":9723.099999999627,"stimulus":"bees-with-color/bee-B1SF.svg","response":1,"trial_type":"image-button-response","trial_index":65,"time_elapsed":1295552,"internal_node_id":"0.0-4.0-0.29","subject_id":"60c352545305f1a05a888b79","study_id":"6197b3f67c2b5cd3b6d9596a","session_id":"6197b88961e524386ae21388","condition":"full-information","relevant_dimensions":["wings","legs"],"bee_group":{"antennae":"X","wings":"1","pattern":"X","legs":"F"},"action":"avoid","summary":"good-avoid","bonus":1.6200000000000012},{"rt":1798.2000000001863,"stimulus":"\n                    <p><b>Action: <em>avoid</em></b></p>\n                    <p>This is the bee that you just saw.</p>\n                    <img src=\"bees-with-color/bee-B1SF.svg\" width=\"200\">\n                    <p><span class=\"greenText\">Good choice!</span>  This bee would have stung you.<br>Your bonus pay is unchanged, and remains at $0.62.</p>\n            ","response":0,"trial_type":"html-button-response","trial_index":66,"time_elapsed":1297353,"internal_node_id":"0.0-4.0-1.29","subject_id":"60c352545305f1a05a888b79","study_id":"6197b3f67c2b5cd3b6d9596a","session_id":"6197b88961e524386ae21388","condition":"full-information","relevant_dimensions":["wings","legs"],"bee_group":{"antennae":"X","wings":"1","pattern":"X","legs":"F"},"bonus":1.6200000000000012},{"rt":16852.099999999627,"stimulus":"bees-with-color/bee-B1DM.svg","response":0,"trial_type":"image-button-response","trial_index":67,"time_elapsed":1314209,"internal_node_id":"0.0-4.0-0.30","subject_id":"60c352545305f1a05a888b79","study_id":"6197b3f67c2b5cd3b6d9596a","session_id":"6197b88961e524386ae21388","condition":"full-information","relevant_dimensions":["wings","legs"],"bee_group":{"antennae":"X","wings":"1","pattern":"X","legs":"F"},"action":"harvest","summary":"good-harvest","bonus":1.6200000000000012},{"rt":884.3999999994412,"stimulus":"\n                    <p><b>Action: <em>harvest</em></b></p>\n                    <p>This is the bee that you just saw.</p>\n                    <img src=\"bees-with-color/bee-B1DM.svg\" width=\"200\">\n                    <p><span class=\"greenText\"><b>Successful harvest!</b></span><br>Your pay has increased by $0.02. Your bonus pay is now $0.64.</p>\n            ","response":0,"trial_type":"html-button-response","trial_index":68,"time_elapsed":1315097,"internal_node_id":"0.0-4.0-1.30","subject_id":"60c352545305f1a05a888b79","study_id":"6197b3f67c2b5cd3b6d9596a","session_id":"6197b88961e524386ae21388","condition":"full-information","relevant_dimensions":["wings","legs"],"bee_group":{"antennae":"X","wings":"1","pattern":"X","legs":"F"},"bonus":1.6200000000000012},{"rt":14986,"stimulus":"bees-with-color/bee-A2DF.svg","response":0,"trial_type":"image-button-response","trial_index":69,"time_elapsed":1330086,"internal_node_id":"0.0-4.0-0.31","subject_id":"60c352545305f1a05a888b79","study_id":"6197b3f67c2b5cd3b6d9596a","session_id":"6197b88961e524386ae21388","condition":"full-information","relevant_dimensions":["wings","legs"],"bee_group":{"antennae":"X","wings":"1","pattern":"X","legs":"F"},"action":"harvest","summary":"good-harvest","bonus":1.6200000000000012},{"rt":894.0999999996275,"stimulus":"\n                    <p><b>Action: <em>harvest</em></b></p>\n                    <p>This is the bee that you just saw.</p>\n                    <img src=\"bees-with-color/bee-A2DF.svg\" width=\"200\">\n                    <p><span class=\"greenText\"><b>Successful harvest!</b></span><br>Your pay has increased by $0.02. Your bonus pay is now $0.66.</p>\n            ","response":0,"trial_type":"html-button-response","trial_index":70,"time_elapsed":1330982,"internal_node_id":"0.0-4.0-1.31","subject_id":"60c352545305f1a05a888b79","study_id":"6197b3f67c2b5cd3b6d9596a","session_id":"6197b88961e524386ae21388","condition":"full-information","relevant_dimensions":["wings","legs"],"bee_group":{"antennae":"X","wings":"1","pattern":"X","legs":"F"},"bonus":1.6200000000000012},{"rt":13086.799999999814,"stimulus":"bees-with-color/bee-B2DF.svg","response":0,"trial_type":"image-button-response","trial_index":71,"time_elapsed":1344072,"internal_node_id":"0.0-4.0-0.32","subject_id":"60c352545305f1a05a888b79","study_id":"6197b3f67c2b5cd3b6d9596a","session_id":"6197b88961e524386ae21388","condition":"full-information","relevant_dimensions":["wings","legs"],"bee_group":{"antennae":"X","wings":"1","pattern":"X","legs":"F"},"action":"harvest","summary":"good-harvest","bonus":1.6200000000000012},{"rt":882,"stimulus":"\n                    <p><b>Action: <em>harvest</em></b></p>\n                    <p>This is the bee that you just saw.</p>\n                    <img src=\"bees-with-color/bee-B2DF.svg\" width=\"200\">\n                    <p><span class=\"greenText\"><b>Successful harvest!</b></span><br>Your pay has increased by $0.02. Your bonus pay is now $0.68.</p>\n            ","response":0,"trial_type":"html-button-response","trial_index":72,"time_elapsed":1344957,"internal_node_id":"0.0-4.0-1.32","subject_id":"60c352545305f1a05a888b79","study_id":"6197b3f67c2b5cd3b6d9596a","session_id":"6197b88961e524386ae21388","condition":"full-information","relevant_dimensions":["wings","legs"],"bee_group":{"antennae":"X","wings":"1","pattern":"X","legs":"F"},"bonus":1.6200000000000012},{"rt":14017.700000000186,"stimulus":"bees-with-color/bee-A1SF.svg","response":1,"trial_type":"image-button-response","trial_index":73,"time_elapsed":1358978,"internal_node_id":"0.0-4.0-0.33","subject_id":"60c352545305f1a05a888b79","study_id":"6197b3f67c2b5cd3b6d9596a","session_id":"6197b88961e524386ae21388","condition":"full-information","relevant_dimensions":["wings","legs"],"bee_group":{"antennae":"X","wings":"1","pattern":"X","legs":"F"},"action":"avoid","summary":"good-avoid","bonus":1.6200000000000012},{"rt":811.8999999994412,"stimulus":"\n                    <p><b>Action: <em>avoid</em></b></p>\n                    <p>This is the bee that you just saw.</p>\n                    <img src=\"bees-with-color/bee-A1SF.svg\" width=\"200\">\n                    <p><span class=\"greenText\">Good choice!</span>  This bee would have stung you.<br>Your bonus pay is unchanged, and remains at $0.68.</p>\n            ","response":0,"trial_type":"html-button-response","trial_index":74,"time_elapsed":1359792,"internal_node_id":"0.0-4.0-1.33","subject_id":"60c352545305f1a05a888b79","study_id":"6197b3f67c2b5cd3b6d9596a","session_id":"6197b88961e524386ae21388","condition":"full-information","relevant_dimensions":["wings","legs"],"bee_group":{"antennae":"X","wings":"1","pattern":"X","legs":"F"},"bonus":1.6200000000000012},{"rt":18225.799999999814,"stimulus":"bees-with-color/bee-A2SM.svg","response":0,"trial_type":"image-button-response","trial_index":75,"time_elapsed":1378021,"internal_node_id":"0.0-4.0-0.34","subject_id":"60c352545305f1a05a888b79","study_id":"6197b3f67c2b5cd3b6d9596a","session_id":"6197b88961e524386ae21388","condition":"full-information","relevant_dimensions":["wings","legs"],"bee_group":{"antennae":"X","wings":"1","pattern":"X","legs":"F"},"action":"harvest","summary":"good-harvest","bonus":1.6200000000000012},{"rt":720.7000000001863,"stimulus":"\n                    <p><b>Action: <em>harvest</em></b></p>\n                    <p>This is the bee that you just saw.</p>\n                    <img src=\"bees-with-color/bee-A2SM.svg\" width=\"200\">\n                    <p><span class=\"greenText\"><b>Successful harvest!</b></span><br>Your pay has increased by $0.02. Your bonus pay is now $0.70.</p>\n            ","response":0,"trial_type":"html-button-response","trial_index":76,"time_elapsed":1378744,"internal_node_id":"0.0-4.0-1.34","subject_id":"60c352545305f1a05a888b79","study_id":"6197b3f67c2b5cd3b6d9596a","session_id":"6197b88961e524386ae21388","condition":"full-information","relevant_dimensions":["wings","legs"],"bee_group":{"antennae":"X","wings":"1","pattern":"X","legs":"F"},"bonus":1.6200000000000012},{"rt":247450.90000000037,"stimulus":"bees-with-color/bee-B2SM.svg","response":0,"trial_type":"image-button-response","trial_index":77,"time_elapsed":1626199,"internal_node_id":"0.0-4.0-0.35","subject_id":"60c352545305f1a05a888b79","study_id":"6197b3f67c2b5cd3b6d9596a","session_id":"6197b88961e524386ae21388","condition":"full-information","relevant_dimensions":["wings","legs"],"bee_group":{"antennae":"X","wings":"1","pattern":"X","legs":"F"},"action":"harvest","summary":"good-harvest","bonus":1.6200000000000012},{"rt":980,"stimulus":"\n                    <p><b>Action: <em>harvest</em></b></p>\n                    <p>This is the bee that you just saw.</p>\n                    <img src=\"bees-with-color/bee-B2SM.svg\" width=\"200\">\n                    <p><span class=\"greenText\"><b>Successful harvest!</b></span><br>Your pay has increased by $0.02. Your bonus pay is now $0.72.</p>\n            ","response":0,"trial_type":"html-button-response","trial_index":78,"time_elapsed":1627183,"internal_node_id":"0.0-4.0-1.35","subject_id":"60c352545305f1a05a888b79","study_id":"6197b3f67c2b5cd3b6d9596a","session_id":"6197b88961e524386ae21388","condition":"full-information","relevant_dimensions":["wings","legs"],"bee_group":{"antennae":"X","wings":"1","pattern":"X","legs":"F"},"bonus":1.6200000000000012},{"rt":22878.599999999627,"stimulus":"bees-with-color/bee-B1SM.svg","response":0,"trial_type":"image-button-response","trial_index":79,"time_elapsed":1650066,"internal_node_id":"0.0-4.0-0.36","subject_id":"60c352545305f1a05a888b79","study_id":"6197b3f67c2b5cd3b6d9596a","session_id":"6197b88961e524386ae21388","condition":"full-information","relevant_dimensions":["wings","legs"],"bee_group":{"antennae":"X","wings":"1","pattern":"X","legs":"F"},"action":"harvest","summary":"good-harvest","bonus":1.6200000000000012},{"rt":1239.5,"stimulus":"\n                    <p><b>Action: <em>harvest</em></b></p>\n                    <p>This is the bee that you just saw.</p>\n                    <img src=\"bees-with-color/bee-B1SM.svg\" width=\"200\">\n                    <p><span class=\"greenText\"><b>Successful harvest!</b></span><br>Your pay has increased by $0.02. Your bonus pay is now $0.74.</p>\n            ","response":0,"trial_type":"html-button-response","trial_index":80,"time_elapsed":1651308,"internal_node_id":"0.0-4.0-1.36","subject_id":"60c352545305f1a05a888b79","study_id":"6197b3f67c2b5cd3b6d9596a","session_id":"6197b88961e524386ae21388","condition":"full-information","relevant_dimensions":["wings","legs"],"bee_group":{"antennae":"X","wings":"1","pattern":"X","legs":"F"},"bonus":1.6200000000000012},{"rt":10256,"stimulus":"bees-with-color/bee-A2DF.svg","response":0,"trial_type":"image-button-response","trial_index":81,"time_elapsed":1661568,"internal_node_id":"0.0-4.0-0.37","subject_id":"60c352545305f1a05a888b79","study_id":"6197b3f67c2b5cd3b6d9596a","session_id":"6197b88961e524386ae21388","condition":"full-information","relevant_dimensions":["wings","legs"],"bee_group":{"antennae":"X","wings":"1","pattern":"X","legs":"F"},"action":"harvest","summary":"good-harvest","bonus":1.6200000000000012},{"rt":802.2999999998137,"stimulus":"\n                    <p><b>Action: <em>harvest</em></b></p>\n                    <p>This is the bee that you just saw.</p>\n                    <img src=\"bees-with-color/bee-A2DF.svg\" width=\"200\">\n                    <p><span class=\"greenText\"><b>Successful harvest!</b></span><br>Your pay has increased by $0.02. Your bonus pay is now $0.76.</p>\n            ","response":0,"trial_type":"html-button-response","trial_index":82,"time_elapsed":1662372,"internal_node_id":"0.0-4.0-1.37","subject_id":"60c352545305f1a05a888b79","study_id":"6197b3f67c2b5cd3b6d9596a","session_id":"6197b88961e524386ae21388","condition":"full-information","relevant_dimensions":["wings","legs"],"bee_group":{"antennae":"X","wings":"1","pattern":"X","legs":"F"},"bonus":1.6200000000000012},{"rt":10503.799999999814,"stimulus":"bees-with-color/bee-B1SF.svg","response":1,"trial_type":"image-button-response","trial_index":83,"time_elapsed":1672880,"internal_node_id":"0.0-4.0-0.38","subject_id":"60c352545305f1a05a888b79","study_id":"6197b3f67c2b5cd3b6d9596a","session_id":"6197b88961e524386ae21388","condition":"full-information","relevant_dimensions":["wings","legs"],"bee_group":{"antennae":"X","wings":"1","pattern":"X","legs":"F"},"action":"avoid","summary":"good-avoid","bonus":1.6200000000000012},{"rt":771.4000000003725,"stimulus":"\n                    <p><b>Action: <em>avoid</em></b></p>\n                    <p>This is the bee that you just saw.</p>\n                    <img src=\"bees-with-color/bee-B1SF.svg\" width=\"200\">\n                    <p><span class=\"greenText\">Good choice!</span>  This bee would have stung you.<br>Your bonus pay is unchanged, and remains at $0.76.</p>\n            ","response":0,"trial_type":"html-button-response","trial_index":84,"time_elapsed":1673654,"internal_node_id":"0.0-4.0-1.38","subject_id":"60c352545305f1a05a888b79","study_id":"6197b3f67c2b5cd3b6d9596a","session_id":"6197b88961e524386ae21388","condition":"full-information","relevant_dimensions":["wings","legs"],"bee_group":{"antennae":"X","wings":"1","pattern":"X","legs":"F"},"bonus":1.6200000000000012},{"rt":8672.5,"stimulus":"bees-with-color/bee-A2SF.svg","response":0,"trial_type":"image-button-response","trial_index":85,"time_elapsed":1682330,"internal_node_id":"0.0-4.0-0.39","subject_id":"60c352545305f1a05a888b79","study_id":"6197b3f67c2b5cd3b6d9596a","session_id":"6197b88961e524386ae21388","condition":"full-information","relevant_dimensions":["wings","legs"],"bee_group":{"antennae":"X","wings":"1","pattern":"X","legs":"F"},"action":"harvest","summary":"good-harvest","bonus":1.6200000000000012},{"rt":782.2000000001863,"stimulus":"\n                    <p><b>Action: <em>harvest</em></b></p>\n                    <p>This is the bee that you just saw.</p>\n                    <img src=\"bees-with-color/bee-A2SF.svg\" width=\"200\">\n                    <p><span class=\"greenText\"><b>Successful harvest!</b></span><br>Your pay has increased by $0.02. Your bonus pay is now $0.78.</p>\n            ","response":0,"trial_type":"html-button-response","trial_index":86,"time_elapsed":1683114,"internal_node_id":"0.0-4.0-1.39","subject_id":"60c352545305f1a05a888b79","study_id":"6197b3f67c2b5cd3b6d9596a","session_id":"6197b88961e524386ae21388","condition":"full-information","relevant_dimensions":["wings","legs"],"bee_group":{"antennae":"X","wings":"1","pattern":"X","legs":"F"},"bonus":1.6200000000000012},{"rt":7338.0999999996275,"stimulus":"bees-with-color/bee-A1DF.svg","response":1,"trial_type":"image-button-response","trial_index":87,"time_elapsed":1690454,"internal_node_id":"0.0-4.0-0.40","subject_id":"60c352545305f1a05a888b79","study_id":"6197b3f67c2b5cd3b6d9596a","session_id":"6197b88961e524386ae21388","condition":"full-information","relevant_dimensions":["wings","legs"],"bee_group":{"antennae":"X","wings":"1","pattern":"X","legs":"F"},"action":"avoid","summary":"good-avoid","bonus":1.6200000000000012},{"rt":1022.5999999996275,"stimulus":"\n                    <p><b>Action: <em>avoid</em></b></p>\n                    <p>This is the bee that you just saw.</p>\n                    <img src=\"bees-with-color/bee-A1DF.svg\" width=\"200\">\n                    <p><span class=\"greenText\">Good choice!</span>  This bee would have stung you.<br>Your bonus pay is unchanged, and remains at $0.78.</p>\n            ","response":0,"trial_type":"html-button-response","trial_index":88,"time_elapsed":1691479,"internal_node_id":"0.0-4.0-1.40","subject_id":"60c352545305f1a05a888b79","study_id":"6197b3f67c2b5cd3b6d9596a","session_id":"6197b88961e524386ae21388","condition":"full-information","relevant_dimensions":["wings","legs"],"bee_group":{"antennae":"X","wings":"1","pattern":"X","legs":"F"},"bonus":1.6200000000000012},{"rt":9724.100000000559,"stimulus":"bees-with-color/bee-B2DM.svg","response":0,"trial_type":"image-button-response","trial_index":89,"time_elapsed":1701206,"internal_node_id":"0.0-4.0-0.41","subject_id":"60c352545305f1a05a888b79","study_id":"6197b3f67c2b5cd3b6d9596a","session_id":"6197b88961e524386ae21388","condition":"full-information","relevant_dimensions":["wings","legs"],"bee_group":{"antennae":"X","wings":"1","pattern":"X","legs":"F"},"action":"harvest","summary":"good-harvest","bonus":1.6200000000000012},{"rt":650.2000000001863,"stimulus":"\n                    <p><b>Action: <em>harvest</em></b></p>\n                    <p>This is the bee that you just saw.</p>\n                    <img src=\"bees-with-color/bee-B2DM.svg\" width=\"200\">\n                    <p><span class=\"greenText\"><b>Successful harvest!</b></span><br>Your pay has increased by $0.02. Your bonus pay is now $0.80.</p>\n            ","response":0,"trial_type":"html-button-response","trial_index":90,"time_elapsed":1701858,"internal_node_id":"0.0-4.0-1.41","subject_id":"60c352545305f1a05a888b79","study_id":"6197b3f67c2b5cd3b6d9596a","session_id":"6197b88961e524386ae21388","condition":"full-information","relevant_dimensions":["wings","legs"],"bee_group":{"antennae":"X","wings":"1","pattern":"X","legs":"F"},"bonus":1.6200000000000012},{"rt":7937.300000000745,"stimulus":"bees-with-color/bee-A2DM.svg","response":0,"trial_type":"image-button-response","trial_index":91,"time_elapsed":1709798,"internal_node_id":"0.0-4.0-0.42","subject_id":"60c352545305f1a05a888b79","study_id":"6197b3f67c2b5cd3b6d9596a","session_id":"6197b88961e524386ae21388","condition":"full-information","relevant_dimensions":["wings","legs"],"bee_group":{"antennae":"X","wings":"1","pattern":"X","legs":"F"},"action":"harvest","summary":"good-harvest","bonus":1.6200000000000012},{"rt":673.5,"stimulus":"\n                    <p><b>Action: <em>harvest</em></b></p>\n                    <p>This is the bee that you just saw.</p>\n                    <img src=\"bees-with-color/bee-A2DM.svg\" width=\"200\">\n                    <p><span class=\"greenText\"><b>Successful harvest!</b></span><br>Your pay has increased by $0.02. Your bonus pay is now $0.82.</p>\n            ","response":0,"trial_type":"html-button-response","trial_index":92,"time_elapsed":1710475,"internal_node_id":"0.0-4.0-1.42","subject_id":"60c352545305f1a05a888b79","study_id":"6197b3f67c2b5cd3b6d9596a","session_id":"6197b88961e524386ae21388","condition":"full-information","relevant_dimensions":["wings","legs"],"bee_group":{"antennae":"X","wings":"1","pattern":"X","legs":"F"},"bonus":1.6200000000000012},{"rt":9910.200000000186,"stimulus":"bees-with-color/bee-B1DF.svg","response":1,"trial_type":"image-button-response","trial_index":93,"time_elapsed":1720388,"internal_node_id":"0.0-4.0-0.43","subject_id":"60c352545305f1a05a888b79","study_id":"6197b3f67c2b5cd3b6d9596a","session_id":"6197b88961e524386ae21388","condition":"full-information","relevant_dimensions":["wings","legs"],"bee_group":{"antennae":"X","wings":"1","pattern":"X","legs":"F"},"action":"avoid","summary":"good-avoid","bonus":1.6200000000000012},{"rt":604.2999999998137,"stimulus":"\n                    <p><b>Action: <em>avoid</em></b></p>\n                    <p>This is the bee that you just saw.</p>\n                    <img src=\"bees-with-color/bee-B1DF.svg\" width=\"200\">\n                    <p><span class=\"greenText\">Good choice!</span>  This bee would have stung you.<br>Your bonus pay is unchanged, and remains at $0.82.</p>\n            ","response":0,"trial_type":"html-button-response","trial_index":94,"time_elapsed":1720996,"internal_node_id":"0.0-4.0-1.43","subject_id":"60c352545305f1a05a888b79","study_id":"6197b3f67c2b5cd3b6d9596a","session_id":"6197b88961e524386ae21388","condition":"full-information","relevant_dimensions":["wings","legs"],"bee_group":{"antennae":"X","wings":"1","pattern":"X","legs":"F"},"bonus":1.6200000000000012},{"rt":6650.4000000003725,"stimulus":"bees-with-color/bee-A1DM.svg","response":0,"trial_type":"image-button-response","trial_index":95,"time_elapsed":1727651,"internal_node_id":"0.0-4.0-0.44","subject_id":"60c352545305f1a05a888b79","study_id":"6197b3f67c2b5cd3b6d9596a","session_id":"6197b88961e524386ae21388","condition":"full-information","relevant_dimensions":["wings","legs"],"bee_group":{"antennae":"X","wings":"1","pattern":"X","legs":"F"},"action":"harvest","summary":"good-harvest","bonus":1.6200000000000012},{"rt":661.2000000001863,"stimulus":"\n                    <p><b>Action: <em>harvest</em></b></p>\n                    <p>This is the bee that you just saw.</p>\n                    <img src=\"bees-with-color/bee-A1DM.svg\" width=\"200\">\n                    <p><span class=\"greenText\"><b>Successful harvest!</b></span><br>Your pay has increased by $0.02. Your bonus pay is now $0.84.</p>\n            ","response":0,"trial_type":"html-button-response","trial_index":96,"time_elapsed":1728314,"internal_node_id":"0.0-4.0-1.44","subject_id":"60c352545305f1a05a888b79","study_id":"6197b3f67c2b5cd3b6d9596a","session_id":"6197b88961e524386ae21388","condition":"full-information","relevant_dimensions":["wings","legs"],"bee_group":{"antennae":"X","wings":"1","pattern":"X","legs":"F"},"bonus":1.6200000000000012},{"rt":8852,"stimulus":"bees-with-color/bee-B1DM.svg","response":0,"trial_type":"image-button-response","trial_index":97,"time_elapsed":1737170,"internal_node_id":"0.0-4.0-0.45","subject_id":"60c352545305f1a05a888b79","study_id":"6197b3f67c2b5cd3b6d9596a","session_id":"6197b88961e524386ae21388","condition":"full-information","relevant_dimensions":["wings","legs"],"bee_group":{"antennae":"X","wings":"1","pattern":"X","legs":"F"},"action":"harvest","summary":"good-harvest","bonus":1.6200000000000012},{"rt":629.0999999996275,"stimulus":"\n                    <p><b>Action: <em>harvest</em></b></p>\n                    <p>This is the bee that you just saw.</p>\n                    <img src=\"bees-with-color/bee-B1DM.svg\" width=\"200\">\n                    <p><span class=\"greenText\"><b>Successful harvest!</b></span><br>Your pay has increased by $0.02. Your bonus pay is now $0.86.</p>\n            ","response":0,"trial_type":"html-button-response","trial_index":98,"time_elapsed":1737802,"internal_node_id":"0.0-4.0-1.45","subject_id":"60c352545305f1a05a888b79","study_id":"6197b3f67c2b5cd3b6d9596a","session_id":"6197b88961e524386ae21388","condition":"full-information","relevant_dimensions":["wings","legs"],"bee_group":{"antennae":"X","wings":"1","pattern":"X","legs":"F"},"bonus":1.6200000000000012},{"rt":1078.7999999998137,"stimulus":"bees-with-color/bee-B2SF.svg","response":0,"trial_type":"image-button-response","trial_index":99,"time_elapsed":1738886,"internal_node_id":"0.0-4.0-0.46","subject_id":"60c352545305f1a05a888b79","study_id":"6197b3f67c2b5cd3b6d9596a","session_id":"6197b88961e524386ae21388","condition":"full-information","relevant_dimensions":["wings","legs"],"bee_group":{"antennae":"X","wings":"1","pattern":"X","legs":"F"},"action":"harvest","summary":"good-harvest","bonus":1.6200000000000012},{"rt":572.7000000001863,"stimulus":"\n                    <p><b>Action: <em>harvest</em></b></p>\n                    <p>This is the bee that you just saw.</p>\n                    <img src=\"bees-with-color/bee-B2SF.svg\" width=\"200\">\n                    <p><span class=\"greenText\"><b>Successful harvest!</b></span><br>Your pay has increased by $0.02. Your bonus pay is now $0.88.</p>\n            ","response":0,"trial_type":"html-button-response","trial_index":100,"time_elapsed":1739461,"internal_node_id":"0.0-4.0-1.46","subject_id":"60c352545305f1a05a888b79","study_id":"6197b3f67c2b5cd3b6d9596a","session_id":"6197b88961e524386ae21388","condition":"full-information","relevant_dimensions":["wings","legs"],"bee_group":{"antennae":"X","wings":"1","pattern":"X","legs":"F"},"bonus":1.6200000000000012},{"rt":28919.099999999627,"stimulus":"bees-with-color/bee-A1SM.svg","response":0,"trial_type":"image-button-response","trial_index":101,"time_elapsed":1768383,"internal_node_id":"0.0-4.0-0.47","subject_id":"60c352545305f1a05a888b79","study_id":"6197b3f67c2b5cd3b6d9596a","session_id":"6197b88961e524386ae21388","condition":"full-information","relevant_dimensions":["wings","legs"],"bee_group":{"antennae":"X","wings":"1","pattern":"X","legs":"F"},"action":"harvest","summary":"good-harvest","bonus":1.6200000000000012},{"rt":636.8000000007451,"stimulus":"\n                    <p><b>Action: <em>harvest</em></b></p>\n                    <p>This is the bee that you just saw.</p>\n                    <img src=\"bees-with-color/bee-A1SM.svg\" width=\"200\">\n                    <p><span class=\"greenText\"><b>Successful harvest!</b></span><br>Your pay has increased by $0.02. Your bonus pay is now $0.90.</p>\n            ","response":0,"trial_type":"html-button-response","trial_index":102,"time_elapsed":1769022,"internal_node_id":"0.0-4.0-1.47","subject_id":"60c352545305f1a05a888b79","study_id":"6197b3f67c2b5cd3b6d9596a","session_id":"6197b88961e524386ae21388","condition":"full-information","relevant_dimensions":["wings","legs"],"bee_group":{"antennae":"X","wings":"1","pattern":"X","legs":"F"},"bonus":1.6200000000000012},{"rt":776.4000000003725,"stimulus":"bees-with-color/bee-B2DF.svg","response":0,"trial_type":"image-button-response","trial_index":103,"time_elapsed":1769801,"internal_node_id":"0.0-4.0-0.48","subject_id":"60c352545305f1a05a888b79","study_id":"6197b3f67c2b5cd3b6d9596a","session_id":"6197b88961e524386ae21388","condition":"full-information","relevant_dimensions":["wings","legs"],"bee_group":{"antennae":"X","wings":"1","pattern":"X","legs":"F"},"action":"harvest","summary":"good-harvest","bonus":1.6200000000000012},{"rt":528.9000000003725,"stimulus":"\n                    <p><b>Action: <em>harvest</em></b></p>\n                    <p>This is the bee that you just saw.</p>\n                    <img src=\"bees-with-color/bee-B2DF.svg\" width=\"200\">\n                    <p><span class=\"greenText\"><b>Successful harvest!</b></span><br>Your pay has increased by $0.02. Your bonus pay is now $0.92.</p>\n            ","response":0,"trial_type":"html-button-response","trial_index":104,"time_elapsed":1770333,"internal_node_id":"0.0-4.0-1.48","subject_id":"60c352545305f1a05a888b79","study_id":"6197b3f67c2b5cd3b6d9596a","session_id":"6197b88961e524386ae21388","condition":"full-information","relevant_dimensions":["wings","legs"],"bee_group":{"antennae":"X","wings":"1","pattern":"X","legs":"F"},"bonus":1.6200000000000012},{"rt":11439.299999999814,"stimulus":"bees-with-color/bee-B1SM.svg","response":0,"trial_type":"image-button-response","trial_index":105,"time_elapsed":1781774,"internal_node_id":"0.0-4.0-0.49","subject_id":"60c352545305f1a05a888b79","study_id":"6197b3f67c2b5cd3b6d9596a","session_id":"6197b88961e524386ae21388","condition":"full-information","relevant_dimensions":["wings","legs"],"bee_group":{"antennae":"X","wings":"1","pattern":"X","legs":"F"},"action":"harvest","summary":"good-harvest","bonus":1.6200000000000012},{"rt":10671.599999999627,"stimulus":"\n                    <p><b>Action: <em>harvest</em></b></p>\n                    <p>This is the bee that you just saw.</p>\n                    <img src=\"bees-with-color/bee-B1SM.svg\" width=\"200\">\n                    <p><span class=\"greenText\"><b>Successful harvest!</b></span><br>Your pay has increased by $0.02. Your bonus pay is now $0.94.</p>\n            ","response":0,"trial_type":"html-button-response","trial_index":106,"time_elapsed":1792448,"internal_node_id":"0.0-4.0-1.49","subject_id":"60c352545305f1a05a888b79","study_id":"6197b3f67c2b5cd3b6d9596a","session_id":"6197b88961e524386ae21388","condition":"full-information","relevant_dimensions":["wings","legs"],"bee_group":{"antennae":"X","wings":"1","pattern":"X","legs":"F"},"bonus":1.6200000000000012},{"rt":1503.6000000005588,"stimulus":"bees-with-color/bee-A1SM.svg","response":0,"trial_type":"image-button-response","trial_index":107,"time_elapsed":1793955,"internal_node_id":"0.0-4.0-0.50","subject_id":"60c352545305f1a05a888b79","study_id":"6197b3f67c2b5cd3b6d9596a","session_id":"6197b88961e524386ae21388","condition":"full-information","relevant_dimensions":["wings","legs"],"bee_group":{"antennae":"X","wings":"1","pattern":"X","legs":"F"},"action":"harvest","summary":"good-harvest","bonus":1.6200000000000012},{"rt":597.6999999992549,"stimulus":"\n                    <p><b>Action: <em>harvest</em></b></p>\n                    <p>This is the bee that you just saw.</p>\n                    <img src=\"bees-with-color/bee-A1SM.svg\" width=\"200\">\n                    <p><span class=\"greenText\"><b>Successful harvest!</b></span><br>Your pay has increased by $0.02. Your bonus pay is now $0.96.</p>\n            ","response":0,"trial_type":"html-button-response","trial_index":108,"time_elapsed":1794555,"internal_node_id":"0.0-4.0-1.50","subject_id":"60c352545305f1a05a888b79","study_id":"6197b3f67c2b5cd3b6d9596a","session_id":"6197b88961e524386ae21388","condition":"full-information","relevant_dimensions":["wings","legs"],"bee_group":{"antennae":"X","wings":"1","pattern":"X","legs":"F"},"bonus":1.6200000000000012},{"rt":1247,"stimulus":"bees-with-color/bee-A2SM.svg","response":0,"trial_type":"image-button-response","trial_index":109,"time_elapsed":1795804,"internal_node_id":"0.0-4.0-0.51","subject_id":"60c352545305f1a05a888b79","study_id":"6197b3f67c2b5cd3b6d9596a","session_id":"6197b88961e524386ae21388","condition":"full-information","relevant_dimensions":["wings","legs"],"bee_group":{"antennae":"X","wings":"1","pattern":"X","legs":"F"},"action":"harvest","summary":"good-harvest","bonus":1.6200000000000012},{"rt":477.40000000037253,"stimulus":"\n                    <p><b>Action: <em>harvest</em></b></p>\n                    <p>This is the bee that you just saw.</p>\n                    <img src=\"bees-with-color/bee-A2SM.svg\" width=\"200\">\n                    <p><span class=\"greenText\"><b>Successful harvest!</b></span><br>Your pay has increased by $0.02. Your bonus pay is now $0.98.</p>\n            ","response":0,"trial_type":"html-button-response","trial_index":110,"time_elapsed":1796284,"internal_node_id":"0.0-4.0-1.51","subject_id":"60c352545305f1a05a888b79","study_id":"6197b3f67c2b5cd3b6d9596a","session_id":"6197b88961e524386ae21388","condition":"full-information","relevant_dimensions":["wings","legs"],"bee_group":{"antennae":"X","wings":"1","pattern":"X","legs":"F"},"bonus":1.6200000000000012},{"rt":3072.0999999996275,"stimulus":"bees-with-color/bee-B2SF.svg","response":0,"trial_type":"image-button-response","trial_index":111,"time_elapsed":1799359,"internal_node_id":"0.0-4.0-0.52","subject_id":"60c352545305f1a05a888b79","study_id":"6197b3f67c2b5cd3b6d9596a","session_id":"6197b88961e524386ae21388","condition":"full-information","relevant_dimensions":["wings","legs"],"bee_group":{"antennae":"X","wings":"1","pattern":"X","legs":"F"},"action":"harvest","summary":"good-harvest","bonus":1.6200000000000012},{"rt":502,"stimulus":"\n                    <p><b>Action: <em>harvest</em></b></p>\n                    <p>This is the bee that you just saw.</p>\n                    <img src=\"bees-with-color/bee-B2SF.svg\" width=\"200\">\n                    <p><span class=\"greenText\"><b>Successful harvest!</b></span><br>Your pay has increased by $0.02. Your bonus pay is now $1.00.</p>\n            ","response":0,"trial_type":"html-button-response","trial_index":112,"time_elapsed":1799864,"internal_node_id":"0.0-4.0-1.52","subject_id":"60c352545305f1a05a888b79","study_id":"6197b3f67c2b5cd3b6d9596a","session_id":"6197b88961e524386ae21388","condition":"full-information","relevant_dimensions":["wings","legs"],"bee_group":{"antennae":"X","wings":"1","pattern":"X","legs":"F"},"bonus":1.6200000000000012},{"rt":1787.2999999998137,"stimulus":"bees-with-color/bee-A2SF.svg","response":0,"trial_type":"image-button-response","trial_index":113,"time_elapsed":1801655,"internal_node_id":"0.0-4.0-0.53","subject_id":"60c352545305f1a05a888b79","study_id":"6197b3f67c2b5cd3b6d9596a","session_id":"6197b88961e524386ae21388","condition":"full-information","relevant_dimensions":["wings","legs"],"bee_group":{"antennae":"X","wings":"1","pattern":"X","legs":"F"},"action":"harvest","summary":"good-harvest","bonus":1.6200000000000012},{"rt":541.9000000003725,"stimulus":"\n                    <p><b>Action: <em>harvest</em></b></p>\n                    <p>This is the bee that you just saw.</p>\n                    <img src=\"bees-with-color/bee-A2SF.svg\" width=\"200\">\n                    <p><span class=\"greenText\"><b>Successful harvest!</b></span><br>Your pay has increased by $0.02. Your bonus pay is now $1.02.</p>\n            ","response":0,"trial_type":"html-button-response","trial_index":114,"time_elapsed":1802200,"internal_node_id":"0.0-4.0-1.53","subject_id":"60c352545305f1a05a888b79","study_id":"6197b3f67c2b5cd3b6d9596a","session_id":"6197b88961e524386ae21388","condition":"full-information","relevant_dimensions":["wings","legs"],"bee_group":{"antennae":"X","wings":"1","pattern":"X","legs":"F"},"bonus":1.6200000000000012},{"rt":1942.800000000745,"stimulus":"bees-with-color/bee-B1DF.svg","response":1,"trial_type":"image-button-response","trial_index":115,"time_elapsed":1804148,"internal_node_id":"0.0-4.0-0.54","subject_id":"60c352545305f1a05a888b79","study_id":"6197b3f67c2b5cd3b6d9596a","session_id":"6197b88961e524386ae21388","condition":"full-information","relevant_dimensions":["wings","legs"],"bee_group":{"antennae":"X","wings":"1","pattern":"X","legs":"F"},"action":"avoid","summary":"good-avoid","bonus":1.6200000000000012},{"rt":1128.6000000005588,"stimulus":"\n                    <p><b>Action: <em>avoid</em></b></p>\n                    <p>This is the bee that you just saw.</p>\n                    <img src=\"bees-with-color/bee-B1DF.svg\" width=\"200\">\n                    <p><span class=\"greenText\">Good choice!</span>  This bee would have stung you.<br>Your bonus pay is unchanged, and remains at $1.02.</p>\n            ","response":0,"trial_type":"html-button-response","trial_index":116,"time_elapsed":1805281,"internal_node_id":"0.0-4.0-1.54","subject_id":"60c352545305f1a05a888b79","study_id":"6197b3f67c2b5cd3b6d9596a","session_id":"6197b88961e524386ae21388","condition":"full-information","relevant_dimensions":["wings","legs"],"bee_group":{"antennae":"X","wings":"1","pattern":"X","legs":"F"},"bonus":1.6200000000000012},{"rt":1304.7999999998137,"stimulus":"bees-with-color/bee-A1SF.svg","response":1,"trial_type":"image-button-response","trial_index":117,"time_elapsed":1806590,"internal_node_id":"0.0-4.0-0.55","subject_id":"60c352545305f1a05a888b79","study_id":"6197b3f67c2b5cd3b6d9596a","session_id":"6197b88961e524386ae21388","condition":"full-information","relevant_dimensions":["wings","legs"],"bee_group":{"antennae":"X","wings":"1","pattern":"X","legs":"F"},"action":"avoid","summary":"good-avoid","bonus":1.6200000000000012},{"rt":541.5,"stimulus":"\n                    <p><b>Action: <em>avoid</em></b></p>\n                    <p>This is the bee that you just saw.</p>\n                    <img src=\"bees-with-color/bee-A1SF.svg\" width=\"200\">\n                    <p><span class=\"greenText\">Good choice!</span>  This bee would have stung you.<br>Your bonus pay is unchanged, and remains at $1.02.</p>\n            ","response":0,"trial_type":"html-button-response","trial_index":118,"time_elapsed":1807134,"internal_node_id":"0.0-4.0-1.55","subject_id":"60c352545305f1a05a888b79","study_id":"6197b3f67c2b5cd3b6d9596a","session_id":"6197b88961e524386ae21388","condition":"full-information","relevant_dimensions":["wings","legs"],"bee_group":{"antennae":"X","wings":"1","pattern":"X","legs":"F"},"bonus":1.6200000000000012},{"rt":884.5999999996275,"stimulus":"bees-with-color/bee-A1DF.svg","response":1,"trial_type":"image-button-response","trial_index":119,"time_elapsed":1808022,"internal_node_id":"0.0-4.0-0.56","subject_id":"60c352545305f1a05a888b79","study_id":"6197b3f67c2b5cd3b6d9596a","session_id":"6197b88961e524386ae21388","condition":"full-information","relevant_dimensions":["wings","legs"],"bee_group":{"antennae":"X","wings":"1","pattern":"X","legs":"F"},"action":"avoid","summary":"good-avoid","bonus":1.6200000000000012},{"rt":913.3000000007451,"stimulus":"\n                    <p><b>Action: <em>avoid</em></b></p>\n                    <p>This is the bee that you just saw.</p>\n                    <img src=\"bees-with-color/bee-A1DF.svg\" width=\"200\">\n                    <p><span class=\"greenText\">Good choice!</span>  This bee would have stung you.<br>Your bonus pay is unchanged, and remains at $1.02.</p>\n            ","response":0,"trial_type":"html-button-response","trial_index":120,"time_elapsed":1808937,"internal_node_id":"0.0-4.0-1.56","subject_id":"60c352545305f1a05a888b79","study_id":"6197b3f67c2b5cd3b6d9596a","session_id":"6197b88961e524386ae21388","condition":"full-information","relevant_dimensions":["wings","legs"],"bee_group":{"antennae":"X","wings":"1","pattern":"X","legs":"F"},"bonus":1.6200000000000012},{"rt":841.5,"stimulus":"bees-with-color/bee-B1SF.svg","response":1,"trial_type":"image-button-response","trial_index":121,"time_elapsed":1809781,"internal_node_id":"0.0-4.0-0.57","subject_id":"60c352545305f1a05a888b79","study_id":"6197b3f67c2b5cd3b6d9596a","session_id":"6197b88961e524386ae21388","condition":"full-information","relevant_dimensions":["wings","legs"],"bee_group":{"antennae":"X","wings":"1","pattern":"X","legs":"F"},"action":"avoid","summary":"good-avoid","bonus":1.6200000000000012},{"rt":486.5,"stimulus":"\n                    <p><b>Action: <em>avoid</em></b></p>\n                    <p>This is the bee that you just saw.</p>\n                    <img src=\"bees-with-color/bee-B1SF.svg\" width=\"200\">\n                    <p><span class=\"greenText\">Good choice!</span>  This bee would have stung you.<br>Your bonus pay is unchanged, and remains at $1.02.</p>\n            ","response":0,"trial_type":"html-button-response","trial_index":122,"time_elapsed":1810272,"internal_node_id":"0.0-4.0-1.57","subject_id":"60c352545305f1a05a888b79","study_id":"6197b3f67c2b5cd3b6d9596a","session_id":"6197b88961e524386ae21388","condition":"full-information","relevant_dimensions":["wings","legs"],"bee_group":{"antennae":"X","wings":"1","pattern":"X","legs":"F"},"bonus":1.6200000000000012},{"rt":1803.7999999998137,"stimulus":"bees-with-color/bee-B2DM.svg","response":0,"trial_type":"image-button-response","trial_index":123,"time_elapsed":1812079,"internal_node_id":"0.0-4.0-0.58","subject_id":"60c352545305f1a05a888b79","study_id":"6197b3f67c2b5cd3b6d9596a","session_id":"6197b88961e524386ae21388","condition":"full-information","relevant_dimensions":["wings","legs"],"bee_group":{"antennae":"X","wings":"1","pattern":"X","legs":"F"},"action":"harvest","summary":"good-harvest","bonus":1.6200000000000012},{"rt":1129.7000000001863,"stimulus":"\n                    <p><b>Action: <em>harvest</em></b></p>\n                    <p>This is the bee that you just saw.</p>\n                    <img src=\"bees-with-color/bee-B2DM.svg\" width=\"200\">\n                    <p><span class=\"greenText\"><b>Successful harvest!</b></span><br>Your pay has increased by $0.02. Your bonus pay is now $1.04.</p>\n            ","response":0,"trial_type":"html-button-response","trial_index":124,"time_elapsed":1813213,"internal_node_id":"0.0-4.0-1.58","subject_id":"60c352545305f1a05a888b79","study_id":"6197b3f67c2b5cd3b6d9596a","session_id":"6197b88961e524386ae21388","condition":"full-information","relevant_dimensions":["wings","legs"],"bee_group":{"antennae":"X","wings":"1","pattern":"X","legs":"F"},"bonus":1.6200000000000012},{"rt":670.8999999994412,"stimulus":"bees-with-color/bee-A2DF.svg","response":0,"trial_type":"image-button-response","trial_index":125,"time_elapsed":1813887,"internal_node_id":"0.0-4.0-0.59","subject_id":"60c352545305f1a05a888b79","study_id":"6197b3f67c2b5cd3b6d9596a","session_id":"6197b88961e524386ae21388","condition":"full-information","relevant_dimensions":["wings","legs"],"bee_group":{"antennae":"X","wings":"1","pattern":"X","legs":"F"},"action":"harvest","summary":"good-harvest","bonus":1.6200000000000012},{"rt":454.79999999981374,"stimulus":"\n                    <p><b>Action: <em>harvest</em></b></p>\n                    <p>This is the bee that you just saw.</p>\n                    <img src=\"bees-with-color/bee-A2DF.svg\" width=\"200\">\n                    <p><span class=\"greenText\"><b>Successful harvest!</b></span><br>Your pay has increased by $0.02. Your bonus pay is now $1.06.</p>\n            ","response":0,"trial_type":"html-button-response","trial_index":126,"time_elapsed":1814344,"internal_node_id":"0.0-4.0-1.59","subject_id":"60c352545305f1a05a888b79","study_id":"6197b3f67c2b5cd3b6d9596a","session_id":"6197b88961e524386ae21388","condition":"full-information","relevant_dimensions":["wings","legs"],"bee_group":{"antennae":"X","wings":"1","pattern":"X","legs":"F"},"bonus":1.6200000000000012},{"rt":1280.800000000745,"stimulus":"bees-with-color/bee-A1DM.svg","response":0,"trial_type":"image-button-response","trial_index":127,"time_elapsed":1815628,"internal_node_id":"0.0-4.0-0.60","subject_id":"60c352545305f1a05a888b79","study_id":"6197b3f67c2b5cd3b6d9596a","session_id":"6197b88961e524386ae21388","condition":"full-information","relevant_dimensions":["wings","legs"],"bee_group":{"antennae":"X","wings":"1","pattern":"X","legs":"F"},"action":"harvest","summary":"good-harvest","bonus":1.6200000000000012},{"rt":485.5,"stimulus":"\n                    <p><b>Action: <em>harvest</em></b></p>\n                    <p>This is the bee that you just saw.</p>\n                    <img src=\"bees-with-color/bee-A1DM.svg\" width=\"200\">\n                    <p><span class=\"greenText\"><b>Successful harvest!</b></span><br>Your pay has increased by $0.02. Your bonus pay is now $1.08.</p>\n            ","response":0,"trial_type":"html-button-response","trial_index":128,"time_elapsed":1816118,"internal_node_id":"0.0-4.0-1.60","subject_id":"60c352545305f1a05a888b79","study_id":"6197b3f67c2b5cd3b6d9596a","session_id":"6197b88961e524386ae21388","condition":"full-information","relevant_dimensions":["wings","legs"],"bee_group":{"antennae":"X","wings":"1","pattern":"X","legs":"F"},"bonus":1.6200000000000012},{"rt":1058.7999999998137,"stimulus":"bees-with-color/bee-B1DM.svg","response":0,"trial_type":"image-button-response","trial_index":129,"time_elapsed":1817179,"internal_node_id":"0.0-4.0-0.61","subject_id":"60c352545305f1a05a888b79","study_id":"6197b3f67c2b5cd3b6d9596a","session_id":"6197b88961e524386ae21388","condition":"full-information","relevant_dimensions":["wings","legs"],"bee_group":{"antennae":"X","wings":"1","pattern":"X","legs":"F"},"action":"harvest","summary":"good-harvest","bonus":1.6200000000000012},{"rt":488.09999999962747,"stimulus":"\n                    <p><b>Action: <em>harvest</em></b></p>\n                    <p>This is the bee that you just saw.</p>\n                    <img src=\"bees-with-color/bee-B1DM.svg\" width=\"200\">\n                    <p><span class=\"greenText\"><b>Successful harvest!</b></span><br>Your pay has increased by $0.02. Your bonus pay is now $1.10.</p>\n            ","response":0,"trial_type":"html-button-response","trial_index":130,"time_elapsed":1817669,"internal_node_id":"0.0-4.0-1.61","subject_id":"60c352545305f1a05a888b79","study_id":"6197b3f67c2b5cd3b6d9596a","session_id":"6197b88961e524386ae21388","condition":"full-information","relevant_dimensions":["wings","legs"],"bee_group":{"antennae":"X","wings":"1","pattern":"X","legs":"F"},"bonus":1.6200000000000012},{"rt":1004.7000000001863,"stimulus":"bees-with-color/bee-B2SM.svg","response":0,"trial_type":"image-button-response","trial_index":131,"time_elapsed":1818676,"internal_node_id":"0.0-4.0-0.62","subject_id":"60c352545305f1a05a888b79","study_id":"6197b3f67c2b5cd3b6d9596a","session_id":"6197b88961e524386ae21388","condition":"full-information","relevant_dimensions":["wings","legs"],"bee_group":{"antennae":"X","wings":"1","pattern":"X","legs":"F"},"action":"harvest","summary":"good-harvest","bonus":1.6200000000000012},{"rt":416.5,"stimulus":"\n                    <p><b>Action: <em>harvest</em></b></p>\n                    <p>This is the bee that you just saw.</p>\n                    <img src=\"bees-with-color/bee-B2SM.svg\" width=\"200\">\n                    <p><span class=\"greenText\"><b>Successful harvest!</b></span><br>Your pay has increased by $0.02. Your bonus pay is now $1.12.</p>\n            ","response":0,"trial_type":"html-button-response","trial_index":132,"time_elapsed":1819096,"internal_node_id":"0.0-4.0-1.62","subject_id":"60c352545305f1a05a888b79","study_id":"6197b3f67c2b5cd3b6d9596a","session_id":"6197b88961e524386ae21388","condition":"full-information","relevant_dimensions":["wings","legs"],"bee_group":{"antennae":"X","wings":"1","pattern":"X","legs":"F"},"bonus":1.6200000000000012},{"rt":795.2999999998137,"stimulus":"bees-with-color/bee-A2DM.svg","response":0,"trial_type":"image-button-response","trial_index":133,"time_elapsed":1819895,"internal_node_id":"0.0-4.0-0.63","subject_id":"60c352545305f1a05a888b79","study_id":"6197b3f67c2b5cd3b6d9596a","session_id":"6197b88961e524386ae21388","condition":"full-information","relevant_dimensions":["wings","legs"],"bee_group":{"antennae":"X","wings":"1","pattern":"X","legs":"F"},"action":"harvest","summary":"good-harvest","bonus":1.6200000000000012},{"rt":439.90000000037253,"stimulus":"\n                    <p><b>Action: <em>harvest</em></b></p>\n                    <p>This is the bee that you just saw.</p>\n                    <img src=\"bees-with-color/bee-A2DM.svg\" width=\"200\">\n                    <p><span class=\"greenText\"><b>Successful harvest!</b></span><br>Your pay has increased by $0.02. Your bonus pay is now $1.14.</p>\n            ","response":0,"trial_type":"html-button-response","trial_index":134,"time_elapsed":1820338,"internal_node_id":"0.0-4.0-1.63","subject_id":"60c352545305f1a05a888b79","study_id":"6197b3f67c2b5cd3b6d9596a","session_id":"6197b88961e524386ae21388","condition":"full-information","relevant_dimensions":["wings","legs"],"bee_group":{"antennae":"X","wings":"1","pattern":"X","legs":"F"},"bonus":1.6200000000000012},{"rt":5878.700000000186,"stimulus":"You have completed the first part of this experiment.<br><br>You will now begin a shorter second part, in which you will receive no feedback.<br>The same rules regarding bonus pay apply.<br><br>Press any key to begin.","response":" ","trial_type":"html-keyboard-response","trial_index":135,"time_elapsed":1826219,"internal_node_id":"0.0-5.0","subject_id":"60c352545305f1a05a888b79","study_id":"6197b3f67c2b5cd3b6d9596a","session_id":"6197b88961e524386ae21388","condition":"full-information","relevant_dimensions":["wings","legs"],"bee_group":{"antennae":"X","wings":"1","pattern":"X","legs":"F"},"bonus":1.6200000000000012},{"rt":4987.299999999814,"stimulus":"bees-with-color/bee-A2SF.svg","response":0,"trial_type":"image-button-response","trial_index":136,"time_elapsed":1831222,"internal_node_id":"0.0-6.0-0.0","subject_id":"60c352545305f1a05a888b79","study_id":"6197b3f67c2b5cd3b6d9596a","session_id":"6197b88961e524386ae21388","condition":"full-information","relevant_dimensions":["wings","legs"],"bee_group":{"antennae":"X","wings":"1","pattern":"X","legs":"F"},"bonus":1.6200000000000012},{"rt":1875.2999999998137,"stimulus":"bees-with-color/bee-A2DM.svg","response":0,"trial_type":"image-button-response","trial_index":137,"time_elapsed":1833104,"internal_node_id":"0.0-6.0-0.1","subject_id":"60c352545305f1a05a888b79","study_id":"6197b3f67c2b5cd3b6d9596a","session_id":"6197b88961e524386ae21388","condition":"full-information","relevant_dimensions":["wings","legs"],"bee_group":{"antennae":"X","wings":"1","pattern":"X","legs":"F"},"bonus":1.6200000000000012},{"rt":2561.7000000001863,"stimulus":"bees-with-color/bee-B1DM.svg","response":0,"trial_type":"image-button-response","trial_index":138,"time_elapsed":1835670,"internal_node_id":"0.0-6.0-0.2","subject_id":"60c352545305f1a05a888b79","study_id":"6197b3f67c2b5cd3b6d9596a","session_id":"6197b88961e524386ae21388","condition":"full-information","relevant_dimensions":["wings","legs"],"bee_group":{"antennae":"X","wings":"1","pattern":"X","legs":"F"},"bonus":1.6200000000000012},{"rt":1877.7999999998137,"stimulus":"bees-with-color/bee-A1SF.svg","response":1,"trial_type":"image-button-response","trial_index":139,"time_elapsed":1837552,"internal_node_id":"0.0-6.0-0.3","subject_id":"60c352545305f1a05a888b79","study_id":"6197b3f67c2b5cd3b6d9596a","session_id":"6197b88961e524386ae21388","condition":"full-information","relevant_dimensions":["wings","legs"],"bee_group":{"antennae":"X","wings":"1","pattern":"X","legs":"F"},"bonus":1.6200000000000012},{"rt":3141.9000000003725,"stimulus":"bees-with-color/bee-B1DF.svg","response":1,"trial_type":"image-button-response","trial_index":140,"time_elapsed":1840697,"internal_node_id":"0.0-6.0-0.4","subject_id":"60c352545305f1a05a888b79","study_id":"6197b3f67c2b5cd3b6d9596a","session_id":"6197b88961e524386ae21388","condition":"full-information","relevant_dimensions":["wings","legs"],"bee_group":{"antennae":"X","wings":"1","pattern":"X","legs":"F"},"bonus":1.6200000000000012},{"rt":809.1999999992549,"stimulus":"bees-with-color/bee-B2SM.svg","response":0,"trial_type":"image-button-response","trial_index":141,"time_elapsed":1841509,"internal_node_id":"0.0-6.0-0.5","subject_id":"60c352545305f1a05a888b79","study_id":"6197b3f67c2b5cd3b6d9596a","session_id":"6197b88961e524386ae21388","condition":"full-information","relevant_dimensions":["wings","legs"],"bee_group":{"antennae":"X","wings":"1","pattern":"X","legs":"F"},"bonus":1.6200000000000012},{"rt":1231,"stimulus":"bees-with-color/bee-B1SM.svg","response":0,"trial_type":"image-button-response","trial_index":142,"time_elapsed":1842745,"internal_node_id":"0.0-6.0-0.6","subject_id":"60c352545305f1a05a888b79","study_id":"6197b3f67c2b5cd3b6d9596a","session_id":"6197b88961e524386ae21388","condition":"full-information","relevant_dimensions":["wings","legs"],"bee_group":{"antennae":"X","wings":"1","pattern":"X","legs":"F"},"bonus":1.6200000000000012},{"rt":1165.800000000745,"stimulus":"bees-with-color/bee-B2SF.svg","response":0,"trial_type":"image-button-response","trial_index":143,"time_elapsed":1843914,"internal_node_id":"0.0-6.0-0.7","subject_id":"60c352545305f1a05a888b79","study_id":"6197b3f67c2b5cd3b6d9596a","session_id":"6197b88961e524386ae21388","condition":"full-information","relevant_dimensions":["wings","legs"],"bee_group":{"antennae":"X","wings":"1","pattern":"X","legs":"F"},"bonus":1.6200000000000012},{"rt":924.3999999994412,"stimulus":"bees-with-color/bee-B1SF.svg","response":1,"trial_type":"image-button-response","trial_index":144,"time_elapsed":1844841,"internal_node_id":"0.0-6.0-0.8","subject_id":"60c352545305f1a05a888b79","study_id":"6197b3f67c2b5cd3b6d9596a","session_id":"6197b88961e524386ae21388","condition":"full-information","relevant_dimensions":["wings","legs"],"bee_group":{"antennae":"X","wings":"1","pattern":"X","legs":"F"},"bonus":1.6200000000000012},{"rt":1211.7999999998137,"stimulus":"bees-with-color/bee-B2DM.svg","response":0,"trial_type":"image-button-response","trial_index":145,"time_elapsed":1846057,"internal_node_id":"0.0-6.0-0.9","subject_id":"60c352545305f1a05a888b79","study_id":"6197b3f67c2b5cd3b6d9596a","session_id":"6197b88961e524386ae21388","condition":"full-information","relevant_dimensions":["wings","legs"],"bee_group":{"antennae":"X","wings":"1","pattern":"X","legs":"F"},"bonus":1.6200000000000012},{"rt":965.4000000003725,"stimulus":"bees-with-color/bee-A2DF.svg","response":0,"trial_type":"image-button-response","trial_index":146,"time_elapsed":1847025,"internal_node_id":"0.0-6.0-0.10","subject_id":"60c352545305f1a05a888b79","study_id":"6197b3f67c2b5cd3b6d9596a","session_id":"6197b88961e524386ae21388","condition":"full-information","relevant_dimensions":["wings","legs"],"bee_group":{"antennae":"X","wings":"1","pattern":"X","legs":"F"},"bonus":1.6200000000000012},{"rt":1509.3999999994412,"stimulus":"bees-with-color/bee-A1SM.svg","response":0,"trial_type":"image-button-response","trial_index":147,"time_elapsed":1848539,"internal_node_id":"0.0-6.0-0.11","subject_id":"60c352545305f1a05a888b79","study_id":"6197b3f67c2b5cd3b6d9596a","session_id":"6197b88961e524386ae21388","condition":"full-information","relevant_dimensions":["wings","legs"],"bee_group":{"antennae":"X","wings":"1","pattern":"X","legs":"F"},"bonus":1.6200000000000012},{"rt":1094.7000000001863,"stimulus":"bees-with-color/bee-A1DF.svg","response":1,"trial_type":"image-button-response","trial_index":148,"time_elapsed":1849639,"internal_node_id":"0.0-6.0-0.12","subject_id":"60c352545305f1a05a888b79","study_id":"6197b3f67c2b5cd3b6d9596a","session_id":"6197b88961e524386ae21388","condition":"full-information","relevant_dimensions":["wings","legs"],"bee_group":{"antennae":"X","wings":"1","pattern":"X","legs":"F"},"bonus":1.6200000000000012},{"rt":1119.199999999255,"stimulus":"bees-with-color/bee-B2DF.svg","response":0,"trial_type":"image-button-response","trial_index":149,"time_elapsed":1850762,"internal_node_id":"0.0-6.0-0.13","subject_id":"60c352545305f1a05a888b79","study_id":"6197b3f67c2b5cd3b6d9596a","session_id":"6197b88961e524386ae21388","condition":"full-information","relevant_dimensions":["wings","legs"],"bee_group":{"antennae":"X","wings":"1","pattern":"X","legs":"F"},"bonus":1.6200000000000012},{"rt":1074.3999999994412,"stimulus":"bees-with-color/bee-A1DM.svg","response":0,"trial_type":"image-button-response","trial_index":150,"time_elapsed":1851840,"internal_node_id":"0.0-6.0-0.14","subject_id":"60c352545305f1a05a888b79","study_id":"6197b3f67c2b5cd3b6d9596a","session_id":"6197b88961e524386ae21388","condition":"full-information","relevant_dimensions":["wings","legs"],"bee_group":{"antennae":"X","wings":"1","pattern":"X","legs":"F"},"bonus":1.6200000000000012},{"rt":883.7999999998137,"stimulus":"bees-with-color/bee-A2SM.svg","response":0,"trial_type":"image-button-response","trial_index":151,"time_elapsed":1852728,"internal_node_id":"0.0-6.0-0.15","subject_id":"60c352545305f1a05a888b79","study_id":"6197b3f67c2b5cd3b6d9596a","session_id":"6197b88961e524386ae21388","condition":"full-information","relevant_dimensions":["wings","legs"],"bee_group":{"antennae":"X","wings":"1","pattern":"X","legs":"F"},"bonus":1.6200000000000012},{"rt":929.8999999994412,"stimulus":"bees-with-color/bee-A2SM.svg","response":0,"trial_type":"image-button-response","trial_index":152,"time_elapsed":1853660,"internal_node_id":"0.0-6.0-0.16","subject_id":"60c352545305f1a05a888b79","study_id":"6197b3f67c2b5cd3b6d9596a","session_id":"6197b88961e524386ae21388","condition":"full-information","relevant_dimensions":["wings","legs"],"bee_group":{"antennae":"X","wings":"1","pattern":"X","legs":"F"},"bonus":1.6200000000000012},{"rt":843.2000000001863,"stimulus":"bees-with-color/bee-B1SF.svg","response":1,"trial_type":"image-button-response","trial_index":153,"time_elapsed":1854507,"internal_node_id":"0.0-6.0-0.17","subject_id":"60c352545305f1a05a888b79","study_id":"6197b3f67c2b5cd3b6d9596a","session_id":"6197b88961e524386ae21388","condition":"full-information","relevant_dimensions":["wings","legs"],"bee_group":{"antennae":"X","wings":"1","pattern":"X","legs":"F"},"bonus":1.6200000000000012},{"rt":2751.7999999998137,"stimulus":"bees-with-color/bee-A1DM.svg","response":0,"trial_type":"image-button-response","trial_index":154,"time_elapsed":1857262,"internal_node_id":"0.0-6.0-0.18","subject_id":"60c352545305f1a05a888b79","study_id":"6197b3f67c2b5cd3b6d9596a","session_id":"6197b88961e524386ae21388","condition":"full-information","relevant_dimensions":["wings","legs"],"bee_group":{"antennae":"X","wings":"1","pattern":"X","legs":"F"},"bonus":1.6200000000000012},{"rt":729.6000000005588,"stimulus":"bees-with-color/bee-B2SF.svg","response":0,"trial_type":"image-button-response","trial_index":155,"time_elapsed":1857993,"internal_node_id":"0.0-6.0-0.19","subject_id":"60c352545305f1a05a888b79","study_id":"6197b3f67c2b5cd3b6d9596a","session_id":"6197b88961e524386ae21388","condition":"full-information","relevant_dimensions":["wings","legs"],"bee_group":{"antennae":"X","wings":"1","pattern":"X","legs":"F"},"bonus":1.6200000000000012},{"rt":713.6999999992549,"stimulus":"bees-with-color/bee-A2DF.svg","response":0,"trial_type":"image-button-response","trial_index":156,"time_elapsed":1858710,"internal_node_id":"0.0-6.0-0.20","subject_id":"60c352545305f1a05a888b79","study_id":"6197b3f67c2b5cd3b6d9596a","session_id":"6197b88961e524386ae21388","condition":"full-information","relevant_dimensions":["wings","legs"],"bee_group":{"antennae":"X","wings":"1","pattern":"X","legs":"F"},"bonus":1.6200000000000012},{"rt":880.2000000001863,"stimulus":"bees-with-color/bee-B1DF.svg","response":1,"trial_type":"image-button-response","trial_index":157,"time_elapsed":1859592,"internal_node_id":"0.0-6.0-0.21","subject_id":"60c352545305f1a05a888b79","study_id":"6197b3f67c2b5cd3b6d9596a","session_id":"6197b88961e524386ae21388","condition":"full-information","relevant_dimensions":["wings","legs"],"bee_group":{"antennae":"X","wings":"1","pattern":"X","legs":"F"},"bonus":1.6200000000000012},{"rt":798.5999999996275,"stimulus":"bees-with-color/bee-A2SF.svg","response":0,"trial_type":"image-button-response","trial_index":158,"time_elapsed":1860393,"internal_node_id":"0.0-6.0-0.22"