[{"success":true,"trial_type":"fullscreen","trial_index":0,"time_elapsed":4600,"internal_node_id":"0.0-0.0","subject_id":"6103082117238ae6d0c3e805","study_id":"60edd13110225f80f9f3709b","session_id":"6196c49ee5ad69c13eb0d6fb","condition":"full-information","relevant_dimensions":["pattern","legs"],"bee_group":{"antennae":"X","wings":"X","pattern":"D","legs":"F"},"bonus":0.2800000000000001},{"success":true,"timeout":false,"failed_images":[],"failed_audio":[],"failed_video":[],"trial_type":"preload","trial_index":1,"time_elapsed":6130,"internal_node_id":"0.0-1.0","subject_id":"6103082117238ae6d0c3e805","study_id":"60edd13110225f80f9f3709b","session_id":"6196c49ee5ad69c13eb0d6fb","condition":"full-information","relevant_dimensions":["pattern","legs"],"bee_group":{"antennae":"X","wings":"X","pattern":"D","legs":"F"},"bonus":0.2800000000000001},{"rt":2382.899999976158,"stimulus":"Welcome! Press any key to begin.","response":" ","trial_type":"html-keyboard-response","trial_index":2,"time_elapsed":8515,"internal_node_id":"0.0-2.0","subject_id":"6103082117238ae6d0c3e805","study_id":"60edd13110225f80f9f3709b","session_id":"6196c49ee5ad69c13eb0d6fb","condition":"full-information","relevant_dimensions":["pattern","legs"],"bee_group":{"antennae":"X","wings":"X","pattern":"D","legs":"F"},"bonus":0.2800000000000001},{"view_history":[{"page_index":0,"viewing_time":7363.399999976158},{"page_index":1,"viewing_time":16942.400000035763},{"page_index":2,"viewing_time":14505.899999976158},{"page_index":3,"viewing_time":19829.899999976158},{"page_index":4,"viewing_time":7649.400000035763},{"page_index":5,"viewing_time":6593.199999988079},{"page_index":6,"viewing_time":6397.199999988079},{"page_index":7,"viewing_time":1785.300000011921},{"page_index":6,"viewing_time":11444.699999988079},{"page_index":7,"viewing_time":1875.199999988079},{"page_index":8,"viewing_time":4852.100000023842},{"page_index":9,"viewing_time":2834.699999988079},{"page_index":10,"viewing_time":3180.100000023842},{"page_index":11,"viewing_time":5520},{"page_index":12,"viewing_time":17865.69999998808},{"page_index":13,"viewing_time":1192},{"page_index":14,"viewing_time":1275.300000011921}],"rt":131106.89999997616,"trial_type":"instructions","trial_index":3,"time_elapsed":139623,"internal_node_id":"0.0-3.0-0.0","subject_id":"6103082117238ae6d0c3e805","study_id":"60edd13110225f80f9f3709b","session_id":"6196c49ee5ad69c13eb0d6fb","condition":"full-information","relevant_dimensions":["pattern","legs"],"bee_group":{"antennae":"X","wings":"X","pattern":"D","legs":"F"},"bonus":0.2800000000000001},{"rt":10364.900000035763,"response":{"Q0":["Two or six legs","Stripes or spots on body","Single or double wings","Antennae or no antennae"]},"question_order":[0],"trial_type":"survey-multi-select","trial_index":4,"time_elapsed":149997,"internal_node_id":"0.0-3.0-1.0","subject_id":"6103082117238ae6d0c3e805","study_id":"60edd13110225f80f9f3709b","session_id":"6196c49ee5ad69c13eb0d6fb","condition":"full-information","relevant_dimensions":["pattern","legs"],"bee_group":{"antennae":"X","wings":"X","pattern":"D","legs":"F"},"correct":true,"bonus":0.2800000000000001},{"rt":17999.69999998808,"response":{"Q1":"No.","Q2":"Based on the four features of the bee.","Q3":"You do not learn if it was friendly or dangerous, and do not alter your bonus."},"question_order":[0,1,2],"trial_type":"survey-multi-choice","trial_index":5,"time_elapsed":168004,"internal_node_id":"0.0-3.0-2.0","subject_id":"6103082117238ae6d0c3e805","study_id":"60edd13110225f80f9f3709b","session_id":"6196c49ee5ad69c13eb0d6fb","condition":"full-information","relevant_dimensions":["pattern","legs"],"bee_group":{"antennae":"X","wings":"X","pattern":"D","legs":"F"},"correct":false,"bonus":0.2800000000000001},{"rt":2152.400000035763,"stimulus":"<p>You did not answer all comprehension questions correctly.<br>Press <b>continue</b> to review the instructions again.</p>","response":0,"trial_type":"html-button-response","trial_index":6,"time_elapsed":170163,"internal_node_id":"0.0-3.0-3.0","subject_id":"6103082117238ae6d0c3e805","study_id":"60edd13110225f80f9f3709b","session_id":"6196c49ee5ad69c13eb0d6fb","condition":"full-information","relevant_dimensions":["pattern","legs"],"bee_group":{"antennae":"X","wings":"X","pattern":"D","legs":"F"},"bonus":0.2800000000000001},{"view_history":[{"page_index":0,"viewing_time":1535.3999999761581},{"page_index":1,"viewing_time":6225.600000023842},{"page_index":2,"viewing_time":2962},{"page_index":3,"viewing_time":2145},{"page_index":4,"viewing_time":11362.399999976158},{"page_index":5,"viewing_time":990.1000000238419},{"page_index":6,"viewing_time":907.3999999761581},{"page_index":7,"viewing_time":1185.5},{"page_index":8,"viewing_time":637.6000000238419},{"page_index":9,"viewing_time":562.5},{"page_index":10,"viewing_time":426.80000001192093},{"page_index":11,"viewing_time":2497.800000011921},{"page_index":12,"viewing_time":4559.599999964237},{"page_index":13,"viewing_time":1065.1000000238419},{"page_index":14,"viewing_time":757.3000000119209}],"rt":37820.5,"trial_type":"instructions","trial_index":7,"time_elapsed":207985,"internal_node_id":"0.0-3.0-4.0-0.0","subject_id":"6103082117238ae6d0c3e805","study_id":"60edd13110225f80f9f3709b","session_id":"6196c49ee5ad69c13eb0d6fb","condition":"full-information","relevant_dimensions":["pattern","legs"],"bee_group":{"antennae":"X","wings":"X","pattern":"D","legs":"F"},"bonus":0.2800000000000001},{"rt":5835.199999988079,"response":{"Q0":["Two or six legs","Stripes or spots on body","Single or double wings","Antennae or no antennae"]},"question_order":[0],"trial_type":"survey-multi-select","trial_index":8,"time_elapsed":213829,"internal_node_id":"0.0-3.0-4.0-1.0","subject_id":"6103082117238ae6d0c3e805","study_id":"60edd13110225f80f9f3709b","session_id":"6196c49ee5ad69c13eb0d6fb","condition":"full-information","relevant_dimensions":["pattern","legs"],"bee_group":{"antennae":"X","wings":"X","pattern":"D","legs":"F"},"correct":true,"bonus":0.2800000000000001},{"rt":14565.599999964237,"response":{"Q1":"No.","Q2":"Based on the four features of the bee.","Q3":"You learn if it was friendly or dangerous, but do not alter your bonus."},"question_order":[0,1,2],"trial_type":"survey-multi-choice","trial_index":9,"time_elapsed":228401,"internal_node_id":"0.0-3.0-4.0-2.0","subject_id":"6103082117238ae6d0c3e805","study_id":"60edd13110225f80f9f3709b","session_id":"6196c49ee5ad69c13eb0d6fb","condition":"full-information","relevant_dimensions":["pattern","legs"],"bee_group":{"antennae":"X","wings":"X","pattern":"D","legs":"F"},"correct":true,"bonus":0.2800000000000001},{"rt":1891.6000000238419,"stimulus":"<p>Congrats, you got everything right<br>When you're ready, click the button below to continue to the experiment.</p>","response":0,"trial_type":"html-button-response","trial_index":10,"time_elapsed":230298,"internal_node_id":"0.0-3.0-4.0-3.0","subject_id":"6103082117238ae6d0c3e805","study_id":"60edd13110225f80f9f3709b","session_id":"6196c49ee5ad69c13eb0d6fb","condition":"full-information","relevant_dimensions":["pattern","legs"],"bee_group":{"antennae":"X","wings":"X","pattern":"D","legs":"F"},"bonus":0.2800000000000001},{"rt":4120.5,"stimulus":"bees-with-color/bee-A2DM.svg","response":0,"trial_type":"image-button-response","trial_index":11,"time_elapsed":234423,"internal_node_id":"0.0-4.0-0.0","subject_id":"6103082117238ae6d0c3e805","study_id":"60edd13110225f80f9f3709b","session_id":"6196c49ee5ad69c13eb0d6fb","condition":"full-information","relevant_dimensions":["pattern","legs"],"bee_group":{"antennae":"X","wings":"X","pattern":"D","legs":"F"},"action":"harvest","summary":"good-harvest","bonus":0.2800000000000001},{"rt":5539.5,"stimulus":"\n                    <p><b>Action: <em>harvest</em></b></p>\n                    <p>This is the bee that you just saw.</p>\n                    <img src=\"bees-with-color/bee-A2DM.svg\" width=\"200\">\n                    <p><span class=\"greenText\"><b>Successful harvest!</b></span><br>Your pay has increased by $0.02. Your bonus pay is now $0.56.</p>\n            ","response":0,"trial_type":"html-button-response","trial_index":12,"time_elapsed":239966,"internal_node_id":"0.0-4.0-1.0","subject_id":"6103082117238ae6d0c3e805","study_id":"60edd13110225f80f9f3709b","session_id":"6196c49ee5ad69c13eb0d6fb","condition":"full-information","relevant_dimensions":["pattern","legs"],"bee_group":{"antennae":"X","wings":"X","pattern":"D","legs":"F"},"bonus":0.2800000000000001},{"rt":3018.600000023842,"stimulus":"bees-with-color/bee-B2DF.svg","response":0,"trial_type":"image-button-response","trial_index":13,"time_elapsed":242988,"internal_node_id":"0.0-4.0-0.1","subject_id":"6103082117238ae6d0c3e805","study_id":"60edd13110225f80f9f3709b","session_id":"6196c49ee5ad69c13eb0d6fb","condition":"full-information","relevant_dimensions":["pattern","legs"],"bee_group":{"antennae":"X","wings":"X","pattern":"D","legs":"F"},"action":"harvest","summary":"bad-harvest","bonus":0.2800000000000001},{"rt":5480.199999988079,"stimulus":"\n                    <p><b>Action: <em>harvest</em></b></p>\n                    <p>This is the bee that you just saw.</p>\n                    <img src=\"bees-with-color/bee-B2DF.svg\" width=\"200\">\n                    <p><span class=\"redText\">Bad choice, the bee was angry.</span><br><b>You have been stung!</b><br>Your pay has been decreased by $0.10. Your bonus pay is now $0.46.</p>\n            ","response":0,"trial_type":"html-button-response","trial_index":14,"time_elapsed":248471,"internal_node_id":"0.0-4.0-1.1","subject_id":"6103082117238ae6d0c3e805","study_id":"60edd13110225f80f9f3709b","session_id":"6196c49ee5ad69c13eb0d6fb","condition":"full-information","relevant_dimensions":["pattern","legs"],"bee_group":{"antennae":"X","wings":"X","pattern":"D","legs":"F"},"bonus":0.2800000000000001},{"rt":1879.199999988079,"stimulus":"bees-with-color/bee-A2SM.svg","response":0,"trial_type":"image-button-response","trial_index":15,"time_elapsed":250354,"internal_node_id":"0.0-4.0-0.2","subject_id":"6103082117238ae6d0c3e805","study_id":"60edd13110225f80f9f3709b","session_id":"6196c49ee5ad69c13eb0d6fb","condition":"full-information","relevant_dimensions":["pattern","legs"],"bee_group":{"antennae":"X","wings":"X","pattern":"D","legs":"F"},"action":"harvest","summary":"good-harvest","bonus":0.2800000000000001},{"rt":2643.800000011921,"stimulus":"\n                    <p><b>Action: <em>harvest</em></b></p>\n                    <p>This is the bee that you just saw.</p>\n                    <img src=\"bees-with-color/bee-A2SM.svg\" width=\"200\">\n                    <p><span class=\"greenText\"><b>Successful harvest!</b></span><br>Your pay has increased by $0.02. Your bonus pay is now $0.48.</p>\n            ","response":0,"trial_type":"html-button-response","trial_index":16,"time_elapsed":253001,"internal_node_id":"0.0-4.0-1.2","subject_id":"6103082117238ae6d0c3e805","study_id":"60edd13110225f80f9f3709b","session_id":"6196c49ee5ad69c13eb0d6fb","condition":"full-information","relevant_dimensions":["pattern","legs"],"bee_group":{"antennae":"X","wings":"X","pattern":"D","legs":"F"},"bonus":0.2800000000000001},{"rt":1294.5,"stimulus":"bees-with-color/bee-B1SM.svg","response":1,"trial_type":"image-button-response","trial_index":17,"time_elapsed":254298,"internal_node_id":"0.0-4.0-0.3","subject_id":"6103082117238ae6d0c3e805","study_id":"60edd13110225f80f9f3709b","session_id":"6196c49ee5ad69c13eb0d6fb","condition":"full-information","relevant_dimensions":["pattern","legs"],"bee_group":{"antennae":"X","wings":"X","pattern":"D","legs":"F"},"action":"avoid","summary":"bad-avoid","bonus":0.2800000000000001},{"rt":5353.5,"stimulus":"\n                    <p><b>Action: <em>avoid</em></b></p>\n                    <p>This is the bee that you just saw.</p>\n                    <img src=\"bees-with-color/bee-B1SM.svg\" width=\"200\">\n                    <p><span class=\"redText\">Bad choice,</span> the bee was friendly.<br>Your bonus pay is unchanged, and remains at $0.48.</p>\n            ","response":0,"trial_type":"html-button-response","trial_index":18,"time_elapsed":259654,"internal_node_id":"0.0-4.0-1.3","subject_id":"6103082117238ae6d0c3e805","study_id":"60edd13110225f80f9f3709b","session_id":"6196c49ee5ad69c13eb0d6fb","condition":"full-information","relevant_dimensions":["pattern","legs"],"bee_group":{"antennae":"X","wings":"X","pattern":"D","legs":"F"},"bonus":0.2800000000000001},{"rt":4294,"stimulus":"bees-with-color/bee-B2SF.svg","response":1,"trial_type":"image-button-response","trial_index":19,"time_elapsed":263951,"internal_node_id":"0.0-4.0-0.4","subject_id":"6103082117238ae6d0c3e805","study_id":"60edd13110225f80f9f3709b","session_id":"6196c49ee5ad69c13eb0d6fb","condition":"full-information","relevant_dimensions":["pattern","legs"],"bee_group":{"antennae":"X","wings":"X","pattern":"D","legs":"F"},"action":"avoid","summary":"bad-avoid","bonus":0.2800000000000001},{"rt":8269.699999988079,"stimulus":"\n                    <p><b>Action: <em>avoid</em></b></p>\n                    <p>This is the bee that you just saw.</p>\n                    <img src=\"bees-with-color/bee-B2SF.svg\" width=\"200\">\n                    <p><span class=\"redText\">Bad choice,</span> the bee was friendly.<br>Your bonus pay is unchanged, and remains at $0.48.</p>\n            ","response":0,"trial_type":"html-button-response","trial_index":20,"time_elapsed":272224,"internal_node_id":"0.0-4.0-1.4","subject_id":"6103082117238ae6d0c3e805","study_id":"60edd13110225f80f9f3709b","session_id":"6196c49ee5ad69c13eb0d6fb","condition":"full-information","relevant_dimensions":["pattern","legs"],"bee_group":{"antennae":"X","wings":"X","pattern":"D","legs":"F"},"bonus":0.2800000000000001},{"rt":1668.699999988079,"stimulus":"bees-with-color/bee-A1SF.svg","response":1,"trial_type":"image-button-response","trial_index":21,"time_elapsed":273895,"internal_node_id":"0.0-4.0-0.5","subject_id":"6103082117238ae6d0c3e805","study_id":"60edd13110225f80f9f3709b","session_id":"6196c49ee5ad69c13eb0d6fb","condition":"full-information","relevant_dimensions":["pattern","legs"],"bee_group":{"antennae":"X","wings":"X","pattern":"D","legs":"F"},"action":"avoid","summary":"bad-avoid","bonus":0.2800000000000001},{"rt":1325.199999988079,"stimulus":"\n                    <p><b>Action: <em>avoid</em></b></p>\n                    <p>This is the bee that you just saw.</p>\n                    <img src=\"bees-with-color/bee-A1SF.svg\" width=\"200\">\n                    <p><span class=\"redText\">Bad choice,</span> the bee was friendly.<br>Your bonus pay is unchanged, and remains at $0.48.</p>\n            ","response":0,"trial_type":"html-button-response","trial_index":22,"time_elapsed":275223,"internal_node_id":"0.0-4.0-1.5","subject_id":"6103082117238ae6d0c3e805","study_id":"60edd13110225f80f9f3709b","session_id":"6196c49ee5ad69c13eb0d6fb","condition":"full-information","relevant_dimensions":["pattern","legs"],"bee_group":{"antennae":"X","wings":"X","pattern":"D","legs":"F"},"bonus":0.2800000000000001},{"rt":1512.3999999761581,"stimulus":"bees-with-color/bee-B1DF.svg","response":0,"trial_type":"image-button-response","trial_index":23,"time_elapsed":276739,"internal_node_id":"0.0-4.0-0.6","subject_id":"6103082117238ae6d0c3e805","study_id":"60edd13110225f80f9f3709b","session_id":"6196c49ee5ad69c13eb0d6fb","condition":"full-information","relevant_dimensions":["pattern","legs"],"bee_group":{"antennae":"X","wings":"X","pattern":"D","legs":"F"},"action":"harvest","summary":"bad-harvest","bonus":0.2800000000000001},{"rt":1159.4000000357628,"stimulus":"\n                    <p><b>Action: <em>harvest</em></b></p>\n                    <p>This is the bee that you just saw.</p>\n                    <img src=\"bees-with-color/bee-B1DF.svg\" width=\"200\">\n                    <p><span class=\"redText\">Bad choice, the bee was angry.</span><br><b>You have been stung!</b><br>Your pay has been decreased by $0.10. Your bonus pay is now $0.38.</p>\n            ","response":0,"trial_type":"html-button-response","trial_index":24,"time_elapsed":277901,"internal_node_id":"0.0-4.0-1.6","subject_id":"6103082117238ae6d0c3e805","study_id":"60edd13110225f80f9f3709b","session_id":"6196c49ee5ad69c13eb0d6fb","condition":"full-information","relevant_dimensions":["pattern","legs"],"bee_group":{"antennae":"X","wings":"X","pattern":"D","legs":"F"},"bonus":0.2800000000000001},{"rt":867.5,"stimulus":"bees-with-color/bee-A1SM.svg","response":0,"trial_type":"image-button-response","trial_index":25,"time_elapsed":278771,"internal_node_id":"0.0-4.0-0.7","subject_id":"6103082117238ae6d0c3e805","study_id":"60edd13110225f80f9f3709b","session_id":"6196c49ee5ad69c13eb0d6fb","condition":"full-information","relevant_dimensions":["pattern","legs"],"bee_group":{"antennae":"X","wings":"X","pattern":"D","legs":"F"},"action":"harvest","summary":"good-harvest","bonus":0.2800000000000001},{"rt":807.3000000119209,"stimulus":"\n                    <p><b>Action: <em>harvest</em></b></p>\n                    <p>This is the bee that you just saw.</p>\n                    <img src=\"bees-with-color/bee-A1SM.svg\" width=\"200\">\n                    <p><span class=\"greenText\"><b>Successful harvest!</b></span><br>Your pay has increased by $0.02. Your bonus pay is now $0.40.</p>\n            ","response":0,"trial_type":"html-button-response","trial_index":26,"time_elapsed":279581,"internal_node_id":"0.0-4.0-1.7","subject_id":"6103082117238ae6d0c3e805","study_id":"60edd13110225f80f9f3709b","session_id":"6196c49ee5ad69c13eb0d6fb","condition":"full-information","relevant_dimensions":["pattern","legs"],"bee_group":{"antennae":"X","wings":"X","pattern":"D","legs":"F"},"bonus":0.2800000000000001},{"rt":1107.6000000238419,"stimulus":"bees-with-color/bee-A1DM.svg","response":0,"trial_type":"image-button-response","trial_index":27,"time_elapsed":280692,"internal_node_id":"0.0-4.0-0.8","subject_id":"6103082117238ae6d0c3e805","study_id":"60edd13110225f80f9f3709b","session_id":"6196c49ee5ad69c13eb0d6fb","condition":"full-information","relevant_dimensions":["pattern","legs"],"bee_group":{"antennae":"X","wings":"X","pattern":"D","legs":"F"},"action":"harvest","summary":"good-harvest","bonus":0.2800000000000001},{"rt":1023.8000000119209,"stimulus":"\n                    <p><b>Action: <em>harvest</em></b></p>\n                    <p>This is the bee that you just saw.</p>\n                    <img src=\"bees-with-color/bee-A1DM.svg\" width=\"200\">\n                    <p><span class=\"greenText\"><b>Successful harvest!</b></span><br>Your pay has increased by $0.02. Your bonus pay is now $0.42.</p>\n            ","response":0,"trial_type":"html-button-response","trial_index":28,"time_elapsed":281718,"internal_node_id":"0.0-4.0-1.8","subject_id":"6103082117238ae6d0c3e805","study_id":"60edd13110225f80f9f3709b","session_id":"6196c49ee5ad69c13eb0d6fb","condition":"full-information","relevant_dimensions":["pattern","legs"],"bee_group":{"antennae":"X","wings":"X","pattern":"D","legs":"F"},"bonus":0.2800000000000001},{"rt":2758,"stimulus":"bees-with-color/bee-A2SF.svg","response":0,"trial_type":"image-button-response","trial_index":29,"time_elapsed":284478,"internal_node_id":"0.0-4.0-0.9","subject_id":"6103082117238ae6d0c3e805","study_id":"60edd13110225f80f9f3709b","session_id":"6196c49ee5ad69c13eb0d6fb","condition":"full-information","relevant_dimensions":["pattern","legs"],"bee_group":{"antennae":"X","wings":"X","pattern":"D","legs":"F"},"action":"harvest","summary":"good-harvest","bonus":0.2800000000000001},{"rt":852.6000000238419,"stimulus":"\n                    <p><b>Action: <em>harvest</em></b></p>\n                    <p>This is the bee that you just saw.</p>\n                    <img src=\"bees-with-color/bee-A2SF.svg\" width=\"200\">\n                    <p><span class=\"greenText\"><b>Successful harvest!</b></span><br>Your pay has increased by $0.02. Your bonus pay is now $0.44.</p>\n            ","response":0,"trial_type":"html-button-response","trial_index":30,"time_elapsed":285333,"internal_node_id":"0.0-4.0-1.9","subject_id":"6103082117238ae6d0c3e805","study_id":"60edd13110225f80f9f3709b","session_id":"6196c49ee5ad69c13eb0d6fb","condition":"full-information","relevant_dimensions":["pattern","legs"],"bee_group":{"antennae":"X","wings":"X","pattern":"D","legs":"F"},"bonus":0.2800000000000001},{"rt":3267.7999999523163,"stimulus":"bees-with-color/bee-B1DM.svg","response":1,"trial_type":"image-button-response","trial_index":31,"time_elapsed":288603,"internal_node_id":"0.0-4.0-0.10","subject_id":"6103082117238ae6d0c3e805","study_id":"60edd13110225f80f9f3709b","session_id":"6196c49ee5ad69c13eb0d6fb","condition":"full-information","relevant_dimensions":["pattern","legs"],"bee_group":{"antennae":"X","wings":"X","pattern":"D","legs":"F"},"action":"avoid","summary":"bad-avoid","bonus":0.2800000000000001},{"rt":957.8999999761581,"stimulus":"\n                    <p><b>Action: <em>avoid</em></b></p>\n                    <p>This is the bee that you just saw.</p>\n                    <img src=\"bees-with-color/bee-B1DM.svg\" width=\"200\">\n                    <p><span class=\"redText\">Bad choice,</span> the bee was friendly.<br>Your bonus pay is unchanged, and remains at $0.44.</p>\n            ","response":0,"trial_type":"html-button-response","trial_index":32,"time_elapsed":289563,"internal_node_id":"0.0-4.0-1.10","subject_id":"6103082117238ae6d0c3e805","study_id":"60edd13110225f80f9f3709b","session_id":"6196c49ee5ad69c13eb0d6fb","condition":"full-information","relevant_dimensions":["pattern","legs"],"bee_group":{"antennae":"X","wings":"X","pattern":"D","legs":"F"},"bonus":0.2800000000000001},{"rt":2637.600000023842,"stimulus":"bees-with-color/bee-B1SF.svg","response":1,"trial_type":"image-button-response","trial_index":33,"time_elapsed":292203,"internal_node_id":"0.0-4.0-0.11","subject_id":"6103082117238ae6d0c3e805","study_id":"60edd13110225f80f9f3709b","session_id":"6196c49ee5ad69c13eb0d6fb","condition":"full-information","relevant_dimensions":["pattern","legs"],"bee_group":{"antennae":"X","wings":"X","pattern":"D","legs":"F"},"action":"avoid","summary":"bad-avoid","bonus":0.2800000000000001},{"rt":882.6999999880791,"stimulus":"\n                    <p><b>Action: <em>avoid</em></b></p>\n                    <p>This is the bee that you just saw.</p>\n                    <img src=\"bees-with-color/bee-B1SF.svg\" width=\"200\">\n                    <p><span class=\"redText\">Bad choice,</span> the bee was friendly.<br>Your bonus pay is unchanged, and remains at $0.44.</p>\n            ","response":0,"trial_type":"html-button-response","trial_index":34,"time_elapsed":293088,"internal_node_id":"0.0-4.0-1.11","subject_id":"6103082117238ae6d0c3e805","study_id":"60edd13110225f80f9f3709b","session_id":"6196c49ee5ad69c13eb0d6fb","condition":"full-information","relevant_dimensions":["pattern","legs"],"bee_group":{"antennae":"X","wings":"X","pattern":"D","legs":"F"},"bonus":0.2800000000000001},{"rt":830.1000000238419,"stimulus":"bees-with-color/bee-B2SM.svg","response":0,"trial_type":"image-button-response","trial_index":35,"time_elapsed":293920,"internal_node_id":"0.0-4.0-0.12","subject_id":"6103082117238ae6d0c3e805","study_id":"60edd13110225f80f9f3709b","session_id":"6196c49ee5ad69c13eb0d6fb","condition":"full-information","relevant_dimensions":["pattern","legs"],"bee_group":{"antennae":"X","wings":"X","pattern":"D","legs":"F"},"action":"harvest","summary":"good-harvest","bonus":0.2800000000000001},{"rt":800.5,"stimulus":"\n                    <p><b>Action: <em>harvest</em></b></p>\n                    <p>This is the bee that you just saw.</p>\n                    <img src=\"bees-with-color/bee-B2SM.svg\" width=\"200\">\n                    <p><span class=\"greenText\"><b>Successful harvest!</b></span><br>Your pay has increased by $0.02. Your bonus pay is now $0.46.</p>\n            ","response":0,"trial_type":"html-button-response","trial_index":36,"time_elapsed":294723,"internal_node_id":"0.0-4.0-1.12","subject_id":"6103082117238ae6d0c3e805","study_id":"60edd13110225f80f9f3709b","session_id":"6196c49ee5ad69c13eb0d6fb","condition":"full-information","relevant_dimensions":["pattern","legs"],"bee_group":{"antennae":"X","wings":"X","pattern":"D","legs":"F"},"bonus":0.2800000000000001},{"rt":770.8000000119209,"stimulus":"bees-with-color/bee-A1DF.svg","response":0,"trial_type":"image-button-response","trial_index":37,"time_elapsed":295495,"internal_node_id":"0.0-4.0-0.13","subject_id":"6103082117238ae6d0c3e805","study_id":"60edd13110225f80f9f3709b","session_id":"6196c49ee5ad69c13eb0d6fb","condition":"full-information","relevant_dimensions":["pattern","legs"],"bee_group":{"antennae":"X","wings":"X","pattern":"D","legs":"F"},"action":"harvest","summary":"bad-harvest","bonus":0.2800000000000001},{"rt":1467.5,"stimulus":"\n                    <p><b>Action: <em>harvest</em></b></p>\n                    <p>This is the bee that you just saw.</p>\n                    <img src=\"bees-with-color/bee-A1DF.svg\" width=\"200\">\n                    <p><span class=\"redText\">Bad choice, the bee was angry.</span><br><b>You have been stung!</b><br>Your pay has been decreased by $0.10. Your bonus pay is now $0.36.</p>\n            ","response":0,"trial_type":"html-button-response","trial_index":38,"time_elapsed":296965,"internal_node_id":"0.0-4.0-1.13","subject_id":"6103082117238ae6d0c3e805","study_id":"60edd13110225f80f9f3709b","session_id":"6196c49ee5ad69c13eb0d6fb","condition":"full-information","relevant_dimensions":["pattern","legs"],"bee_group":{"antennae":"X","wings":"X","pattern":"D","legs":"F"},"bonus":0.2800000000000001},{"rt":1168.300000011921,"stimulus":"bees-with-color/bee-A2DF.svg","response":0,"trial_type":"image-button-response","trial_index":39,"time_elapsed":298135,"internal_node_id":"0.0-4.0-0.14","subject_id":"6103082117238ae6d0c3e805","study_id":"60edd13110225f80f9f3709b","session_id":"6196c49ee5ad69c13eb0d6fb","condition":"full-information","relevant_dimensions":["pattern","legs"],"bee_group":{"antennae":"X","wings":"X","pattern":"D","legs":"F"},"action":"harvest","summary":"bad-harvest","bonus":0.2800000000000001},{"rt":1138.0999999642372,"stimulus":"\n                    <p><b>Action: <em>harvest</em></b></p>\n                    <p>This is the bee that you just saw.</p>\n                    <img src=\"bees-with-color/bee-A2DF.svg\" width=\"200\">\n                    <p><span class=\"redText\">Bad choice, the bee was angry.</span><br><b>You have been stung!</b><br>Your pay has been decreased by $0.10. Your bonus pay is now $0.26.</p>\n            ","response":0,"trial_type":"html-button-response","trial_index":40,"time_elapsed":299276,"internal_node_id":"0.0-4.0-1.14","subject_id":"6103082117238ae6d0c3e805","study_id":"60edd13110225f80f9f3709b","session_id":"6196c49ee5ad69c13eb0d6fb","condition":"full-information","relevant_dimensions":["pattern","legs"],"bee_group":{"antennae":"X","wings":"X","pattern":"D","legs":"F"},"bonus":0.2800000000000001},{"rt":672.9000000357628,"stimulus":"bees-with-color/bee-B2DM.svg","response":0,"trial_type":"image-button-response","trial_index":41,"time_elapsed":299950,"internal_node_id":"0.0-4.0-0.15","subject_id":"6103082117238ae6d0c3e805","study_id":"60edd13110225f80f9f3709b","session_id":"6196c49ee5ad69c13eb0d6fb","condition":"full-information","relevant_dimensions":["pattern","legs"],"bee_group":{"antennae":"X","wings":"X","pattern":"D","legs":"F"},"action":"harvest","summary":"good-harvest","bonus":0.2800000000000001},{"rt":800.3999999761581,"stimulus":"\n                    <p><b>Action: <em>harvest</em></b></p>\n                    <p>This is the bee that you just saw.</p>\n                    <img src=\"bees-with-color/bee-B2DM.svg\" width=\"200\">\n                    <p><span class=\"greenText\"><b>Successful harvest!</b></span><br>Your pay has increased by $0.02. Your bonus pay is now $0.28.</p>\n            ","response":0,"trial_type":"html-button-response","trial_index":42,"time_elapsed":300753,"internal_node_id":"0.0-4.0-1.15","subject_id":"6103082117238ae6d0c3e805","study_id":"60edd13110225f80f9f3709b","session_id":"6196c49ee5ad69c13eb0d6fb","condition":"full-information","relevant_dimensions":["pattern","legs"],"bee_group":{"antennae":"X","wings":"X","pattern":"D","legs":"F"},"bonus":0.2800000000000001},{"rt":583.1000000238419,"stimulus":"bees-with-color/bee-A2SF.svg","response":0,"trial_type":"image-button-response","trial_index":43,"time_elapsed":301338,"internal_node_id":"0.0-4.0-0.16","subject_id":"6103082117238ae6d0c3e805","study_id":"60edd13110225f80f9f3709b","session_id":"6196c49ee5ad69c13eb0d6fb","condition":"full-information","relevant_dimensions":["pattern","legs"],"bee_group":{"antennae":"X","wings":"X","pattern":"D","legs":"F"},"action":"harvest","summary":"good-harvest","bonus":0.2800000000000001},{"rt":590.1999999880791,"stimulus":"\n                    <p><b>Action: <em>harvest</em></b></p>\n                    <p>This is the bee that you just saw.</p>\n                    <img src=\"bees-with-color/bee-A2SF.svg\" width=\"200\">\n                    <p><span class=\"greenText\"><b>Successful harvest!</b></span><br>Your pay has increased by $0.02. Your bonus pay is now $0.30.</p>\n            ","response":0,"trial_type":"html-button-response","trial_index":44,"time_elapsed":301930,"internal_node_id":"0.0-4.0-1.16","subject_id":"6103082117238ae6d0c3e805","study_id":"60edd13110225f80f9f3709b","session_id":"6196c49ee5ad69c13eb0d6fb","condition":"full-information","relevant_dimensions":["pattern","legs"],"bee_group":{"antennae":"X","wings":"X","pattern":"D","legs":"F"},"bonus":0.2800000000000001},{"rt":501.30000001192093,"stimulus":"bees-with-color/bee-B2SM.svg","response":0,"trial_type":"image-button-response","trial_index":45,"time_elapsed":302433,"internal_node_id":"0.0-4.0-0.17","subject_id":"6103082117238ae6d0c3e805","study_id":"60edd13110225f80f9f3709b","session_id":"6196c49ee5ad69c13eb0d6fb","condition":"full-information","relevant_dimensions":["pattern","legs"],"bee_group":{"antennae":"X","wings":"X","pattern":"D","legs":"F"},"action":"harvest","summary":"good-harvest","bonus":0.2800000000000001},{"rt":529.6999999880791,"stimulus":"\n                    <p><b>Action: <em>harvest</em></b></p>\n                    <p>This is the bee that you just saw.</p>\n                    <img src=\"bees-with-color/bee-B2SM.svg\" width=\"200\">\n                    <p><span class=\"greenText\"><b>Successful harvest!</b></span><br>Your pay has increased by $0.02. Your bonus pay is now $0.32.</p>\n            ","response":0,"trial_type":"html-button-response","trial_index":46,"time_elapsed":302965,"internal_node_id":"0.0-4.0-1.17","subject_id":"6103082117238ae6d0c3e805","study_id":"60edd13110225f80f9f3709b","session_id":"6196c49ee5ad69c13eb0d6fb","condition":"full-information","relevant_dimensions":["pattern","legs"],"bee_group":{"antennae":"X","wings":"X","pattern":"D","legs":"F"},"bonus":0.2800000000000001},{"rt":440.60000002384186,"stimulus":"bees-with-color/bee-A1SF.svg","response":0,"trial_type":"image-button-response","trial_index":47,"time_elapsed":303408,"internal_node_id":"0.0-4.0-0.18","subject_id":"6103082117238ae6d0c3e805","study_id":"60edd13110225f80f9f3709b","session_id":"6196c49ee5ad69c13eb0d6fb","condition":"full-information","relevant_dimensions":["pattern","legs"],"bee_group":{"antennae":"X","wings":"X","pattern":"D","legs":"F"},"action":"harvest","summary":"good-harvest","bonus":0.2800000000000001},{"rt":500.60000002384186,"stimulus":"\n                    <p><b>Action: <em>harvest</em></b></p>\n                    <p>This is the bee that you just saw.</p>\n                    <img src=\"bees-with-color/bee-A1SF.svg\" width=\"200\">\n                    <p><span class=\"greenText\"><b>Successful harvest!</b></span><br>Your pay has increased by $0.02. Your bonus pay is now $0.34.</p>\n            ","response":0,"trial_type":"html-button-response","trial_index":48,"time_elapsed":303911,"internal_node_id":"0.0-4.0-1.18","subject_id":"6103082117238ae6d0c3e805","study_id":"60edd13110225f80f9f3709b","session_id":"6196c49ee5ad69c13eb0d6fb","condition":"full-information","relevant_dimensions":["pattern","legs"],"bee_group":{"antennae":"X","wings":"X","pattern":"D","legs":"F"},"bonus":0.2800000000000001},{"rt":492.69999998807907,"stimulus":"bees-with-color/bee-B2SF.svg","response":1,"trial_type":"image-button-response","trial_index":49,"time_elapsed":304406,"internal_node_id":"0.0-4.0-0.19","subject_id":"6103082117238ae6d0c3e805","study_id":"60edd13110225f80f9f3709b","session_id":"6196c49ee5ad69c13eb0d6fb","condition":"full-information","relevant_dimensions":["pattern","legs"],"bee_group":{"antennae":"X","wings":"X","pattern":"D","legs":"F"},"action":"avoid","summary":"bad-avoid","bonus":0.2800000000000001},{"rt":589.6000000238419,"stimulus":"\n                    <p><b>Action: <em>avoid</em></b></p>\n                    <p>This is the bee that you just saw.</p>\n                    <img src=\"bees-with-color/bee-B2SF.svg\" width=\"200\">\n                    <p><span class=\"redText\">Bad choice,</span> the bee was friendly.<br>Your bonus pay is unchanged, and remains at $0.34.</p>\n            ","response":0,"trial_type":"html-button-response","trial_index":50,"time_elapsed":304997,"internal_node_id":"0.0-4.0-1.19","subject_id":"6103082117238ae6d0c3e805","study_id":"60edd13110225f80f9f3709b","session_id":"6196c49ee5ad69c13eb0d6fb","condition":"full-information","relevant_dimensions":["pattern","legs"],"bee_group":{"antennae":"X","wings":"X","pattern":"D","legs":"F"},"bonus":0.2800000000000001},{"rt":644.1999999880791,"stimulus":"bees-with-color/bee-A2SM.svg","response":1,"trial_type":"image-button-response","trial_index":51,"time_elapsed":305643,"internal_node_id":"0.0-4.0-0.20","subject_id":"6103082117238ae6d0c3e805","study_id":"60edd13110225f80f9f3709b","session_id":"6196c49ee5ad69c13eb0d6fb","condition":"full-information","relevant_dimensions":["pattern","legs"],"bee_group":{"antennae":"X","wings":"X","pattern":"D","legs":"F"},"action":"avoid","summary":"bad-avoid","bonus":0.2800000000000001},{"rt":575.0999999642372,"stimulus":"\n                    <p><b>Action: <em>avoid</em></b></p>\n                    <p>This is the bee that you just saw.</p>\n                    <img src=\"bees-with-color/bee-A2SM.svg\" width=\"200\">\n                    <p><span class=\"redText\">Bad choice,</span> the bee was friendly.<br>Your bonus pay is unchanged, and remains at $0.34.</p>\n            ","response":0,"trial_type":"html-button-response","trial_index":52,"time_elapsed":306221,"internal_node_id":"0.0-4.0-1.20","subject_id":"6103082117238ae6d0c3e805","study_id":"60edd13110225f80f9f3709b","session_id":"6196c49ee5ad69c13eb0d6fb","condition":"full-information","relevant_dimensions":["pattern","legs"],"bee_group":{"antennae":"X","wings":"X","pattern":"D","legs":"F"},"bonus":0.2800000000000001},{"rt":672.8999999761581,"stimulus":"bees-with-color/bee-B1DM.svg","response":0,"trial_type":"image-button-response","trial_index":53,"time_elapsed":306895,"internal_node_id":"0.0-4.0-0.21","subject_id":"6103082117238ae6d0c3e805","study_id":"60edd13110225f80f9f3709b","session_id":"6196c49ee5ad69c13eb0d6fb","condition":"full-information","relevant_dimensions":["pattern","legs"],"bee_group":{"antennae":"X","wings":"X","pattern":"D","legs":"F"},"action":"harvest","summary":"good-harvest","bonus":0.2800000000000001},{"rt":657.9000000357628,"stimulus":"\n                    <p><b>Action: <em>harvest</em></b></p>\n                    <p>This is the bee that you just saw.</p>\n                    <img src=\"bees-with-color/bee-B1DM.svg\" width=\"200\">\n                    <p><span class=\"greenText\"><b>Successful harvest!</b></span><br>Your pay has increased by $0.02. Your bonus pay is now $0.36.</p>\n            ","response":0,"trial_type":"html-button-response","trial_index":54,"time_elapsed":307555,"internal_node_id":"0.0-4.0-1.21","subject_id":"6103082117238ae6d0c3e805","study_id":"60edd13110225f80f9f3709b","session_id":"6196c49ee5ad69c13eb0d6fb","condition":"full-information","relevant_dimensions":["pattern","legs"],"bee_group":{"antennae":"X","wings":"X","pattern":"D","legs":"F"},"bonus":0.2800000000000001},{"rt":538.3000000119209,"stimulus":"bees-with-color/bee-A1DF.svg","response":0,"trial_type":"image-button-response","trial_index":55,"time_elapsed":308096,"internal_node_id":"0.0-4.0-0.22","subject_id":"6103082117238ae6d0c3e805","study_id":"60edd13110225f80f9f3709b","session_id":"6196c49ee5ad69c13eb0d6fb","condition":"full-information","relevant_dimensions":["pattern","legs"],"bee_group":{"antennae":"X","wings":"X","pattern":"D","legs":"F"},"action":"harvest","summary":"bad-harvest","bonus":0.2800000000000001},{"rt":567.3999999761581,"stimulus":"\n                    <p><b>Action: <em>harvest</em></b></p>\n                    <p>This is the bee that you just saw.</p>\n                    <img src=\"bees-with-color/bee-A1DF.svg\" width=\"200\">\n                    <p><span class=\"redText\">Bad choice, the bee was angry.</span><br><b>You have been stung!</b><br>Your pay has been decreased by $0.10. Your bonus pay is now $0.26.</p>\n            ","response":0,"trial_type":"html-button-response","trial_index":56,"time_elapsed":308666,"internal_node_id":"0.0-4.0-1.22","subject_id":"6103082117238ae6d0c3e805","study_id":"60edd13110225f80f9f3709b","session_id":"6196c49ee5ad69c13eb0d6fb","condition":"full-information","relevant_dimensions":["pattern","legs"],"bee_group":{"antennae":"X","wings":"X","pattern":"D","legs":"F"},"bonus":0.2800000000000001},{"rt":478.19999998807907,"stimulus":"bees-with-color/bee-B1DF.svg","response":0,"trial_type":"image-button-response","trial_index":57,"time_elapsed":309146,"internal_node_id":"0.0-4.0-0.23","subject_id":"6103082117238ae6d0c3e805","study_id":"60edd13110225f80f9f3709b","session_id":"6196c49ee5ad69c13eb0d6fb","condition":"full-information","relevant_dimensions":["pattern","legs"],"bee_group":{"antennae":"X","wings":"X","pattern":"D","legs":"F"},"action":"harvest","summary":"bad-harvest","bonus":0.2800000000000001},{"rt":522.3999999761581,"stimulus":"\n                    <p><b>Action: <em>harvest</em></b></p>\n                    <p>This is the bee that you just saw.</p>\n                    <img src=\"bees-with-color/bee-B1DF.svg\" width=\"200\">\n                    <p><span class=\"redText\">Bad choice, the bee was angry.</span><br><b>You have been stung!</b><br>Your pay has been decreased by $0.10. Your bonus pay is now $0.16.</p>\n            ","response":0,"trial_type":"html-button-response","trial_index":58,"time_elapsed":309671,"internal_node_id":"0.0-4.0-1.23","subject_id":"6103082117238ae6d0c3e805","study_id":"60edd13110225f80f9f3709b","session_id":"6196c49ee5ad69c13eb0d6fb","condition":"full-information","relevant_dimensions":["pattern","legs"],"bee_group":{"antennae":"X","wings":"X","pattern":"D","legs":"F"},"bonus":0.2800000000000001},{"rt":492.69999998807907,"stimulus":"bees-with-color/bee-A2DM.svg","response":0,"trial_type":"image-button-response","trial_index":59,"time_elapsed":310165,"internal_node_id":"0.0-4.0-0.24","subject_id":"6103082117238ae6d0c3e805","study_id":"60edd13110225f80f9f3709b","session_id":"6196c49ee5ad69c13eb0d6fb","condition":"full-information","relevant_dimensions":["pattern","legs"],"bee_group":{"antennae":"X","wings":"X","pattern":"D","legs":"F"},"action":"harvest","summary":"good-harvest","bonus":0.2800000000000001},{"rt":530.3000000119209,"stimulus":"\n                    <p><b>Action: <em>harvest</em></b></p>\n                    <p>This is the bee that you just saw.</p>\n                    <img src=\"bees-with-color/bee-A2DM.svg\" width=\"200\">\n                    <p><span class=\"greenText\"><b>Successful harvest!</b></span><br>Your pay has increased by $0.02. Your bonus pay is now $0.18.</p>\n            ","response":0,"trial_type":"html-button-response","trial_index":60,"time_elapsed":310698,"internal_node_id":"0.0-4.0-1.24","subject_id":"6103082117238ae6d0c3e805","study_id":"60edd13110225f80f9f3709b","session_id":"6196c49ee5ad69c13eb0d6fb","condition":"full-information","relevant_dimensions":["pattern","legs"],"bee_group":{"antennae":"X","wings":"X","pattern":"D","legs":"F"},"bonus":0.2800000000000001},{"rt":582.6000000238419,"stimulus":"bees-with-color/bee-B2DM.svg","response":0,"trial_type":"image-button-response","trial_index":61,"time_elapsed":311283,"internal_node_id":"0.0-4.0-0.25","subject_id":"6103082117238ae6d0c3e805","study_id":"60edd13110225f80f9f3709b","session_id":"6196c49ee5ad69c13eb0d6fb","condition":"full-information","relevant_dimensions":["pattern","legs"],"bee_group":{"antennae":"X","wings":"X","pattern":"D","legs":"F"},"action":"harvest","summary":"good-harvest","bonus":0.2800000000000001},{"rt":507.89999997615814,"stimulus":"\n                    <p><b>Action: <em>harvest</em></b></p>\n                    <p>This is the bee that you just saw.</p>\n                    <img src=\"bees-with-color/bee-B2DM.svg\" width=\"200\">\n                    <p><span class=\"greenText\"><b>Successful harvest!</b></span><br>Your pay has increased by $0.02. Your bonus pay is now $0.20.</p>\n            ","response":0,"trial_type":"html-button-response","trial_index":62,"time_elapsed":311793,"internal_node_id":"0.0-4.0-1.25","subject_id":"6103082117238ae6d0c3e805","study_id":"60edd13110225f80f9f3709b","session_id":"6196c49ee5ad69c13eb0d6fb","condition":"full-information","relevant_dimensions":["pattern","legs"],"bee_group":{"antennae":"X","wings":"X","pattern":"D","legs":"F"},"bonus":0.2800000000000001},{"rt":470.10000002384186,"stimulus":"bees-with-color/bee-A2DF.svg","response":0,"trial_type":"image-button-response","trial_index":63,"time_elapsed":312266,"internal_node_id":"0.0-4.0-0.26","subject_id":"6103082117238ae6d0c3e805","study_id":"60edd13110225f80f9f3709b","session_id":"6196c49ee5ad69c13eb0d6fb","condition":"full-information","relevant_dimensions":["pattern","legs"],"bee_group":{"antennae":"X","wings":"X","pattern":"D","legs":"F"},"action":"harvest","summary":"bad-harvest","bonus":0.2800000000000001},{"rt":582.2999999523163,"stimulus":"\n                    <p><b>Action: <em>harvest</em></b></p>\n                    <p>This is the bee that you just saw.</p>\n                    <img src=\"bees-with-color/bee-A2DF.svg\" width=\"200\">\n                    <p><span class=\"redText\">Bad choice, the bee was angry.</span><br><b>You have been stung!</b><br>Your pay has been decreased by $0.10. Your bonus pay is now $0.10.</p>\n            ","response":0,"trial_type":"html-button-response","trial_index":64,"time_elapsed":312850,"internal_node_id":"0.0-4.0-1.26","subject_id":"6103082117238ae6d0c3e805","study_id":"60edd13110225f80f9f3709b","session_id":"6196c49ee5ad69c13eb0d6fb","condition":"full-information","relevant_dimensions":["pattern","legs"],"bee_group":{"antennae":"X","wings":"X","pattern":"D","legs":"F"},"bonus":0.2800000000000001},{"rt":417.80000001192093,"stimulus":"bees-with-color/bee-A1SM.svg","response":0,"trial_type":"image-button-response","trial_index":65,"time_elapsed":313270,"internal_node_id":"0.0-4.0-0.27","subject_id":"6103082117238ae6d0c3e805","study_id":"60edd13110225f80f9f3709b","session_id":"6196c49ee5ad69c13eb0d6fb","condition":"full-information","relevant_dimensions":["pattern","legs"],"bee_group":{"antennae":"X","wings":"X","pattern":"D","legs":"F"},"action":"harvest","summary":"good-harvest","bonus":0.2800000000000001},{"rt":537.5,"stimulus":"\n                    <p><b>Action: <em>harvest</em></b></p>\n                    <p>This is the bee that you just saw.</p>\n                    <img src=\"bees-with-color/bee-A1SM.svg\" width=\"200\">\n                    <p><span class=\"greenText\"><b>Successful harvest!</b></span><br>Your pay has increased by $0.02. Your bonus pay is now $0.12.</p>\n            ","response":0,"trial_type":"html-button-response","trial_index":66,"time_elapsed":313811,"internal_node_id":"0.0-4.0-1.27","subject_id":"6103082117238ae6d0c3e805","study_id":"60edd13110225f80f9f3709b","session_id":"6196c49ee5ad69c13eb0d6fb","condition":"full-information","relevant_dimensions":["pattern","legs"],"bee_group":{"antennae":"X","wings":"X","pattern":"D","legs":"F"},"bonus":0.2800000000000001},{"rt":455.30000001192093,"stimulus":"bees-with-color/bee-B1SF.svg","response":0,"trial_type":"image-button-response","trial_index":67,"time_elapsed":314268,"internal_node_id":"0.0-4.0-0.28","subject_id":"6103082117238ae6d0c3e805","study_id":"60edd13110225f80f9f3709b","session_id":"6196c49ee5ad69c13eb0d6fb","condition":"full-information","relevant_dimensions":["pattern","legs"],"bee_group":{"antennae":"X","wings":"X","pattern":"D","legs":"F"},"action":"harvest","summary":"good-harvest","bonus":0.2800000000000001},{"rt":522.4000000357628,"stimulus":"\n                    <p><b>Action: <em>harvest</em></b></p>\n                    <p>This is the bee that you just saw.</p>\n                    <img src=\"bees-with-color/bee-B1SF.svg\" width=\"200\">\n                    <p><span class=\"greenText\"><b>Successful harvest!</b></span><br>Your pay has increased by $0.02. Your bonus pay is now $0.14.</p>\n            ","response":0,"trial_type":"html-button-response","trial_index":68,"time_elapsed":314793,"internal_node_id":"0.0-4.0-1.28","subject_id":"6103082117238ae6d0c3e805","study_id":"60edd13110225f80f9f3709b","session_id":"6196c49ee5ad69c13eb0d6fb","condition":"full-information","relevant_dimensions":["pattern","legs"],"bee_group":{"antennae":"X","wings":"X","pattern":"D","legs":"F"},"bonus":0.2800000000000001},{"rt":680.1999999880791,"stimulus":"bees-with-color/bee-B1SM.svg","response":1,"trial_type":"image-button-response","trial_index":69,"time_elapsed":315476,"internal_node_id":"0.0-4.0-0.29","subject_id":"6103082117238ae6d0c3e805","study_id":"60edd13110225f80f9f3709b","session_id":"6196c49ee5ad69c13eb0d6fb","condition":"full-information","relevant_dimensions":["pattern","legs"],"bee_group":{"antennae":"X","wings":"X","pattern":"D","legs":"F"},"action":"avoid","summary":"bad-avoid","bonus":0.2800000000000001},{"rt":927.6999999880791,"stimulus":"\n                    <p><b>Action: <em>avoid</em></b></p>\n                    <p>This is the bee that you just saw.</p>\n                    <img src=\"bees-with-color/bee-B1SM.svg\" width=\"200\">\n                    <p><span class=\"redText\">Bad choice,</span> the bee was friendly.<br>Your bonus pay is unchanged, and remains at $0.14.</p>\n            ","response":0,"trial_type":"html-button-response","trial_index":70,"time_elapsed":316406,"internal_node_id":"0.0-4.0-1.29","subject_id":"6103082117238ae6d0c3e805","study_id":"60edd13110225f80f9f3709b","session_id":"6196c49ee5ad69c13eb0d6fb","condition":"full-information","relevant_dimensions":["pattern","legs"],"bee_group":{"antennae":"X","wings":"X","pattern":"D","legs":"F"},"bonus":0.2800000000000001},{"rt":853.1000000238419,"stimulus":"bees-with-color/bee-B2DF.svg","response":1,"trial_type":"image-button-response","trial_index":71,"time_elapsed":317260,"internal_node_id":"0.0-4.0-0.30","subject_id":"6103082117238ae6d0c3e805","study_id":"60edd13110225f80f9f3709b","session_id":"6196c49ee5ad69c13eb0d6fb","condition":"full-information","relevant_dimensions":["pattern","legs"],"bee_group":{"antennae":"X","wings":"X","pattern":"D","legs":"F"},"action":"avoid","summary":"good-avoid","bonus":0.2800000000000001},{"rt":1108.1000000238419,"stimulus":"\n                    <p><b>Action: <em>avoid</em></b></p>\n                    <p>This is the bee that you just saw.</p>\n                    <img src=\"bees-with-color/bee-B2DF.svg\" width=\"200\">\n                    <p><span class=\"greenText\">Good choice!</span>  This bee would have stung you.<br>Your bonus pay is unchanged, and remains at $0.14.</p>\n            ","response":0,"trial_type":"html-button-response","trial_index":72,"time_elapsed":318370,"internal_node_id":"0.0-4.0-1.30","subject_id":"6103082117238ae6d0c3e805","study_id":"60edd13110225f80f9f3709b","session_id":"6196c49ee5ad69c13eb0d6fb","condition":"full-information","relevant_dimensions":["pattern","legs"],"bee_group":{"antennae":"X","wings":"X","pattern":"D","legs":"F"},"bonus":0.2800000000000001},{"rt":770.8000000119209,"stimulus":"bees-with-color/bee-A1DM.svg","response":0,"trial_type":"image-button-response","trial_index":73,"time_elapsed":319143,"internal_node_id":"0.0-4.0-0.31","subject_id":"6103082117238ae6d0c3e805","study_id":"60edd13110225f80f9f3709b","session_id":"6196c49ee5ad69c13eb0d6fb","condition":"full-information","relevant_dimensions":["pattern","legs"],"bee_group":{"antennae":"X","wings":"X","pattern":"D","legs":"F"},"action":"harvest","summary":"good-harvest","bonus":0.2800000000000001},{"rt":568.1000000238419,"stimulus":"\n                    <p><b>Action: <em>harvest</em></b></p>\n                    <p>This is the bee that you just saw.</p>\n                    <img src=\"bees-with-color/bee-A1DM.svg\" width=\"200\">\n                    <p><span class=\"greenText\"><b>Successful harvest!</b></span><br>Your pay has increased by $0.02. Your bonus pay is now $0.16.</p>\n            ","response":0,"trial_type":"html-button-response","trial_index":74,"time_elapsed":319713,"internal_node_id":"0.0-4.0-1.31","subject_id":"6103082117238ae6d0c3e805","study_id":"60edd13110225f80f9f3709b","session_id":"6196c49ee5ad69c13eb0d6fb","condition":"full-information","relevant_dimensions":["pattern","legs"],"bee_group":{"antennae":"X","wings":"X","pattern":"D","legs":"F"},"bonus":0.2800000000000001},{"rt":583.3000000119209,"stimulus":"bees-with-color/bee-B1DM.svg","response":0,"trial_type":"image-button-response","trial_index":75,"time_elapsed":320298,"internal_node_id":"0.0-4.0-0.32","subject_id":"6103082117238ae6d0c3e805","study_id":"60edd13110225f80f9f3709b","session_id":"6196c49ee5ad69c13eb0d6fb","condition":"full-information","relevant_dimensions":["pattern","legs"],"bee_group":{"antennae":"X","wings":"X","pattern":"D","legs":"F"},"action":"harvest","summary":"good-harvest","bonus":0.2800000000000001},{"rt":808.4000000357628,"stimulus":"\n                    <p><b>Action: <em>harvest</em></b></p>\n                    <p>This is the bee that you just saw.</p>\n                    <img src=\"bees-with-color/bee-B1DM.svg\" width=\"200\">\n                    <p><span class=\"greenText\"><b>Successful harvest!</b></span><br>Your pay has increased by $0.02. Your bonus pay is now $0.18.</p>\n            ","response":0,"trial_type":"html-button-response","trial_index":76,"time_elapsed":321108,"internal_node_id":"0.0-4.0-1.32","subject_id":"6103082117238ae6d0c3e805","study_id":"60edd13110225f80f9f3709b","session_id":"6196c49ee5ad69c13eb0d6fb","condition":"full-information","relevant_dimensions":["pattern","legs"],"bee_group":{"antennae":"X","wings":"X","pattern":"D","legs":"F"},"bonus":0.2800000000000001},{"rt":1048.800000011921,"stimulus":"bees-with-color/bee-A1DM.svg","response":0,"trial_type":"image-button-response","trial_index":77,"time_elapsed":322159,"internal_node_id":"0.0-4.0-0.33","subject_id":"6103082117238ae6d0c3e805","study_id":"60edd13110225f80f9f3709b","session_id":"6196c49ee5ad69c13eb0d6fb","condition":"full-information","relevant_dimensions":["pattern","legs"],"bee_group":{"antennae":"X","wings":"X","pattern":"D","legs":"F"},"action":"harvest","summary":"good-harvest","bonus":0.2800000000000001},{"rt":657.5999999642372,"stimulus":"\n                    <p><b>Action: <em>harvest</em></b></p>\n                    <p>This is the bee that you just saw.</p>\n                    <img src=\"bees-with-color/bee-A1DM.svg\" width=\"200\">\n                    <p><span class=\"greenText\"><b>Successful harvest!</b></span><br>Your pay has increased by $0.02. Your bonus pay is now $0.20.</p>\n            ","response":0,"trial_type":"html-button-response","trial_index":78,"time_elapsed":322818,"internal_node_id":"0.0-4.0-1.33","subject_id":"6103082117238ae6d0c3e805","study_id":"60edd13110225f80f9f3709b","session_id":"6196c49ee5ad69c13eb0d6fb","condition":"full-information","relevant_dimensions":["pattern","legs"],"bee_group":{"antennae":"X","wings":"X","pattern":"D","legs":"F"},"bonus":0.2800000000000001},{"rt":1565.3999999761581,"stimulus":"bees-with-color/bee-B1DF.svg","response":1,"trial_type":"image-button-response","trial_index":79,"time_elapsed":324385,"internal_node_id":"0.0-4.0-0.34","subject_id":"6103082117238ae6d0c3e805","study_id":"60edd13110225f80f9f3709b","session_id":"6196c49ee5ad69c13eb0d6fb","condition":"full-information","relevant_dimensions":["pattern","legs"],"bee_group":{"antennae":"X","wings":"X","pattern":"D","legs":"F"},"action":"avoid","summary":"good-avoid","bonus":0.2800000000000001},{"rt":1116.1000000238419,"stimulus":"\n                    <p><b>Action: <em>avoid</em></b></p>\n                    <p>This is the bee that you just saw.</p>\n                    <img src=\"bees-with-color/bee-B1DF.svg\" width=\"200\">\n                    <p><span class=\"greenText\">Good choice!</span>  This bee would have stung you.<br>Your bonus pay is unchanged, and remains at $0.20.</p>\n            ","response":0,"trial_type":"html-button-response","trial_index":80,"time_elapsed":325503,"internal_node_id":"0.0-4.0-1.34","subject_id":"6103082117238ae6d0c3e805","study_id":"60edd13110225f80f9f3709b","session_id":"6196c49ee5ad69c13eb0d6fb","condition":"full-information","relevant_dimensions":["pattern","legs"],"bee_group":{"antennae":"X","wings":"X","pattern":"D","legs":"F"},"bonus":0.2800000000000001},{"rt":1077.699999988079,"stimulus":"bees-with-color/bee-B1SM.svg","response":0,"trial_type":"image-button-response","trial_index":81,"time_elapsed":326584,"internal_node_id":"0.0-4.0-0.35","subject_id":"6103082117238ae6d0c3e805","study_id":"60edd13110225f80f9f3709b","session_id":"6196c49ee5ad69c13eb0d6fb","condition":"full-information","relevant_dimensions":["pattern","legs"],"bee_group":{"antennae":"X","wings":"X","pattern":"D","legs":"F"},"action":"harvest","summary":"good-harvest","bonus":0.2800000000000001},{"rt":672,"stimulus":"\n                    <p><b>Action: <em>harvest</em></b></p>\n                    <p>This is the bee that you just saw.</p>\n                    <img src=\"bees-with-color/bee-B1SM.svg\" width=\"200\">\n                    <p><span class=\"greenText\"><b>Successful harvest!</b></span><br>Your pay has increased by $0.02. Your bonus pay is now $0.22.</p>\n            ","response":0,"trial_type":"html-button-response","trial_index":82,"time_elapsed":327258,"internal_node_id":"0.0-4.0-1.35","subject_id":"6103082117238ae6d0c3e805","study_id":"60edd13110225f80f9f3709b","session_id":"6196c49ee5ad69c13eb0d6fb","condition":"full-information","relevant_dimensions":["pattern","legs"],"bee_group":{"antennae":"X","wings":"X","pattern":"D","legs":"F"},"bonus":0.2800000000000001},{"rt":1476,"stimulus":"bees-with-color/bee-A2DM.svg","response":1,"trial_type":"image-button-response","trial_index":83,"time_elapsed":328736,"internal_node_id":"0.0-4.0-0.36","subject_id":"6103082117238ae6d0c3e805","study_id":"60edd13110225f80f9f3709b","session_id":"6196c49ee5ad69c13eb0d6fb","condition":"full-information","relevant_dimensions":["pattern","legs"],"bee_group":{"antennae":"X","wings":"X","pattern":"D","legs":"F"},"action":"avoid","summary":"bad-avoid","bonus":0.2800000000000001},{"rt":950.5999999642372,"stimulus":"\n                    <p><b>Action: <em>avoid</em></b></p>\n                    <p>This is the bee that you just saw.</p>\n                    <img src=\"bees-with-color/bee-A2DM.svg\" width=\"200\">\n                    <p><span class=\"redText\">Bad choice,</span> the bee was friendly.<br>Your bonus pay is unchanged, and remains at $0.22.</p>\n            ","response":0,"trial_type":"html-button-response","trial_index":84,"time_elapsed":329688,"internal_node_id":"0.0-4.0-1.36","subject_id":"6103082117238ae6d0c3e805","study_id":"60edd13110225f80f9f3709b","session_id":"6196c49ee5ad69c13eb0d6fb","condition":"full-information","relevant_dimensions":["pattern","legs"],"bee_group":{"antennae":"X","wings":"X","pattern":"D","legs":"F"},"bonus":0.2800000000000001},{"rt":1484.1000000238419,"stimulus":"bees-with-color/bee-A2SM.svg","response":0,"trial_type":"image-button-response","trial_index":85,"time_elapsed":331174,"internal_node_id":"0.0-4.0-0.37","subject_id":"6103082117238ae6d0c3e805","study_id":"60edd13110225f80f9f3709b","session_id":"6196c49ee5ad69c13eb0d6fb","condition":"full-information","relevant_dimensions":["pattern","legs"],"bee_group":{"antennae":"X","wings":"X","pattern":"D","legs":"F"},"action":"harvest","summary":"good-harvest","bonus":0.2800000000000001},{"rt":7789.600000023842,"stimulus":"\n                    <p><b>Action: <em>harvest</em></b></p>\n                    <p>This is the bee that you just saw.</p>\n                    <img src=\"bees-with-color/bee-A2SM.svg\" width=\"200\">\n                    <p><span class=\"greenText\"><b>Successful harvest!</b></span><br>Your pay has increased by $0.02. Your bonus pay is now $0.24.</p>\n            ","response":0,"trial_type":"html-button-response","trial_index":86,"time_elapsed":338966,"internal_node_id":"0.0-4.0-1.37","subject_id":"6103082117238ae6d0c3e805","study_id":"60edd13110225f80f9f3709b","session_id":"6196c49ee5ad69c13eb0d6fb","condition":"full-information","relevant_dimensions":["pattern","legs"],"bee_group":{"antennae":"X","wings":"X","pattern":"D","legs":"F"},"bonus":0.2800000000000001},{"rt":1340.300000011921,"stimulus":"bees-with-color/bee-B2SF.svg","response":1,"trial_type":"image-button-response","trial_index":87,"time_elapsed":340309,"internal_node_id":"0.0-4.0-0.38","subject_id":"6103082117238ae6d0c3e805","study_id":"60edd13110225f80f9f3709b","session_id":"6196c49ee5ad69c13eb0d6fb","condition":"full-information","relevant_dimensions":["pattern","legs"],"bee_group":{"antennae":"X","wings":"X","pattern":"D","legs":"F"},"action":"avoid","summary":"bad-avoid","bonus":0.2800000000000001},{"rt":2127.2000000476837,"stimulus":"\n                    <p><b>Action: <em>avoid</em></b></p>\n                    <p>This is the bee that you just saw.</p>\n                    <img src=\"bees-with-color/bee-B2SF.svg\" width=\"200\">\n                    <p><span class=\"redText\">Bad choice,</span> the bee was friendly.<br>Your bonus pay is unchanged, and remains at $0.24.</p>\n            ","response":0,"trial_type":"html-button-response","trial_index":88,"time_elapsed":342439,"internal_node_id":"0.0-4.0-1.38","subject_id":"6103082117238ae6d0c3e805","study_id":"60edd13110225f80f9f3709b","session_id":"6196c49ee5ad69c13eb0d6fb","condition":"full-information","relevant_dimensions":["pattern","legs"],"bee_group":{"antennae":"X","wings":"X","pattern":"D","legs":"F"},"bonus":0.2800000000000001},{"rt":905.1999999880791,"stimulus":"bees-with-color/bee-A1DF.svg","response":1,"trial_type":"image-button-response","trial_index":89,"time_elapsed":343346,"internal_node_id":"0.0-4.0-0.39","subject_id":"6103082117238ae6d0c3e805","study_id":"60edd13110225f80f9f3709b","session_id":"6196c49ee5ad69c13eb0d6fb","condition":"full-information","relevant_dimensions":["pattern","legs"],"bee_group":{"antennae":"X","wings":"X","pattern":"D","legs":"F"},"action":"avoid","summary":"good-avoid","bonus":0.2800000000000001},{"rt":680.3999999761581,"stimulus":"\n                    <p><b>Action: <em>avoid</em></b></p>\n                    <p>This is the bee that you just saw.</p>\n                    <img src=\"bees-with-color/bee-A1DF.svg\" width=\"200\">\n                    <p><span class=\"greenText\">Good choice!</span>  This bee would have stung you.<br>Your bonus pay is unchanged, and remains at $0.24.</p>\n            ","response":0,"trial_type":"html-button-response","trial_index":90,"time_elapsed":344028,"internal_node_id":"0.0-4.0-1.39","subject_id":"6103082117238ae6d0c3e805","study_id":"60edd13110225f80f9f3709b","session_id":"6196c49ee5ad69c13eb0d6fb","condition":"full-information","relevant_dimensions":["pattern","legs"],"bee_group":{"antennae":"X","wings":"X","pattern":"D","legs":"F"},"bonus":0.2800000000000001},{"rt":815.0999999642372,"stimulus":"bees-with-color/bee-B2DF.svg","response":0,"trial_type":"image-button-response","trial_index":91,"time_elapsed":344846,"internal_node_id":"0.0-4.0-0.40","subject_id":"6103082117238ae6d0c3e805","study_id":"60edd13110225f80f9f3709b","session_id":"6196c49ee5ad69c13eb0d6fb","condition":"full-information","relevant_dimensions":["pattern","legs"],"bee_group":{"antennae":"X","wings":"X","pattern":"D","legs":"F"},"action":"harvest","summary":"bad-harvest","bonus":0.2800000000000001},{"rt":786.1999999880791,"stimulus":"\n                    <p><b>Action: <em>harvest</em></b></p>\n                    <p>This is the bee that you just saw.</p>\n                    <img src=\"bees-with-color/bee-B2DF.svg\" width=\"200\">\n                    <p><span class=\"redText\">Bad choice, the bee was angry.</span><br><b>You have been stung!</b><br>Your pay has been decreased by $0.10. Your bonus pay is now $0.14.</p>\n            ","response":0,"trial_type":"html-button-response","trial_index":92,"time_elapsed":345634,"internal_node_id":"0.0-4.0-1.40","subject_id":"6103082117238ae6d0c3e805","study_id":"60edd13110225f80f9f3709b","session_id":"6196c49ee5ad69c13eb0d6fb","condition":"full-information","relevant_dimensions":["pattern","legs"],"bee_group":{"antennae":"X","wings":"X","pattern":"D","legs":"F"},"bonus":0.2800000000000001},{"rt":1466.800000011921,"stimulus":"bees-with-color/bee-A1SF.svg","response":1,"trial_type":"image-button-response","trial_index":93,"time_elapsed":347104,"internal_node_id":"0.0-4.0-0.41","subject_id":"6103082117238ae6d0c3e805","study_id":"60edd13110225f80f9f3709b","session_id":"6196c49ee5ad69c13eb0d6fb","condition":"full-information","relevant_dimensions":["pattern","legs"],"bee_group":{"antennae":"X","wings":"X","pattern":"D","legs":"F"},"action":"avoid","summary":"bad-avoid","bonus":0.2800000000000001},{"rt":837.3000000119209,"stimulus":"\n                    <p><b>Action: <em>avoid</em></b></p>\n                    <p>This is the bee that you just saw.</p>\n                    <img src=\"bees-with-color/bee-A1SF.svg\" width=\"200\">\n                    <p><span class=\"redText\">Bad choice,</span> the bee was friendly.<br>Your bonus pay is unchanged, and remains at $0.14.</p>\n            ","response":0,"trial_type":"html-button-response","trial_index":94,"time_elapsed":347944,"internal_node_id":"0.0-4.0-1.41","subject_id":"6103082117238ae6d0c3e805","study_id":"60edd13110225f80f9f3709b","session_id":"6196c49ee5ad69c13eb0d6fb","condition":"full-information","relevant_dimensions":["pattern","legs"],"bee_group":{"antennae":"X","wings":"X","pattern":"D","legs":"F"},"bonus":0.2800000000000001},{"rt":1114.8999999761581,"stimulus":"bees-with-color/bee-A1SM.svg","response":0,"trial_type":"image-button-response","trial_index":95,"time_elapsed":349061,"internal_node_id":"0.0-4.0-0.42","subject_id":"6103082117238ae6d0c3e805","study_id":"60edd13110225f80f9f3709b","session_id":"6196c49ee5ad69c13eb0d6fb","condition":"full-information","relevant_dimensions":["pattern","legs"],"bee_group":{"antennae":"X","wings":"X","pattern":"D","legs":"F"},"action":"harvest","summary":"good-harvest","bonus":0.2800000000000001},{"rt":604.6999999880791,"stimulus":"\n                    <p><b>Action: <em>harvest</em></b></p>\n                    <p>This is the bee that you just saw.</p>\n                    <img src=\"bees-with-color/bee-A1SM.svg\" width=\"200\">\n                    <p><span class=\"greenText\"><b>Successful harvest!</b></span><br>Your pay has increased by $0.02. Your bonus pay is now $0.16.</p>\n            ","response":0,"trial_type":"html-button-response","trial_index":96,"time_elapsed":349668,"internal_node_id":"0.0-4.0-1.42","subject_id":"6103082117238ae6d0c3e805","study_id":"60edd13110225f80f9f3709b","session_id":"6196c49ee5ad69c13eb0d6fb","condition":"full-information","relevant_dimensions":["pattern","legs"],"bee_group":{"antennae":"X","wings":"X","pattern":"D","legs":"F"},"bonus":0.2800000000000001},{"rt":1145.5,"stimulus":"bees-with-color/bee-B2DM.svg","response":0,"trial_type":"image-button-response","trial_index":97,"time_elapsed":350816,"internal_node_id":"0.0-4.0-0.43","subject_id":"6103082117238ae6d0c3e805","study_id":"60edd13110225f80f9f3709b","session_id":"6196c49ee5ad69c13eb0d6fb","condition":"full-information","relevant_dimensions":["pattern","legs"],"bee_group":{"antennae":"X","wings":"X","pattern":"D","legs":"F"},"action":"harvest","summary":"good-harvest","bonus":0.2800000000000001},{"rt":844.6999999880791,"stimulus":"\n                    <p><b>Action: <em>harvest</em></b></p>\n                    <p>This is the bee that you just saw.</p>\n                    <img src=\"bees-with-color/bee-B2DM.svg\" width=\"200\">\n                    <p><span class=\"greenText\"><b>Successful harvest!</b></span><br>Your pay has increased by $0.02. Your bonus pay is now $0.18.</p>\n            ","response":0,"trial_type":"html-button-response","trial_index":98,"time_elapsed":351663,"internal_node_id":"0.0-4.0-1.43","subject_id":"6103082117238ae6d0c3e805","study_id":"60edd13110225f80f9f3709b","session_id":"6196c49ee5ad69c13eb0d6fb","condition":"full-information","relevant_dimensions":["pattern","legs"],"bee_group":{"antennae":"X","wings":"X","pattern":"D","legs":"F"},"bonus":0.2800000000000001},{"rt":1475.800000011921,"stimulus":"bees-with-color/bee-A2SF.svg","response":0,"trial_type":"image-button-response","trial_index":99,"time_elapsed":353141,"internal_node_id":"0.0-4.0-0.44","subject_id":"6103082117238ae6d0c3e805","study_id":"60edd13110225f80f9f3709b","session_id":"6196c49ee5ad69c13eb0d6fb","condition":"full-information","relevant_dimensions":["pattern","legs"],"bee_group":{"antennae":"X","wings":"X","pattern":"D","legs":"F"},"action":"harvest","summary":"good-harvest","bonus":0.2800000000000001},{"rt":521.6000000238419,"stimulus":"\n                    <p><b>Action: <em>harvest</em></b></p>\n                    <p>This is the bee that you just saw.</p>\n                    <img src=\"bees-with-color/bee-A2SF.svg\" width=\"200\">\n                    <p><span class=\"greenText\"><b>Successful harvest!</b></span><br>Your pay has increased by $0.02. Your bonus pay is now $0.20.</p>\n            ","response":0,"trial_type":"html-button-response","trial_index":100,"time_elapsed":353665,"internal_node_id":"0.0-4.0-1.44","subject_id":"6103082117238ae6d0c3e805","study_id":"60edd13110225f80f9f3709b","session_id":"6196c49ee5ad69c13eb0d6fb","condition":"full-information","relevant_dimensions":["pattern","legs"],"bee_group":{"antennae":"X","wings":"X","pattern":"D","legs":"F"},"bonus":0.2800000000000001},{"rt":2279.300000011921,"stimulus":"bees-with-color/bee-A2DF.svg","response":0,"trial_type":"image-button-response","trial_index":101,"time_elapsed":355946,"internal_node_id":"0.0-4.0-0.45","subject_id":"6103082117238ae6d0c3e805","study_id":"60edd13110225f80f9f3709b","session_id":"6196c49ee5ad69c13eb0d6fb","condition":"full-information","relevant_dimensions":["pattern","legs"],"bee_group":{"antennae":"X","wings":"X","pattern":"D","legs":"F"},"action":"harvest","summary":"bad-harvest","bonus":0.2800000000000001},{"rt":731.7999999523163,"stimulus":"\n                    <p><b>Action: <em>harvest</em></b></p>\n                    <p>This is the bee that you just saw.</p>\n                    <img src=\"bees-with-color/bee-A2DF.svg\" width=\"200\">\n                    <p><span class=\"redText\">Bad choice, the bee was angry.</span><br><b>You have been stung!</b><br>Your pay has been decreased by $0.10. Your bonus pay is now $0.10.</p>\n            ","response":0,"trial_type":"html-button-response","trial_index":102,"time_elapsed":356681,"internal_node_id":"0.0-4.0-1.45","subject_id":"6103082117238ae6d0c3e805","study_id":"60edd13110225f80f9f3709b","session_id":"6196c49ee5ad69c13eb0d6fb","condition":"full-information","relevant_dimensions":["pattern","legs"],"bee_group":{"antennae":"X","wings":"X","pattern":"D","legs":"F"},"bonus":0.2800000000000001},{"rt":1018.6999999880791,"stimulus":"bees-with-color/bee-B2SM.svg","response":0,"trial_type":"image-button-response","trial_index":103,"time_elapsed":357702,"internal_node_id":"0.0-4.0-0.46","subject_id":"6103082117238ae6d0c3e805","study_id":"60edd13110225f80f9f3709b","session_id":"6196c49ee5ad69c13eb0d6fb","condition":"full-information","relevant_dimensions":["pattern","legs"],"bee_group":{"antennae":"X","wings":"X","pattern":"D","legs":"F"},"action":"harvest","summary":"good-harvest","bonus":0.2800000000000001},{"rt":619.6000000238419,"stimulus":"\n                    <p><b>Action: <em>harvest</em></b></p>\n                    <p>This is the bee that you just saw.</p>\n                    <img src=\"bees-with-color/bee-B2SM.svg\" width=\"200\">\n                    <p><span class=\"greenText\"><b>Successful harvest!</b></span><br>Your pay has increased by $0.02. Your bonus pay is now $0.12.</p>\n            ","response":0,"trial_type":"html-button-response","trial_index":104,"time_elapsed":358323,"internal_node_id":"0.0-4.0-1.46","subject_id":"6103082117238ae6d0c3e805","study_id":"60edd13110225f80f9f3709b","session_id":"6196c49ee5ad69c13eb0d6fb","condition":"full-information","relevant_dimensions":["pattern","legs"],"bee_group":{"antennae":"X","wings":"X","pattern":"D","legs":"F"},"bonus":0.2800000000000001},{"rt":1003.1999999880791,"stimulus":"bees-with-color/bee-B1SF.svg","response":1,"trial_type":"image-button-response","trial_index":105,"time_elapsed":359328,"internal_node_id":"0.0-4.0-0.47","subject_id":"6103082117238ae6d0c3e805","study_id":"60edd13110225f80f9f3709b","session_id":"6196c49ee5ad69c13eb0d6fb","condition":"full-information","relevant_dimensions":["pattern","legs"],"bee_group":{"antennae":"X","wings":"X","pattern":"D","legs":"F"},"action":"avoid","summary":"bad-avoid","bonus":0.2800000000000001},{"rt":598.5,"stimulus":"\n                    <p><b>Action: <em>avoid</em></b></p>\n                    <p>This is the bee that you just saw.</p>\n                    <img src=\"bees-with-color/bee-B1SF.svg\" width=\"200\">\n                    <p><span class=\"redText\">Bad choice,</span> the bee was friendly.<br>Your bonus pay is unchanged, and remains at $0.12.</p>\n            ","response":0,"trial_type":"html-button-response","trial_index":106,"time_elapsed":359929,"internal_node_id":"0.0-4.0-1.47","subject_id":"6103082117238ae6d0c3e805","study_id":"60edd13110225f80f9f3709b","session_id":"6196c49ee5ad69c13eb0d6fb","condition":"full-information","relevant_dimensions":["pattern","legs"],"bee_group":{"antennae":"X","wings":"X","pattern":"D","legs":"F"},"bonus":0.2800000000000001},{"rt":1542.699999988079,"stimulus":"bees-with-color/bee-B2DF.svg","response":0,"trial_type":"image-button-response","trial_index":107,"time_elapsed":361473,"internal_node_id":"0.0-4.0-0.48","subject_id":"6103082117238ae6d0c3e805","study_id":"60edd13110225f80f9f3709b","session_id":"6196c49ee5ad69c13eb0d6fb","condition":"full-information","relevant_dimensions":["pattern","legs"],"bee_group":{"antennae":"X","wings":"X","pattern":"D","legs":"F"},"action":"harvest","summary":"bad-harvest","bonus":0.2800000000000001},{"rt":927.9000000357628,"stimulus":"\n                    <p><b>Action: <em>harvest</em></b></p>\n                    <p>This is the bee that you just saw.</p>\n                    <img src=\"bees-with-color/bee-B2DF.svg\" width=\"200\">\n                    <p><span class=\"redText\">Bad choice, the bee was angry.</span><br><b>You have been stung!</b><br>Your pay has been decreased by $0.10. Your bonus pay is now $0.02.</p>\n            ","response":0,"trial_type":"html-button-response","trial_index":108,"time_elapsed":362403,"internal_node_id":"0.0-4.0-1.48","subject_id":"6103082117238ae6d0c3e805","study_id":"60edd13110225f80f9f3709b","session_id":"6196c49ee5ad69c13eb0d6fb","condition":"full-information","relevant_dimensions":["pattern","legs"],"bee_group":{"antennae":"X","wings":"X","pattern":"D","legs":"F"},"bonus":0.2800000000000001},{"rt":463.30000001192093,"stimulus":"bees-with-color/bee-A2DF.svg","response":0,"trial_type":"image-button-response","trial_index":109,"time_elapsed":362868,"internal_node_id":"0.0-4.0-0.49","subject_id":"6103082117238ae6d0c3e805","study_id":"60edd13110225f80f9f3709b","session_id":"6196c49ee5ad69c13eb0d6fb","condition":"full-information","relevant_dimensions":["pattern","legs"],"bee_group":{"antennae":"X","wings":"X","pattern":"D","legs":"F"},"action":"harvest","summary":"bad-harvest","bonus":0.2800000000000001},{"rt":665.3999999761581,"stimulus":"\n                    <p><b>Action: <em>harvest</em></b></p>\n                    <p>This is the bee that you just saw.</p>\n                    <img src=\"bees-with-color/bee-A2DF.svg\" width=\"200\">\n                    <p><span class=\"redText\">Bad choice, the bee was angry.</span><br><b>You have been stung!</b><br>Your pay has been decreased by $0.10. Your bonus pay is now $0.00.</p>\n            ","response":0,"trial_type":"html-button-response","trial_index":110,"time_elapsed":363536,"internal_node_id":"0.0-4.0-1.49","subject_id":"6103082117238ae6d0c3e805","study_id":"60edd13110225f80f9f3709b","session_id":"6196c49ee5ad69c13eb0d6fb","condition":"full-information","relevant_dimensions":["pattern","legs"],"bee_group":{"antennae":"X","wings":"X","pattern":"D","legs":"F"},"bonus":0.2800000000000001},{"rt":883.8999999761581,"stimulus":"bees-with-color/bee-B2DM.svg","response":0,"trial_type":"image-button-response","trial_index":111,"time_elapsed":364421,"internal_node_id":"0.0-4.0-0.50","subject_id":"6103082117238ae6d0c3e805","study_id":"60edd13110225f80f9f3709b","session_id":"6196c49ee5ad69c13eb0d6fb","condition":"full-information","relevant_dimensions":["pattern","legs"],"bee_group":{"antennae":"X","wings":"X","pattern":"D","legs":"F"},"action":"harvest","summary":"good-harvest","bonus":0.2800000000000001},{"rt":845,"stimulus":"\n                    <p><b>Action: <em>harvest</em></b></p>\n                    <p>This is the bee that you just saw.</p>\n                    <img src=\"bees-with-color/bee-B2DM.svg\" width=\"200\">\n                    <p><span class=\"greenText\"><b>Successful harvest!</b></span><br>Your pay has increased by $0.02. Your bonus pay is now $0.02.</p>\n            ","response":0,"trial_type":"html-button-response","trial_index":112,"time_elapsed":365268,"internal_node_id":"0.0-4.0-1.50","subject_id":"6103082117238ae6d0c3e805","study_id":"60edd13110225f80f9f3709b","session_id":"6196c49ee5ad69c13eb0d6fb","condition":"full-information","relevant_dimensions":["pattern","legs"],"bee_group":{"antennae":"X","wings":"X","pattern":"D","legs":"F"},"bonus":0.2800000000000001},{"rt":1056.1000000238419,"stimulus":"bees-with-color/bee-A2SM.svg","response":0,"trial_type":"image-button-response","trial_index":113,"time_elapsed":366326,"internal_node_id":"0.0-4.0-0.51","subject_id":"6103082117238ae6d0c3e805","study_id":"60edd13110225f80f9f3709b","session_id":"6196c49ee5ad69c13eb0d6fb","condition":"full-information","relevant_dimensions":["pattern","legs"],"bee_group":{"antennae":"X","wings":"X","pattern":"D","legs":"F"},"action":"harvest","summary":"good-harvest","bonus":0.2800000000000001},{"rt":627.5999999642372,"stimulus":"\n                    <p><b>Action: <em>harvest</em></b></p>\n                    <p>This is the bee that you just saw.</p>\n                    <img src=\"bees-with-color/bee-A2SM.svg\" width=\"200\">\n                    <p><span class=\"greenText\"><b>Successful harvest!</b></span><br>Your pay has increased by $0.02. Your bonus pay is now $0.04.</p>\n            ","response":0,"trial_type":"html-button-response","trial_index":114,"time_elapsed":366956,"internal_node_id":"0.0-4.0-1.51","subject_id":"6103082117238ae6d0c3e805","study_id":"60edd13110225f80f9f3709b","session_id":"6196c49ee5ad69c13eb0d6fb","condition":"full-information","relevant_dimensions":["pattern","legs"],"bee_group":{"antennae":"X","wings":"X","pattern":"D","legs":"F"},"bonus":0.2800000000000001},{"rt":1093.1000000238419,"stimulus":"bees-with-color/bee-B2SF.svg","response":0,"trial_type":"image-button-response","trial_index":115,"time_elapsed":368051,"internal_node_id":"0.0-4.0-0.52","subject_id":"6103082117238ae6d0c3e805","study_id":"60edd13110225f80f9f3709b","session_id":"6196c49ee5ad69c13eb0d6fb","condition":"full-information","relevant_dimensions":["pattern","legs"],"bee_group":{"antennae":"X","wings":"X","pattern":"D","legs":"F"},"action":"harvest","summary":"good-harvest","bonus":0.2800000000000001},{"rt":793.1999999880791,"stimulus":"\n                    <p><b>Action: <em>harvest</em></b></p>\n                    <p>This is the bee that you just saw.</p>\n                    <img src=\"bees-with-color/bee-B2SF.svg\" width=\"200\">\n                    <p><span class=\"greenText\"><b>Successful harvest!</b></span><br>Your pay has increased by $0.02. Your bonus pay is now $0.06.</p>\n            ","response":0,"trial_type":"html-button-response","trial_index":116,"time_elapsed":368846,"internal_node_id":"0.0-4.0-1.52","subject_id":"6103082117238ae6d0c3e805","study_id":"60edd13110225f80f9f3709b","session_id":"6196c49ee5ad69c13eb0d6fb","condition":"full-information","relevant_dimensions":["pattern","legs"],"bee_group":{"antennae":"X","wings":"X","pattern":"D","legs":"F"},"bonus":0.2800000000000001},{"rt":748,"stimulus":"bees-with-color/bee-A2DM.svg","response":1,"trial_type":"image-button-response","trial_index":117,"time_elapsed":369596,"internal_node_id":"0.0-4.0-0.53","subject_id":"6103082117238ae6d0c3e805","study_id":"60edd13110225f80f9f3709b","session_id":"6196c49ee5ad69c13eb0d6fb","condition":"full-information","relevant_dimensions":["pattern","legs"],"bee_group":{"antennae":"X","wings":"X","pattern":"D","legs":"F"},"action":"avoid","summary":"bad-avoid","bonus":0.2800000000000001},{"rt":635.0999999642372,"stimulus":"\n                    <p><b>Action: <em>avoid</em></b></p>\n                    <p>This is the bee that you just saw.</p>\n                    <img src=\"bees-with-color/bee-A2DM.svg\" width=\"200\">\n                    <p><span class=\"redText\">Bad choice,</span> the bee was friendly.<br>Your bonus pay is unchanged, and remains at $0.06.</p>\n            ","response":0,"trial_type":"html-button-response","trial_index":118,"time_elapsed":370233,"internal_node_id":"0.0-4.0-1.53","subject_id":"6103082117238ae6d0c3e805","study_id":"60edd13110225f80f9f3709b","session_id":"6196c49ee5ad69c13eb0d6fb","condition":"full-information","relevant_dimensions":["pattern","legs"],"bee_group":{"antennae":"X","wings":"X","pattern":"D","legs":"F"},"bonus":0.2800000000000001},{"rt":1228.1000000238419,"stimulus":"bees-with-color/bee-B2SM.svg","response":0,"trial_type":"image-button-response","trial_index":119,"time_elapsed":371463,"internal_node_id":"0.0-4.0-0.54","subject_id":"6103082117238ae6d0c3e805","study_id":"60edd13110225f80f9f3709b","session_id":"6196c49ee5ad69c13eb0d6fb","condition":"full-information","relevant_dimensions":["pattern","legs"],"bee_group":{"antennae":"X","wings":"X","pattern":"D","legs":"F"},"action":"harvest","summary":"good-harvest","bonus":0.2800000000000001},{"rt":515.4000000357628,"stimulus":"\n                    <p><b>Action: <em>harvest</em></b></p>\n                    <p>This is the bee that you just saw.</p>\n                    <img src=\"bees-with-color/bee-B2SM.svg\" width=\"200\">\n                    <p><span class=\"greenText\"><b>Successful harvest!</b></span><br>Your pay has increased by $0.02. Your bonus pay is now $0.08.</p>\n            ","response":0,"trial_type":"html-button-response","trial_index":120,"time_elapsed":371981,"internal_node_id":"0.0-4.0-1.54","subject_id":"6103082117238ae6d0c3e805","study_id":"60edd13110225f80f9f3709b","session_id":"6196c49ee5ad69c13eb0d6fb","condition":"full-information","relevant_dimensions":["pattern","legs"],"bee_group":{"antennae":"X","wings":"X","pattern":"D","legs":"F"},"bonus":0.2800000000000001},{"rt":1798.4000000357628,"stimulus":"bees-with-color/bee-B1DM.svg","response":1,"trial_type":"image-button-response","trial_index":121,"time_elapsed":373781,"internal_node_id":"0.0-4.0-0.55","subject_id":"6103082117238ae6d0c3e805","study_id":"60edd13110225f80f9f3709b","session_id":"6196c49ee5ad69c13eb0d6fb","condition":"full-information","relevant_dimensions":["pattern","legs"],"bee_group":{"antennae":"X","wings":"X","pattern":"D","legs":"F"},"action":"avoid","summary":"bad-avoid","bonus":0.2800000000000001},{"rt":522.5999999642372,"stimulus":"\n                    <p><b>Action: <em>avoid</em></b></p>\n                    <p>This is the bee that you just saw.</p>\n                    <img src=\"bees-with-color/bee-B1DM.svg\" width=\"200\">\n                    <p><span class=\"redText\">Bad choice,</span> the bee was friendly.<br>Your bonus pay is unchanged, and remains at $0.08.</p>\n            ","response":0,"trial_type":"html-button-response","trial_index":122,"time_elapsed":374306,"internal_node_id":"0.0-4.0-1.55","subject_id":"6103082117238ae6d0c3e805","study_id":"60edd13110225f80f9f3709b","session_id":"6196c49ee5ad69c13eb0d6fb","condition":"full-information","relevant_dimensions":["pattern","legs"],"bee_group":{"antennae":"X","wings":"X","pattern":"D","legs":"F"},"bonus":0.2800000000000001},{"rt":1138.4000000357628,"stimulus":"bees-with-color/bee-B1SM.svg","response":1,"trial_type":"image-button-response","trial_index":123,"time_elapsed":375446,"internal_node_id":"0.0-4.0-0.56","subject_id":"6103082117238ae6d0c3e805","study_id":"60edd13110225f80f9f3709b","session_id":"6196c49ee5ad69c13eb0d6fb","condition":"full-information","relevant_dimensions":["pattern","legs"],"bee_group":{"antennae":"X","wings":"X","pattern":"D","legs":"F"},"action":"avoid","summary":"bad-avoid","bonus":0.2800000000000001},{"rt":545.1000000238419,"stimulus":"\n                    <p><b>Action: <em>avoid</em></b></p>\n                    <p>This is the bee that you just saw.</p>\n                    <img src=\"bees-with-color/bee-B1SM.svg\" width=\"200\">\n                    <p><span class=\"redText\">Bad choice,</span> the bee was friendly.<br>Your bonus pay is unchanged, and remains at $0.08.</p>\n            ","response":0,"trial_type":"html-button-response","trial_index":124,"time_elapsed":375993,"internal_node_id":"0.0-4.0-1.56","subject_id":"6103082117238ae6d0c3e805","study_id":"60edd13110225f80f9f3709b","session_id":"6196c49ee5ad69c13eb0d6fb","condition":"full-information","relevant_dimensions":["pattern","legs"],"bee_group":{"antennae":"X","wings":"X","pattern":"D","legs":"F"},"bonus":0.2800000000000001},{"rt":830.3999999761581,"stimulus":"bees-with-color/bee-A1SF.svg","response":0,"trial_type":"image-button-response","trial_index":125,"time_elapsed":376826,"internal_node_id":"0.0-4.0-0.57","subject_id":"6103082117238ae6d0c3e805","study_id":"60edd13110225f80f9f3709b","session_id":"6196c49ee5ad69c13eb0d6fb","condition":"full-information","relevant_dimensions":["pattern","legs"],"bee_group":{"antennae":"X","wings":"X","pattern":"D","legs":"F"},"action":"harvest","summary":"good-harvest","bonus":0.2800000000000001},{"rt":567.6000000238419,"stimulus":"\n                    <p><b>Action: <em>harvest</em></b></p>\n                    <p>This is the bee that you just saw.</p>\n                    <img src=\"bees-with-color/bee-A1SF.svg\" width=\"200\">\n                    <p><span class=\"greenText\"><b>Successful harvest!</b></span><br>Your pay has increased by $0.02. Your bonus pay is now $0.10.</p>\n            ","response":0,"trial_type":"html-button-response","trial_index":126,"time_elapsed":377396,"internal_node_id":"0.0-4.0-1.57","subject_id":"6103082117238ae6d0c3e805","study_id":"60edd13110225f80f9f3709b","session_id":"6196c49ee5ad69c13eb0d6fb","condition":"full-information","relevant_dimensions":["pattern","legs"],"bee_group":{"antennae":"X","wings":"X","pattern":"D","legs":"F"},"bonus":0.2800000000000001},{"rt":1040.6000000238419,"stimulus":"bees-with-color/bee-A1DM.svg","response":0,"trial_type":"image-button-response","trial_index":127,"time_elapsed":378438,"internal_node_id":"0.0-4.0-0.58","subject_id":"6103082117238ae6d0c3e805","study_id":"60edd13110225f80f9f3709b","session_id":"6196c49ee5ad69c13eb0d6fb","condition":"full-information","relevant_dimensions":["pattern","legs"],"bee_group":{"antennae":"X","wings":"X","pattern":"D","legs":"F"},"action":"harvest","summary":"good-harvest","bonus":0.2800000000000001},{"rt":545.1999999880791,"stimulus":"\n                    <p><b>Action: <em>harvest</em></b></p>\n                    <p>This is the bee that you just saw.</p>\n                    <img src=\"bees-with-color/bee-A1DM.svg\" width=\"200\">\n                    <p><span class=\"greenText\"><b>Successful harvest!</b></span><br>Your pay has increased by $0.02. Your bonus pay is now $0.12.</p>\n            ","response":0,"trial_type":"html-button-response","trial_index":128,"time_elapsed":378986,"internal_node_id":"0.0-4.0-1.58","subject_id":"6103082117238ae6d0c3e805","study_id":"60edd13110225f80f9f3709b","session_id":"6196c49ee5ad69c13eb0d6fb","condition":"full-information","relevant_dimensions":["pattern","legs"],"bee_group":{"antennae":"X","wings":"X","pattern":"D","legs":"F"},"bonus":0.2800000000000001},{"rt":988.3000000119209,"stimulus":"bees-with-color/bee-A1SM.svg","response":0,"trial_type":"image-button-response","trial_index":129,"time_elapsed":379976,"internal_node_id":"0.0-4.0-0.59","subject_id":"6103082117238ae6d0c3e805","study_id":"60edd13110225f80f9f3709b","session_id":"6196c49ee5ad69c13eb0d6fb","condition":"full-information","relevant_dimensions":["pattern","legs"],"bee_group":{"antennae":"X","wings":"X","pattern":"D","legs":"F"},"action":"harvest","summary":"good-harvest","bonus":0.2800000000000001},{"rt":469.69999998807907,"stimulus":"\n                    <p><b>Action: <em>harvest</em></b></p>\n                    <p>This is the bee that you just saw.</p>\n                    <img src=\"bees-with-color/bee-A1SM.svg\" width=\"200\">\n                    <p><span class=\"greenText\"><b>Successful harvest!</b></span><br>Your pay has increased by $0.02. Your bonus pay is now $0.14.</p>\n            ","response":0,"trial_type":"html-button-response","trial_index":130,"time_elapsed":380448,"internal_node_id":"0.0-4.0-1.59","subject_id":"6103082117238ae6d0c3e805","study_id":"60edd13110225f80f9f3709b","session_id":"6196c49ee5ad69c13eb0d6fb","condition":"full-information","relevant_dimensions":["pattern","legs"],"bee_group":{"antennae":"X","wings":"X","pattern":"D","legs":"F"},"bonus":0.2800000000000001},{"rt":1168.1000000238419,"stimulus":"bees-with-color/bee-A2SF.svg","response":1,"trial_type":"image-button-response","trial_index":131,"time_elapsed":381618,"internal_node_id":"0.0-4.0-0.60","subject_id":"6103082117238ae6d0c3e805","study_id":"60edd13110225f80f9f3709b","session_id":"6196c49ee5ad69c13eb0d6fb","condition":"full-information","relevant_dimensions":["pattern","legs"],"bee_group":{"antennae":"X","wings":"X","pattern":"D","legs":"F"},"action":"avoid","summary":"bad-avoid","bonus":0.2800000000000001},{"rt":462.5999999642372,"stimulus":"\n                    <p><b>Action: <em>avoid</em></b></p>\n                    <p>This is the bee that you just saw.</p>\n                    <img src=\"bees-with-color/bee-A2SF.svg\" width=\"200\">\n                    <p><span class=\"redText\">Bad choice,</span> the bee was friendly.<br>Your bonus pay is unchanged, and remains at $0.14.</p>\n            ","response":0,"trial_type":"html-button-response","trial_index":132,"time_elapsed":382083,"internal_node_id":"0.0-4.0-1.60","subject_id":"6103082117238ae6d0c3e805","study_id":"60edd13110225f80f9f3709b","session_id":"6196c49ee5ad69c13eb0d6fb","condition":"full-information","relevant_dimensions":["pattern","legs"],"bee_group":{"antennae":"X","wings":"X","pattern":"D","legs":"F"},"bonus":0.2800000000000001},{"rt":1243.4000000357628,"stimulus":"bees-with-color/bee-B1SF.svg","response":0,"trial_type":"image-button-response","trial_index":133,"time_elapsed":383329,"internal_node_id":"0.0-4.0-0.61","subject_id":"6103082117238ae6d0c3e805","study_id":"60edd13110225f80f9f3709b","session_id":"6196c49ee5ad69c13eb0d6fb","condition":"full-information","relevant_dimensions":["pattern","legs"],"bee_group":{"antennae":"X","wings":"X","pattern":"D","legs":"F"},"action":"harvest","summary":"good-harvest","bonus":0.2800000000000001},{"rt":830.3000000119209,"stimulus":"\n                    <p><b>Action: <em>harvest</em></b></p>\n                    <p>This is the bee that you just saw.</p>\n                    <img src=\"bees-with-color/bee-B1SF.svg\" width=\"200\">\n                    <p><span class=\"greenText\"><b>Successful harvest!</b></span><br>Your pay has increased by $0.02. Your bonus pay is now $0.16.</p>\n            ","response":0,"trial_type":"html-button-response","trial_index":134,"time_elapsed":384161,"internal_node_id":"0.0-4.0-1.61","subject_id":"6103082117238ae6d0c3e805","study_id":"60edd13110225f80f9f3709b","session_id":"6196c49ee5ad69c13eb0d6fb","condition":"full-information","relevant_dimensions":["pattern","legs"],"bee_group":{"antennae":"X","wings":"X","pattern":"D","legs":"F"},"bonus":0.2800000000000001},{"rt":1002.3999999761581,"stimulus":"bees-with-color/bee-A1DF.svg","response":1,"trial_type":"image-button-response","trial_index":135,"time_elapsed":385166,"internal_node_id":"0.0-4.0-0.62","subject_id":"6103082117238ae6d0c3e805","study_id":"60edd13110225f80f9f3709b","session_id":"6196c49ee5ad69c13eb0d6fb","condition":"full-information","relevant_dimensions":["pattern","legs"],"bee_group":{"antennae":"X","wings":"X","pattern":"D","legs":"F"},"action":"avoid","summary":"good-avoid","bonus":0.2800000000000001},{"rt":657.6999999880791,"stimulus":"\n                    <p><b>Action: <em>avoid</em></b></p>\n                    <p>This is the bee that you just saw.</p>\n                    <img src=\"bees-with-color/bee-A1DF.svg\" width=\"200\">\n                    <p><span class=\"greenText\">Good choice!</span>  This bee would have stung you.<br>Your bonus pay is unchanged, and remains at $0.16.</p>\n            ","response":0,"trial_type":"html-button-response","trial_index":136,"time_elapsed":385826,"internal_node_id":"0.0-4.0-1.62","subject_id":"6103082117238ae6d0c3e805","study_id":"60edd13110225f80f9f3709b","session_id":"6196c49ee5ad69c13eb0d6fb","condition":"full-information","relevant_dimensions":["pattern","legs"],"bee_group":{"antennae":"X","wings":"X","pattern":"D","legs":"F"},"bonus":0.2800000000000001},{"rt":882.3999999761581,"stimulus":"bees-with-color/bee-B1DF.svg","response":1,"trial_type":"image-button-response","trial_index":137,"time_elapsed":386711,"internal_node_id":"0.0-4.0-0.63","subject_id":"6103082117238ae6d0c3e805","study_id":"60edd13110225f80f9f3709b","session_id":"6196c49ee5ad69c13eb0d6fb","condition":"full-information","relevant_dimensions":["pattern","legs"],"bee_group":{"antennae":"X","wings":"X","pattern":"D","legs":"F"},"action":"avoid","summary":"good-avoid","bonus":0.2800000000000001},{"rt":560.3999999761581,"stimulus":"\n                    <p><b>Action: <em>avoid</em></b></p>\n                    <p>This is the bee that you just saw.</p>\n                    <img src=\"bees-with-color/bee-B1DF.svg\" width=\"200\">\n                    <p><span class=\"greenText\">Good choice!</span>  This bee would have stung you.<br>Your bonus pay is unchanged, and remains at $0.16.</p>\n            ","response":0,"trial_type":"html-button-response","trial_index":138,"time_elapsed":387274,"internal_node_id":"0.0-4.0-1.63","subject_id":"6103082117238ae6d0c3e805","study_id":"60edd13110225f80f9f3709b","session_id":"6196c49ee5ad69c13eb0d6fb","condition":"full-information","relevant_dimensions":["pattern","legs"],"bee_group":{"antennae":"X","wings":"X","pattern":"D","legs":"F"},"bonus":0.2800000000000001},{"rt":5150.699999988079,"stimulus":"You have completed the first part of this experiment.<br><br>You will now begin a shorter second part, in which you will receive no feedback.<br>The same rules regarding bonus pay apply.<br><br>Press any key to begin.","response":"arrowright","trial_type":"html-keyboard-response","trial_index":139,"time_elapsed":392427,"internal_node_id":"0.0-5.0","subject_id":"6103082117238ae6d0c3e805","study_id":"60edd13110225f80f9f3709b","session_id":"6196c49ee5ad69c13eb0d6fb","condition":"full-information","relevant_dimensions":["pattern","legs"],"bee_group":{"antennae":"X","wings":"X","pattern":"D","legs":"F"},"bonus":0.2800000000000001},{"rt":2818,"stimulus":"bees-with-color/bee-A1SM.svg","response":0,"trial_type":"image-button-response","trial_index":140,"time_elapsed":395261,"internal_node_id":"0.0-6.0-0.0","subject_id":"6103082117238ae6d0c3e805","study_id":"60edd13110225f80f9f3709b","session_id":"6196c49ee5ad69c13eb0d6fb","condition":"full-information","relevant_dimensions":["pattern","legs"],"bee_group":{"antennae":"X","wings":"X","pattern":"D","legs":"F"},"bonus":0.2800000000000001},{"rt":5771.099999964237,"stimulus":"bees-with-color/bee-B2DM.svg","response":1,"trial_type":"image-button-response","trial_index":141,"time_elapsed":401036,"internal_node_id":"0.0-6.0-0.1","subject_id":"6103082117238ae6d0c3e805","study_id":"60edd13110225f80f9f3709b","session_id":"6196c49ee5ad69c13eb0d6fb","condition":"full-information","relevant_dimensions":["pattern","legs"],"bee_group":{"antennae":"X","wings":"X","pattern":"D","legs":"F"},"bonus":0.2800000000000001},{"rt":2395.099999964237,"stimulus":"bees-with-color/bee-A1DM.svg","response":1,"trial_type":"image-button-response","trial_index":142,"time_elapsed":403435,"internal_node_id":"0.0-6.0-0.2","subject_id":"6103082117238ae6d0c3e805","study_id":"60edd13110225f80f9f3709b","session_id":"6196c49ee5ad69c13eb0d6fb","condition":"full-information","relevant_dimensions":["pattern","legs"],"bee_group":{"antennae":"X","wings":"X","pattern":"D","legs":"F"},"bonus":0.2800000000000001},{"rt":1138.5,"stimulus":"bees-with-color/bee-B2SM.svg","response":0,"trial_type":"image-button-response","trial_index":143,"time_elapsed":404576,"internal_node_id":"0.0-6.0-0.3","subject_id":"6103082117238ae6d0c3e805","study_id":"60edd13110225f80f9f3709b","session_id":"6196c49ee5ad69c13eb0d6fb","condition":"full-information","relevant_dimensions":["pattern","legs"],"bee_group":{"antennae":"X","wings":"X","pattern":"D","legs":"F"},"bonus":0.2800000000000001},{"rt":1534.8999999761581,"stimulus":"bees-with-color/bee-A2DM.svg","response":0,"trial_type":"image-button-response","trial_index":144,"time_elapsed":406114,"internal_node_id":"0.0-6.0-0.4","subject_id":"6103082117238ae6d0c3e805","study_id":"60edd13110225f80f9f3709b","session_id":"6196c49ee5ad69c13eb0d6fb","condition":"full-information","relevant_dimensions":["pattern","legs"],"bee_group":{"antennae":"X","wings":"X","pattern":"D","legs":"F"},"bonus":0.2800000000000001},{"rt":1098.2000000476837,"stimulus":"bees-with-color/bee-A1DF.svg","response":1,"trial_type":"image-button-response","trial_index":145,"time_elapsed":407215,"internal_node_id":"0.0-6.0-0.5","subject_id":"6103082117238ae6d0c3e805","study_id":"60edd13110225f80f9f3709b","session_id":"6196c49ee5ad69c13eb0d6fb","condition":"full-information","relevant_dimensions":["pattern","legs"],"bee_group":{"antennae":"X","wings":"X","pattern":"D","legs":"F"},"bonus":0.2800000000000001},{"rt":1543.0999999642372,"stimulus":"bees-with-color/bee-A2SM.svg","response":0,"trial_type":"image-button-response","trial_index":146,"time_elapsed":408761,"internal_node_id":"0.0-6.0-0.6","subject_id":"6103082117238ae6d0c3e805","study_id":"60edd13110225f80f9f3709b","session_id":"6196c49ee5ad69c13eb0d6fb","condition":"full-information","relevant_dimensions":["pattern","legs"],"bee_group":{"antennae":"X","wings":"X","pattern":"D","legs":"F"},"bonus":0.2800000000000001},{"rt":1047.2999999523163,"stimulus":"bees-with-color/bee-A2DF.svg","response":1,"trial_type":"image-button-response","trial_index":147,"time_elapsed":409811,"internal_node_id":"0.0-6.0-0.7","subject_id":"6103082117238ae6d0c3e805","study_id":"60edd13110225f80f9f3709b","session_id":"6196c49ee5ad69c13eb0d6fb","condition":"full-information","relevant_dimensions":["pattern","legs"],"bee_group":{"antennae":"X","wings":"X","pattern":"D","legs":"F"},"bonus":0.2800000000000001},{"rt":1287.2000000476837,"stimulus":"bees-with-color/bee-B2DF.svg","response":1,"trial_type":"image-button-response","trial_index":148,"time_elapsed":411101,"internal_node_id":"0.0-6.0-0.8","subject_id":"6103082117238ae6d0c3e805","study_id":"60edd13110225f80f9f3709b","session_id":"6196c49ee5ad69c13eb0d6fb","condition":"full-information","relevant_dimensions":["pattern","legs"],"bee_group":{"antennae":"X","wings":"X","pattern":"D","legs":"F"},"bonus":0.2800000000000001},{"rt":2898.900000035763,"stimulus":"bees-with-color/bee-B2SF.svg","response":0,"trial_type":"image-button-response","trial_index":149,"time_elapsed":414004,"internal_node_id":"0.0-6.0-0.9","subject_id":"6103082117238ae6d0c3e805","study_id":"60edd13110225f80f9f3709b","session_id":"6196c49ee5ad69c13eb0d6fb","condition":"full-information","relevant_dimensions":["pattern","legs"],"bee_group":{"antennae":"X","wings":"X","pattern":"D","legs":"F"},"bonus":0.2800000000000001},{"rt":2329,"stimulus":"bees-with-color/bee-B1DM.svg","response":1,"trial_type":"image-button-response","trial_index":150,"time_elapsed":416336,"internal_node_id":"0.0-6.0-0.10","subject_id":"6103082117238ae6d0c3e805","study_id":"60edd13110225f80f9f3709b","session_id":"6196c49ee5ad69c13eb0d6fb","condition":"full-information","relevant_dimensions":["pattern","legs"],"bee_group":{"antennae":"X","wings":"X","pattern":"D","legs":"F"},"bonus":0.2800000000000001},{"rt":806.8999999761581,"stimulus":"bees-with-color/bee-B1SM.svg","response":0,"trial_type":"image-button-response","trial_index":151,"time_elapsed":417146,"internal_node_id":"0.0-6.0-0.11","subject_id":"6103082117238ae6d0c3e805","study_id":"60edd13110225f80f9f3709b","session_id":"6196c49ee5ad69c13eb0d6fb","condition":"full-information","relevant_dimensions":["pattern","legs"],"bee_group":{"antennae":"X","wings":"X","pattern":"D","legs":"F"},"bonus":0.2800000000000001},{"rt":2179.199999988079,"stimulus":"bees-with-color/bee-A1SF.svg","response":0,"trial_type":"image-button-response","trial_index":152,"time_elapsed":419328,"internal_node_id":"0.0-6.0-0.12","subject_id":"6103082117238ae6d0c3e805","study_id":"60edd13110225f80f9f3709b","session_id":"6196c49ee5ad69c13eb0d6fb","condition":"full-information","relevant_dimensions":["pattern","legs"],"bee_group":{"antennae":"X","wings":"X","pattern":"D","legs":"F"},"bonus":0.2800000000000001},{"rt":1144.699999988079,"stimulus":"bees-with-color/bee-B1SF.svg","response":1,"trial_type":"image-button-response","trial_index":153,"time_elapsed":420476,"internal_node_id":"0.0-6.0-0.13","subject_id":"6103082117238ae6d0c3e805","study_id":"60edd13110225f80f9f3709b","session_id":"6196c49ee5ad69c13eb0d6fb","condition":"full-information","relevant_dimensions":["pattern","legs"],"bee_group":{"antennae":"X","wings":"X","pattern":"D","legs":"F"},"bonus":0.2800000000000001},{"rt":897.0999999642372,"stimulus":"bees-with-color/bee-A2SF.svg","response":0,"trial_type":"image-button-response","trial_index":154,"time_elapsed":421376,"internal_node_id":"0.0-6.0-0.14","subject_id":"6103082117238ae6d0c3e805","study_id":"60edd13110225f80f9f3709b","session_id":"6196c49ee5ad69c13eb0d6fb","condition":"full-information","relevant_dimensions":["pattern","legs"],"bee_group":{"antennae":"X","wings":"X","p