[{"success":true,"trial_type":"fullscreen","trial_index":0,"time_elapsed":3942,"internal_node_id":"0.0-0.0","subject_id":"612a3c3ad8b3173cfeb7d69a","study_id":"6197b3f67c2b5cd3b6d9596a","session_id":"6197b55a698a415f67ddc4c6","condition":"contingent","relevant_dimensions":["pattern","legs"],"bee_group":{"antennae":"X","wings":"X","pattern":"S","legs":"M"},"bonus":0.7800000000000008},{"success":true,"timeout":false,"failed_images":[],"failed_audio":[],"failed_video":[],"trial_type":"preload","trial_index":1,"time_elapsed":5530,"internal_node_id":"0.0-1.0","subject_id":"612a3c3ad8b3173cfeb7d69a","study_id":"6197b3f67c2b5cd3b6d9596a","session_id":"6197b55a698a415f67ddc4c6","condition":"contingent","relevant_dimensions":["pattern","legs"],"bee_group":{"antennae":"X","wings":"X","pattern":"S","legs":"M"},"bonus":0.7800000000000008},{"rt":2110.6999999955297,"stimulus":"Welcome! Press any key to begin.","response":" ","trial_type":"html-keyboard-response","trial_index":2,"time_elapsed":7642,"internal_node_id":"0.0-2.0","subject_id":"612a3c3ad8b3173cfeb7d69a","study_id":"6197b3f67c2b5cd3b6d9596a","session_id":"6197b55a698a415f67ddc4c6","condition":"contingent","relevant_dimensions":["pattern","legs"],"bee_group":{"antennae":"X","wings":"X","pattern":"S","legs":"M"},"bonus":0.7800000000000008},{"view_history":[{"page_index":0,"viewing_time":3278.2000000029802},{"page_index":1,"viewing_time":8252.79999999702},{"page_index":2,"viewing_time":6325.10000000149},{"page_index":3,"viewing_time":8761.79999999702},{"page_index":4,"viewing_time":6456},{"page_index":5,"viewing_time":6710.5},{"page_index":6,"viewing_time":5716},{"page_index":7,"viewing_time":4776.60000000149},{"page_index":8,"viewing_time":3759.39999999851},{"page_index":9,"viewing_time":2708.10000000149},{"page_index":10,"viewing_time":3937.5},{"page_index":11,"viewing_time":5328.5},{"page_index":12,"viewing_time":2338.2000000029802},{"page_index":13,"viewing_time":1358.6000000014901},{"page_index":14,"viewing_time":2177.39999999851}],"rt":71884.80000000447,"trial_type":"instructions","trial_index":3,"time_elapsed":79527,"internal_node_id":"0.0-3.0-0.0","subject_id":"612a3c3ad8b3173cfeb7d69a","study_id":"6197b3f67c2b5cd3b6d9596a","session_id":"6197b55a698a415f67ddc4c6","condition":"contingent","relevant_dimensions":["pattern","legs"],"bee_group":{"antennae":"X","wings":"X","pattern":"S","legs":"M"},"bonus":0.7800000000000008},{"rt":12724.60000000149,"response":{"Q0":["Two or six legs","Stripes or spots on body","Single or double wings","Antennae or no antennae"]},"question_order":[0],"trial_type":"survey-multi-select","trial_index":4,"time_elapsed":92255,"internal_node_id":"0.0-3.0-1.0","subject_id":"612a3c3ad8b3173cfeb7d69a","study_id":"6197b3f67c2b5cd3b6d9596a","session_id":"6197b55a698a415f67ddc4c6","condition":"contingent","relevant_dimensions":["pattern","legs"],"bee_group":{"antennae":"X","wings":"X","pattern":"S","legs":"M"},"correct":true,"bonus":0.7800000000000008},{"rt":18230.60000000149,"response":{"Q1":"No.","Q2":"Based on the four features of the bee.","Q3":"You do not learn if it was friendly or dangerous, and do not alter your bonus."},"question_order":[0,1,2],"trial_type":"survey-multi-choice","trial_index":5,"time_elapsed":110490,"internal_node_id":"0.0-3.0-2.0","subject_id":"612a3c3ad8b3173cfeb7d69a","study_id":"6197b3f67c2b5cd3b6d9596a","session_id":"6197b55a698a415f67ddc4c6","condition":"contingent","relevant_dimensions":["pattern","legs"],"bee_group":{"antennae":"X","wings":"X","pattern":"S","legs":"M"},"correct":true,"bonus":0.7800000000000008},{"rt":2469.60000000149,"stimulus":"<p>Congrats, you got everything right<br>When you're ready, click the button below to continue to the experiment.</p>","response":0,"trial_type":"html-button-response","trial_index":6,"time_elapsed":112963,"internal_node_id":"0.0-3.0-3.0","subject_id":"612a3c3ad8b3173cfeb7d69a","study_id":"6197b3f67c2b5cd3b6d9596a","session_id":"6197b55a698a415f67ddc4c6","condition":"contingent","relevant_dimensions":["pattern","legs"],"bee_group":{"antennae":"X","wings":"X","pattern":"S","legs":"M"},"bonus":0.7800000000000008},{"rt":2643.8000000044703,"stimulus":"bees-with-color/bee-A2DM.svg","response":0,"trial_type":"image-button-response","trial_index":7,"time_elapsed":115610,"internal_node_id":"0.0-4.0-0.0","subject_id":"612a3c3ad8b3173cfeb7d69a","study_id":"6197b3f67c2b5cd3b6d9596a","session_id":"6197b55a698a415f67ddc4c6","condition":"contingent","relevant_dimensions":["pattern","legs"],"bee_group":{"antennae":"X","wings":"X","pattern":"S","legs":"M"},"action":"harvest","summary":"good-harvest","bonus":0.7800000000000008},{"rt":8635.5,"stimulus":"\n                    <p><b>Action: <em>harvest</em></b></p>\n                    <p>This is the bee that you just saw.</p>\n                    <img src=\"bees-with-color/bee-A2DM.svg\" width=\"200\">\n                    <p><span class=\"greenText\"><b>Successful harvest!</b></span><br>Your pay has increased by $0.02. Your bonus pay is now $0.56.</p>\n            ","response":0,"trial_type":"html-button-response","trial_index":8,"time_elapsed":124248,"internal_node_id":"0.0-4.0-1.0","subject_id":"612a3c3ad8b3173cfeb7d69a","study_id":"6197b3f67c2b5cd3b6d9596a","session_id":"6197b55a698a415f67ddc4c6","condition":"contingent","relevant_dimensions":["pattern","legs"],"bee_group":{"antennae":"X","wings":"X","pattern":"S","legs":"M"},"bonus":0.7800000000000008},{"rt":1929.2000000029802,"stimulus":"bees-with-color/bee-B2DF.svg","response":1,"trial_type":"image-button-response","trial_index":9,"time_elapsed":126179,"internal_node_id":"0.0-4.0-0.1","subject_id":"612a3c3ad8b3173cfeb7d69a","study_id":"6197b3f67c2b5cd3b6d9596a","session_id":"6197b55a698a415f67ddc4c6","condition":"contingent","relevant_dimensions":["pattern","legs"],"bee_group":{"antennae":"X","wings":"X","pattern":"S","legs":"M"},"action":"avoid","summary":"bad-avoid","bonus":0.7800000000000008},{"rt":3102.7999999970198,"stimulus":"\n                    <p><b>Action: <em>avoid</em></b></p>\n                    <p>This is the bee that you just saw.</p>\n                    <img src=\"bees-with-color/bee-B2DF.svg\" width=\"200\">\n                    <p><br>Your bonus pay is unchanged, and remains at $0.56.</p>\n            ","response":0,"trial_type":"html-button-response","trial_index":10,"time_elapsed":129283,"internal_node_id":"0.0-4.0-1.1","subject_id":"612a3c3ad8b3173cfeb7d69a","study_id":"6197b3f67c2b5cd3b6d9596a","session_id":"6197b55a698a415f67ddc4c6","condition":"contingent","relevant_dimensions":["pattern","legs"],"bee_group":{"antennae":"X","wings":"X","pattern":"S","legs":"M"},"bonus":0.7800000000000008},{"rt":4412.9000000059605,"stimulus":"bees-with-color/bee-A2SM.svg","response":0,"trial_type":"image-button-response","trial_index":11,"time_elapsed":133698,"internal_node_id":"0.0-4.0-0.2","subject_id":"612a3c3ad8b3173cfeb7d69a","study_id":"6197b3f67c2b5cd3b6d9596a","session_id":"6197b55a698a415f67ddc4c6","condition":"contingent","relevant_dimensions":["pattern","legs"],"bee_group":{"antennae":"X","wings":"X","pattern":"S","legs":"M"},"action":"harvest","summary":"bad-harvest","bonus":0.7800000000000008},{"rt":4535.79999999702,"stimulus":"\n                    <p><b>Action: <em>harvest</em></b></p>\n                    <p>This is the bee that you just saw.</p>\n                    <img src=\"bees-with-color/bee-A2SM.svg\" width=\"200\">\n                    <p><span class=\"redText\">Bad choice, the bee was angry.</span><br><b>You have been stung!</b><br>Your pay has been decreased by $0.10. Your bonus pay is now $0.46.</p>\n            ","response":0,"trial_type":"html-button-response","trial_index":12,"time_elapsed":138235,"internal_node_id":"0.0-4.0-1.2","subject_id":"612a3c3ad8b3173cfeb7d69a","study_id":"6197b3f67c2b5cd3b6d9596a","session_id":"6197b55a698a415f67ddc4c6","condition":"contingent","relevant_dimensions":["pattern","legs"],"bee_group":{"antennae":"X","wings":"X","pattern":"S","legs":"M"},"bonus":0.7800000000000008},{"rt":2816.7000000029802,"stimulus":"bees-with-color/bee-B1SF.svg","response":0,"trial_type":"image-button-response","trial_index":13,"time_elapsed":141054,"internal_node_id":"0.0-4.0-0.3","subject_id":"612a3c3ad8b3173cfeb7d69a","study_id":"6197b3f67c2b5cd3b6d9596a","session_id":"6197b55a698a415f67ddc4c6","condition":"contingent","relevant_dimensions":["pattern","legs"],"bee_group":{"antennae":"X","wings":"X","pattern":"S","legs":"M"},"action":"harvest","summary":"good-harvest","bonus":0.7800000000000008},{"rt":2807.7999999970198,"stimulus":"\n                    <p><b>Action: <em>harvest</em></b></p>\n                    <p>This is the bee that you just saw.</p>\n                    <img src=\"bees-with-color/bee-B1SF.svg\" width=\"200\">\n                    <p><span class=\"greenText\"><b>Successful harvest!</b></span><br>Your pay has increased by $0.02. Your bonus pay is now $0.48.</p>\n            ","response":0,"trial_type":"html-button-response","trial_index":14,"time_elapsed":143863,"internal_node_id":"0.0-4.0-1.3","subject_id":"612a3c3ad8b3173cfeb7d69a","study_id":"6197b3f67c2b5cd3b6d9596a","session_id":"6197b55a698a415f67ddc4c6","condition":"contingent","relevant_dimensions":["pattern","legs"],"bee_group":{"antennae":"X","wings":"X","pattern":"S","legs":"M"},"bonus":0.7800000000000008},{"rt":2418.60000000149,"stimulus":"bees-with-color/bee-A1DM.svg","response":0,"trial_type":"image-button-response","trial_index":15,"time_elapsed":146283,"internal_node_id":"0.0-4.0-0.4","subject_id":"612a3c3ad8b3173cfeb7d69a","study_id":"6197b3f67c2b5cd3b6d9596a","session_id":"6197b55a698a415f67ddc4c6","condition":"contingent","relevant_dimensions":["pattern","legs"],"bee_group":{"antennae":"X","wings":"X","pattern":"S","legs":"M"},"action":"harvest","summary":"good-harvest","bonus":0.7800000000000008},{"rt":1511.8999999985099,"stimulus":"\n                    <p><b>Action: <em>harvest</em></b></p>\n                    <p>This is the bee that you just saw.</p>\n                    <img src=\"bees-with-color/bee-A1DM.svg\" width=\"200\">\n                    <p><span class=\"greenText\"><b>Successful harvest!</b></span><br>Your pay has increased by $0.02. Your bonus pay is now $0.50.</p>\n            ","response":0,"trial_type":"html-button-response","trial_index":16,"time_elapsed":147797,"internal_node_id":"0.0-4.0-1.4","subject_id":"612a3c3ad8b3173cfeb7d69a","study_id":"6197b3f67c2b5cd3b6d9596a","session_id":"6197b55a698a415f67ddc4c6","condition":"contingent","relevant_dimensions":["pattern","legs"],"bee_group":{"antennae":"X","wings":"X","pattern":"S","legs":"M"},"bonus":0.7800000000000008},{"rt":1483.8999999985099,"stimulus":"bees-with-color/bee-A1DF.svg","response":1,"trial_type":"image-button-response","trial_index":17,"time_elapsed":149282,"internal_node_id":"0.0-4.0-0.5","subject_id":"612a3c3ad8b3173cfeb7d69a","study_id":"6197b3f67c2b5cd3b6d9596a","session_id":"6197b55a698a415f67ddc4c6","condition":"contingent","relevant_dimensions":["pattern","legs"],"bee_group":{"antennae":"X","wings":"X","pattern":"S","legs":"M"},"action":"avoid","summary":"bad-avoid","bonus":0.7800000000000008},{"rt":1244.7000000029802,"stimulus":"\n                    <p><b>Action: <em>avoid</em></b></p>\n                    <p>This is the bee that you just saw.</p>\n                    <img src=\"bees-with-color/bee-A1DF.svg\" width=\"200\">\n                    <p><br>Your bonus pay is unchanged, and remains at $0.50.</p>\n            ","response":0,"trial_type":"html-button-response","trial_index":18,"time_elapsed":150528,"internal_node_id":"0.0-4.0-1.5","subject_id":"612a3c3ad8b3173cfeb7d69a","study_id":"6197b3f67c2b5cd3b6d9596a","session_id":"6197b55a698a415f67ddc4c6","condition":"contingent","relevant_dimensions":["pattern","legs"],"bee_group":{"antennae":"X","wings":"X","pattern":"S","legs":"M"},"bonus":0.7800000000000008},{"rt":2223.5,"stimulus":"bees-with-color/bee-A1SM.svg","response":1,"trial_type":"image-button-response","trial_index":19,"time_elapsed":152753,"internal_node_id":"0.0-4.0-0.6","subject_id":"612a3c3ad8b3173cfeb7d69a","study_id":"6197b3f67c2b5cd3b6d9596a","session_id":"6197b55a698a415f67ddc4c6","condition":"contingent","relevant_dimensions":["pattern","legs"],"bee_group":{"antennae":"X","wings":"X","pattern":"S","legs":"M"},"action":"avoid","summary":"good-avoid","bonus":0.7800000000000008},{"rt":2894.1999999955297,"stimulus":"\n                    <p><b>Action: <em>avoid</em></b></p>\n                    <p>This is the bee that you just saw.</p>\n                    <img src=\"bees-with-color/bee-A1SM.svg\" width=\"200\">\n                    <p><br>Your bonus pay is unchanged, and remains at $0.50.</p>\n            ","response":0,"trial_type":"html-button-response","trial_index":20,"time_elapsed":155648,"internal_node_id":"0.0-4.0-1.6","subject_id":"612a3c3ad8b3173cfeb7d69a","study_id":"6197b3f67c2b5cd3b6d9596a","session_id":"6197b55a698a415f67ddc4c6","condition":"contingent","relevant_dimensions":["pattern","legs"],"bee_group":{"antennae":"X","wings":"X","pattern":"S","legs":"M"},"bonus":0.7800000000000008},{"rt":1941.0999999940395,"stimulus":"bees-with-color/bee-A2DF.svg","response":0,"trial_type":"image-button-response","trial_index":21,"time_elapsed":157590,"internal_node_id":"0.0-4.0-0.7","subject_id":"612a3c3ad8b3173cfeb7d69a","study_id":"6197b3f67c2b5cd3b6d9596a","session_id":"6197b55a698a415f67ddc4c6","condition":"contingent","relevant_dimensions":["pattern","legs"],"bee_group":{"antennae":"X","wings":"X","pattern":"S","legs":"M"},"action":"harvest","summary":"good-harvest","bonus":0.7800000000000008},{"rt":1343.7999999970198,"stimulus":"\n                    <p><b>Action: <em>harvest</em></b></p>\n                    <p>This is the bee that you just saw.</p>\n                    <img src=\"bees-with-color/bee-A2DF.svg\" width=\"200\">\n                    <p><span class=\"greenText\"><b>Successful harvest!</b></span><br>Your pay has increased by $0.02. Your bonus pay is now $0.52.</p>\n            ","response":0,"trial_type":"html-button-response","trial_index":22,"time_elapsed":158935,"internal_node_id":"0.0-4.0-1.7","subject_id":"612a3c3ad8b3173cfeb7d69a","study_id":"6197b3f67c2b5cd3b6d9596a","session_id":"6197b55a698a415f67ddc4c6","condition":"contingent","relevant_dimensions":["pattern","legs"],"bee_group":{"antennae":"X","wings":"X","pattern":"S","legs":"M"},"bonus":0.7800000000000008},{"rt":2638.1999999955297,"stimulus":"bees-with-color/bee-A2SF.svg","response":1,"trial_type":"image-button-response","trial_index":23,"time_elapsed":161575,"internal_node_id":"0.0-4.0-0.8","subject_id":"612a3c3ad8b3173cfeb7d69a","study_id":"6197b3f67c2b5cd3b6d9596a","session_id":"6197b55a698a415f67ddc4c6","condition":"contingent","relevant_dimensions":["pattern","legs"],"bee_group":{"antennae":"X","wings":"X","pattern":"S","legs":"M"},"action":"avoid","summary":"bad-avoid","bonus":0.7800000000000008},{"rt":1365.2999999970198,"stimulus":"\n                    <p><b>Action: <em>avoid</em></b></p>\n                    <p>This is the bee that you just saw.</p>\n                    <img src=\"bees-with-color/bee-A2SF.svg\" width=\"200\">\n                    <p><br>Your bonus pay is unchanged, and remains at $0.52.</p>\n            ","response":0,"trial_type":"html-button-response","trial_index":24,"time_elapsed":162942,"internal_node_id":"0.0-4.0-1.8","subject_id":"612a3c3ad8b3173cfeb7d69a","study_id":"6197b3f67c2b5cd3b6d9596a","session_id":"6197b55a698a415f67ddc4c6","condition":"contingent","relevant_dimensions":["pattern","legs"],"bee_group":{"antennae":"X","wings":"X","pattern":"S","legs":"M"},"bonus":0.7800000000000008},{"rt":1627.8000000044703,"stimulus":"bees-with-color/bee-B1DF.svg","response":1,"trial_type":"image-button-response","trial_index":25,"time_elapsed":164572,"internal_node_id":"0.0-4.0-0.9","subject_id":"612a3c3ad8b3173cfeb7d69a","study_id":"6197b3f67c2b5cd3b6d9596a","session_id":"6197b55a698a415f67ddc4c6","condition":"contingent","relevant_dimensions":["pattern","legs"],"bee_group":{"antennae":"X","wings":"X","pattern":"S","legs":"M"},"action":"avoid","summary":"bad-avoid","bonus":0.7800000000000008},{"rt":797.7000000029802,"stimulus":"\n                    <p><b>Action: <em>avoid</em></b></p>\n                    <p>This is the bee that you just saw.</p>\n                    <img src=\"bees-with-color/bee-B1DF.svg\" width=\"200\">\n                    <p><br>Your bonus pay is unchanged, and remains at $0.52.</p>\n            ","response":0,"trial_type":"html-button-response","trial_index":26,"time_elapsed":165371,"internal_node_id":"0.0-4.0-1.9","subject_id":"612a3c3ad8b3173cfeb7d69a","study_id":"6197b3f67c2b5cd3b6d9596a","session_id":"6197b55a698a415f67ddc4c6","condition":"contingent","relevant_dimensions":["pattern","legs"],"bee_group":{"antennae":"X","wings":"X","pattern":"S","legs":"M"},"bonus":0.7800000000000008},{"rt":1359.6000000014901,"stimulus":"bees-with-color/bee-B1DM.svg","response":1,"trial_type":"image-button-response","trial_index":27,"time_elapsed":166732,"internal_node_id":"0.0-4.0-0.10","subject_id":"612a3c3ad8b3173cfeb7d69a","study_id":"6197b3f67c2b5cd3b6d9596a","session_id":"6197b55a698a415f67ddc4c6","condition":"contingent","relevant_dimensions":["pattern","legs"],"bee_group":{"antennae":"X","wings":"X","pattern":"S","legs":"M"},"action":"avoid","summary":"bad-avoid","bonus":0.7800000000000008},{"rt":875.7000000029802,"stimulus":"\n                    <p><b>Action: <em>avoid</em></b></p>\n                    <p>This is the bee that you just saw.</p>\n                    <img src=\"bees-with-color/bee-B1DM.svg\" width=\"200\">\n                    <p><br>Your bonus pay is unchanged, and remains at $0.52.</p>\n            ","response":0,"trial_type":"html-button-response","trial_index":28,"time_elapsed":167609,"internal_node_id":"0.0-4.0-1.10","subject_id":"612a3c3ad8b3173cfeb7d69a","study_id":"6197b3f67c2b5cd3b6d9596a","session_id":"6197b55a698a415f67ddc4c6","condition":"contingent","relevant_dimensions":["pattern","legs"],"bee_group":{"antennae":"X","wings":"X","pattern":"S","legs":"M"},"bonus":0.7800000000000008},{"rt":1931.6000000014901,"stimulus":"bees-with-color/bee-B2SM.svg","response":0,"trial_type":"image-button-response","trial_index":29,"time_elapsed":169542,"internal_node_id":"0.0-4.0-0.11","subject_id":"612a3c3ad8b3173cfeb7d69a","study_id":"6197b3f67c2b5cd3b6d9596a","session_id":"6197b55a698a415f67ddc4c6","condition":"contingent","relevant_dimensions":["pattern","legs"],"bee_group":{"antennae":"X","wings":"X","pattern":"S","legs":"M"},"action":"harvest","summary":"bad-harvest","bonus":0.7800000000000008},{"rt":1241.7999999970198,"stimulus":"\n                    <p><b>Action: <em>harvest</em></b></p>\n                    <p>This is the bee that you just saw.</p>\n                    <img src=\"bees-with-color/bee-B2SM.svg\" width=\"200\">\n                    <p><span class=\"redText\">Bad choice, the bee was angry.</span><br><b>You have been stung!</b><br>Your pay has been decreased by $0.10. Your bonus pay is now $0.42.</p>\n            ","response":0,"trial_type":"html-button-response","trial_index":30,"time_elapsed":170785,"internal_node_id":"0.0-4.0-1.11","subject_id":"612a3c3ad8b3173cfeb7d69a","study_id":"6197b3f67c2b5cd3b6d9596a","session_id":"6197b55a698a415f67ddc4c6","condition":"contingent","relevant_dimensions":["pattern","legs"],"bee_group":{"antennae":"X","wings":"X","pattern":"S","legs":"M"},"bonus":0.7800000000000008},{"rt":2051.5,"stimulus":"bees-with-color/bee-A1SF.svg","response":1,"trial_type":"image-button-response","trial_index":31,"time_elapsed":172837,"internal_node_id":"0.0-4.0-0.12","subject_id":"612a3c3ad8b3173cfeb7d69a","study_id":"6197b3f67c2b5cd3b6d9596a","session_id":"6197b55a698a415f67ddc4c6","condition":"contingent","relevant_dimensions":["pattern","legs"],"bee_group":{"antennae":"X","wings":"X","pattern":"S","legs":"M"},"action":"avoid","summary":"bad-avoid","bonus":0.7800000000000008},{"rt":1270.1999999955297,"stimulus":"\n                    <p><b>Action: <em>avoid</em></b></p>\n                    <p>This is the bee that you just saw.</p>\n                    <img src=\"bees-with-color/bee-A1SF.svg\" width=\"200\">\n                    <p><br>Your bonus pay is unchanged, and remains at $0.42.</p>\n            ","response":0,"trial_type":"html-button-response","trial_index":32,"time_elapsed":174109,"internal_node_id":"0.0-4.0-1.12","subject_id":"612a3c3ad8b3173cfeb7d69a","study_id":"6197b3f67c2b5cd3b6d9596a","session_id":"6197b55a698a415f67ddc4c6","condition":"contingent","relevant_dimensions":["pattern","legs"],"bee_group":{"antennae":"X","wings":"X","pattern":"S","legs":"M"},"bonus":0.7800000000000008},{"rt":1261.7999999970198,"stimulus":"bees-with-color/bee-B2DM.svg","response":0,"trial_type":"image-button-response","trial_index":33,"time_elapsed":175372,"internal_node_id":"0.0-4.0-0.13","subject_id":"612a3c3ad8b3173cfeb7d69a","study_id":"6197b3f67c2b5cd3b6d9596a","session_id":"6197b55a698a415f67ddc4c6","condition":"contingent","relevant_dimensions":["pattern","legs"],"bee_group":{"antennae":"X","wings":"X","pattern":"S","legs":"M"},"action":"harvest","summary":"good-harvest","bonus":0.7800000000000008},{"rt":1038.8000000044703,"stimulus":"\n                    <p><b>Action: <em>harvest</em></b></p>\n                    <p>This is the bee that you just saw.</p>\n                    <img src=\"bees-with-color/bee-B2DM.svg\" width=\"200\">\n                    <p><span class=\"greenText\"><b>Successful harvest!</b></span><br>Your pay has increased by $0.02. Your bonus pay is now $0.44.</p>\n            ","response":0,"trial_type":"html-button-response","trial_index":34,"time_elapsed":176412,"internal_node_id":"0.0-4.0-1.13","subject_id":"612a3c3ad8b3173cfeb7d69a","study_id":"6197b3f67c2b5cd3b6d9596a","session_id":"6197b55a698a415f67ddc4c6","condition":"contingent","relevant_dimensions":["pattern","legs"],"bee_group":{"antennae":"X","wings":"X","pattern":"S","legs":"M"},"bonus":0.7800000000000008},{"rt":863.5,"stimulus":"bees-with-color/bee-B1SM.svg","response":0,"trial_type":"image-button-response","trial_index":35,"time_elapsed":177277,"internal_node_id":"0.0-4.0-0.14","subject_id":"612a3c3ad8b3173cfeb7d69a","study_id":"6197b3f67c2b5cd3b6d9596a","session_id":"6197b55a698a415f67ddc4c6","condition":"contingent","relevant_dimensions":["pattern","legs"],"bee_group":{"antennae":"X","wings":"X","pattern":"S","legs":"M"},"action":"harvest","summary":"bad-harvest","bonus":0.7800000000000008},{"rt":1120.0999999940395,"stimulus":"\n                    <p><b>Action: <em>harvest</em></b></p>\n                    <p>This is the bee that you just saw.</p>\n                    <img src=\"bees-with-color/bee-B1SM.svg\" width=\"200\">\n                    <p><span class=\"redText\">Bad choice, the bee was angry.</span><br><b>You have been stung!</b><br>Your pay has been decreased by $0.10. Your bonus pay is now $0.34.</p>\n            ","response":0,"trial_type":"html-button-response","trial_index":36,"time_elapsed":178398,"internal_node_id":"0.0-4.0-1.14","subject_id":"612a3c3ad8b3173cfeb7d69a","study_id":"6197b3f67c2b5cd3b6d9596a","session_id":"6197b55a698a415f67ddc4c6","condition":"contingent","relevant_dimensions":["pattern","legs"],"bee_group":{"antennae":"X","wings":"X","pattern":"S","legs":"M"},"bonus":0.7800000000000008},{"rt":1260.6999999955297,"stimulus":"bees-with-color/bee-B2SF.svg","response":1,"trial_type":"image-button-response","trial_index":37,"time_elapsed":179661,"internal_node_id":"0.0-4.0-0.15","subject_id":"612a3c3ad8b3173cfeb7d69a","study_id":"6197b3f67c2b5cd3b6d9596a","session_id":"6197b55a698a415f67ddc4c6","condition":"contingent","relevant_dimensions":["pattern","legs"],"bee_group":{"antennae":"X","wings":"X","pattern":"S","legs":"M"},"action":"avoid","summary":"bad-avoid","bonus":0.7800000000000008},{"rt":1211.8999999985099,"stimulus":"\n                    <p><b>Action: <em>avoid</em></b></p>\n                    <p>This is the bee that you just saw.</p>\n                    <img src=\"bees-with-color/bee-B2SF.svg\" width=\"200\">\n                    <p><br>Your bonus pay is unchanged, and remains at $0.34.</p>\n            ","response":0,"trial_type":"html-button-response","trial_index":38,"time_elapsed":180874,"internal_node_id":"0.0-4.0-1.15","subject_id":"612a3c3ad8b3173cfeb7d69a","study_id":"6197b3f67c2b5cd3b6d9596a","session_id":"6197b55a698a415f67ddc4c6","condition":"contingent","relevant_dimensions":["pattern","legs"],"bee_group":{"antennae":"X","wings":"X","pattern":"S","legs":"M"},"bonus":0.7800000000000008},{"rt":1220.2999999970198,"stimulus":"bees-with-color/bee-B2SM.svg","response":1,"trial_type":"image-button-response","trial_index":39,"time_elapsed":182096,"internal_node_id":"0.0-4.0-0.16","subject_id":"612a3c3ad8b3173cfeb7d69a","study_id":"6197b3f67c2b5cd3b6d9596a","session_id":"6197b55a698a415f67ddc4c6","condition":"contingent","relevant_dimensions":["pattern","legs"],"bee_group":{"antennae":"X","wings":"X","pattern":"S","legs":"M"},"action":"avoid","summary":"good-avoid","bonus":0.7800000000000008},{"rt":815.9000000059605,"stimulus":"\n                    <p><b>Action: <em>avoid</em></b></p>\n                    <p>This is the bee that you just saw.</p>\n                    <img src=\"bees-with-color/bee-B2SM.svg\" width=\"200\">\n                    <p><br>Your bonus pay is unchanged, and remains at $0.34.</p>\n            ","response":0,"trial_type":"html-button-response","trial_index":40,"time_elapsed":182913,"internal_node_id":"0.0-4.0-1.16","subject_id":"612a3c3ad8b3173cfeb7d69a","study_id":"6197b3f67c2b5cd3b6d9596a","session_id":"6197b55a698a415f67ddc4c6","condition":"contingent","relevant_dimensions":["pattern","legs"],"bee_group":{"antennae":"X","wings":"X","pattern":"S","legs":"M"},"bonus":0.7800000000000008},{"rt":2036.5,"stimulus":"bees-with-color/bee-B1DM.svg","response":0,"trial_type":"image-button-response","trial_index":41,"time_elapsed":184951,"internal_node_id":"0.0-4.0-0.17","subject_id":"612a3c3ad8b3173cfeb7d69a","study_id":"6197b3f67c2b5cd3b6d9596a","session_id":"6197b55a698a415f67ddc4c6","condition":"contingent","relevant_dimensions":["pattern","legs"],"bee_group":{"antennae":"X","wings":"X","pattern":"S","legs":"M"},"action":"harvest","summary":"good-harvest","bonus":0.7800000000000008},{"rt":1111.8999999985099,"stimulus":"\n                    <p><b>Action: <em>harvest</em></b></p>\n                    <p>This is the bee that you just saw.</p>\n                    <img src=\"bees-with-color/bee-B1DM.svg\" width=\"200\">\n                    <p><span class=\"greenText\"><b>Successful harvest!</b></span><br>Your pay has increased by $0.02. Your bonus pay is now $0.36.</p>\n            ","response":0,"trial_type":"html-button-response","trial_index":42,"time_elapsed":186064,"internal_node_id":"0.0-4.0-1.17","subject_id":"612a3c3ad8b3173cfeb7d69a","study_id":"6197b3f67c2b5cd3b6d9596a","session_id":"6197b55a698a415f67ddc4c6","condition":"contingent","relevant_dimensions":["pattern","legs"],"bee_group":{"antennae":"X","wings":"X","pattern":"S","legs":"M"},"bonus":0.7800000000000008},{"rt":2049.8000000044703,"stimulus":"bees-with-color/bee-A2DM.svg","response":0,"trial_type":"image-button-response","trial_index":43,"time_elapsed":188116,"internal_node_id":"0.0-4.0-0.18","subject_id":"612a3c3ad8b3173cfeb7d69a","study_id":"6197b3f67c2b5cd3b6d9596a","session_id":"6197b55a698a415f67ddc4c6","condition":"contingent","relevant_dimensions":["pattern","legs"],"bee_group":{"antennae":"X","wings":"X","pattern":"S","legs":"M"},"action":"harvest","summary":"good-harvest","bonus":0.7800000000000008},{"rt":984.7999999970198,"stimulus":"\n                    <p><b>Action: <em>harvest</em></b></p>\n                    <p>This is the bee that you just saw.</p>\n                    <img src=\"bees-with-color/bee-A2DM.svg\" width=\"200\">\n                    <p><span class=\"greenText\"><b>Successful harvest!</b></span><br>Your pay has increased by $0.02. Your bonus pay is now $0.38.</p>\n            ","response":0,"trial_type":"html-button-response","trial_index":44,"time_elapsed":189103,"internal_node_id":"0.0-4.0-1.18","subject_id":"612a3c3ad8b3173cfeb7d69a","study_id":"6197b3f67c2b5cd3b6d9596a","session_id":"6197b55a698a415f67ddc4c6","condition":"contingent","relevant_dimensions":["pattern","legs"],"bee_group":{"antennae":"X","wings":"X","pattern":"S","legs":"M"},"bonus":0.7800000000000008},{"rt":1308.7000000029802,"stimulus":"bees-with-color/bee-A2DF.svg","response":1,"trial_type":"image-button-response","trial_index":45,"time_elapsed":190413,"internal_node_id":"0.0-4.0-0.19","subject_id":"612a3c3ad8b3173cfeb7d69a","study_id":"6197b3f67c2b5cd3b6d9596a","session_id":"6197b55a698a415f67ddc4c6","condition":"contingent","relevant_dimensions":["pattern","legs"],"bee_group":{"antennae":"X","wings":"X","pattern":"S","legs":"M"},"action":"avoid","summary":"bad-avoid","bonus":0.7800000000000008},{"rt":645.2000000029802,"stimulus":"\n                    <p><b>Action: <em>avoid</em></b></p>\n                    <p>This is the bee that you just saw.</p>\n                    <img src=\"bees-with-color/bee-A2DF.svg\" width=\"200\">\n                    <p><br>Your bonus pay is unchanged, and remains at $0.38.</p>\n            ","response":0,"trial_type":"html-button-response","trial_index":46,"time_elapsed":191060,"internal_node_id":"0.0-4.0-1.19","subject_id":"612a3c3ad8b3173cfeb7d69a","study_id":"6197b3f67c2b5cd3b6d9596a","session_id":"6197b55a698a415f67ddc4c6","condition":"contingent","relevant_dimensions":["pattern","legs"],"bee_group":{"antennae":"X","wings":"X","pattern":"S","legs":"M"},"bonus":0.7800000000000008},{"rt":1369.2000000029802,"stimulus":"bees-with-color/bee-A1DM.svg","response":0,"trial_type":"image-button-response","trial_index":47,"time_elapsed":192430,"internal_node_id":"0.0-4.0-0.20","subject_id":"612a3c3ad8b3173cfeb7d69a","study_id":"6197b3f67c2b5cd3b6d9596a","session_id":"6197b55a698a415f67ddc4c6","condition":"contingent","relevant_dimensions":["pattern","legs"],"bee_group":{"antennae":"X","wings":"X","pattern":"S","legs":"M"},"action":"harvest","summary":"good-harvest","bonus":0.7800000000000008},{"rt":1610.6999999955297,"stimulus":"\n                    <p><b>Action: <em>harvest</em></b></p>\n                    <p>This is the bee that you just saw.</p>\n                    <img src=\"bees-with-color/bee-A1DM.svg\" width=\"200\">\n                    <p><span class=\"greenText\"><b>Successful harvest!</b></span><br>Your pay has increased by $0.02. Your bonus pay is now $0.40.</p>\n            ","response":0,"trial_type":"html-button-response","trial_index":48,"time_elapsed":194043,"internal_node_id":"0.0-4.0-1.20","subject_id":"612a3c3ad8b3173cfeb7d69a","study_id":"6197b3f67c2b5cd3b6d9596a","session_id":"6197b55a698a415f67ddc4c6","condition":"contingent","relevant_dimensions":["pattern","legs"],"bee_group":{"antennae":"X","wings":"X","pattern":"S","legs":"M"},"bonus":0.7800000000000008},{"rt":1549.5999999940395,"stimulus":"bees-with-color/bee-B1DF.svg","response":1,"trial_type":"image-button-response","trial_index":49,"time_elapsed":195594,"internal_node_id":"0.0-4.0-0.21","subject_id":"612a3c3ad8b3173cfeb7d69a","study_id":"6197b3f67c2b5cd3b6d9596a","session_id":"6197b55a698a415f67ddc4c6","condition":"contingent","relevant_dimensions":["pattern","legs"],"bee_group":{"antennae":"X","wings":"X","pattern":"S","legs":"M"},"action":"avoid","summary":"bad-avoid","bonus":0.7800000000000008},{"rt":693.8000000044703,"stimulus":"\n                    <p><b>Action: <em>avoid</em></b></p>\n                    <p>This is the bee that you just saw.</p>\n                    <img src=\"bees-with-color/bee-B1DF.svg\" width=\"200\">\n                    <p><br>Your bonus pay is unchanged, and remains at $0.40.</p>\n            ","response":0,"trial_type":"html-button-response","trial_index":50,"time_elapsed":196290,"internal_node_id":"0.0-4.0-1.21","subject_id":"612a3c3ad8b3173cfeb7d69a","study_id":"6197b3f67c2b5cd3b6d9596a","session_id":"6197b55a698a415f67ddc4c6","condition":"contingent","relevant_dimensions":["pattern","legs"],"bee_group":{"antennae":"X","wings":"X","pattern":"S","legs":"M"},"bonus":0.7800000000000008},{"rt":1514.3999999985099,"stimulus":"bees-with-color/bee-A1SF.svg","response":0,"trial_type":"image-button-response","trial_index":51,"time_elapsed":197806,"internal_node_id":"0.0-4.0-0.22","subject_id":"612a3c3ad8b3173cfeb7d69a","study_id":"6197b3f67c2b5cd3b6d9596a","session_id":"6197b55a698a415f67ddc4c6","condition":"contingent","relevant_dimensions":["pattern","legs"],"bee_group":{"antennae":"X","wings":"X","pattern":"S","legs":"M"},"action":"harvest","summary":"good-harvest","bonus":0.7800000000000008},{"rt":922.1000000014901,"stimulus":"\n                    <p><b>Action: <em>harvest</em></b></p>\n                    <p>This is the bee that you just saw.</p>\n                    <img src=\"bees-with-color/bee-A1SF.svg\" width=\"200\">\n                    <p><span class=\"greenText\"><b>Successful harvest!</b></span><br>Your pay has increased by $0.02. Your bonus pay is now $0.42.</p>\n            ","response":0,"trial_type":"html-button-response","trial_index":52,"time_elapsed":198729,"internal_node_id":"0.0-4.0-1.22","subject_id":"612a3c3ad8b3173cfeb7d69a","study_id":"6197b3f67c2b5cd3b6d9596a","session_id":"6197b55a698a415f67ddc4c6","condition":"contingent","relevant_dimensions":["pattern","legs"],"bee_group":{"antennae":"X","wings":"X","pattern":"S","legs":"M"},"bonus":0.7800000000000008},{"rt":2610.6999999955297,"stimulus":"bees-with-color/bee-B1SM.svg","response":1,"trial_type":"image-button-response","trial_index":53,"time_elapsed":201341,"internal_node_id":"0.0-4.0-0.23","subject_id":"612a3c3ad8b3173cfeb7d69a","study_id":"6197b3f67c2b5cd3b6d9596a","session_id":"6197b55a698a415f67ddc4c6","condition":"contingent","relevant_dimensions":["pattern","legs"],"bee_group":{"antennae":"X","wings":"X","pattern":"S","legs":"M"},"action":"avoid","summary":"good-avoid","bonus":0.7800000000000008},{"rt":1180.2999999970198,"stimulus":"\n                    <p><b>Action: <em>avoid</em></b></p>\n                    <p>This is the bee that you just saw.</p>\n                    <img src=\"bees-with-color/bee-B1SM.svg\" width=\"200\">\n                    <p><br>Your bonus pay is unchanged, and remains at $0.42.</p>\n            ","response":0,"trial_type":"html-button-response","trial_index":54,"time_elapsed":202523,"internal_node_id":"0.0-4.0-1.23","subject_id":"612a3c3ad8b3173cfeb7d69a","study_id":"6197b3f67c2b5cd3b6d9596a","session_id":"6197b55a698a415f67ddc4c6","condition":"contingent","relevant_dimensions":["pattern","legs"],"bee_group":{"antennae":"X","wings":"X","pattern":"S","legs":"M"},"bonus":0.7800000000000008},{"rt":2243.5,"stimulus":"bees-with-color/bee-A2SM.svg","response":1,"trial_type":"image-button-response","trial_index":55,"time_elapsed":204767,"internal_node_id":"0.0-4.0-0.24","subject_id":"612a3c3ad8b3173cfeb7d69a","study_id":"6197b3f67c2b5cd3b6d9596a","session_id":"6197b55a698a415f67ddc4c6","condition":"contingent","relevant_dimensions":["pattern","legs"],"bee_group":{"antennae":"X","wings":"X","pattern":"S","legs":"M"},"action":"avoid","summary":"good-avoid","bonus":0.7800000000000008},{"rt":829.5,"stimulus":"\n                    <p><b>Action: <em>avoid</em></b></p>\n                    <p>This is the bee that you just saw.</p>\n                    <img src=\"bees-with-color/bee-A2SM.svg\" width=\"200\">\n                    <p><br>Your bonus pay is unchanged, and remains at $0.42.</p>\n            ","response":0,"trial_type":"html-button-response","trial_index":56,"time_elapsed":205598,"internal_node_id":"0.0-4.0-1.24","subject_id":"612a3c3ad8b3173cfeb7d69a","study_id":"6197b3f67c2b5cd3b6d9596a","session_id":"6197b55a698a415f67ddc4c6","condition":"contingent","relevant_dimensions":["pattern","legs"],"bee_group":{"antennae":"X","wings":"X","pattern":"S","legs":"M"},"bonus":0.7800000000000008},{"rt":1816.7000000029802,"stimulus":"bees-with-color/bee-A1SM.svg","response":0,"trial_type":"image-button-response","trial_index":57,"time_elapsed":207416,"internal_node_id":"0.0-4.0-0.25","subject_id":"612a3c3ad8b3173cfeb7d69a","study_id":"6197b3f67c2b5cd3b6d9596a","session_id":"6197b55a698a415f67ddc4c6","condition":"contingent","relevant_dimensions":["pattern","legs"],"bee_group":{"antennae":"X","wings":"X","pattern":"S","legs":"M"},"action":"harvest","summary":"bad-harvest","bonus":0.7800000000000008},{"rt":948.8999999985099,"stimulus":"\n                    <p><b>Action: <em>harvest</em></b></p>\n                    <p>This is the bee that you just saw.</p>\n                    <img src=\"bees-with-color/bee-A1SM.svg\" width=\"200\">\n                    <p><span class=\"redText\">Bad choice, the bee was angry.</span><br><b>You have been stung!</b><br>Your pay has been decreased by $0.10. Your bonus pay is now $0.32.</p>\n            ","response":0,"trial_type":"html-button-response","trial_index":58,"time_elapsed":208367,"internal_node_id":"0.0-4.0-1.25","subject_id":"612a3c3ad8b3173cfeb7d69a","study_id":"6197b3f67c2b5cd3b6d9596a","session_id":"6197b55a698a415f67ddc4c6","condition":"contingent","relevant_dimensions":["pattern","legs"],"bee_group":{"antennae":"X","wings":"X","pattern":"S","legs":"M"},"bonus":0.7800000000000008},{"rt":3512.2999999970198,"stimulus":"bees-with-color/bee-B2DM.svg","response":0,"trial_type":"image-button-response","trial_index":59,"time_elapsed":211880,"internal_node_id":"0.0-4.0-0.26","subject_id":"612a3c3ad8b3173cfeb7d69a","study_id":"6197b3f67c2b5cd3b6d9596a","session_id":"6197b55a698a415f67ddc4c6","condition":"contingent","relevant_dimensions":["pattern","legs"],"bee_group":{"antennae":"X","wings":"X","pattern":"S","legs":"M"},"action":"harvest","summary":"good-harvest","bonus":0.7800000000000008},{"rt":1013.1000000014901,"stimulus":"\n                    <p><b>Action: <em>harvest</em></b></p>\n                    <p>This is the bee that you just saw.</p>\n                    <img src=\"bees-with-color/bee-B2DM.svg\" width=\"200\">\n                    <p><span class=\"greenText\"><b>Successful harvest!</b></span><br>Your pay has increased by $0.02. Your bonus pay is now $0.34.</p>\n            ","response":0,"trial_type":"html-button-response","trial_index":60,"time_elapsed":212894,"internal_node_id":"0.0-4.0-1.26","subject_id":"612a3c3ad8b3173cfeb7d69a","study_id":"6197b3f67c2b5cd3b6d9596a","session_id":"6197b55a698a415f67ddc4c6","condition":"contingent","relevant_dimensions":["pattern","legs"],"bee_group":{"antennae":"X","wings":"X","pattern":"S","legs":"M"},"bonus":0.7800000000000008},{"rt":2417.39999999851,"stimulus":"bees-with-color/bee-B2DF.svg","response":0,"trial_type":"image-button-response","trial_index":61,"time_elapsed":215313,"internal_node_id":"0.0-4.0-0.27","subject_id":"612a3c3ad8b3173cfeb7d69a","study_id":"6197b3f67c2b5cd3b6d9596a","session_id":"6197b55a698a415f67ddc4c6","condition":"contingent","relevant_dimensions":["pattern","legs"],"bee_group":{"antennae":"X","wings":"X","pattern":"S","legs":"M"},"action":"harvest","summary":"good-harvest","bonus":0.7800000000000008},{"rt":955.6000000014901,"stimulus":"\n                    <p><b>Action: <em>harvest</em></b></p>\n                    <p>This is the bee that you just saw.</p>\n                    <img src=\"bees-with-color/bee-B2DF.svg\" width=\"200\">\n                    <p><span class=\"greenText\"><b>Successful harvest!</b></span><br>Your pay has increased by $0.02. Your bonus pay is now $0.36.</p>\n            ","response":0,"trial_type":"html-button-response","trial_index":62,"time_elapsed":216270,"internal_node_id":"0.0-4.0-1.27","subject_id":"612a3c3ad8b3173cfeb7d69a","study_id":"6197b3f67c2b5cd3b6d9596a","session_id":"6197b55a698a415f67ddc4c6","condition":"contingent","relevant_dimensions":["pattern","legs"],"bee_group":{"antennae":"X","wings":"X","pattern":"S","legs":"M"},"bonus":0.7800000000000008},{"rt":1250.5,"stimulus":"bees-with-color/bee-B1SF.svg","response":1,"trial_type":"image-button-response","trial_index":63,"time_elapsed":217522,"internal_node_id":"0.0-4.0-0.28","subject_id":"612a3c3ad8b3173cfeb7d69a","study_id":"6197b3f67c2b5cd3b6d9596a","session_id":"6197b55a698a415f67ddc4c6","condition":"contingent","relevant_dimensions":["pattern","legs"],"bee_group":{"antennae":"X","wings":"X","pattern":"S","legs":"M"},"action":"avoid","summary":"bad-avoid","bonus":0.7800000000000008},{"rt":790.7999999970198,"stimulus":"\n                    <p><b>Action: <em>avoid</em></b></p>\n                    <p>This is the bee that you just saw.</p>\n                    <img src=\"bees-with-color/bee-B1SF.svg\" width=\"200\">\n                    <p><br>Your bonus pay is unchanged, and remains at $0.36.</p>\n            ","response":0,"trial_type":"html-button-response","trial_index":64,"time_elapsed":218314,"internal_node_id":"0.0-4.0-1.28","subject_id":"612a3c3ad8b3173cfeb7d69a","study_id":"6197b3f67c2b5cd3b6d9596a","session_id":"6197b55a698a415f67ddc4c6","condition":"contingent","relevant_dimensions":["pattern","legs"],"bee_group":{"antennae":"X","wings":"X","pattern":"S","legs":"M"},"bonus":0.7800000000000008},{"rt":1556.5,"stimulus":"bees-with-color/bee-A2SF.svg","response":1,"trial_type":"image-button-response","trial_index":65,"time_elapsed":219872,"internal_node_id":"0.0-4.0-0.29","subject_id":"612a3c3ad8b3173cfeb7d69a","study_id":"6197b3f67c2b5cd3b6d9596a","session_id":"6197b55a698a415f67ddc4c6","condition":"contingent","relevant_dimensions":["pattern","legs"],"bee_group":{"antennae":"X","wings":"X","pattern":"S","legs":"M"},"action":"avoid","summary":"bad-avoid","bonus":0.7800000000000008},{"rt":1017.6000000014901,"stimulus":"\n                    <p><b>Action: <em>avoid</em></b></p>\n                    <p>This is the bee that you just saw.</p>\n                    <img src=\"bees-with-color/bee-A2SF.svg\" width=\"200\">\n                    <p><br>Your bonus pay is unchanged, and remains at $0.36.</p>\n            ","response":0,"trial_type":"html-button-response","trial_index":66,"time_elapsed":220891,"internal_node_id":"0.0-4.0-1.29","subject_id":"612a3c3ad8b3173cfeb7d69a","study_id":"6197b3f67c2b5cd3b6d9596a","session_id":"6197b55a698a415f67ddc4c6","condition":"contingent","relevant_dimensions":["pattern","legs"],"bee_group":{"antennae":"X","wings":"X","pattern":"S","legs":"M"},"bonus":0.7800000000000008},{"rt":1655.4000000059605,"stimulus":"bees-with-color/bee-B2SF.svg","response":0,"trial_type":"image-button-response","trial_index":67,"time_elapsed":222548,"internal_node_id":"0.0-4.0-0.30","subject_id":"612a3c3ad8b3173cfeb7d69a","study_id":"6197b3f67c2b5cd3b6d9596a","session_id":"6197b55a698a415f67ddc4c6","condition":"contingent","relevant_dimensions":["pattern","legs"],"bee_group":{"antennae":"X","wings":"X","pattern":"S","legs":"M"},"action":"harvest","summary":"good-harvest","bonus":0.7800000000000008},{"rt":1039.3999999985099,"stimulus":"\n                    <p><b>Action: <em>harvest</em></b></p>\n                    <p>This is the bee that you just saw.</p>\n                    <img src=\"bees-with-color/bee-B2SF.svg\" width=\"200\">\n                    <p><span class=\"greenText\"><b>Successful harvest!</b></span><br>Your pay has increased by $0.02. Your bonus pay is now $0.38.</p>\n            ","response":0,"trial_type":"html-button-response","trial_index":68,"time_elapsed":223588,"internal_node_id":"0.0-4.0-1.30","subject_id":"612a3c3ad8b3173cfeb7d69a","study_id":"6197b3f67c2b5cd3b6d9596a","session_id":"6197b55a698a415f67ddc4c6","condition":"contingent","relevant_dimensions":["pattern","legs"],"bee_group":{"antennae":"X","wings":"X","pattern":"S","legs":"M"},"bonus":0.7800000000000008},{"rt":1145.1000000014901,"stimulus":"bees-with-color/bee-A1DF.svg","response":1,"trial_type":"image-button-response","trial_index":69,"time_elapsed":224735,"internal_node_id":"0.0-4.0-0.31","subject_id":"612a3c3ad8b3173cfeb7d69a","study_id":"6197b3f67c2b5cd3b6d9596a","session_id":"6197b55a698a415f67ddc4c6","condition":"contingent","relevant_dimensions":["pattern","legs"],"bee_group":{"antennae":"X","wings":"X","pattern":"S","legs":"M"},"action":"avoid","summary":"bad-avoid","bonus":0.7800000000000008},{"rt":665.8000000044703,"stimulus":"\n                    <p><b>Action: <em>avoid</em></b></p>\n                    <p>This is the bee that you just saw.</p>\n                    <img src=\"bees-with-color/bee-A1DF.svg\" width=\"200\">\n                    <p><br>Your bonus pay is unchanged, and remains at $0.38.</p>\n            ","response":0,"trial_type":"html-button-response","trial_index":70,"time_elapsed":225402,"internal_node_id":"0.0-4.0-1.31","subject_id":"612a3c3ad8b3173cfeb7d69a","study_id":"6197b3f67c2b5cd3b6d9596a","session_id":"6197b55a698a415f67ddc4c6","condition":"contingent","relevant_dimensions":["pattern","legs"],"bee_group":{"antennae":"X","wings":"X","pattern":"S","legs":"M"},"bonus":0.7800000000000008},{"rt":2049.60000000149,"stimulus":"bees-with-color/bee-B1DM.svg","response":0,"trial_type":"image-button-response","trial_index":71,"time_elapsed":227453,"internal_node_id":"0.0-4.0-0.32","subject_id":"612a3c3ad8b3173cfeb7d69a","study_id":"6197b3f67c2b5cd3b6d9596a","session_id":"6197b55a698a415f67ddc4c6","condition":"contingent","relevant_dimensions":["pattern","legs"],"bee_group":{"antennae":"X","wings":"X","pattern":"S","legs":"M"},"action":"harvest","summary":"good-harvest","bonus":0.7800000000000008},{"rt":874,"stimulus":"\n                    <p><b>Action: <em>harvest</em></b></p>\n                    <p>This is the bee that you just saw.</p>\n                    <img src=\"bees-with-color/bee-B1DM.svg\" width=\"200\">\n                    <p><span class=\"greenText\"><b>Successful harvest!</b></span><br>Your pay has increased by $0.02. Your bonus pay is now $0.40.</p>\n            ","response":0,"trial_type":"html-button-response","trial_index":72,"time_elapsed":228328,"internal_node_id":"0.0-4.0-1.32","subject_id":"612a3c3ad8b3173cfeb7d69a","study_id":"6197b3f67c2b5cd3b6d9596a","session_id":"6197b55a698a415f67ddc4c6","condition":"contingent","relevant_dimensions":["pattern","legs"],"bee_group":{"antennae":"X","wings":"X","pattern":"S","legs":"M"},"bonus":0.7800000000000008},{"rt":1113.6000000014901,"stimulus":"bees-with-color/bee-B2DF.svg","response":1,"trial_type":"image-button-response","trial_index":73,"time_elapsed":229443,"internal_node_id":"0.0-4.0-0.33","subject_id":"612a3c3ad8b3173cfeb7d69a","study_id":"6197b3f67c2b5cd3b6d9596a","session_id":"6197b55a698a415f67ddc4c6","condition":"contingent","relevant_dimensions":["pattern","legs"],"bee_group":{"antennae":"X","wings":"X","pattern":"S","legs":"M"},"action":"avoid","summary":"bad-avoid","bonus":0.7800000000000008},{"rt":809,"stimulus":"\n                    <p><b>Action: <em>avoid</em></b></p>\n                    <p>This is the bee that you just saw.</p>\n                    <img src=\"bees-with-color/bee-B2DF.svg\" width=\"200\">\n                    <p><br>Your bonus pay is unchanged, and remains at $0.40.</p>\n            ","response":0,"trial_type":"html-button-response","trial_index":74,"time_elapsed":230253,"internal_node_id":"0.0-4.0-1.33","subject_id":"612a3c3ad8b3173cfeb7d69a","study_id":"6197b3f67c2b5cd3b6d9596a","session_id":"6197b55a698a415f67ddc4c6","condition":"contingent","relevant_dimensions":["pattern","legs"],"bee_group":{"antennae":"X","wings":"X","pattern":"S","legs":"M"},"bonus":0.7800000000000008},{"rt":1351.9000000059605,"stimulus":"bees-with-color/bee-B1SF.svg","response":1,"trial_type":"image-button-response","trial_index":75,"time_elapsed":231607,"internal_node_id":"0.0-4.0-0.34","subject_id":"612a3c3ad8b3173cfeb7d69a","study_id":"6197b3f67c2b5cd3b6d9596a","session_id":"6197b55a698a415f67ddc4c6","condition":"contingent","relevant_dimensions":["pattern","legs"],"bee_group":{"antennae":"X","wings":"X","pattern":"S","legs":"M"},"action":"avoid","summary":"bad-avoid","bonus":0.7800000000000008},{"rt":1038.1000000014901,"stimulus":"\n                    <p><b>Action: <em>avoid</em></b></p>\n                    <p>This is the bee that you just saw.</p>\n                    <img src=\"bees-with-color/bee-B1SF.svg\" width=\"200\">\n                    <p><br>Your bonus pay is unchanged, and remains at $0.40.</p>\n            ","response":0,"trial_type":"html-button-response","trial_index":76,"time_elapsed":232646,"internal_node_id":"0.0-4.0-1.34","subject_id":"612a3c3ad8b3173cfeb7d69a","study_id":"6197b3f67c2b5cd3b6d9596a","session_id":"6197b55a698a415f67ddc4c6","condition":"contingent","relevant_dimensions":["pattern","legs"],"bee_group":{"antennae":"X","wings":"X","pattern":"S","legs":"M"},"bonus":0.7800000000000008},{"rt":1726,"stimulus":"bees-with-color/bee-B2SM.svg","response":0,"trial_type":"image-button-response","trial_index":77,"time_elapsed":234374,"internal_node_id":"0.0-4.0-0.35","subject_id":"612a3c3ad8b3173cfeb7d69a","study_id":"6197b3f67c2b5cd3b6d9596a","session_id":"6197b55a698a415f67ddc4c6","condition":"contingent","relevant_dimensions":["pattern","legs"],"bee_group":{"antennae":"X","wings":"X","pattern":"S","legs":"M"},"action":"harvest","summary":"bad-harvest","bonus":0.7800000000000008},{"rt":1358.2999999970198,"stimulus":"\n                    <p><b>Action: <em>harvest</em></b></p>\n                    <p>This is the bee that you just saw.</p>\n                    <img src=\"bees-with-color/bee-B2SM.svg\" width=\"200\">\n                    <p><span class=\"redText\">Bad choice, the bee was angry.</span><br><b>You have been stung!</b><br>Your pay has been decreased by $0.10. Your bonus pay is now $0.30.</p>\n            ","response":0,"trial_type":"html-button-response","trial_index":78,"time_elapsed":235733,"internal_node_id":"0.0-4.0-1.35","subject_id":"612a3c3ad8b3173cfeb7d69a","study_id":"6197b3f67c2b5cd3b6d9596a","session_id":"6197b55a698a415f67ddc4c6","condition":"contingent","relevant_dimensions":["pattern","legs"],"bee_group":{"antennae":"X","wings":"X","pattern":"S","legs":"M"},"bonus":0.7800000000000008},{"rt":1151.3999999985099,"stimulus":"bees-with-color/bee-A1SM.svg","response":1,"trial_type":"image-button-response","trial_index":79,"time_elapsed":236887,"internal_node_id":"0.0-4.0-0.36","subject_id":"612a3c3ad8b3173cfeb7d69a","study_id":"6197b3f67c2b5cd3b6d9596a","session_id":"6197b55a698a415f67ddc4c6","condition":"contingent","relevant_dimensions":["pattern","legs"],"bee_group":{"antennae":"X","wings":"X","pattern":"S","legs":"M"},"action":"avoid","summary":"good-avoid","bonus":0.7800000000000008},{"rt":803.2000000029802,"stimulus":"\n                    <p><b>Action: <em>avoid</em></b></p>\n                    <p>This is the bee that you just saw.</p>\n                    <img src=\"bees-with-color/bee-A1SM.svg\" width=\"200\">\n                    <p><br>Your bonus pay is unchanged, and remains at $0.30.</p>\n            ","response":0,"trial_type":"html-button-response","trial_index":80,"time_elapsed":237691,"internal_node_id":"0.0-4.0-1.36","subject_id":"612a3c3ad8b3173cfeb7d69a","study_id":"6197b3f67c2b5cd3b6d9596a","session_id":"6197b55a698a415f67ddc4c6","condition":"contingent","relevant_dimensions":["pattern","legs"],"bee_group":{"antennae":"X","wings":"X","pattern":"S","legs":"M"},"bonus":0.7800000000000008},{"rt":2144.2999999970198,"stimulus":"bees-with-color/bee-A1DF.svg","response":1,"trial_type":"image-button-response","trial_index":81,"time_elapsed":239838,"internal_node_id":"0.0-4.0-0.37","subject_id":"612a3c3ad8b3173cfeb7d69a","study_id":"6197b3f67c2b5cd3b6d9596a","session_id":"6197b55a698a415f67ddc4c6","condition":"contingent","relevant_dimensions":["pattern","legs"],"bee_group":{"antennae":"X","wings":"X","pattern":"S","legs":"M"},"action":"avoid","summary":"bad-avoid","bonus":0.7800000000000008},{"rt":731,"stimulus":"\n                    <p><b>Action: <em>avoid</em></b></p>\n                    <p>This is the bee that you just saw.</p>\n                    <img src=\"bees-with-color/bee-A1DF.svg\" width=\"200\">\n                    <p><br>Your bonus pay is unchanged, and remains at $0.30.</p>\n            ","response":0,"trial_type":"html-button-response","trial_index":82,"time_elapsed":240570,"internal_node_id":"0.0-4.0-1.37","subject_id":"612a3c3ad8b3173cfeb7d69a","study_id":"6197b3f67c2b5cd3b6d9596a","session_id":"6197b55a698a415f67ddc4c6","condition":"contingent","relevant_dimensions":["pattern","legs"],"bee_group":{"antennae":"X","wings":"X","pattern":"S","legs":"M"},"bonus":0.7800000000000008},{"rt":1238.5999999940395,"stimulus":"bees-with-color/bee-A1DM.svg","response":0,"trial_type":"image-button-response","trial_index":83,"time_elapsed":241810,"internal_node_id":"0.0-4.0-0.38","subject_id":"612a3c3ad8b3173cfeb7d69a","study_id":"6197b3f67c2b5cd3b6d9596a","session_id":"6197b55a698a415f67ddc4c6","condition":"contingent","relevant_dimensions":["pattern","legs"],"bee_group":{"antennae":"X","wings":"X","pattern":"S","legs":"M"},"action":"harvest","summary":"good-harvest","bonus":0.7800000000000008},{"rt":674.5,"stimulus":"\n                    <p><b>Action: <em>harvest</em></b></p>\n                    <p>This is the bee that you just saw.</p>\n                    <img src=\"bees-with-color/bee-A1DM.svg\" width=\"200\">\n                    <p><span class=\"greenText\"><b>Successful harvest!</b></span><br>Your pay has increased by $0.02. Your bonus pay is now $0.32.</p>\n            ","response":0,"trial_type":"html-button-response","trial_index":84,"time_elapsed":242486,"internal_node_id":"0.0-4.0-1.38","subject_id":"612a3c3ad8b3173cfeb7d69a","study_id":"6197b3f67c2b5cd3b6d9596a","session_id":"6197b55a698a415f67ddc4c6","condition":"contingent","relevant_dimensions":["pattern","legs"],"bee_group":{"antennae":"X","wings":"X","pattern":"S","legs":"M"},"bonus":0.7800000000000008},{"rt":1559.2999999970198,"stimulus":"bees-with-color/bee-B2DM.svg","response":0,"trial_type":"image-button-response","trial_index":85,"time_elapsed":244047,"internal_node_id":"0.0-4.0-0.39","subject_id":"612a3c3ad8b3173cfeb7d69a","study_id":"6197b3f67c2b5cd3b6d9596a","session_id":"6197b55a698a415f67ddc4c6","condition":"contingent","relevant_dimensions":["pattern","legs"],"bee_group":{"antennae":"X","wings":"X","pattern":"S","legs":"M"},"action":"harvest","summary":"good-harvest","bonus":0.7800000000000008},{"rt":623.3999999985099,"stimulus":"\n                    <p><b>Action: <em>harvest</em></b></p>\n                    <p>This is the bee that you just saw.</p>\n                    <img src=\"bees-with-color/bee-B2DM.svg\" width=\"200\">\n                    <p><span class=\"greenText\"><b>Successful harvest!</b></span><br>Your pay has increased by $0.02. Your bonus pay is now $0.34.</p>\n            ","response":0,"trial_type":"html-button-response","trial_index":86,"time_elapsed":244672,"internal_node_id":"0.0-4.0-1.39","subject_id":"612a3c3ad8b3173cfeb7d69a","study_id":"6197b3f67c2b5cd3b6d9596a","session_id":"6197b55a698a415f67ddc4c6","condition":"contingent","relevant_dimensions":["pattern","legs"],"bee_group":{"antennae":"X","wings":"X","pattern":"S","legs":"M"},"bonus":0.7800000000000008},{"rt":1300.8999999985099,"stimulus":"bees-with-color/bee-B1SM.svg","response":1,"trial_type":"image-button-response","trial_index":87,"time_elapsed":245974,"internal_node_id":"0.0-4.0-0.40","subject_id":"612a3c3ad8b3173cfeb7d69a","study_id":"6197b3f67c2b5cd3b6d9596a","session_id":"6197b55a698a415f67ddc4c6","condition":"contingent","relevant_dimensions":["pattern","legs"],"bee_group":{"antennae":"X","wings":"X","pattern":"S","legs":"M"},"action":"avoid","summary":"good-avoid","bonus":0.7800000000000008},{"rt":787.2999999970198,"stimulus":"\n                    <p><b>Action: <em>avoid</em></b></p>\n                    <p>This is the bee that you just saw.</p>\n                    <img src=\"bees-with-color/bee-B1SM.svg\" width=\"200\">\n                    <p><br>Your bonus pay is unchanged, and remains at $0.34.</p>\n            ","response":0,"trial_type":"html-button-response","trial_index":88,"time_elapsed":246763,"internal_node_id":"0.0-4.0-1.40","subject_id":"612a3c3ad8b3173cfeb7d69a","study_id":"6197b3f67c2b5cd3b6d9596a","session_id":"6197b55a698a415f67ddc4c6","condition":"contingent","relevant_dimensions":["pattern","legs"],"bee_group":{"antennae":"X","wings":"X","pattern":"S","legs":"M"},"bonus":0.7800000000000008},{"rt":1330.5999999940395,"stimulus":"bees-with-color/bee-A2SM.svg","response":0,"trial_type":"image-button-response","trial_index":89,"time_elapsed":248095,"internal_node_id":"0.0-4.0-0.41","subject_id":"612a3c3ad8b3173cfeb7d69a","study_id":"6197b3f67c2b5cd3b6d9596a","session_id":"6197b55a698a415f67ddc4c6","condition":"contingent","relevant_dimensions":["pattern","legs"],"bee_group":{"antennae":"X","wings":"X","pattern":"S","legs":"M"},"action":"harvest","summary":"bad-harvest","bonus":0.7800000000000008},{"rt":1292.1000000014901,"stimulus":"\n                    <p><b>Action: <em>harvest</em></b></p>\n                    <p>This is the bee that you just saw.</p>\n                    <img src=\"bees-with-color/bee-A2SM.svg\" width=\"200\">\n                    <p><span class=\"redText\">Bad choice, the bee was angry.</span><br><b>You have been stung!</b><br>Your pay has been decreased by $0.10. Your bonus pay is now $0.24.</p>\n            ","response":0,"trial_type":"html-button-response","trial_index":90,"time_elapsed":249389,"internal_node_id":"0.0-4.0-1.41","subject_id":"612a3c3ad8b3173cfeb7d69a","study_id":"6197b3f67c2b5cd3b6d9596a","session_id":"6197b55a698a415f67ddc4c6","condition":"contingent","relevant_dimensions":["pattern","legs"],"bee_group":{"antennae":"X","wings":"X","pattern":"S","legs":"M"},"bonus":0.7800000000000008},{"rt":1686.8999999985099,"stimulus":"bees-with-color/bee-A2DM.svg","response":0,"trial_type":"image-button-response","trial_index":91,"time_elapsed":251077,"internal_node_id":"0.0-4.0-0.42","subject_id":"612a3c3ad8b3173cfeb7d69a","study_id":"6197b3f67c2b5cd3b6d9596a","session_id":"6197b55a698a415f67ddc4c6","condition":"contingent","relevant_dimensions":["pattern","legs"],"bee_group":{"antennae":"X","wings":"X","pattern":"S","legs":"M"},"action":"harvest","summary":"good-harvest","bonus":0.7800000000000008},{"rt":669.7000000029802,"stimulus":"\n                    <p><b>Action: <em>harvest</em></b></p>\n                    <p>This is the bee that you just saw.</p>\n                    <img src=\"bees-with-color/bee-A2DM.svg\" width=\"200\">\n                    <p><span class=\"greenText\"><b>Successful harvest!</b></span><br>Your pay has increased by $0.02. Your bonus pay is now $0.26.</p>\n            ","response":0,"trial_type":"html-button-response","trial_index":92,"time_elapsed":251749,"internal_node_id":"0.0-4.0-1.42","subject_id":"612a3c3ad8b3173cfeb7d69a","study_id":"6197b3f67c2b5cd3b6d9596a","session_id":"6197b55a698a415f67ddc4c6","condition":"contingent","relevant_dimensions":["pattern","legs"],"bee_group":{"antennae":"X","wings":"X","pattern":"S","legs":"M"},"bonus":0.7800000000000008},{"rt":1971.8999999985099,"stimulus":"bees-with-color/bee-A2SF.svg","response":1,"trial_type":"image-button-response","trial_index":93,"time_elapsed":253722,"internal_node_id":"0.0-4.0-0.43","subject_id":"612a3c3ad8b3173cfeb7d69a","study_id":"6197b3f67c2b5cd3b6d9596a","session_id":"6197b55a698a415f67ddc4c6","condition":"contingent","relevant_dimensions":["pattern","legs"],"bee_group":{"antennae":"X","wings":"X","pattern":"S","legs":"M"},"action":"avoid","summary":"bad-avoid","bonus":0.7800000000000008},{"rt":681.8999999985099,"stimulus":"\n                    <p><b>Action: <em>avoid</em></b></p>\n                    <p>This is the bee that you just saw.</p>\n                    <img src=\"bees-with-color/bee-A2SF.svg\" width=\"200\">\n                    <p><br>Your bonus pay is unchanged, and remains at $0.26.</p>\n            ","response":0,"trial_type":"html-button-response","trial_index":94,"time_elapsed":254405,"internal_node_id":"0.0-4.0-1.43","subject_id":"612a3c3ad8b3173cfeb7d69a","study_id":"6197b3f67c2b5cd3b6d9596a","session_id":"6197b55a698a415f67ddc4c6","condition":"contingent","relevant_dimensions":["pattern","legs"],"bee_group":{"antennae":"X","wings":"X","pattern":"S","legs":"M"},"bonus":0.7800000000000008},{"rt":2085.5,"stimulus":"bees-with-color/bee-B1DF.svg","response":0,"trial_type":"image-button-response","trial_index":95,"time_elapsed":256492,"internal_node_id":"0.0-4.0-0.44","subject_id":"612a3c3ad8b3173cfeb7d69a","study_id":"6197b3f67c2b5cd3b6d9596a","session_id":"6197b55a698a415f67ddc4c6","condition":"contingent","relevant_dimensions":["pattern","legs"],"bee_group":{"antennae":"X","wings":"X","pattern":"S","legs":"M"},"action":"harvest","summary":"good-harvest","bonus":0.7800000000000008},{"rt":740.7000000029802,"stimulus":"\n                    <p><b>Action: <em>harvest</em></b></p>\n                    <p>This is the bee that you just saw.</p>\n                    <img src=\"bees-with-color/bee-B1DF.svg\" width=\"200\">\n                    <p><span class=\"greenText\"><b>Successful harvest!</b></span><br>Your pay has increased by $0.02. Your bonus pay is now $0.28.</p>\n            ","response":0,"trial_type":"html-button-response","trial_index":96,"time_elapsed":257234,"internal_node_id":"0.0-4.0-1.44","subject_id":"612a3c3ad8b3173cfeb7d69a","study_id":"6197b3f67c2b5cd3b6d9596a","session_id":"6197b55a698a415f67ddc4c6","condition":"contingent","relevant_dimensions":["pattern","legs"],"bee_group":{"antennae":"X","wings":"X","pattern":"S","legs":"M"},"bonus":0.7800000000000008},{"rt":1040.3999999985099,"stimulus":"bees-with-color/bee-A2DF.svg","response":0,"trial_type":"image-button-response","trial_index":97,"time_elapsed":258275,"internal_node_id":"0.0-4.0-0.45","subject_id":"612a3c3ad8b3173cfeb7d69a","study_id":"6197b3f67c2b5cd3b6d9596a","session_id":"6197b55a698a415f67ddc4c6","condition":"contingent","relevant_dimensions":["pattern","legs"],"bee_group":{"antennae":"X","wings":"X","pattern":"S","legs":"M"},"action":"harvest","summary":"good-harvest","bonus":0.7800000000000008},{"rt":886.3000000044703,"stimulus":"\n                    <p><b>Action: <em>harvest</em></b></p>\n                    <p>This is the bee that you just saw.</p>\n                    <img src=\"bees-with-color/bee-A2DF.svg\" width=\"200\">\n                    <p><span class=\"greenText\"><b>Successful harvest!</b></span><br>Your pay has increased by $0.02. Your bonus pay is now $0.30.</p>\n            ","response":0,"trial_type":"html-button-response","trial_index":98,"time_elapsed":259163,"internal_node_id":"0.0-4.0-1.45","subject_id":"612a3c3ad8b3173cfeb7d69a","study_id":"6197b3f67c2b5cd3b6d9596a","session_id":"6197b55a698a415f67ddc4c6","condition":"contingent","relevant_dimensions":["pattern","legs"],"bee_group":{"antennae":"X","wings":"X","pattern":"S","legs":"M"},"bonus":0.7800000000000008},{"rt":1047.7999999970198,"stimulus":"bees-with-color/bee-A1SF.svg","response":1,"trial_type":"image-button-response","trial_index":99,"time_elapsed":260211,"internal_node_id":"0.0-4.0-0.46","subject_id":"612a3c3ad8b3173cfeb7d69a","study_id":"6197b3f67c2b5cd3b6d9596a","session_id":"6197b55a698a415f67ddc4c6","condition":"contingent","relevant_dimensions":["pattern","legs"],"bee_group":{"antennae":"X","wings":"X","pattern":"S","legs":"M"},"action":"avoid","summary":"bad-avoid","bonus":0.7800000000000008},{"rt":774,"stimulus":"\n                    <p><b>Action: <em>avoid</em></b></p>\n                    <p>This is the bee that you just saw.</p>\n                    <img src=\"bees-with-color/bee-A1SF.svg\" width=\"200\">\n                    <p><br>Your bonus pay is unchanged, and remains at $0.30.</p>\n            ","response":0,"trial_type":"html-button-response","trial_index":100,"time_elapsed":260987,"internal_node_id":"0.0-4.0-1.46","subject_id":"612a3c3ad8b3173cfeb7d69a","study_id":"6197b3f67c2b5cd3b6d9596a","session_id":"6197b55a698a415f67ddc4c6","condition":"contingent","relevant_dimensions":["pattern","legs"],"bee_group":{"antennae":"X","wings":"X","pattern":"S","legs":"M"},"bonus":0.7800000000000008},{"rt":1140.1999999955297,"stimulus":"bees-with-color/bee-B2SF.svg","response":1,"trial_type":"image-button-response","trial_index":101,"time_elapsed":262128,"internal_node_id":"0.0-4.0-0.47","subject_id":"612a3c3ad8b3173cfeb7d69a","study_id":"6197b3f67c2b5cd3b6d9596a","session_id":"6197b55a698a415f67ddc4c6","condition":"contingent","relevant_dimensions":["pattern","legs"],"bee_group":{"antennae":"X","wings":"X","pattern":"S","legs":"M"},"action":"avoid","summary":"bad-avoid","bonus":0.7800000000000008},{"rt":1154.3999999985099,"stimulus":"\n                    <p><b>Action: <em>avoid</em></b></p>\n                    <p>This is the bee that you just saw.</p>\n                    <img src=\"bees-with-color/bee-B2SF.svg\" width=\"200\">\n                    <p><br>Your bonus pay is unchanged, and remains at $0.30.</p>\n            ","response":0,"trial_type":"html-button-response","trial_index":102,"time_elapsed":263284,"internal_node_id":"0.0-4.0-1.47","subject_id":"612a3c3ad8b3173cfeb7d69a","study_id":"6197b3f67c2b5cd3b6d9596a","session_id":"6197b55a698a415f67ddc4c6","condition":"contingent","relevant_dimensions":["pattern","legs"],"bee_group":{"antennae":"X","wings":"X","pattern":"S","legs":"M"},"bonus":0.7800000000000008},{"rt":821.3000000044703,"stimulus":"bees-with-color/bee-A2DM.svg","response":0,"trial_type":"image-button-response","trial_index":103,"time_elapsed":264107,"internal_node_id":"0.0-4.0-0.48","subject_id":"612a3c3ad8b3173cfeb7d69a","study_id":"6197b3f67c2b5cd3b6d9596a","session_id":"6197b55a698a415f67ddc4c6","condition":"contingent","relevant_dimensions":["pattern","legs"],"bee_group":{"antennae":"X","wings":"X","pattern":"S","legs":"M"},"action":"harvest","summary":"good-harvest","bonus":0.7800000000000008},{"rt":723.7999999970198,"stimulus":"\n                    <p><b>Action: <em>harvest</em></b></p>\n                    <p>This is the bee that you just saw.</p>\n                    <img src=\"bees-with-color/bee-A2DM.svg\" width=\"200\">\n                    <p><span class=\"greenText\"><b>Successful harvest!</b></span><br>Your pay has increased by $0.02. Your bonus pay is now $0.32.</p>\n            ","response":0,"trial_type":"html-button-response","trial_index":104,"time_elapsed":264832,"internal_node_id":"0.0-4.0-1.48","subject_id":"612a3c3ad8b3173cfeb7d69a","study_id":"6197b3f67c2b5cd3b6d9596a","session_id":"6197b55a698a415f67ddc4c6","condition":"contingent","relevant_dimensions":["pattern","legs"],"bee_group":{"antennae":"X","wings":"X","pattern":"S","legs":"M"},"bonus":0.7800000000000008},{"rt":793.7000000029802,"stimulus":"bees-with-color/bee-B2SM.svg","response":1,"trial_type":"image-button-response","trial_index":105,"time_elapsed":265626,"internal_node_id":"0.0-4.0-0.49","subject_id":"612a3c3ad8b3173cfeb7d69a","study_id":"6197b3f67c2b5cd3b6d9596a","session_id":"6197b55a698a415f67ddc4c6","condition":"contingent","relevant_dimensions":["pattern","legs"],"bee_group":{"antennae":"X","wings":"X","pattern":"S","legs":"M"},"action":"avoid","summary":"good-avoid","bonus":0.7800000000000008},{"rt":575.6999999955297,"stimulus":"\n                    <p><b>Action: <em>avoid</em></b></p>\n                    <p>This is the bee that you just saw.</p>\n                    <img src=\"bees-with-color/bee-B2SM.svg\" width=\"200\">\n                    <p><br>Your bonus pay is unchanged, and remains at $0.32.</p>\n            ","response":0,"trial_type":"html-button-response","trial_index":106,"time_elapsed":266203,"internal_node_id":"0.0-4.0-1.49","subject_id":"612a3c3ad8b3173cfeb7d69a","study_id":"6197b3f67c2b5cd3b6d9596a","session_id":"6197b55a698a415f67ddc4c6","condition":"contingent","relevant_dimensions":["pattern","legs"],"bee_group":{"antennae":"X","wings":"X","pattern":"S","legs":"M"},"bonus":0.7800000000000008},{"rt":794,"stimulus":"bees-with-color/bee-B1SF.svg","response":1,"trial_type":"image-button-response","trial_index":107,"time_elapsed":266998,"internal_node_id":"0.0-4.0-0.50","subject_id":"612a3c3ad8b3173cfeb7d69a","study_id":"6197b3f67c2b5cd3b6d9596a","session_id":"6197b55a698a415f67ddc4c6","condition":"contingent","relevant_dimensions":["pattern","legs"],"bee_group":{"antennae":"X","wings":"X","pattern":"S","legs":"M"},"action":"avoid","summary":"bad-avoid","bonus":0.7800000000000008},{"rt":699.1000000014901,"stimulus":"\n                    <p><b>Action: <em>avoid</em></b></p>\n                    <p>This is the bee that you just saw.</p>\n                    <img src=\"bees-with-color/bee-B1SF.svg\" width=\"200\">\n                    <p><br>Your bonus pay is unchanged, and remains at $0.32.</p>\n            ","response":0,"trial_type":"html-button-response","trial_index":108,"time_elapsed":267699,"internal_node_id":"0.0-4.0-1.50","subject_id":"612a3c3ad8b3173cfeb7d69a","study_id":"6197b3f67c2b5cd3b6d9596a","session_id":"6197b55a698a415f67ddc4c6","condition":"contingent","relevant_dimensions":["pattern","legs"],"bee_group":{"antennae":"X","wings":"X","pattern":"S","legs":"M"},"bonus":0.7800000000000008},{"rt":1043.3999999985099,"stimulus":"bees-with-color/bee-A2SF.svg","response":1,"trial_type":"image-button-response","trial_index":109,"time_elapsed":268743,"internal_node_id":"0.0-4.0-0.51","subject_id":"612a3c3ad8b3173cfeb7d69a","study_id":"6197b3f67c2b5cd3b6d9596a","session_id":"6197b55a698a415f67ddc4c6","condition":"contingent","relevant_dimensions":["pattern","legs"],"bee_group":{"antennae":"X","wings":"X","pattern":"S","legs":"M"},"action":"avoid","summary":"bad-avoid","bonus":0.7800000000000008},{"rt":759,"stimulus":"\n                    <p><b>Action: <em>avoid</em></b></p>\n                    <p>This is the bee that you just saw.</p>\n                    <img src=\"bees-with-color/bee-A2SF.svg\" width=\"200\">\n                    <p><br>Your bonus pay is unchanged, and remains at $0.32.</p>\n            ","response":0,"trial_type":"html-button-response","trial_index":110,"time_elapsed":269503,"internal_node_id":"0.0-4.0-1.51","subject_id":"612a3c3ad8b3173cfeb7d69a","study_id":"6197b3f67c2b5cd3b6d9596a","session_id":"6197b55a698a415f67ddc4c6","condition":"contingent","relevant_dimensions":["pattern","legs"],"bee_group":{"antennae":"X","wings":"X","pattern":"S","legs":"M"},"bonus":0.7800000000000008},{"rt":743.8999999985099,"stimulus":"bees-with-color/bee-A1DF.svg","response":0,"trial_type":"image-button-response","trial_index":111,"time_elapsed":270248,"internal_node_id":"0.0-4.0-0.52","subject_id":"612a3c3ad8b3173cfeb7d69a","study_id":"6197b3f67c2b5cd3b6d9596a","session_id":"6197b55a698a415f67ddc4c6","condition":"contingent","relevant_dimensions":["pattern","legs"],"bee_group":{"antennae":"X","wings":"X","pattern":"S","legs":"M"},"action":"harvest","summary":"good-harvest","bonus":0.7800000000000008},{"rt":867.6000000014901,"stimulus":"\n                    <p><b>Action: <em>harvest</em></b></p>\n                    <p>This is the bee that you just saw.</p>\n                    <img src=\"bees-with-color/bee-A1DF.svg\" width=\"200\">\n                    <p><span class=\"greenText\"><b>Successful harvest!</b></span><br>Your pay has increased by $0.02. Your bonus pay is now $0.34.</p>\n            ","response":0,"trial_type":"html-button-response","trial_index":112,"time_elapsed":271117,"internal_node_id":"0.0-4.0-1.52","subject_id":"612a3c3ad8b3173cfeb7d69a","study_id":"6197b3f67c2b5cd3b6d9596a","session_id":"6197b55a698a415f67ddc4c6","condition":"contingent","relevant_dimensions":["pattern","legs"],"bee_group":{"antennae":"X","wings":"X","pattern":"S","legs":"M"},"bonus":0.7800000000000008},{"rt":995.1000000014901,"stimulus":"bees-with-color/bee-A1DM.svg","response":0,"trial_type":"image-button-response","trial_index":113,"time_elapsed":272113,"internal_node_id":"0.0-4.0-0.53","subject_id":"612a3c3ad8b3173cfeb7d69a","study_id":"6197b3f67c2b5cd3b6d9596a","session_id":"6197b55a698a415f67ddc4c6","condition":"contingent","relevant_dimensions":["pattern","legs"],"bee_group":{"antennae":"X","wings":"X","pattern":"S","legs":"M"},"action":"harvest","summary":"good-harvest","bonus":0.7800000000000008},{"rt":532,"stimulus":"\n                    <p><b>Action: <em>harvest</em></b></p>\n                    <p>This is the bee that you just saw.</p>\n                    <img src=\"bees-with-color/bee-A1DM.svg\" width=\"200\">\n                    <p><span class=\"greenText\"><b>Successful harvest!</b></span><br>Your pay has increased by $0.02. Your bonus pay is now $0.36.</p>\n            ","response":0,"trial_type":"html-button-response","trial_index":114,"time_elapsed":272647,"internal_node_id":"0.0-4.0-1.53","subject_id":"612a3c3ad8b3173cfeb7d69a","study_id":"6197b3f67c2b5cd3b6d9596a","session_id":"6197b55a698a415f67ddc4c6","condition":"contingent","relevant_dimensions":["pattern","legs"],"bee_group":{"antennae":"X","wings":"X","pattern":"S","legs":"M"},"bonus":0.7800000000000008},{"rt":1379.0999999940395,"stimulus":"bees-with-color/bee-A2SM.svg","response":1,"trial_type":"image-button-response","trial_index":115,"time_elapsed":274027,"internal_node_id":"0.0-4.0-0.54","subject_id":"612a3c3ad8b3173cfeb7d69a","study_id":"6197b3f67c2b5cd3b6d9596a","session_id":"6197b55a698a415f67ddc4c6","condition":"contingent","relevant_dimensions":["pattern","legs"],"bee_group":{"antennae":"X","wings":"X","pattern":"S","legs":"M"},"action":"avoid","summary":"good-avoid","bonus":0.7800000000000008},{"rt":598.8999999985099,"stimulus":"\n                    <p><b>Action: <em>avoid</em></b></p>\n                    <p>This is the bee that you just saw.</p>\n                    <img src=\"bees-with-color/bee-A2SM.svg\" width=\"200\">\n                    <p><br>Your bonus pay is unchanged, and remains at $0.36.</p>\n            ","response":0,"trial_type":"html-button-response","trial_index":116,"time_elapsed":274628,"internal_node_id":"0.0-4.0-1.54","subject_id":"612a3c3ad8b3173cfeb7d69a","study_id":"6197b3f67c2b5cd3b6d9596a","session_id":"6197b55a698a415f67ddc4c6","condition":"contingent","relevant_dimensions":["pattern","legs"],"bee_group":{"antennae":"X","wings":"X","pattern":"S","legs":"M"},"bonus":0.7800000000000008},{"rt":881.1000000014901,"stimulus":"bees-with-color/bee-A2DF.svg","response":0,"trial_type":"image-button-response","trial_index":117,"time_elapsed":275510,"internal_node_id":"0.0-4.0-0.55","subject_id":"612a3c3ad8b3173cfeb7d69a","study_id":"6197b3f67c2b5cd3b6d9596a","session_id":"6197b55a698a415f67ddc4c6","condition":"contingent","relevant_dimensions":["pattern","legs"],"bee_group":{"antennae":"X","wings":"X","pattern":"S","legs":"M"},"action":"harvest","summary":"good-harvest","bonus":0.7800000000000008},{"rt":799.2999999970198,"stimulus":"\n                    <p><b>Action: <em>harvest</em></b></p>\n                    <p>This is the bee that you just saw.</p>\n                    <img src=\"bees-with-color/bee-A2DF.svg\" width=\"200\">\n                    <p><span class=\"greenText\"><b>Successful harvest!</b></span><br>Your pay has increased by $0.02. Your bonus pay is now $0.38.</p>\n            ","response":0,"trial_type":"html-button-response","trial_index":118,"time_elapsed":276311,"internal_node_id":"0.0-4.0-1.55","subject_id":"612a3c3ad8b3173cfeb7d69a","study_id":"6197b3f67c2b5cd3b6d9596a","session_id":"6197b55a698a415f67ddc4c6","condition":"contingent","relevant_dimensions":["pattern","legs"],"bee_group":{"antennae":"X","wings":"X","pattern":"S","legs":"M"},"bonus":0.7800000000000008},{"rt":795,"stimulus":"bees-with-color/bee-A1SF.svg","response":1,"trial_type":"image-button-response","trial_index":119,"time_elapsed":277107,"internal_node_id":"0.0-4.0-0.56","subject_id":"612a3c3ad8b3173cfeb7d69a","study_id":"6197b3f67c2b5cd3b6d9596a","session_id":"6197b55a698a415f67ddc4c6","condition":"contingent","relevant_dimensions":["pattern","legs"],"bee_group":{"antennae":"X","wings":"X","pattern":"S","legs":"M"},"action":"avoid","summary":"bad-avoid","bonus":0.7800000000000008},{"rt":564.8999999985099,"stimulus":"\n                    <p><b>Action: <em>avoid</em></b></p>\n                    <p>This is the bee that you just saw.</p>\n                    <img src=\"bees-with-color/bee-A1SF.svg\" width=\"200\">\n                    <p><br>Your bonus pay is unchanged, and remains at $0.38.</p>\n            ","response":0,"trial_type":"html-button-response","trial_index":120,"time_elapsed":277673,"internal_node_id":"0.0-4.0-1.56","subject_id":"612a3c3ad8b3173cfeb7d69a","study_id":"6197b3f67c2b5cd3b6d9596a","session_id":"6197b55a698a415f67ddc4c6","condition":"contingent","relevant_dimensions":["pattern","legs"],"bee_group":{"antennae":"X","wings":"X","pattern":"S","legs":"M"},"bonus":0.7800000000000008},{"rt":1005.5,"stimulus":"bees-with-color/bee-B2SF.svg","response":1,"trial_type":"image-button-response","trial_index":121,"time_elapsed":278680,"internal_node_id":"0.0-4.0-0.57","subject_id":"612a3c3ad8b3173cfeb7d69a","study_id":"6197b3f67c2b5cd3b6d9596a","session_id":"6197b55a698a415f67ddc4c6","condition":"contingent","relevant_dimensions":["pattern","legs"],"bee_group":{"antennae":"X","wings":"X","pattern":"S","legs":"M"},"action":"avoid","summary":"bad-avoid","bonus":0.7800000000000008},{"rt":798.5,"stimulus":"\n                    <p><b>Action: <em>avoid</em></b></p>\n                    <p>This is the bee that you just saw.</p>\n                    <img src=\"bees-with-color/bee-B2SF.svg\" width=\"200\">\n                    <p><br>Your bonus pay is unchanged, and remains at $0.38.</p>\n            ","response":0,"trial_type":"html-button-response","trial_index":122,"time_elapsed":279480,"internal_node_id":"0.0-4.0-1.57","subject_id":"612a3c3ad8b3173cfeb7d69a","study_id":"6197b3f67c2b5cd3b6d9596a","session_id":"6197b55a698a415f67ddc4c6","condition":"contingent","relevant_dimensions":["pattern","legs"],"bee_group":{"antennae":"X","wings":"X","pattern":"S","legs":"M"},"bonus":0.7800000000000008},{"rt":1041.3000000044703,"stimulus":"bees-with-color/bee-B1DF.svg","response":0,"trial_type":"image-button-response","trial_index":123,"time_elapsed":280523,"internal_node_id":"0.0-4.0-0.58","subject_id":"612a3c3ad8b3173cfeb7d69a","study_id":"6197b3f67c2b5cd3b6d9596a","session_id":"6197b55a698a415f67ddc4c6","condition":"contingent","relevant_dimensions":["pattern","legs"],"bee_group":{"antennae":"X","wings":"X","pattern":"S","legs":"M"},"action":"harvest","summary":"good-harvest","bonus":0.7800000000000008},{"rt":1125,"stimulus":"\n                    <p><b>Action: <em>harvest</em></b></p>\n                    <p>This is the bee that you just saw.</p>\n                    <img src=\"bees-with-color/bee-B1DF.svg\" width=\"200\">\n                    <p><span class=\"greenText\"><b>Successful harvest!</b></span><br>Your pay has increased by $0.02. Your bonus pay is now $0.40.</p>\n            ","response":0,"trial_type":"html-button-response","trial_index":124,"time_elapsed":281649,"internal_node_id":"0.0-4.0-1.58","subject_id":"612a3c3ad8b3173cfeb7d69a","study_id":"6197b3f67c2b5cd3b6d9596a","session_id":"6197b55a698a415f67ddc4c6","condition":"contingent","relevant_dimensions":["pattern","legs"],"bee_group":{"antennae":"X","wings":"X","pattern":"S","legs":"M"},"bonus":0.7800000000000008},{"rt":1097.7999999970198,"stimulus":"bees-with-color/bee-A1SM.svg","response":1,"trial_type":"image-button-response","trial_index":125,"time_elapsed":282748,"internal_node_id":"0.0-4.0-0.59","subject_id":"612a3c3ad8b3173cfeb7d69a","study_id":"6197b3f67c2b5cd3b6d9596a","session_id":"6197b55a698a415f67ddc4c6","condition":"contingent","relevant_dimensions":["pattern","legs"],"bee_group":{"antennae":"X","wings":"X","pattern":"S","legs":"M"},"action":"avoid","summary":"good-avoid","bonus":0.7800000000000008},{"rt":910.5,"stimulus":"\n                    <p><b>Action: <em>avoid</em></b></p>\n                    <p>This is the bee that you just saw.</p>\n                    <img src=\"bees-with-color/bee-A1SM.svg\" width=\"200\">\n                    <p><br>Your bonus pay is unchanged, and remains at $0.40.</p>\n            ","response":0,"trial_type":"html-button-response","trial_index":126,"time_elapsed":283660,"internal_node_id":"0.0-4.0-1.59","subject_id":"612a3c3ad8b3173cfeb7d69a","study_id":"6197b3f67c2b5cd3b6d9596a","session_id":"6197b55a698a415f67ddc4c6","condition":"contingent","relevant_dimensions":["pattern","legs"],"bee_group":{"antennae":"X","wings":"X","pattern":"S","legs":"M"},"bonus":0.7800000000000008},{"rt":853.5,"stimulus":"bees-with-color/bee-B2DF.svg","response":0,"trial_type":"image-button-response","trial_index":127,"time_elapsed":284515,"internal_node_id":"0.0-4.0-0.60","subject_id":"612a3c3ad8b3173cfeb7d69a","study_id":"6197b3f67c2b5cd3b6d9596a","session_id":"6197b55a698a415f67ddc4c6","condition":"contingent","relevant_dimensions":["pattern","legs"],"bee_group":{"antennae":"X","wings":"X","pattern":"S","legs":"M"},"action":"harvest","summary":"good-harvest","bonus":0.7800000000000008},{"rt":976.1999999955297,"stimulus":"\n                    <p><b>Action: <em>harvest</em></b></p>\n                    <p>This is the bee that you just saw.</p>\n                    <img src=\"bees-with-color/bee-B2DF.svg\" width=\"200\">\n                    <p><span class=\"greenText\"><b>Successful harvest!</b></span><br>Your pay has increased by $0.02. Your bonus pay is now $0.42.</p>\n            ","response":0,"trial_type":"html-button-response","trial_index":128,"time_elapsed":285492,"internal_node_id":"0.0-4.0-1.60","subject_id":"612a3c3ad8b3173cfeb7d69a","study_id":"6197b3f67c2b5cd3b6d9596a","session_id":"6197b55a698a415f67ddc4c6","condition":"contingent","relevant_dimensions":["pattern","legs"],"bee_group":{"antennae":"X","wings":"X","pattern":"S","legs":"M"},"bonus":0.7800000000000008},{"rt":1334.1000000014901,"stimulus":"bees-with-color/bee-B1DM.svg","response":0,"trial_type":"image-button-response","trial_index":129,"time_elapsed":286828,"internal_node_id":"0.0-4.0-0.61","subject_id":"612a3c3ad8b3173cfeb7d69a","study_id":"6197b3f67c2b5cd3b6d9596a","session_id":"6197b55a698a415f67ddc4c6","condition":"contingent","relevant_dimensions":["pattern","legs"],"bee_group":{"antennae":"X","wings":"X","pattern":"S","legs":"M"},"action":"harvest","summary":"good-harvest","bonus":0.7800000000000008},{"rt":555,"stimulus":"\n                    <p><b>Action: <em>harvest</em></b></p>\n                    <p>This is the bee that you just saw.</p>\n                    <img src=\"bees-with-color/bee-B1DM.svg\" width=\"200\">\n                    <p><span class=\"greenText\"><b>Successful harvest!</b></span><br>Your pay has increased by $0.02. Your bonus pay is now $0.44.</p>\n            ","response":0,"trial_type":"html-button-response","trial_index":130,"time_elapsed":287384,"internal_node_id":"0.0-4.0-1.61","subject_id":"612a3c3ad8b3173cfeb7d69a","study_id":"6197b3f67c2b5cd3b6d9596a","session_id":"6197b55a698a415f67ddc4c6","condition":"contingent","relevant_dimensions":["pattern","legs"],"bee_group":{"antennae":"X","wings":"X","pattern":"S","legs":"M"},"bonus":0.7800000000000008},{"rt":1263.1000000014901,"stimulus":"bees-with-color/bee-B2DM.svg","response":0,"trial_type":"image-button-response","trial_index":131,"time_elapsed":288649,"internal_node_id":"0.0-4.0-0.62","subject_id":"612a3c3ad8b3173cfeb7d69a","study_id":"6197b3f67c2b5cd3b6d9596a","session_id":"6197b55a698a415f67ddc4c6","condition":"contingent","relevant_dimensions":["pattern","legs"],"bee_group":{"antennae":"X","wings":"X","pattern":"S","legs":"M"},"action":"harvest","summary":"good-harvest","bonus":0.7800000000000008},{"rt":685.2999999970198,"stimulus":"\n                    <p><b>Action: <em>harvest</em></b></p>\n                    <p>This is the bee that you just saw.</p>\n                    <img src=\"bees-with-color/bee-B2DM.svg\" width=\"200\">\n                    <p><span class=\"greenText\"><b>Successful harvest!</b></span><br>Your pay has increased by $0.02. Your bonus pay is now $0.46.</p>\n            ","response":0,"trial_type":"html-button-response","trial_index":132,"time_elapsed":289335,"internal_node_id":"0.0-4.0-1.62","subject_id":"612a3c3ad8b3173cfeb7d69a","study_id":"6197b3f67c2b5cd3b6d9596a","session_id":"6197b55a698a415f67ddc4c6","condition":"contingent","relevant_dimensions":["pattern","legs"],"bee_group":{"antennae":"X","wings":"X","pattern":"S","legs":"M"},"bonus":0.7800000000000008},{"rt":882.5,"stimulus":"bees-with-color/bee-B1SM.svg","response":1,"trial_type":"image-button-response","trial_index":133,"time_elapsed":290219,"internal_node_id":"0.0-4.0-0.63","subject_id":"612a3c3ad8b3173cfeb7d69a","study_id":"6197b3f67c2b5cd3b6d9596a","session_id":"6197b55a698a415f67ddc4c6","condition":"contingent","relevant_dimensions":["pattern","legs"],"bee_group":{"antennae":"X","wings":"X","pattern":"S","legs":"M"},"action":"avoid","summary":"good-avoid","bonus":0.7800000000000008},{"rt":664.2000000029802,"stimulus":"\n                    <p><b>Action: <em>avoid</em></b></p>\n                    <p>This is the bee that you just saw.</p>\n                    <img src=\"bees-with-color/bee-B1SM.svg\" width=\"200\">\n                    <p><br>Your bonus pay is unchanged, and remains at $0.46.</p>\n            ","response":0,"trial_type":"html-button-response","trial_index":134,"time_elapsed":290885,"internal_node_id":"0.0-4.0-1.63","subject_id":"612a3c3ad8b3173cfeb7d69a","study_id":"6197b3f67c2b5cd3b6d9596a","session_id":"6197b55a698a415f67ddc4c6","condition":"contingent","relevant_dimensions":["pattern","legs"],"bee_group":{"antennae":"X","wings":"X","pattern":"S","legs":"M"},"bonus":0.7800000000000008},{"rt":6560.89999999851,"stimulus":"You have completed the first part of this experiment.<br><br>You will now begin a shorter second part, in which you will receive no feedback.<br>The same rules regarding bonus pay apply.<br><br>Press any key to begin.","response":" ","trial_type":"html-keyboard-response","trial_index":135,"time_elapsed":297447,"internal_node_id":"0.0-5.0","subject_id":"612a3c3ad8b3173cfeb7d69a","study_id":"6197b3f67c2b5cd3b6d9596a","session_id":"6197b55a698a415f67ddc4c6","condition":"contingent","relevant_dimensions":["pattern","legs"],"bee_group":{"antennae":"X","wings":"X","pattern":"S","legs":"M"},"bonus":0.7800000000000008},{"rt":2211.2000000029802,"stimulus":"bees-with-color/bee-B2DM.svg","response":0,"trial_type":"image-button-response","trial_index":136,"time_elapsed":299666,"internal_node_id":"0.0-6.0-0.0","subject_id":"612a3c3ad8b3173cfeb7d69a","study_id":"6197b3f67c2b5cd3b6d9596a","session_id":"6197b55a698a415f67ddc4c6","condition":"contingent","relevant_dimensions":["pattern","legs"],"bee_group":{"antennae":"X","wings":"X","pattern":"S","legs":"M"},"bonus":0.7800000000000008},{"rt":2154.6999999955297,"stimulus":"bees-with-color/bee-B1DF.svg","response":0,"trial_type":"image-button-response","trial_index":137,"time_elapsed":301823,"internal_node_id":"0.0-6.0-0.1","subject_id":"612a3c3ad8b3173cfeb7d69a","study_id":"6197b3f67c2b5cd3b6d9596a","session_id":"6197b55a698a415f67ddc4c6","condition":"contingent","relevant_dimensions":["pattern","legs"],"bee_group":{"antennae":"X","wings":"X","pattern":"S","legs":"M"},"bonus":0.7800000000000008},{"rt":1235.2000000029802,"stimulus":"bees-with-color/bee-B2SM.svg","response":1,"trial_type":"image-button-response","trial_index":138,"time_elapsed":303061,"internal_node_id":"0.0-6.0-0.2","subject_id":"612a3c3ad8b3173cfeb7d69a","study_id":"6197b3f67c2b5cd3b6d9596a","session_id":"6197b55a698a415f67ddc4c6","condition":"contingent","relevant_dimensions":["pattern","legs"],"bee_group":{"antennae":"X","wings":"X","pattern":"S","legs":"M"},"bonus":0.7800000000000008},{"rt":588.8999999985099,"stimulus":"bees-with-color/bee-A2SF.svg","response":1,"trial_type":"image-button-response","trial_index":139,"time_elapsed":303652,"internal_node_id":"0.0-6.0-0.3","subject_id":"612a3c3ad8b3173cfeb7d69a","study_id":"6197b3f67c2b5cd3b6d9596a","session_id":"6197b55a698a415f67ddc4c6","condition":"contingent","relevant_dimensions":["pattern","legs"],"bee_group":{"antennae":"X","wings":"X","pattern":"S","legs":"M"},"bonus":0.7800000000000008},{"rt":612.6000000014901,"stimulus":"bees-with-color/bee-B1SM.svg","response":1,"trial_type":"image-button-response","trial_index":140,"time_elapsed":304266,"internal_node_id":"0.0-6.0-0.4","subject_id":"612a3c3ad8b3173cfeb7d69a","study_id":"6197b3f67c2b5cd3b6d9596a","session_id":"6197b55a698a415f67ddc4c6","condition":"contingent","relevant_dimensions":["pattern","legs"],"bee_group":{"antennae":"X","wings":"X","pattern":"S","legs":"M"},"bonus":0.7800000000000008},{"rt":1040.7000000029802,"stimulus":"bees-with-color/bee-B2DF.svg","response":0,"trial_type":"image-button-response","trial_index":141,"time_elapsed":305309,"internal_node_id":"0.0-6.0-0.5","subject_id":"612a3c3ad8b3173cfeb7d69a","study_id":"6197b3f67c2b5cd3b6d9596a","session_id":"6197b55a698a415f67ddc4c6","condition":"contingent","relevant_dimensions":["pattern","legs"],"bee_group":{"antennae":"X","wings":"X","pattern":"S","legs":"M"},"bonus":0.7800000000000008},{"rt":714.5,"stimulus":"bees-with-color/bee-A2DM.svg","response":0,"trial_type":"image-button-response","trial_index":142,"time_elapsed":306025,"internal_node_id":"0.0-6.0-0.6","subject_id":"612a3c3ad8b3173cfeb7d69a","study_id":"6197b3f67c2b5cd3b6d9596a","session_id":"6197b55a698a415f67ddc4c6","condition":"contingent","relevant_dimensions":["pattern","legs"],"bee_group":{"antennae":"X","wings":"X","pattern":"S","legs":"M"},"bonus":0.7800000000000008},{"rt":846.7999999970198,"stimulus":"bees-with-color/bee-B2SF.svg","response":1,"trial_type":"image-button-response","trial_index":143,"time_elapsed":306873,"internal_node_id":"0.0-6.0-0.7","subject_id":"612a3c3ad8b3173cfeb7d69a","study_id":"6197b3f67c2b5cd3b6d9596a","session_id":"6197b55a698a415f67ddc4c6","condition":"contingent","relevant_dimensions":["pattern","legs"],"bee_group":{"antennae":"X","wings":"X","pattern":"S","legs":"M"},"bonus":0.7800000000000008},{"rt":531.7000000029802,"stimulus":"bees-with-color/bee-A1SF.svg","response":1,"trial_type":"image-button-response","trial_index":144,"time_elapsed":307406,"internal_node_id":"0.0-6.0-0.8","subject_id":"612a3c3ad8b3173cfeb7d69a","study_id":"6197b3f67c2b5cd3b6d9596a","session_id":"6197b55a698a415f67ddc4c6","condition":"contingent","relevant_dimensions":["pattern","legs"],"bee_group":{"antennae":"X","wings":"X","pattern":"S","legs":"M"},"bonus":0.7800000000000008},{"rt":933.8999999985099,"stimulus":"bees-with-color/bee-A1DM.svg","response":0,"trial_type":"image-button-response","trial_index":145,"time_elapsed":308342,"internal_node_id":"0.0-6.0-0.9","subject_id":"612a3c3ad8b3173cfeb7d69a","study_id":"6197b3f67c2b5cd3b6d9596a","session_id":"6197b55a698a415f67ddc4c6","condition":"contingent","relevant_dimensions":["pattern","legs"],"bee_group":{"antennae":"X","wings":"X","pattern":"S","legs":"M"},"bonus":0.7800000000000008},{"rt":652.5,"stimulus":"bees-with-color/bee-B1DM.svg","response":0,"trial_type":"image-button-response","trial_index":146,"time_elapsed":308997,"internal_node_id":"0.0-6.0-0.10","subject_id":"612a3c3ad8b3173cfeb7d69a","study_id":"6197b3f67c2b5cd3b6d9596a","session_id":"6197b55a698a415f67ddc4c6","condition":"contingent","relevant_dimensions":["pattern","legs"],"bee_group":{"antennae":"X","wings":"X","pattern":"S","legs":"M"},"bonus":0.7800000000000008},{"rt":1158.6000000014901,"stimulus":"bees-with-color/bee-A1SM.svg","response":1,"trial_type":"image-button-response","trial_index":147,"time_elapsed":310157,"internal_node_id":"0.0-6.0-0.11","subject_id":"612a3c3ad8b3173cfeb7d69a","study_id":"6197b3f67c2b5cd3b6d9596a","session_id":"6197b55a698a415f67ddc4c6","condition":"contingent","relevant_dimensions":["pattern","legs"],"bee_group":{"antennae":"X","wings":"X","pattern":"S","legs":"M"},"bonus":0.7800000000000008},{"rt":470.29999999701977,"stimulus":"bees-with-color/bee-A2SM.svg","response":1,"trial_type":"image-button-response","trial_index":148,"time_elapsed":310629,"internal_node_id":"0.0-6.0-0.12","subject_id":"612a3c3ad8b3173cfeb7d69a","study_id":"6197b3f67c2b5cd3b6d9596a","session_id":"6197b55a698a415f67ddc4c6","condition":"contingent","relevant_dimensions":["pattern","legs"],"bee_group":{"antennae":"X","wings":"X","pattern":"S","legs":"M"},"bonus":0.7800000000000008},{"rt":827,"stimulus":"bees-with-color/bee-A2DF.svg","response":0,"trial_type":"image-button-response","trial_index":149,"time_elapsed":311457,"internal_node_id":"0.0-6.0-0.13","subject_id":"612a3c3ad8b3173cfeb7d69a","study_id":"6197b3f67c2b5cd3b6d9596a","session_id":"6197b55a698a415f67ddc4c6","condition":"contingent","relevant_dimensions":["pattern","legs"],"bee_group":{"antennae":"X","wings":"X","pattern":"S","legs":"M"},"bonus":0.7800000000000008},{"rt":610.9000000059605,"stimulus":"bees-with-color/bee-A1DF.svg","response":0,"trial_type":"image-button-response","trial_index":150,"time_elapsed":312070,"internal_node_id":"0.0-6.0-0.14","subject_id":"612a3c3ad8b3173cfeb7d69a","study_id":"6197b3f67c2b5cd3b6d9596a","session_id":"6197b55a698a415f67ddc4c6","condition":"contingent","relevant_dimensions":["pattern","legs"],"bee_group":{"antennae":"X","wings":"X","pattern":"S","legs":"M"},"bonus":0.7800000000000008},{"rt":989.6000000014901,"stimulus":"bees-with-color/bee-B1SF.svg","response":1,"trial_type":"image-button-response","trial_index":151,"time_elapsed":313062,"internal_node_id":"0.0-6.0-0.15","subject_id":"612a3c3ad8b3173cfeb7d69a","study_id":"6197b3f67c2b5cd3b6d9596a","session_id":"6197b55a698a415f67ddc4c6","condition":"contingent","relevant_dimensions":["pattern","legs"],"bee_group":{"antennae":"X","wings":"X","pattern":"S","legs":"M"},"bonus":0.7800000000000008},{"rt":670.3999999985099,"stimulus":"bees-with-color/bee-A2DM.svg","response":0,"trial_type":"image-button-response","trial_index":152,"time_elapsed":313734,"internal_node_id":"0.0-6.0-0.16","subject_id":"612a3c3ad8b3173cfeb7d69a","study_id":"6197b3f67c2b5cd3b6d9596a","session_id":"6197b55a698a415f67ddc4c6","condition":"contingent","relevant_dimensions":["pattern","legs"],"bee_group":{"antennae":"X","wings":"X","pattern":"S","legs":"M"},"bonus":0.7800000000000008},{"rt":821.6000000014901,"stimulus":"bees-with-color/bee-A1SM.svg","response":1,"trial_type":"image-button-response","trial_index":153,"time_elapsed":314557,"internal_node_id":"0.0-6.0-0.17","subject_id":"612a3c3ad8b3173cfeb7d69a","study_id":"6197b3f67c2b5cd3b6d9596a","session_id":"6197b55a698a415f67ddc4c6","condition":"contingent","relevant_dimensions":["pattern","legs"],"bee_group":{"antennae":"X","wings":"X","pattern":"S","legs":"M"},"bonus":0.7800000000000008},{"rt":993.8000000044703,"stimulus":"bees-with-color/bee-B2SF.svg","response":1,"trial_type":"image-button-response","trial_index":154,"time_elapsed":315552,"internal_node_id":"0.0-6.0-0.18","subject_id":"612a3c3ad8b3173cfeb7d69a","study_id":"6197b3f67c2b5cd3b6d9596a","session_id":"6197b55a698a415f67ddc4c6","condition":"contingent","relevant_dimensions":["pattern","legs"],"bee_group":{"antennae":"X","wings":"X","pattern":"S","legs":"M"},"bonus":0.7800000000000008},{"rt":450.6000000014901,"stimulus":"bees-with-color/bee-B1SF.svg","response":1,"trial_type":"image-button-response","trial_index":155,"time_elapsed":316005,"internal_node_id":"0.0-6.0-0.19","subject_id":"612a3c3ad8b3173cfeb7d69a","study_id":"6197b3f67c2b5cd3b6d9596a","session_id":"6197b55a698a415f67ddc4c6","condition":"contingent","relevant_dimensions":["pattern","legs"],"bee_group":{"antennae":"X","wings":"X","pattern":"S","legs":"M"},"bonus":0.7800000000000008},{"rt":428.80000000447035,"stimulus":"bees-with-color/bee-B2SM.svg","response":1,"trial_type":"image-button-response","trial_index":156,"time_elapsed":316435,"internal_node_id":"0.0-6.0-0.20","subject_id":"612a3c3ad8b3173cfeb7d69a","study_id":"6197b3f67c2b5cd3b6d9596a","session_id":"6197b55a698a415f67ddc4c6","condition":"contingent","relevant_dimensions":["pattern","legs"],"bee_group":{"antennae":"X","wings":"X","pattern":"S","legs":"M"},"bonus":0.7800000000000008},{"rt":432.5,"stimulus":"bees-with-color/bee-A1SF.svg","response":1,"trial_type":"image-button-response","trial_index":157,"time_elapsed":316869,"internal_node_id":"0.0-6.0-0.21","subject_id":"612a3c3ad8b3173cfeb7d69a","study_id":"6197b3f67c2b5cd3b6d9596a","session_id":"6197b55a698a415f67ddc4c6","condition":"contingent","relevant_dimensions":["pattern","legs"],"bee_group":{"antennae":"X","wings":"X","pattern":"S","legs":"M"},"bonus":0.7800000000000008},{"rt":866.7999999970198,"stimulus":"bees-with-color/bee-A2DF.svg","response":0,"trial_type":"image-button-response","trial_index":158,"time_elapsed":317737,"internal_node_id":"0.0-6.0-0.22","subject_id":"612a3c3ad8b3173cfeb7d69a","study_id":"6197b3f67c2b5cd3b6d9596a","session_id":"6197b55a698a415f67ddc4c6","condition":"contingent","relevant_dimensions":["pattern","legs"],"bee_group":{"antennae":"X","wings":"X","pattern":"S","legs":"M"},"bonus":0.7800000000000008},{"rt":461.30000000447035,"stimulus":"bees-with-color/bee-B2DM.svg","response":0,"trial_type":"image-button-response","trial_index":159,"time_elapsed":318200,"internal_node_id":"0.0-6.0-0.23","subject_id":"612a3c3ad8b3173cfeb7d69a","study_id":"6197b3f67c2b5cd3b6d9596a","session_id":"6197b55a698a415f67ddc4c6","condition":"contingent","relevant_dimensions":["pattern","legs"],"bee_group":{"antennae":"X","wings":"X","pattern":"S","legs":"M"},"bonus":0.7800000000000008},{"rt":457.6000000014901,"stimulus":"bees-with-color/bee-A1DM.svg","response":0,"trial_type":"image-button-response","trial_index":160,"time_elapsed":318659,"internal_node_id":"0.0-6.0-0.24","subject_id":"612a3c3ad8b3173cfeb7d69a","study_id":"6197b3f67c2b5cd3b6d9596a","session_id":"6197b55a698a415f67ddc4c6","condition":"contingent","relevant_dimensions":["pattern","legs"],"bee_group":{"antennae":"X","wings":"X","pattern":"S","legs":"M"},"bonus":0.7800000000000008},{"rt":581.7000000029802,"stimulus":"bees-with-color/bee-B2DF.svg","response":0,"trial_type":"image-button-response","trial_index":161,"time_elapsed":319242,"internal_node_id":"0.0-6.0-0.25","subject_id":"612a3c3ad8b3173cfeb7d69a","study_id":"6197b3f67c2b5cd3b6d9596a","session_id":"6197b55a698a415f67ddc4c6","condition":"contingent","relevant_dimensions":["pattern","legs"],"bee_group":{"antennae":"X","wings":"X","pattern":"S","legs":"M"},"bonus":0.7800000000000008},{"rt":580.7000000029802,"stimulus":"bees-with-color/bee-B1DM.svg","response":0,"trial_type":"image-button-response","trial_index":162,"time_elapsed":319824,"internal_node_id":"0.0-6.0-0.26","subject_id":"612a3c3ad8b3173cfeb7d69a","study_id":"6197b3f67c2b5cd3b6d9596a","session_id":"6197b55a698a415f67ddc4c6","condition":"contingent","relevant_dimensions":["pattern","legs"],"bee_group":{"antennae":"X","wings":"X","pattern":"S","legs":"M"},"bonus":0.7800000000000008},{"rt":1036.7000000029802,"stimulus":"bees-with-color/bee-A2SF.svg","response":1,"trial_type":"image-button-response","trial_index":163,"time_elapsed":320862,"internal_node_id":"0.0-6.0-0.27","subject_id":"612a3c3ad8b3173cfeb7d69a","study_id":"6197b3f67c2b5cd3b6d9596a","session_id":"6197b55a698a415f67ddc4c6","condition":"contingent","relevant_dimensions":["pattern","legs"],"bee_group":{"antennae":"X","wings":"X","pattern":"S","legs":"M"},"bonus":0.7800000000000008},{"rt":479.19999999552965,"stimulus":"bees-with-color/bee-A2SM.svg","response":1,"trial_type":"image-button-response","trial_index":164,"time_elapsed":321344,"internal_node_id":"0.0-6.0-0.28","subject_id":"612a3c3ad8b3173cfeb7d69a","study_id":"6197b3f67c2b5cd3b6d9596a","session_id":"6197b55a698a415f67ddc4c6","condition":"contingent","relevant_dimensions":["pattern","le