[{"success":true,"trial_type":"fullscreen","trial_index":0,"time_elapsed":3584,"internal_node_id":"0.0-0.0","subject_id":"612ba6c594a6d54154a88ae7","study_id":"60edd13110225f80f9f3709b","session_id":"6196e449ca4a3c0da406d8bd","condition":"full-information","relevant_dimensions":["antennae","wings"],"bee_group":{"antennae":"A","wings":"2","pattern":"X","legs":"X"},"bonus":1.720000000000001},{"success":true,"timeout":false,"failed_images":[],"failed_audio":[],"failed_video":[],"trial_type":"preload","trial_index":1,"time_elapsed":6614,"internal_node_id":"0.0-1.0","subject_id":"612ba6c594a6d54154a88ae7","study_id":"60edd13110225f80f9f3709b","session_id":"6196e449ca4a3c0da406d8bd","condition":"full-information","relevant_dimensions":["antennae","wings"],"bee_group":{"antennae":"A","wings":"2","pattern":"X","legs":"X"},"bonus":1.720000000000001},{"rt":1775.6000000238419,"stimulus":"Welcome! Press any key to begin.","response":" ","trial_type":"html-keyboard-response","trial_index":2,"time_elapsed":8392,"internal_node_id":"0.0-2.0","subject_id":"612ba6c594a6d54154a88ae7","study_id":"60edd13110225f80f9f3709b","session_id":"6196e449ca4a3c0da406d8bd","condition":"full-information","relevant_dimensions":["antennae","wings"],"bee_group":{"antennae":"A","wings":"2","pattern":"X","legs":"X"},"bonus":1.720000000000001},{"view_history":[{"page_index":0,"viewing_time":3863.600000023842},{"page_index":1,"viewing_time":11137.300000011921},{"page_index":2,"viewing_time":8342.399999976158},{"page_index":3,"viewing_time":23930.80000001192},{"page_index":4,"viewing_time":9026.899999976158},{"page_index":5,"viewing_time":6490.199999988079},{"page_index":6,"viewing_time":14441.900000035763},{"page_index":7,"viewing_time":10301.5},{"page_index":8,"viewing_time":12518.899999976158},{"page_index":9,"viewing_time":5125},{"page_index":10,"viewing_time":5554.5},{"page_index":11,"viewing_time":25404.19999998808},{"page_index":12,"viewing_time":20163.600000023842},{"page_index":13,"viewing_time":14293.300000011921},{"page_index":14,"viewing_time":3066.300000011921}],"rt":173660.69999998808,"trial_type":"instructions","trial_index":3,"time_elapsed":182047,"internal_node_id":"0.0-3.0-0.0","subject_id":"612ba6c594a6d54154a88ae7","study_id":"60edd13110225f80f9f3709b","session_id":"6196e449ca4a3c0da406d8bd","condition":"full-information","relevant_dimensions":["antennae","wings"],"bee_group":{"antennae":"A","wings":"2","pattern":"X","legs":"X"},"bonus":1.720000000000001},{"rt":25896.900000035763,"response":{"Q0":["Two or six legs","Stripes or spots on body","Single or double wings","Antennae or no antennae"]},"question_order":[0],"trial_type":"survey-multi-select","trial_index":4,"time_elapsed":207949,"internal_node_id":"0.0-3.0-1.0","subject_id":"612ba6c594a6d54154a88ae7","study_id":"60edd13110225f80f9f3709b","session_id":"6196e449ca4a3c0da406d8bd","condition":"full-information","relevant_dimensions":["antennae","wings"],"bee_group":{"antennae":"A","wings":"2","pattern":"X","legs":"X"},"correct":true,"bonus":1.720000000000001},{"rt":24030.599999964237,"response":{"Q1":"No.","Q2":"Based on the four features of the bee.","Q3":"You learn if it was friendly or dangerous, but do not alter your bonus."},"question_order":[0,1,2],"trial_type":"survey-multi-choice","trial_index":5,"time_elapsed":231983,"internal_node_id":"0.0-3.0-2.0","subject_id":"612ba6c594a6d54154a88ae7","study_id":"60edd13110225f80f9f3709b","session_id":"6196e449ca4a3c0da406d8bd","condition":"full-information","relevant_dimensions":["antennae","wings"],"bee_group":{"antennae":"A","wings":"2","pattern":"X","legs":"X"},"correct":true,"bonus":1.720000000000001},{"rt":2236.800000011921,"stimulus":"<p>Congrats, you got everything right<br>When you're ready, click the button below to continue to the experiment.</p>","response":0,"trial_type":"html-button-response","trial_index":6,"time_elapsed":234226,"internal_node_id":"0.0-3.0-3.0","subject_id":"612ba6c594a6d54154a88ae7","study_id":"60edd13110225f80f9f3709b","session_id":"6196e449ca4a3c0da406d8bd","condition":"full-information","relevant_dimensions":["antennae","wings"],"bee_group":{"antennae":"A","wings":"2","pattern":"X","legs":"X"},"bonus":1.720000000000001},{"rt":49430.19999998808,"stimulus":"bees-with-color/bee-B1DF.svg","response":1,"trial_type":"image-button-response","trial_index":7,"time_elapsed":283661,"internal_node_id":"0.0-4.0-0.0","subject_id":"612ba6c594a6d54154a88ae7","study_id":"60edd13110225f80f9f3709b","session_id":"6196e449ca4a3c0da406d8bd","condition":"full-information","relevant_dimensions":["antennae","wings"],"bee_group":{"antennae":"A","wings":"2","pattern":"X","legs":"X"},"action":"avoid","summary":"bad-avoid","bonus":1.720000000000001},{"rt":12114.600000023842,"stimulus":"\n                    <p><b>Action: <em>avoid</em></b></p>\n                    <p>This is the bee that you just saw.</p>\n                    <img src=\"bees-with-color/bee-B1DF.svg\" width=\"200\">\n                    <p><span class=\"redText\">Bad choice,</span> the bee was friendly.<br>Your bonus pay is unchanged, and remains at $0.54.</p>\n            ","response":0,"trial_type":"html-button-response","trial_index":8,"time_elapsed":295780,"internal_node_id":"0.0-4.0-1.0","subject_id":"612ba6c594a6d54154a88ae7","study_id":"60edd13110225f80f9f3709b","session_id":"6196e449ca4a3c0da406d8bd","condition":"full-information","relevant_dimensions":["antennae","wings"],"bee_group":{"antennae":"A","wings":"2","pattern":"X","legs":"X"},"bonus":1.720000000000001},{"rt":18551.400000035763,"stimulus":"bees-with-color/bee-A2DF.svg","response":1,"trial_type":"image-button-response","trial_index":9,"time_elapsed":314335,"internal_node_id":"0.0-4.0-0.1","subject_id":"612ba6c594a6d54154a88ae7","study_id":"60edd13110225f80f9f3709b","session_id":"6196e449ca4a3c0da406d8bd","condition":"full-information","relevant_dimensions":["antennae","wings"],"bee_group":{"antennae":"A","wings":"2","pattern":"X","legs":"X"},"action":"avoid","summary":"good-avoid","bonus":1.720000000000001},{"rt":7981.100000023842,"stimulus":"\n                    <p><b>Action: <em>avoid</em></b></p>\n                    <p>This is the bee that you just saw.</p>\n                    <img src=\"bees-with-color/bee-A2DF.svg\" width=\"200\">\n                    <p><span class=\"greenText\">Good choice!</span>  This bee would have stung you.<br>Your bonus pay is unchanged, and remains at $0.54.</p>\n            ","response":0,"trial_type":"html-button-response","trial_index":10,"time_elapsed":322319,"internal_node_id":"0.0-4.0-1.1","subject_id":"612ba6c594a6d54154a88ae7","study_id":"60edd13110225f80f9f3709b","session_id":"6196e449ca4a3c0da406d8bd","condition":"full-information","relevant_dimensions":["antennae","wings"],"bee_group":{"antennae":"A","wings":"2","pattern":"X","legs":"X"},"bonus":1.720000000000001},{"rt":6176.300000011921,"stimulus":"bees-with-color/bee-A2DM.svg","response":1,"trial_type":"image-button-response","trial_index":11,"time_elapsed":328499,"internal_node_id":"0.0-4.0-0.2","subject_id":"612ba6c594a6d54154a88ae7","study_id":"60edd13110225f80f9f3709b","session_id":"6196e449ca4a3c0da406d8bd","condition":"full-information","relevant_dimensions":["antennae","wings"],"bee_group":{"antennae":"A","wings":"2","pattern":"X","legs":"X"},"action":"avoid","summary":"good-avoid","bonus":1.720000000000001},{"rt":9663.800000011921,"stimulus":"\n                    <p><b>Action: <em>avoid</em></b></p>\n                    <p>This is the bee that you just saw.</p>\n                    <img src=\"bees-with-color/bee-A2DM.svg\" width=\"200\">\n                    <p><span class=\"greenText\">Good choice!</span>  This bee would have stung you.<br>Your bonus pay is unchanged, and remains at $0.54.</p>\n            ","response":0,"trial_type":"html-button-response","trial_index":12,"time_elapsed":338165,"internal_node_id":"0.0-4.0-1.2","subject_id":"612ba6c594a6d54154a88ae7","study_id":"60edd13110225f80f9f3709b","session_id":"6196e449ca4a3c0da406d8bd","condition":"full-information","relevant_dimensions":["antennae","wings"],"bee_group":{"antennae":"A","wings":"2","pattern":"X","legs":"X"},"bonus":1.720000000000001},{"rt":15520.700000047684,"stimulus":"bees-with-color/bee-B1SM.svg","response":1,"trial_type":"image-button-response","trial_index":13,"time_elapsed":353689,"internal_node_id":"0.0-4.0-0.3","subject_id":"612ba6c594a6d54154a88ae7","study_id":"60edd13110225f80f9f3709b","session_id":"6196e449ca4a3c0da406d8bd","condition":"full-information","relevant_dimensions":["antennae","wings"],"bee_group":{"antennae":"A","wings":"2","pattern":"X","legs":"X"},"action":"avoid","summary":"bad-avoid","bonus":1.720000000000001},{"rt":6567.300000011921,"stimulus":"\n                    <p><b>Action: <em>avoid</em></b></p>\n                    <p>This is the bee that you just saw.</p>\n                    <img src=\"bees-with-color/bee-B1SM.svg\" width=\"200\">\n                    <p><span class=\"redText\">Bad choice,</span> the bee was friendly.<br>Your bonus pay is unchanged, and remains at $0.54.</p>\n            ","response":0,"trial_type":"html-button-response","trial_index":14,"time_elapsed":360259,"internal_node_id":"0.0-4.0-1.3","subject_id":"612ba6c594a6d54154a88ae7","study_id":"60edd13110225f80f9f3709b","session_id":"6196e449ca4a3c0da406d8bd","condition":"full-information","relevant_dimensions":["antennae","wings"],"bee_group":{"antennae":"A","wings":"2","pattern":"X","legs":"X"},"bonus":1.720000000000001},{"rt":32924.40000003576,"stimulus":"bees-with-color/bee-A1DM.svg","response":1,"trial_type":"image-button-response","trial_index":15,"time_elapsed":393186,"internal_node_id":"0.0-4.0-0.4","subject_id":"612ba6c594a6d54154a88ae7","study_id":"60edd13110225f80f9f3709b","session_id":"6196e449ca4a3c0da406d8bd","condition":"full-information","relevant_dimensions":["antennae","wings"],"bee_group":{"antennae":"A","wings":"2","pattern":"X","legs":"X"},"action":"avoid","summary":"bad-avoid","bonus":1.720000000000001},{"rt":25438.400000035763,"stimulus":"\n                    <p><b>Action: <em>avoid</em></b></p>\n                    <p>This is the bee that you just saw.</p>\n                    <img src=\"bees-with-color/bee-A1DM.svg\" width=\"200\">\n                    <p><span class=\"redText\">Bad choice,</span> the bee was friendly.<br>Your bonus pay is unchanged, and remains at $0.54.</p>\n            ","response":0,"trial_type":"html-button-response","trial_index":16,"time_elapsed":418625,"internal_node_id":"0.0-4.0-1.4","subject_id":"612ba6c594a6d54154a88ae7","study_id":"60edd13110225f80f9f3709b","session_id":"6196e449ca4a3c0da406d8bd","condition":"full-information","relevant_dimensions":["antennae","wings"],"bee_group":{"antennae":"A","wings":"2","pattern":"X","legs":"X"},"bonus":1.720000000000001},{"rt":2915.400000035763,"stimulus":"bees-with-color/bee-B2DF.svg","response":1,"trial_type":"image-button-response","trial_index":17,"time_elapsed":421544,"internal_node_id":"0.0-4.0-0.5","subject_id":"612ba6c594a6d54154a88ae7","study_id":"60edd13110225f80f9f3709b","session_id":"6196e449ca4a3c0da406d8bd","condition":"full-information","relevant_dimensions":["antennae","wings"],"bee_group":{"antennae":"A","wings":"2","pattern":"X","legs":"X"},"action":"avoid","summary":"bad-avoid","bonus":1.720000000000001},{"rt":18554.5,"stimulus":"\n                    <p><b>Action: <em>avoid</em></b></p>\n                    <p>This is the bee that you just saw.</p>\n                    <img src=\"bees-with-color/bee-B2DF.svg\" width=\"200\">\n                    <p><span class=\"redText\">Bad choice,</span> the bee was friendly.<br>Your bonus pay is unchanged, and remains at $0.54.</p>\n            ","response":0,"trial_type":"html-button-response","trial_index":18,"time_elapsed":440101,"internal_node_id":"0.0-4.0-1.5","subject_id":"612ba6c594a6d54154a88ae7","study_id":"60edd13110225f80f9f3709b","session_id":"6196e449ca4a3c0da406d8bd","condition":"full-information","relevant_dimensions":["antennae","wings"],"bee_group":{"antennae":"A","wings":"2","pattern":"X","legs":"X"},"bonus":1.720000000000001},{"rt":51671,"stimulus":"bees-with-color/bee-B1SF.svg","response":0,"trial_type":"image-button-response","trial_index":19,"time_elapsed":491780,"internal_node_id":"0.0-4.0-0.6","subject_id":"612ba6c594a6d54154a88ae7","study_id":"60edd13110225f80f9f3709b","session_id":"6196e449ca4a3c0da406d8bd","condition":"full-information","relevant_dimensions":["antennae","wings"],"bee_group":{"antennae":"A","wings":"2","pattern":"X","legs":"X"},"action":"harvest","summary":"good-harvest","bonus":1.720000000000001},{"rt":5610.300000011921,"stimulus":"\n                    <p><b>Action: <em>harvest</em></b></p>\n                    <p>This is the bee that you just saw.</p>\n                    <img src=\"bees-with-color/bee-B1SF.svg\" width=\"200\">\n                    <p><span class=\"greenText\"><b>Successful harvest!</b></span><br>Your pay has increased by $0.02. Your bonus pay is now $0.56.</p>\n            ","response":0,"trial_type":"html-button-response","trial_index":20,"time_elapsed":497393,"internal_node_id":"0.0-4.0-1.6","subject_id":"612ba6c594a6d54154a88ae7","study_id":"60edd13110225f80f9f3709b","session_id":"6196e449ca4a3c0da406d8bd","condition":"full-information","relevant_dimensions":["antennae","wings"],"bee_group":{"antennae":"A","wings":"2","pattern":"X","legs":"X"},"bonus":1.720000000000001},{"rt":4655.099999964237,"stimulus":"bees-with-color/bee-B2DM.svg","response":1,"trial_type":"image-button-response","trial_index":21,"time_elapsed":502051,"internal_node_id":"0.0-4.0-0.7","subject_id":"612ba6c594a6d54154a88ae7","study_id":"60edd13110225f80f9f3709b","session_id":"6196e449ca4a3c0da406d8bd","condition":"full-information","relevant_dimensions":["antennae","wings"],"bee_group":{"antennae":"A","wings":"2","pattern":"X","legs":"X"},"action":"avoid","summary":"bad-avoid","bonus":1.720000000000001},{"rt":20142.400000035763,"stimulus":"\n                    <p><b>Action: <em>avoid</em></b></p>\n                    <p>This is the bee that you just saw.</p>\n                    <img src=\"bees-with-color/bee-B2DM.svg\" width=\"200\">\n                    <p><span class=\"redText\">Bad choice,</span> the bee was friendly.<br>Your bonus pay is unchanged, and remains at $0.56.</p>\n            ","response":0,"trial_type":"html-button-response","trial_index":22,"time_elapsed":522193,"internal_node_id":"0.0-4.0-1.7","subject_id":"612ba6c594a6d54154a88ae7","study_id":"60edd13110225f80f9f3709b","session_id":"6196e449ca4a3c0da406d8bd","condition":"full-information","relevant_dimensions":["antennae","wings"],"bee_group":{"antennae":"A","wings":"2","pattern":"X","legs":"X"},"bonus":1.720000000000001},{"rt":4158.600000023842,"stimulus":"bees-with-color/bee-A2SF.svg","response":1,"trial_type":"image-button-response","trial_index":23,"time_elapsed":526353,"internal_node_id":"0.0-4.0-0.8","subject_id":"612ba6c594a6d54154a88ae7","study_id":"60edd13110225f80f9f3709b","session_id":"6196e449ca4a3c0da406d8bd","condition":"full-information","relevant_dimensions":["antennae","wings"],"bee_group":{"antennae":"A","wings":"2","pattern":"X","legs":"X"},"action":"avoid","summary":"good-avoid","bonus":1.720000000000001},{"rt":1537,"stimulus":"\n                    <p><b>Action: <em>avoid</em></b></p>\n                    <p>This is the bee that you just saw.</p>\n                    <img src=\"bees-with-color/bee-A2SF.svg\" width=\"200\">\n                    <p><span class=\"greenText\">Good choice!</span>  This bee would have stung you.<br>Your bonus pay is unchanged, and remains at $0.56.</p>\n            ","response":0,"trial_type":"html-button-response","trial_index":24,"time_elapsed":527892,"internal_node_id":"0.0-4.0-1.8","subject_id":"612ba6c594a6d54154a88ae7","study_id":"60edd13110225f80f9f3709b","session_id":"6196e449ca4a3c0da406d8bd","condition":"full-information","relevant_dimensions":["antennae","wings"],"bee_group":{"antennae":"A","wings":"2","pattern":"X","legs":"X"},"bonus":1.720000000000001},{"rt":11544.400000035763,"stimulus":"bees-with-color/bee-A2SM.svg","response":1,"trial_type":"image-button-response","trial_index":25,"time_elapsed":539438,"internal_node_id":"0.0-4.0-0.9","subject_id":"612ba6c594a6d54154a88ae7","study_id":"60edd13110225f80f9f3709b","session_id":"6196e449ca4a3c0da406d8bd","condition":"full-information","relevant_dimensions":["antennae","wings"],"bee_group":{"antennae":"A","wings":"2","pattern":"X","legs":"X"},"action":"avoid","summary":"good-avoid","bonus":1.720000000000001},{"rt":1698.199999988079,"stimulus":"\n                    <p><b>Action: <em>avoid</em></b></p>\n                    <p>This is the bee that you just saw.</p>\n                    <img src=\"bees-with-color/bee-A2SM.svg\" width=\"200\">\n                    <p><span class=\"greenText\">Good choice!</span>  This bee would have stung you.<br>Your bonus pay is unchanged, and remains at $0.56.</p>\n            ","response":0,"trial_type":"html-button-response","trial_index":26,"time_elapsed":541139,"internal_node_id":"0.0-4.0-1.9","subject_id":"612ba6c594a6d54154a88ae7","study_id":"60edd13110225f80f9f3709b","session_id":"6196e449ca4a3c0da406d8bd","condition":"full-information","relevant_dimensions":["antennae","wings"],"bee_group":{"antennae":"A","wings":"2","pattern":"X","legs":"X"},"bonus":1.720000000000001},{"rt":6812.5,"stimulus":"bees-with-color/bee-B2SF.svg","response":1,"trial_type":"image-button-response","trial_index":27,"time_elapsed":547954,"internal_node_id":"0.0-4.0-0.10","subject_id":"612ba6c594a6d54154a88ae7","study_id":"60edd13110225f80f9f3709b","session_id":"6196e449ca4a3c0da406d8bd","condition":"full-information","relevant_dimensions":["antennae","wings"],"bee_group":{"antennae":"A","wings":"2","pattern":"X","legs":"X"},"action":"avoid","summary":"bad-avoid","bonus":1.720000000000001},{"rt":6333,"stimulus":"\n                    <p><b>Action: <em>avoid</em></b></p>\n                    <p>This is the bee that you just saw.</p>\n                    <img src=\"bees-with-color/bee-B2SF.svg\" width=\"200\">\n                    <p><span class=\"redText\">Bad choice,</span> the bee was friendly.<br>Your bonus pay is unchanged, and remains at $0.56.</p>\n            ","response":0,"trial_type":"html-button-response","trial_index":28,"time_elapsed":554289,"internal_node_id":"0.0-4.0-1.10","subject_id":"612ba6c594a6d54154a88ae7","study_id":"60edd13110225f80f9f3709b","session_id":"6196e449ca4a3c0da406d8bd","condition":"full-information","relevant_dimensions":["antennae","wings"],"bee_group":{"antennae":"A","wings":"2","pattern":"X","legs":"X"},"bonus":1.720000000000001},{"rt":1682,"stimulus":"bees-with-color/bee-A1SM.svg","response":1,"trial_type":"image-button-response","trial_index":29,"time_elapsed":555973,"internal_node_id":"0.0-4.0-0.11","subject_id":"612ba6c594a6d54154a88ae7","study_id":"60edd13110225f80f9f3709b","session_id":"6196e449ca4a3c0da406d8bd","condition":"full-information","relevant_dimensions":["antennae","wings"],"bee_group":{"antennae":"A","wings":"2","pattern":"X","legs":"X"},"action":"avoid","summary":"bad-avoid","bonus":1.720000000000001},{"rt":38824.09999996424,"stimulus":"\n                    <p><b>Action: <em>avoid</em></b></p>\n                    <p>This is the bee that you just saw.</p>\n                    <img src=\"bees-with-color/bee-A1SM.svg\" width=\"200\">\n                    <p><span class=\"redText\">Bad choice,</span> the bee was friendly.<br>Your bonus pay is unchanged, and remains at $0.56.</p>\n            ","response":0,"trial_type":"html-button-response","trial_index":30,"time_elapsed":594795,"internal_node_id":"0.0-4.0-1.11","subject_id":"612ba6c594a6d54154a88ae7","study_id":"60edd13110225f80f9f3709b","session_id":"6196e449ca4a3c0da406d8bd","condition":"full-information","relevant_dimensions":["antennae","wings"],"bee_group":{"antennae":"A","wings":"2","pattern":"X","legs":"X"},"bonus":1.720000000000001},{"rt":2787.600000023842,"stimulus":"bees-with-color/bee-A1DF.svg","response":1,"trial_type":"image-button-response","trial_index":31,"time_elapsed":597585,"internal_node_id":"0.0-4.0-0.12","subject_id":"612ba6c594a6d54154a88ae7","study_id":"60edd13110225f80f9f3709b","session_id":"6196e449ca4a3c0da406d8bd","condition":"full-information","relevant_dimensions":["antennae","wings"],"bee_group":{"antennae":"A","wings":"2","pattern":"X","legs":"X"},"action":"avoid","summary":"bad-avoid","bonus":1.720000000000001},{"rt":6725.199999988079,"stimulus":"\n                    <p><b>Action: <em>avoid</em></b></p>\n                    <p>This is the bee that you just saw.</p>\n                    <img src=\"bees-with-color/bee-A1DF.svg\" width=\"200\">\n                    <p><span class=\"redText\">Bad choice,</span> the bee was friendly.<br>Your bonus pay is unchanged, and remains at $0.56.</p>\n            ","response":0,"trial_type":"html-button-response","trial_index":32,"time_elapsed":604313,"internal_node_id":"0.0-4.0-1.12","subject_id":"612ba6c594a6d54154a88ae7","study_id":"60edd13110225f80f9f3709b","session_id":"6196e449ca4a3c0da406d8bd","condition":"full-information","relevant_dimensions":["antennae","wings"],"bee_group":{"antennae":"A","wings":"2","pattern":"X","legs":"X"},"bonus":1.720000000000001},{"rt":5734.900000035763,"stimulus":"bees-with-color/bee-B1DM.svg","response":1,"trial_type":"image-button-response","trial_index":33,"time_elapsed":610051,"internal_node_id":"0.0-4.0-0.13","subject_id":"612ba6c594a6d54154a88ae7","study_id":"60edd13110225f80f9f3709b","session_id":"6196e449ca4a3c0da406d8bd","condition":"full-information","relevant_dimensions":["antennae","wings"],"bee_group":{"antennae":"A","wings":"2","pattern":"X","legs":"X"},"action":"avoid","summary":"bad-avoid","bonus":1.720000000000001},{"rt":3163.5,"stimulus":"\n                    <p><b>Action: <em>avoid</em></b></p>\n                    <p>This is the bee that you just saw.</p>\n                    <img src=\"bees-with-color/bee-B1DM.svg\" width=\"200\">\n                    <p><span class=\"redText\">Bad choice,</span> the bee was friendly.<br>Your bonus pay is unchanged, and remains at $0.56.</p>\n            ","response":0,"trial_type":"html-button-response","trial_index":34,"time_elapsed":613217,"internal_node_id":"0.0-4.0-1.13","subject_id":"612ba6c594a6d54154a88ae7","study_id":"60edd13110225f80f9f3709b","session_id":"6196e449ca4a3c0da406d8bd","condition":"full-information","relevant_dimensions":["antennae","wings"],"bee_group":{"antennae":"A","wings":"2","pattern":"X","legs":"X"},"bonus":1.720000000000001},{"rt":1942.3999999761581,"stimulus":"bees-with-color/bee-B2SM.svg","response":1,"trial_type":"image-button-response","trial_index":35,"time_elapsed":615163,"internal_node_id":"0.0-4.0-0.14","subject_id":"612ba6c594a6d54154a88ae7","study_id":"60edd13110225f80f9f3709b","session_id":"6196e449ca4a3c0da406d8bd","condition":"full-information","relevant_dimensions":["antennae","wings"],"bee_group":{"antennae":"A","wings":"2","pattern":"X","legs":"X"},"action":"avoid","summary":"bad-avoid","bonus":1.720000000000001},{"rt":92026.5,"stimulus":"\n                    <p><b>Action: <em>avoid</em></b></p>\n                    <p>This is the bee that you just saw.</p>\n                    <img src=\"bees-with-color/bee-B2SM.svg\" width=\"200\">\n                    <p><span class=\"redText\">Bad choice,</span> the bee was friendly.<br>Your bonus pay is unchanged, and remains at $0.56.</p>\n            ","response":0,"trial_type":"html-button-response","trial_index":36,"time_elapsed":707200,"internal_node_id":"0.0-4.0-1.14","subject_id":"612ba6c594a6d54154a88ae7","study_id":"60edd13110225f80f9f3709b","session_id":"6196e449ca4a3c0da406d8bd","condition":"full-information","relevant_dimensions":["antennae","wings"],"bee_group":{"antennae":"A","wings":"2","pattern":"X","legs":"X"},"bonus":1.720000000000001},{"rt":6304.5,"stimulus":"bees-with-color/bee-A1SF.svg","response":1,"trial_type":"image-button-response","trial_index":37,"time_elapsed":713507,"internal_node_id":"0.0-4.0-0.15","subject_id":"612ba6c594a6d54154a88ae7","study_id":"60edd13110225f80f9f3709b","session_id":"6196e449ca4a3c0da406d8bd","condition":"full-information","relevant_dimensions":["antennae","wings"],"bee_group":{"antennae":"A","wings":"2","pattern":"X","legs":"X"},"action":"avoid","summary":"bad-avoid","bonus":1.720000000000001},{"rt":7686.699999988079,"stimulus":"\n                    <p><b>Action: <em>avoid</em></b></p>\n                    <p>This is the bee that you just saw.</p>\n                    <img src=\"bees-with-color/bee-A1SF.svg\" width=\"200\">\n                    <p><span class=\"redText\">Bad choice,</span> the bee was friendly.<br>Your bonus pay is unchanged, and remains at $0.56.</p>\n            ","response":0,"trial_type":"html-button-response","trial_index":38,"time_elapsed":721195,"internal_node_id":"0.0-4.0-1.15","subject_id":"612ba6c594a6d54154a88ae7","study_id":"60edd13110225f80f9f3709b","session_id":"6196e449ca4a3c0da406d8bd","condition":"full-information","relevant_dimensions":["antennae","wings"],"bee_group":{"antennae":"A","wings":"2","pattern":"X","legs":"X"},"bonus":1.720000000000001},{"rt":8696.800000011921,"stimulus":"bees-with-color/bee-A1SF.svg","response":0,"trial_type":"image-button-response","trial_index":39,"time_elapsed":729894,"internal_node_id":"0.0-4.0-0.16","subject_id":"612ba6c594a6d54154a88ae7","study_id":"60edd13110225f80f9f3709b","session_id":"6196e449ca4a3c0da406d8bd","condition":"full-information","relevant_dimensions":["antennae","wings"],"bee_group":{"antennae":"A","wings":"2","pattern":"X","legs":"X"},"action":"harvest","summary":"good-harvest","bonus":1.720000000000001},{"rt":3565.199999988079,"stimulus":"\n                    <p><b>Action: <em>harvest</em></b></p>\n                    <p>This is the bee that you just saw.</p>\n                    <img src=\"bees-with-color/bee-A1SF.svg\" width=\"200\">\n                    <p><span class=\"greenText\"><b>Successful harvest!</b></span><br>Your pay has increased by $0.02. Your bonus pay is now $0.58.</p>\n            ","response":0,"trial_type":"html-button-response","trial_index":40,"time_elapsed":733461,"internal_node_id":"0.0-4.0-1.16","subject_id":"612ba6c594a6d54154a88ae7","study_id":"60edd13110225f80f9f3709b","session_id":"6196e449ca4a3c0da406d8bd","condition":"full-information","relevant_dimensions":["antennae","wings"],"bee_group":{"antennae":"A","wings":"2","pattern":"X","legs":"X"},"bonus":1.720000000000001},{"rt":16834.19999998808,"stimulus":"bees-with-color/bee-A2DM.svg","response":1,"trial_type":"image-button-response","trial_index":41,"time_elapsed":750298,"internal_node_id":"0.0-4.0-0.17","subject_id":"612ba6c594a6d54154a88ae7","study_id":"60edd13110225f80f9f3709b","session_id":"6196e449ca4a3c0da406d8bd","condition":"full-information","relevant_dimensions":["antennae","wings"],"bee_group":{"antennae":"A","wings":"2","pattern":"X","legs":"X"},"action":"avoid","summary":"good-avoid","bonus":1.720000000000001},{"rt":9766,"stimulus":"\n                    <p><b>Action: <em>avoid</em></b></p>\n                    <p>This is the bee that you just saw.</p>\n                    <img src=\"bees-with-color/bee-A2DM.svg\" width=\"200\">\n                    <p><span class=\"greenText\">Good choice!</span>  This bee would have stung you.<br>Your bonus pay is unchanged, and remains at $0.58.</p>\n            ","response":0,"trial_type":"html-button-response","trial_index":42,"time_elapsed":760060,"internal_node_id":"0.0-4.0-1.17","subject_id":"612ba6c594a6d54154a88ae7","study_id":"60edd13110225f80f9f3709b","session_id":"6196e449ca4a3c0da406d8bd","condition":"full-information","relevant_dimensions":["antennae","wings"],"bee_group":{"antennae":"A","wings":"2","pattern":"X","legs":"X"},"bonus":1.720000000000001},{"rt":50204.19999998808,"stimulus":"bees-with-color/bee-B1SM.svg","response":0,"trial_type":"image-button-response","trial_index":43,"time_elapsed":810268,"internal_node_id":"0.0-4.0-0.18","subject_id":"612ba6c594a6d54154a88ae7","study_id":"60edd13110225f80f9f3709b","session_id":"6196e449ca4a3c0da406d8bd","condition":"full-information","relevant_dimensions":["antennae","wings"],"bee_group":{"antennae":"A","wings":"2","pattern":"X","legs":"X"},"action":"harvest","summary":"good-harvest","bonus":1.720000000000001},{"rt":6613.300000011921,"stimulus":"\n                    <p><b>Action: <em>harvest</em></b></p>\n                    <p>This is the bee that you just saw.</p>\n                    <img src=\"bees-with-color/bee-B1SM.svg\" width=\"200\">\n                    <p><span class=\"greenText\"><b>Successful harvest!</b></span><br>Your pay has increased by $0.02. Your bonus pay is now $0.60.</p>\n            ","response":0,"trial_type":"html-button-response","trial_index":44,"time_elapsed":816886,"internal_node_id":"0.0-4.0-1.18","subject_id":"612ba6c594a6d54154a88ae7","study_id":"60edd13110225f80f9f3709b","session_id":"6196e449ca4a3c0da406d8bd","condition":"full-information","relevant_dimensions":["antennae","wings"],"bee_group":{"antennae":"A","wings":"2","pattern":"X","legs":"X"},"bonus":1.720000000000001},{"rt":24184.80000001192,"stimulus":"bees-with-color/bee-A1SM.svg","response":0,"trial_type":"image-button-response","trial_index":45,"time_elapsed":841074,"internal_node_id":"0.0-4.0-0.19","subject_id":"612ba6c594a6d54154a88ae7","study_id":"60edd13110225f80f9f3709b","session_id":"6196e449ca4a3c0da406d8bd","condition":"full-information","relevant_dimensions":["antennae","wings"],"bee_group":{"antennae":"A","wings":"2","pattern":"X","legs":"X"},"action":"harvest","summary":"good-harvest","bonus":1.720000000000001},{"rt":3272,"stimulus":"\n                    <p><b>Action: <em>harvest</em></b></p>\n                    <p>This is the bee that you just saw.</p>\n                    <img src=\"bees-with-color/bee-A1SM.svg\" width=\"200\">\n                    <p><span class=\"greenText\"><b>Successful harvest!</b></span><br>Your pay has increased by $0.02. Your bonus pay is now $0.62.</p>\n            ","response":0,"trial_type":"html-button-response","trial_index":46,"time_elapsed":844350,"internal_node_id":"0.0-4.0-1.19","subject_id":"612ba6c594a6d54154a88ae7","study_id":"60edd13110225f80f9f3709b","session_id":"6196e449ca4a3c0da406d8bd","condition":"full-information","relevant_dimensions":["antennae","wings"],"bee_group":{"antennae":"A","wings":"2","pattern":"X","legs":"X"},"bonus":1.720000000000001},{"rt":11829.400000035763,"stimulus":"bees-with-color/bee-A2DF.svg","response":1,"trial_type":"image-button-response","trial_index":47,"time_elapsed":856181,"internal_node_id":"0.0-4.0-0.20","subject_id":"612ba6c594a6d54154a88ae7","study_id":"60edd13110225f80f9f3709b","session_id":"6196e449ca4a3c0da406d8bd","condition":"full-information","relevant_dimensions":["antennae","wings"],"bee_group":{"antennae":"A","wings":"2","pattern":"X","legs":"X"},"action":"avoid","summary":"good-avoid","bonus":1.720000000000001},{"rt":1621.300000011921,"stimulus":"\n                    <p><b>Action: <em>avoid</em></b></p>\n                    <p>This is the bee that you just saw.</p>\n                    <img src=\"bees-with-color/bee-A2DF.svg\" width=\"200\">\n                    <p><span class=\"greenText\">Good choice!</span>  This bee would have stung you.<br>Your bonus pay is unchanged, and remains at $0.62.</p>\n            ","response":0,"trial_type":"html-button-response","trial_index":48,"time_elapsed":857804,"internal_node_id":"0.0-4.0-1.20","subject_id":"612ba6c594a6d54154a88ae7","study_id":"60edd13110225f80f9f3709b","session_id":"6196e449ca4a3c0da406d8bd","condition":"full-information","relevant_dimensions":["antennae","wings"],"bee_group":{"antennae":"A","wings":"2","pattern":"X","legs":"X"},"bonus":1.720000000000001},{"rt":16093.199999988079,"stimulus":"bees-with-color/bee-B2SF.svg","response":0,"trial_type":"image-button-response","trial_index":49,"time_elapsed":873900,"internal_node_id":"0.0-4.0-0.21","subject_id":"612ba6c594a6d54154a88ae7","study_id":"60edd13110225f80f9f3709b","session_id":"6196e449ca4a3c0da406d8bd","condition":"full-information","relevant_dimensions":["antennae","wings"],"bee_group":{"antennae":"A","wings":"2","pattern":"X","legs":"X"},"action":"harvest","summary":"good-harvest","bonus":1.720000000000001},{"rt":1831.800000011921,"stimulus":"\n                    <p><b>Action: <em>harvest</em></b></p>\n                    <p>This is the bee that you just saw.</p>\n                    <img src=\"bees-with-color/bee-B2SF.svg\" width=\"200\">\n                    <p><span class=\"greenText\"><b>Successful harvest!</b></span><br>Your pay has increased by $0.02. Your bonus pay is now $0.64.</p>\n            ","response":0,"trial_type":"html-button-response","trial_index":50,"time_elapsed":875739,"internal_node_id":"0.0-4.0-1.21","subject_id":"612ba6c594a6d54154a88ae7","study_id":"60edd13110225f80f9f3709b","session_id":"6196e449ca4a3c0da406d8bd","condition":"full-information","relevant_dimensions":["antennae","wings"],"bee_group":{"antennae":"A","wings":"2","pattern":"X","legs":"X"},"bonus":1.720000000000001},{"rt":13265.199999988079,"stimulus":"bees-with-color/bee-B2SM.svg","response":0,"trial_type":"image-button-response","trial_index":51,"time_elapsed":889007,"internal_node_id":"0.0-4.0-0.22","subject_id":"612ba6c594a6d54154a88ae7","study_id":"60edd13110225f80f9f3709b","session_id":"6196e449ca4a3c0da406d8bd","condition":"full-information","relevant_dimensions":["antennae","wings"],"bee_group":{"antennae":"A","wings":"2","pattern":"X","legs":"X"},"action":"harvest","summary":"good-harvest","bonus":1.720000000000001},{"rt":2082.5,"stimulus":"\n                    <p><b>Action: <em>harvest</em></b></p>\n                    <p>This is the bee that you just saw.</p>\n                    <img src=\"bees-with-color/bee-B2SM.svg\" width=\"200\">\n                    <p><span class=\"greenText\"><b>Successful harvest!</b></span><br>Your pay has increased by $0.02. Your bonus pay is now $0.66.</p>\n            ","response":0,"trial_type":"html-button-response","trial_index":52,"time_elapsed":891093,"internal_node_id":"0.0-4.0-1.22","subject_id":"612ba6c594a6d54154a88ae7","study_id":"60edd13110225f80f9f3709b","session_id":"6196e449ca4a3c0da406d8bd","condition":"full-information","relevant_dimensions":["antennae","wings"],"bee_group":{"antennae":"A","wings":"2","pattern":"X","legs":"X"},"bonus":1.720000000000001},{"rt":15380.599999964237,"stimulus":"bees-with-color/bee-A1DF.svg","response":0,"trial_type":"image-button-response","trial_index":53,"time_elapsed":906477,"internal_node_id":"0.0-4.0-0.23","subject_id":"612ba6c594a6d54154a88ae7","study_id":"60edd13110225f80f9f3709b","session_id":"6196e449ca4a3c0da406d8bd","condition":"full-information","relevant_dimensions":["antennae","wings"],"bee_group":{"antennae":"A","wings":"2","pattern":"X","legs":"X"},"action":"harvest","summary":"good-harvest","bonus":1.720000000000001},{"rt":1427.8999999761581,"stimulus":"\n                    <p><b>Action: <em>harvest</em></b></p>\n                    <p>This is the bee that you just saw.</p>\n                    <img src=\"bees-with-color/bee-A1DF.svg\" width=\"200\">\n                    <p><span class=\"greenText\"><b>Successful harvest!</b></span><br>Your pay has increased by $0.02. Your bonus pay is now $0.68.</p>\n            ","response":0,"trial_type":"html-button-response","trial_index":54,"time_elapsed":907907,"internal_node_id":"0.0-4.0-1.23","subject_id":"612ba6c594a6d54154a88ae7","study_id":"60edd13110225f80f9f3709b","session_id":"6196e449ca4a3c0da406d8bd","condition":"full-information","relevant_dimensions":["antennae","wings"],"bee_group":{"antennae":"A","wings":"2","pattern":"X","legs":"X"},"bonus":1.720000000000001},{"rt":39325.40000003576,"stimulus":"bees-with-color/bee-B1SF.svg","response":1,"trial_type":"image-button-response","trial_index":55,"time_elapsed":947223,"internal_node_id":"0.0-4.0-0.24","subject_id":"612ba6c594a6d54154a88ae7","study_id":"60edd13110225f80f9f3709b","session_id":"6196e449ca4a3c0da406d8bd","condition":"full-information","relevant_dimensions":["antennae","wings"],"bee_group":{"antennae":"A","wings":"2","pattern":"X","legs":"X"},"action":"avoid","summary":"bad-avoid","bonus":1.720000000000001},{"rt":11712.699999988079,"stimulus":"\n                    <p><b>Action: <em>avoid</em></b></p>\n                    <p>This is the bee that you just saw.</p>\n                    <img src=\"bees-with-color/bee-B1SF.svg\" width=\"200\">\n                    <p><span class=\"redText\">Bad choice,</span> the bee was friendly.<br>Your bonus pay is unchanged, and remains at $0.68.</p>\n            ","response":0,"trial_type":"html-button-response","trial_index":56,"time_elapsed":958938,"internal_node_id":"0.0-4.0-1.24","subject_id":"612ba6c594a6d54154a88ae7","study_id":"60edd13110225f80f9f3709b","session_id":"6196e449ca4a3c0da406d8bd","condition":"full-information","relevant_dimensions":["antennae","wings"],"bee_group":{"antennae":"A","wings":"2","pattern":"X","legs":"X"},"bonus":1.720000000000001},{"rt":21873.400000035763,"stimulus":"bees-with-color/bee-B2DM.svg","response":0,"trial_type":"image-button-response","trial_index":57,"time_elapsed":980814,"internal_node_id":"0.0-4.0-0.25","subject_id":"612ba6c594a6d54154a88ae7","study_id":"60edd13110225f80f9f3709b","session_id":"6196e449ca4a3c0da406d8bd","condition":"full-information","relevant_dimensions":["antennae","wings"],"bee_group":{"antennae":"A","wings":"2","pattern":"X","legs":"X"},"action":"harvest","summary":"good-harvest","bonus":1.720000000000001},{"rt":1233.800000011921,"stimulus":"\n                    <p><b>Action: <em>harvest</em></b></p>\n                    <p>This is the bee that you just saw.</p>\n                    <img src=\"bees-with-color/bee-B2DM.svg\" width=\"200\">\n                    <p><span class=\"greenText\"><b>Successful harvest!</b></span><br>Your pay has increased by $0.02. Your bonus pay is now $0.70.</p>\n            ","response":0,"trial_type":"html-button-response","trial_index":58,"time_elapsed":982050,"internal_node_id":"0.0-4.0-1.25","subject_id":"612ba6c594a6d54154a88ae7","study_id":"60edd13110225f80f9f3709b","session_id":"6196e449ca4a3c0da406d8bd","condition":"full-information","relevant_dimensions":["antennae","wings"],"bee_group":{"antennae":"A","wings":"2","pattern":"X","legs":"X"},"bonus":1.720000000000001},{"rt":41796.69999998808,"stimulus":"bees-with-color/bee-A2SM.svg","response":1,"trial_type":"image-button-response","trial_index":59,"time_elapsed":1023851,"internal_node_id":"0.0-4.0-0.26","subject_id":"612ba6c594a6d54154a88ae7","study_id":"60edd13110225f80f9f3709b","session_id":"6196e449ca4a3c0da406d8bd","condition":"full-information","relevant_dimensions":["antennae","wings"],"bee_group":{"antennae":"A","wings":"2","pattern":"X","legs":"X"},"action":"avoid","summary":"good-avoid","bonus":1.720000000000001},{"rt":14566.599999964237,"stimulus":"\n                    <p><b>Action: <em>avoid</em></b></p>\n                    <p>This is the bee that you just saw.</p>\n                    <img src=\"bees-with-color/bee-A2SM.svg\" width=\"200\">\n                    <p><span class=\"greenText\">Good choice!</span>  This bee would have stung you.<br>Your bonus pay is unchanged, and remains at $0.70.</p>\n            ","response":0,"trial_type":"html-button-response","trial_index":60,"time_elapsed":1038420,"internal_node_id":"0.0-4.0-1.26","subject_id":"612ba6c594a6d54154a88ae7","study_id":"60edd13110225f80f9f3709b","session_id":"6196e449ca4a3c0da406d8bd","condition":"full-information","relevant_dimensions":["antennae","wings"],"bee_group":{"antennae":"A","wings":"2","pattern":"X","legs":"X"},"bonus":1.720000000000001},{"rt":60215.10000002384,"stimulus":"bees-with-color/bee-A2SF.svg","response":1,"trial_type":"image-button-response","trial_index":61,"time_elapsed":1098650,"internal_node_id":"0.0-4.0-0.27","subject_id":"612ba6c594a6d54154a88ae7","study_id":"60edd13110225f80f9f3709b","session_id":"6196e449ca4a3c0da406d8bd","condition":"full-information","relevant_dimensions":["antennae","wings"],"bee_group":{"antennae":"A","wings":"2","pattern":"X","legs":"X"},"action":"avoid","summary":"good-avoid","bonus":1.720000000000001},{"rt":8929.5,"stimulus":"\n                    <p><b>Action: <em>avoid</em></b></p>\n                    <p>This is the bee that you just saw.</p>\n                    <img src=\"bees-with-color/bee-A2SF.svg\" width=\"200\">\n                    <p><span class=\"greenText\">Good choice!</span>  This bee would have stung you.<br>Your bonus pay is unchanged, and remains at $0.70.</p>\n            ","response":0,"trial_type":"html-button-response","trial_index":62,"time_elapsed":1107581,"internal_node_id":"0.0-4.0-1.27","subject_id":"612ba6c594a6d54154a88ae7","study_id":"60edd13110225f80f9f3709b","session_id":"6196e449ca4a3c0da406d8bd","condition":"full-information","relevant_dimensions":["antennae","wings"],"bee_group":{"antennae":"A","wings":"2","pattern":"X","legs":"X"},"bonus":1.720000000000001},{"rt":21684.5,"stimulus":"bees-with-color/bee-B1DM.svg","response":0,"trial_type":"image-button-response","trial_index":63,"time_elapsed":1129268,"internal_node_id":"0.0-4.0-0.28","subject_id":"612ba6c594a6d54154a88ae7","study_id":"60edd13110225f80f9f3709b","session_id":"6196e449ca4a3c0da406d8bd","condition":"full-information","relevant_dimensions":["antennae","wings"],"bee_group":{"antennae":"A","wings":"2","pattern":"X","legs":"X"},"action":"harvest","summary":"good-harvest","bonus":1.720000000000001},{"rt":1346.199999988079,"stimulus":"\n                    <p><b>Action: <em>harvest</em></b></p>\n                    <p>This is the bee that you just saw.</p>\n                    <img src=\"bees-with-color/bee-B1DM.svg\" width=\"200\">\n                    <p><span class=\"greenText\"><b>Successful harvest!</b></span><br>Your pay has increased by $0.02. Your bonus pay is now $0.72.</p>\n            ","response":0,"trial_type":"html-button-response","trial_index":64,"time_elapsed":1130617,"internal_node_id":"0.0-4.0-1.28","subject_id":"612ba6c594a6d54154a88ae7","study_id":"60edd13110225f80f9f3709b","session_id":"6196e449ca4a3c0da406d8bd","condition":"full-information","relevant_dimensions":["antennae","wings"],"bee_group":{"antennae":"A","wings":"2","pattern":"X","legs":"X"},"bonus":1.720000000000001},{"rt":17684.099999964237,"stimulus":"bees-with-color/bee-B2DF.svg","response":0,"trial_type":"image-button-response","trial_index":65,"time_elapsed":1148304,"internal_node_id":"0.0-4.0-0.29","subject_id":"612ba6c594a6d54154a88ae7","study_id":"60edd13110225f80f9f3709b","session_id":"6196e449ca4a3c0da406d8bd","condition":"full-information","relevant_dimensions":["antennae","wings"],"bee_group":{"antennae":"A","wings":"2","pattern":"X","legs":"X"},"action":"harvest","summary":"good-harvest","bonus":1.720000000000001},{"rt":957.9000000357628,"stimulus":"\n                    <p><b>Action: <em>harvest</em></b></p>\n                    <p>This is the bee that you just saw.</p>\n                    <img src=\"bees-with-color/bee-B2DF.svg\" width=\"200\">\n                    <p><span class=\"greenText\"><b>Successful harvest!</b></span><br>Your pay has increased by $0.02. Your bonus pay is now $0.74.</p>\n            ","response":0,"trial_type":"html-button-response","trial_index":66,"time_elapsed":1149265,"internal_node_id":"0.0-4.0-1.29","subject_id":"612ba6c594a6d54154a88ae7","study_id":"60edd13110225f80f9f3709b","session_id":"6196e449ca4a3c0da406d8bd","condition":"full-information","relevant_dimensions":["antennae","wings"],"bee_group":{"antennae":"A","wings":"2","pattern":"X","legs":"X"},"bonus":1.720000000000001},{"rt":7545.699999988079,"stimulus":"bees-with-color/bee-B1DF.svg","response":0,"trial_type":"image-button-response","trial_index":67,"time_elapsed":1156814,"internal_node_id":"0.0-4.0-0.30","subject_id":"612ba6c594a6d54154a88ae7","study_id":"60edd13110225f80f9f3709b","session_id":"6196e449ca4a3c0da406d8bd","condition":"full-information","relevant_dimensions":["antennae","wings"],"bee_group":{"antennae":"A","wings":"2","pattern":"X","legs":"X"},"action":"harvest","summary":"good-harvest","bonus":1.720000000000001},{"rt":1064.2000000476837,"stimulus":"\n                    <p><b>Action: <em>harvest</em></b></p>\n                    <p>This is the bee that you just saw.</p>\n                    <img src=\"bees-with-color/bee-B1DF.svg\" width=\"200\">\n                    <p><span class=\"greenText\"><b>Successful harvest!</b></span><br>Your pay has increased by $0.02. Your bonus pay is now $0.76.</p>\n            ","response":0,"trial_type":"html-button-response","trial_index":68,"time_elapsed":1157880,"internal_node_id":"0.0-4.0-1.30","subject_id":"612ba6c594a6d54154a88ae7","study_id":"60edd13110225f80f9f3709b","session_id":"6196e449ca4a3c0da406d8bd","condition":"full-information","relevant_dimensions":["antennae","wings"],"bee_group":{"antennae":"A","wings":"2","pattern":"X","legs":"X"},"bonus":1.720000000000001},{"rt":22279.19999998808,"stimulus":"bees-with-color/bee-A1DM.svg","response":0,"trial_type":"image-button-response","trial_index":69,"time_elapsed":1180163,"internal_node_id":"0.0-4.0-0.31","subject_id":"612ba6c594a6d54154a88ae7","study_id":"60edd13110225f80f9f3709b","session_id":"6196e449ca4a3c0da406d8bd","condition":"full-information","relevant_dimensions":["antennae","wings"],"bee_group":{"antennae":"A","wings":"2","pattern":"X","legs":"X"},"action":"harvest","summary":"good-harvest","bonus":1.720000000000001},{"rt":1426.3999999761581,"stimulus":"\n                    <p><b>Action: <em>harvest</em></b></p>\n                    <p>This is the bee that you just saw.</p>\n                    <img src=\"bees-with-color/bee-A1DM.svg\" width=\"200\">\n                    <p><span class=\"greenText\"><b>Successful harvest!</b></span><br>Your pay has increased by $0.02. Your bonus pay is now $0.78.</p>\n            ","response":0,"trial_type":"html-button-response","trial_index":70,"time_elapsed":1181591,"internal_node_id":"0.0-4.0-1.31","subject_id":"612ba6c594a6d54154a88ae7","study_id":"60edd13110225f80f9f3709b","session_id":"6196e449ca4a3c0da406d8bd","condition":"full-information","relevant_dimensions":["antennae","wings"],"bee_group":{"antennae":"A","wings":"2","pattern":"X","legs":"X"},"bonus":1.720000000000001},{"rt":11469.100000023842,"stimulus":"bees-with-color/bee-A2SF.svg","response":1,"trial_type":"image-button-response","trial_index":71,"time_elapsed":1193063,"internal_node_id":"0.0-4.0-0.32","subject_id":"612ba6c594a6d54154a88ae7","study_id":"60edd13110225f80f9f3709b","session_id":"6196e449ca4a3c0da406d8bd","condition":"full-information","relevant_dimensions":["antennae","wings"],"bee_group":{"antennae":"A","wings":"2","pattern":"X","legs":"X"},"action":"avoid","summary":"good-avoid","bonus":1.720000000000001},{"rt":1369.1000000238419,"stimulus":"\n                    <p><b>Action: <em>avoid</em></b></p>\n                    <p>This is the bee that you just saw.</p>\n                    <img src=\"bees-with-color/bee-A2SF.svg\" width=\"200\">\n                    <p><span class=\"greenText\">Good choice!</span>  This bee would have stung you.<br>Your bonus pay is unchanged, and remains at $0.78.</p>\n            ","response":0,"trial_type":"html-button-response","trial_index":72,"time_elapsed":1194435,"internal_node_id":"0.0-4.0-1.32","subject_id":"612ba6c594a6d54154a88ae7","study_id":"60edd13110225f80f9f3709b","session_id":"6196e449ca4a3c0da406d8bd","condition":"full-information","relevant_dimensions":["antennae","wings"],"bee_group":{"antennae":"A","wings":"2","pattern":"X","legs":"X"},"bonus":1.720000000000001},{"rt":34517.10000002384,"stimulus":"bees-with-color/bee-B1DM.svg","response":0,"trial_type":"image-button-response","trial_index":73,"time_elapsed":1228955,"internal_node_id":"0.0-4.0-0.33","subject_id":"612ba6c594a6d54154a88ae7","study_id":"60edd13110225f80f9f3709b","session_id":"6196e449ca4a3c0da406d8bd","condition":"full-information","relevant_dimensions":["antennae","wings"],"bee_group":{"antennae":"A","wings":"2","pattern":"X","legs":"X"},"action":"harvest","summary":"good-harvest","bonus":1.720000000000001},{"rt":1343.1000000238419,"stimulus":"\n                    <p><b>Action: <em>harvest</em></b></p>\n                    <p>This is the bee that you just saw.</p>\n                    <img src=\"bees-with-color/bee-B1DM.svg\" width=\"200\">\n                    <p><span class=\"greenText\"><b>Successful harvest!</b></span><br>Your pay has increased by $0.02. Your bonus pay is now $0.80.</p>\n            ","response":0,"trial_type":"html-button-response","trial_index":74,"time_elapsed":1230301,"internal_node_id":"0.0-4.0-1.33","subject_id":"612ba6c594a6d54154a88ae7","study_id":"60edd13110225f80f9f3709b","session_id":"6196e449ca4a3c0da406d8bd","condition":"full-information","relevant_dimensions":["antennae","wings"],"bee_group":{"antennae":"A","wings":"2","pattern":"X","legs":"X"},"bonus":1.720000000000001},{"rt":5568.599999964237,"stimulus":"bees-with-color/bee-B1DF.svg","response":0,"trial_type":"image-button-response","trial_index":75,"time_elapsed":1235863,"internal_node_id":"0.0-4.0-0.34","subject_id":"612ba6c594a6d54154a88ae7","study_id":"60edd13110225f80f9f3709b","session_id":"6196e449ca4a3c0da406d8bd","condition":"full-information","relevant_dimensions":["antennae","wings"],"bee_group":{"antennae":"A","wings":"2","pattern":"X","legs":"X"},"action":"harvest","summary":"good-harvest","bonus":1.720000000000001},{"rt":1111.5,"stimulus":"\n                    <p><b>Action: <em>harvest</em></b></p>\n                    <p>This is the bee that you just saw.</p>\n                    <img src=\"bees-with-color/bee-B1DF.svg\" width=\"200\">\n                    <p><span class=\"greenText\"><b>Successful harvest!</b></span><br>Your pay has increased by $0.02. Your bonus pay is now $0.82.</p>\n            ","response":0,"trial_type":"html-button-response","trial_index":76,"time_elapsed":1236976,"internal_node_id":"0.0-4.0-1.34","subject_id":"612ba6c594a6d54154a88ae7","study_id":"60edd13110225f80f9f3709b","session_id":"6196e449ca4a3c0da406d8bd","condition":"full-information","relevant_dimensions":["antennae","wings"],"bee_group":{"antennae":"A","wings":"2","pattern":"X","legs":"X"},"bonus":1.720000000000001},{"rt":11593.199999988079,"stimulus":"bees-with-color/bee-A2SM.svg","response":1,"trial_type":"image-button-response","trial_index":77,"time_elapsed":1248573,"internal_node_id":"0.0-4.0-0.35","subject_id":"612ba6c594a6d54154a88ae7","study_id":"60edd13110225f80f9f3709b","session_id":"6196e449ca4a3c0da406d8bd","condition":"full-information","relevant_dimensions":["antennae","wings"],"bee_group":{"antennae":"A","wings":"2","pattern":"X","legs":"X"},"action":"avoid","summary":"good-avoid","bonus":1.720000000000001},{"rt":1090.199999988079,"stimulus":"\n                    <p><b>Action: <em>avoid</em></b></p>\n                    <p>This is the bee that you just saw.</p>\n                    <img src=\"bees-with-color/bee-A2SM.svg\" width=\"200\">\n                    <p><span class=\"greenText\">Good choice!</span>  This bee would have stung you.<br>Your bonus pay is unchanged, and remains at $0.82.</p>\n            ","response":0,"trial_type":"html-button-response","trial_index":78,"time_elapsed":1249666,"internal_node_id":"0.0-4.0-1.35","subject_id":"612ba6c594a6d54154a88ae7","study_id":"60edd13110225f80f9f3709b","session_id":"6196e449ca4a3c0da406d8bd","condition":"full-information","relevant_dimensions":["antennae","wings"],"bee_group":{"antennae":"A","wings":"2","pattern":"X","legs":"X"},"bonus":1.720000000000001},{"rt":20567.19999998808,"stimulus":"bees-with-color/bee-B1SM.svg","response":0,"trial_type":"image-button-response","trial_index":79,"time_elapsed":1270236,"internal_node_id":"0.0-4.0-0.36","subject_id":"612ba6c594a6d54154a88ae7","study_id":"60edd13110225f80f9f3709b","session_id":"6196e449ca4a3c0da406d8bd","condition":"full-information","relevant_dimensions":["antennae","wings"],"bee_group":{"antennae":"A","wings":"2","pattern":"X","legs":"X"},"action":"harvest","summary":"good-harvest","bonus":1.720000000000001},{"rt":1006.1000000238419,"stimulus":"\n                    <p><b>Action: <em>harvest</em></b></p>\n                    <p>This is the bee that you just saw.</p>\n                    <img src=\"bees-with-color/bee-B1SM.svg\" width=\"200\">\n                    <p><span class=\"greenText\"><b>Successful harvest!</b></span><br>Your pay has increased by $0.02. Your bonus pay is now $0.84.</p>\n            ","response":0,"trial_type":"html-button-response","trial_index":80,"time_elapsed":1271244,"internal_node_id":"0.0-4.0-1.36","subject_id":"612ba6c594a6d54154a88ae7","study_id":"60edd13110225f80f9f3709b","session_id":"6196e449ca4a3c0da406d8bd","condition":"full-information","relevant_dimensions":["antennae","wings"],"bee_group":{"antennae":"A","wings":"2","pattern":"X","legs":"X"},"bonus":1.720000000000001},{"rt":40489.10000002384,"stimulus":"bees-with-color/bee-B2DM.svg","response":1,"trial_type":"image-button-response","trial_index":81,"time_elapsed":1311745,"internal_node_id":"0.0-4.0-0.37","subject_id":"612ba6c594a6d54154a88ae7","study_id":"60edd13110225f80f9f3709b","session_id":"6196e449ca4a3c0da406d8bd","condition":"full-information","relevant_dimensions":["antennae","wings"],"bee_group":{"antennae":"A","wings":"2","pattern":"X","legs":"X"},"action":"avoid","summary":"bad-avoid","bonus":1.720000000000001},{"rt":6182.699999988079,"stimulus":"\n                    <p><b>Action: <em>avoid</em></b></p>\n                    <p>This is the bee that you just saw.</p>\n                    <img src=\"bees-with-color/bee-B2DM.svg\" width=\"200\">\n                    <p><span class=\"redText\">Bad choice,</span> the bee was friendly.<br>Your bonus pay is unchanged, and remains at $0.84.</p>\n            ","response":0,"trial_type":"html-button-response","trial_index":82,"time_elapsed":1317931,"internal_node_id":"0.0-4.0-1.37","subject_id":"612ba6c594a6d54154a88ae7","study_id":"60edd13110225f80f9f3709b","session_id":"6196e449ca4a3c0da406d8bd","condition":"full-information","relevant_dimensions":["antennae","wings"],"bee_group":{"antennae":"A","wings":"2","pattern":"X","legs":"X"},"bonus":1.720000000000001},{"rt":16539.600000023842,"stimulus":"bees-with-color/bee-B2SM.svg","response":0,"trial_type":"image-button-response","trial_index":83,"time_elapsed":1334473,"internal_node_id":"0.0-4.0-0.38","subject_id":"612ba6c594a6d54154a88ae7","study_id":"60edd13110225f80f9f3709b","session_id":"6196e449ca4a3c0da406d8bd","condition":"full-information","relevant_dimensions":["antennae","wings"],"bee_group":{"antennae":"A","wings":"2","pattern":"X","legs":"X"},"action":"harvest","summary":"good-harvest","bonus":1.720000000000001},{"rt":1076.8999999761581,"stimulus":"\n                    <p><b>Action: <em>harvest</em></b></p>\n                    <p>This is the bee that you just saw.</p>\n                    <img src=\"bees-with-color/bee-B2SM.svg\" width=\"200\">\n                    <p><span class=\"greenText\"><b>Successful harvest!</b></span><br>Your pay has increased by $0.02. Your bonus pay is now $0.86.</p>\n            ","response":0,"trial_type":"html-button-response","trial_index":84,"time_elapsed":1335552,"internal_node_id":"0.0-4.0-1.38","subject_id":"612ba6c594a6d54154a88ae7","study_id":"60edd13110225f80f9f3709b","session_id":"6196e449ca4a3c0da406d8bd","condition":"full-information","relevant_dimensions":["antennae","wings"],"bee_group":{"antennae":"A","wings":"2","pattern":"X","legs":"X"},"bonus":1.720000000000001},{"rt":49479.40000003576,"stimulus":"bees-with-color/bee-A1SF.svg","response":0,"trial_type":"image-button-response","trial_index":85,"time_elapsed":1385032,"internal_node_id":"0.0-4.0-0.39","subject_id":"612ba6c594a6d54154a88ae7","study_id":"60edd13110225f80f9f3709b","session_id":"6196e449ca4a3c0da406d8bd","condition":"full-information","relevant_dimensions":["antennae","wings"],"bee_group":{"antennae":"A","wings":"2","pattern":"X","legs":"X"},"action":"harvest","summary":"good-harvest","bonus":1.720000000000001},{"rt":1034.699999988079,"stimulus":"\n                    <p><b>Action: <em>harvest</em></b></p>\n                    <p>This is the bee that you just saw.</p>\n                    <img src=\"bees-with-color/bee-A1SF.svg\" width=\"200\">\n                    <p><span class=\"greenText\"><b>Successful harvest!</b></span><br>Your pay has increased by $0.02. Your bonus pay is now $0.88.</p>\n            ","response":0,"trial_type":"html-button-response","trial_index":86,"time_elapsed":1386070,"internal_node_id":"0.0-4.0-1.39","subject_id":"612ba6c594a6d54154a88ae7","study_id":"60edd13110225f80f9f3709b","session_id":"6196e449ca4a3c0da406d8bd","condition":"full-information","relevant_dimensions":["antennae","wings"],"bee_group":{"antennae":"A","wings":"2","pattern":"X","legs":"X"},"bonus":1.720000000000001},{"rt":21989.599999964237,"stimulus":"bees-with-color/bee-B2SF.svg","response":0,"trial_type":"image-button-response","trial_index":87,"time_elapsed":1408063,"internal_node_id":"0.0-4.0-0.40","subject_id":"612ba6c594a6d54154a88ae7","study_id":"60edd13110225f80f9f3709b","session_id":"6196e449ca4a3c0da406d8bd","condition":"full-information","relevant_dimensions":["antennae","wings"],"bee_group":{"antennae":"A","wings":"2","pattern":"X","legs":"X"},"action":"harvest","summary":"good-harvest","bonus":1.720000000000001},{"rt":1214,"stimulus":"\n                    <p><b>Action: <em>harvest</em></b></p>\n                    <p>This is the bee that you just saw.</p>\n                    <img src=\"bees-with-color/bee-B2SF.svg\" width=\"200\">\n                    <p><span class=\"greenText\"><b>Successful harvest!</b></span><br>Your pay has increased by $0.02. Your bonus pay is now $0.90.</p>\n            ","response":0,"trial_type":"html-button-response","trial_index":88,"time_elapsed":1409280,"internal_node_id":"0.0-4.0-1.40","subject_id":"612ba6c594a6d54154a88ae7","study_id":"60edd13110225f80f9f3709b","session_id":"6196e449ca4a3c0da406d8bd","condition":"full-information","relevant_dimensions":["antennae","wings"],"bee_group":{"antennae":"A","wings":"2","pattern":"X","legs":"X"},"bonus":1.720000000000001},{"rt":7113.699999988079,"stimulus":"bees-with-color/bee-A2DF.svg","response":1,"trial_type":"image-button-response","trial_index":89,"time_elapsed":1416391,"internal_node_id":"0.0-4.0-0.41","subject_id":"612ba6c594a6d54154a88ae7","study_id":"60edd13110225f80f9f3709b","session_id":"6196e449ca4a3c0da406d8bd","condition":"full-information","relevant_dimensions":["antennae","wings"],"bee_group":{"antennae":"A","wings":"2","pattern":"X","legs":"X"},"action":"avoid","summary":"good-avoid","bonus":1.720000000000001},{"rt":1078.300000011921,"stimulus":"\n                    <p><b>Action: <em>avoid</em></b></p>\n                    <p>This is the bee that you just saw.</p>\n                    <img src=\"bees-with-color/bee-A2DF.svg\" width=\"200\">\n                    <p><span class=\"greenText\">Good choice!</span>  This bee would have stung you.<br>Your bonus pay is unchanged, and remains at $0.90.</p>\n            ","response":0,"trial_type":"html-button-response","trial_index":90,"time_elapsed":1417472,"internal_node_id":"0.0-4.0-1.41","subject_id":"612ba6c594a6d54154a88ae7","study_id":"60edd13110225f80f9f3709b","session_id":"6196e449ca4a3c0da406d8bd","condition":"full-information","relevant_dimensions":["antennae","wings"],"bee_group":{"antennae":"A","wings":"2","pattern":"X","legs":"X"},"bonus":1.720000000000001},{"rt":14439.5,"stimulus":"bees-with-color/bee-A1DF.svg","response":0,"trial_type":"image-button-response","trial_index":91,"time_elapsed":1431915,"internal_node_id":"0.0-4.0-0.42","subject_id":"612ba6c594a6d54154a88ae7","study_id":"60edd13110225f80f9f3709b","session_id":"6196e449ca4a3c0da406d8bd","condition":"full-information","relevant_dimensions":["antennae","wings"],"bee_group":{"antennae":"A","wings":"2","pattern":"X","legs":"X"},"action":"harvest","summary":"good-harvest","bonus":1.720000000000001},{"rt":1952.300000011921,"stimulus":"\n                    <p><b>Action: <em>harvest</em></b></p>\n                    <p>This is the bee that you just saw.</p>\n                    <img src=\"bees-with-color/bee-A1DF.svg\" width=\"200\">\n                    <p><span class=\"greenText\"><b>Successful harvest!</b></span><br>Your pay has increased by $0.02. Your bonus pay is now $0.92.</p>\n            ","response":0,"trial_type":"html-button-response","trial_index":92,"time_elapsed":1433871,"internal_node_id":"0.0-4.0-1.42","subject_id":"612ba6c594a6d54154a88ae7","study_id":"60edd13110225f80f9f3709b","session_id":"6196e449ca4a3c0da406d8bd","condition":"full-information","relevant_dimensions":["antennae","wings"],"bee_group":{"antennae":"A","wings":"2","pattern":"X","legs":"X"},"bonus":1.720000000000001},{"rt":8502.800000011921,"stimulus":"bees-with-color/bee-A2DM.svg","response":1,"trial_type":"image-button-response","trial_index":93,"time_elapsed":1442377,"internal_node_id":"0.0-4.0-0.43","subject_id":"612ba6c594a6d54154a88ae7","study_id":"60edd13110225f80f9f3709b","session_id":"6196e449ca4a3c0da406d8bd","condition":"full-information","relevant_dimensions":["antennae","wings"],"bee_group":{"antennae":"A","wings":"2","pattern":"X","legs":"X"},"action":"avoid","summary":"good-avoid","bonus":1.720000000000001},{"rt":1189.5,"stimulus":"\n                    <p><b>Action: <em>avoid</em></b></p>\n                    <p>This is the bee that you just saw.</p>\n                    <img src=\"bees-with-color/bee-A2DM.svg\" width=\"200\">\n                    <p><span class=\"greenText\">Good choice!</span>  This bee would have stung you.<br>Your bonus pay is unchanged, and remains at $0.92.</p>\n            ","response":0,"trial_type":"html-button-response","trial_index":94,"time_elapsed":1443568,"internal_node_id":"0.0-4.0-1.43","subject_id":"612ba6c594a6d54154a88ae7","study_id":"60edd13110225f80f9f3709b","session_id":"6196e449ca4a3c0da406d8bd","condition":"full-information","relevant_dimensions":["antennae","wings"],"bee_group":{"antennae":"A","wings":"2","pattern":"X","legs":"X"},"bonus":1.720000000000001},{"rt":15335.800000011921,"stimulus":"bees-with-color/bee-B2DF.svg","response":0,"trial_type":"image-button-response","trial_index":95,"time_elapsed":1458907,"internal_node_id":"0.0-4.0-0.44","subject_id":"612ba6c594a6d54154a88ae7","study_id":"60edd13110225f80f9f3709b","session_id":"6196e449ca4a3c0da406d8bd","condition":"full-information","relevant_dimensions":["antennae","wings"],"bee_group":{"antennae":"A","wings":"2","pattern":"X","legs":"X"},"action":"harvest","summary":"good-harvest","bonus":1.720000000000001},{"rt":979.5,"stimulus":"\n                    <p><b>Action: <em>harvest</em></b></p>\n                    <p>This is the bee that you just saw.</p>\n                    <img src=\"bees-with-color/bee-B2DF.svg\" width=\"200\">\n                    <p><span class=\"greenText\"><b>Successful harvest!</b></span><br>Your pay has increased by $0.02. Your bonus pay is now $0.94.</p>\n            ","response":0,"trial_type":"html-button-response","trial_index":96,"time_elapsed":1459888,"internal_node_id":"0.0-4.0-1.44","subject_id":"612ba6c594a6d54154a88ae7","study_id":"60edd13110225f80f9f3709b","session_id":"6196e449ca4a3c0da406d8bd","condition":"full-information","relevant_dimensions":["antennae","wings"],"bee_group":{"antennae":"A","wings":"2","pattern":"X","legs":"X"},"bonus":1.720000000000001},{"rt":8772.699999988079,"stimulus":"bees-with-color/bee-A1DM.svg","response":0,"trial_type":"image-button-response","trial_index":97,"time_elapsed":1468664,"internal_node_id":"0.0-4.0-0.45","subject_id":"612ba6c594a6d54154a88ae7","study_id":"60edd13110225f80f9f3709b","session_id":"6196e449ca4a3c0da406d8bd","condition":"full-information","relevant_dimensions":["antennae","wings"],"bee_group":{"antennae":"A","wings":"2","pattern":"X","legs":"X"},"action":"harvest","summary":"good-harvest","bonus":1.720000000000001},{"rt":911.1000000238419,"stimulus":"\n                    <p><b>Action: <em>harvest</em></b></p>\n                    <p>This is the bee that you just saw.</p>\n                    <img src=\"bees-with-color/bee-A1DM.svg\" width=\"200\">\n                    <p><span class=\"greenText\"><b>Successful harvest!</b></span><br>Your pay has increased by $0.02. Your bonus pay is now $0.96.</p>\n            ","response":0,"trial_type":"html-button-response","trial_index":98,"time_elapsed":1469577,"internal_node_id":"0.0-4.0-1.45","subject_id":"612ba6c594a6d54154a88ae7","study_id":"60edd13110225f80f9f3709b","session_id":"6196e449ca4a3c0da406d8bd","condition":"full-information","relevant_dimensions":["antennae","wings"],"bee_group":{"antennae":"A","wings":"2","pattern":"X","legs":"X"},"bonus":1.720000000000001},{"rt":11550.5,"stimulus":"bees-with-color/bee-B1SF.svg","response":0,"trial_type":"image-button-response","trial_index":99,"time_elapsed":1481136,"internal_node_id":"0.0-4.0-0.46","subject_id":"612ba6c594a6d54154a88ae7","study_id":"60edd13110225f80f9f3709b","session_id":"6196e449ca4a3c0da406d8bd","condition":"full-information","relevant_dimensions":["antennae","wings"],"bee_group":{"antennae":"A","wings":"2","pattern":"X","legs":"X"},"action":"harvest","summary":"good-harvest","bonus":1.720000000000001},{"rt":1382.199999988079,"stimulus":"\n                    <p><b>Action: <em>harvest</em></b></p>\n                    <p>This is the bee that you just saw.</p>\n                    <img src=\"bees-with-color/bee-B1SF.svg\" width=\"200\">\n                    <p><span class=\"greenText\"><b>Successful harvest!</b></span><br>Your pay has increased by $0.02. Your bonus pay is now $0.98.</p>\n            ","response":0,"trial_type":"html-button-response","trial_index":100,"time_elapsed":1482520,"internal_node_id":"0.0-4.0-1.46","subject_id":"612ba6c594a6d54154a88ae7","study_id":"60edd13110225f80f9f3709b","session_id":"6196e449ca4a3c0da406d8bd","condition":"full-information","relevant_dimensions":["antennae","wings"],"bee_group":{"antennae":"A","wings":"2","pattern":"X","legs":"X"},"bonus":1.720000000000001},{"rt":30651.399999976158,"stimulus":"bees-with-color/bee-A1SM.svg","response":0,"trial_type":"image-button-response","trial_index":101,"time_elapsed":1513175,"internal_node_id":"0.0-4.0-0.47","subject_id":"612ba6c594a6d54154a88ae7","study_id":"60edd13110225f80f9f3709b","session_id":"6196e449ca4a3c0da406d8bd","condition":"full-information","relevant_dimensions":["antennae","wings"],"bee_group":{"antennae":"A","wings":"2","pattern":"X","legs":"X"},"action":"harvest","summary":"good-harvest","bonus":1.720000000000001},{"rt":1150.5999999642372,"stimulus":"\n                    <p><b>Action: <em>harvest</em></b></p>\n                    <p>This is the bee that you just saw.</p>\n                    <img src=\"bees-with-color/bee-A1SM.svg\" width=\"200\">\n                    <p><span class=\"greenText\"><b>Successful harvest!</b></span><br>Your pay has increased by $0.02. Your bonus pay is now $1.00.</p>\n            ","response":0,"trial_type":"html-button-response","trial_index":102,"time_elapsed":1514328,"internal_node_id":"0.0-4.0-1.47","subject_id":"612ba6c594a6d54154a88ae7","study_id":"60edd13110225f80f9f3709b","session_id":"6196e449ca4a3c0da406d8bd","condition":"full-information","relevant_dimensions":["antennae","wings"],"bee_group":{"antennae":"A","wings":"2","pattern":"X","legs":"X"},"bonus":1.720000000000001},{"rt":8689.199999988079,"stimulus":"bees-with-color/bee-A2SM.svg","response":1,"trial_type":"image-button-response","trial_index":103,"time_elapsed":1523020,"internal_node_id":"0.0-4.0-0.48","subject_id":"612ba6c594a6d54154a88ae7","study_id":"60edd13110225f80f9f3709b","session_id":"6196e449ca4a3c0da406d8bd","condition":"full-information","relevant_dimensions":["antennae","wings"],"bee_group":{"antennae":"A","wings":"2","pattern":"X","legs":"X"},"action":"avoid","summary":"good-avoid","bonus":1.720000000000001},{"rt":1573.8999999761581,"stimulus":"\n                    <p><b>Action: <em>avoid</em></b></p>\n                    <p>This is the bee that you just saw.</p>\n                    <img src=\"bees-with-color/bee-A2SM.svg\" width=\"200\">\n                    <p><span class=\"greenText\">Good choice!</span>  This bee would have stung you.<br>Your bonus pay is unchanged, and remains at $1.00.</p>\n            ","response":0,"trial_type":"html-button-response","trial_index":104,"time_elapsed":1524597,"internal_node_id":"0.0-4.0-1.48","subject_id":"612ba6c594a6d54154a88ae7","study_id":"60edd13110225f80f9f3709b","session_id":"6196e449ca4a3c0da406d8bd","condition":"full-information","relevant_dimensions":["antennae","wings"],"bee_group":{"antennae":"A","wings":"2","pattern":"X","legs":"X"},"bonus":1.720000000000001},{"rt":12450.699999988079,"stimulus":"bees-with-color/bee-A1SF.svg","response":0,"trial_type":"image-button-response","trial_index":105,"time_elapsed":1537047,"internal_node_id":"0.0-4.0-0.49","subject_id":"612ba6c594a6d54154a88ae7","study_id":"60edd13110225f80f9f3709b","session_id":"6196e449ca4a3c0da406d8bd","condition":"full-information","relevant_dimensions":["antennae","wings"],"bee_group":{"antennae":"A","wings":"2","pattern":"X","legs":"X"},"action":"harvest","summary":"good-harvest","bonus":1.720000000000001},{"rt":1084.4000000357628,"stimulus":"\n                    <p><b>Action: <em>harvest</em></b></p>\n                    <p>This is the bee that you just saw.</p>\n                    <img src=\"bees-with-color/bee-A1SF.svg\" width=\"200\">\n                    <p><span class=\"greenText\"><b>Successful harvest!</b></span><br>Your pay has increased by $0.02. Your bonus pay is now $1.02.</p>\n            ","response":0,"trial_type":"html-button-response","trial_index":106,"time_elapsed":1538135,"internal_node_id":"0.0-4.0-1.49","subject_id":"612ba6c594a6d54154a88ae7","study_id":"60edd13110225f80f9f3709b","session_id":"6196e449ca4a3c0da406d8bd","condition":"full-information","relevant_dimensions":["antennae","wings"],"bee_group":{"antennae":"A","wings":"2","pattern":"X","legs":"X"},"bonus":1.720000000000001},{"rt":13595.799999952316,"stimulus":"bees-with-color/bee-A1DM.svg","response":0,"trial_type":"image-button-response","trial_index":107,"time_elapsed":1551734,"internal_node_id":"0.0-4.0-0.50","subject_id":"612ba6c594a6d54154a88ae7","study_id":"60edd13110225f80f9f3709b","session_id":"6196e449ca4a3c0da406d8bd","condition":"full-information","relevant_dimensions":["antennae","wings"],"bee_group":{"antennae":"A","wings":"2","pattern":"X","legs":"X"},"action":"harvest","summary":"good-harvest","bonus":1.720000000000001},{"rt":1163.800000011921,"stimulus":"\n                    <p><b>Action: <em>harvest</em></b></p>\n                    <p>This is the bee that you just saw.</p>\n                    <img src=\"bees-with-color/bee-A1DM.svg\" width=\"200\">\n                    <p><span class=\"greenText\"><b>Successful harvest!</b></span><br>Your pay has increased by $0.02. Your bonus pay is now $1.04.</p>\n            ","response":0,"trial_type":"html-button-response","trial_index":108,"time_elapsed":1552900,"internal_node_id":"0.0-4.0-1.50","subject_id":"612ba6c594a6d54154a88ae7","study_id":"60edd13110225f80f9f3709b","session_id":"6196e449ca4a3c0da406d8bd","condition":"full-information","relevant_dimensions":["antennae","wings"],"bee_group":{"antennae":"A","wings":"2","pattern":"X","legs":"X"},"bonus":1.720000000000001},{"rt":27264.100000023842,"stimulus":"bees-with-color/bee-A2DM.svg","response":1,"trial_type":"image-button-response","trial_index":109,"time_elapsed":1580167,"internal_node_id":"0.0-4.0-0.51","subject_id":"612ba6c594a6d54154a88ae7","study_id":"60edd13110225f80f9f3709b","session_id":"6196e449ca4a3c0da406d8bd","condition":"full-information","relevant_dimensions":["antennae","wings"],"bee_group":{"antennae":"A","wings":"2","pattern":"X","legs":"X"},"action":"avoid","summary":"good-avoid","bonus":1.720000000000001},{"rt":1359.0999999642372,"stimulus":"\n                    <p><b>Action: <em>avoid</em></b></p>\n                    <p>This is the bee that you just saw.</p>\n                    <img src=\"bees-with-color/bee-A2DM.svg\" width=\"200\">\n                    <p><span class=\"greenText\">Good choice!</span>  This bee would have stung you.<br>Your bonus pay is unchanged, and remains at $1.04.</p>\n            ","response":0,"trial_type":"html-button-response","trial_index":110,"time_elapsed":1581528,"internal_node_id":"0.0-4.0-1.51","subject_id":"612ba6c594a6d54154a88ae7","study_id":"60edd13110225f80f9f3709b","session_id":"6196e449ca4a3c0da406d8bd","condition":"full-information","relevant_dimensions":["antennae","wings"],"bee_group":{"antennae":"A","wings":"2","pattern":"X","legs":"X"},"bonus":1.720000000000001},{"rt":10417.300000011921,"stimulus":"bees-with-color/bee-B1SF.svg","response":0,"trial_type":"image-button-response","trial_index":111,"time_elapsed":1591948,"internal_node_id":"0.0-4.0-0.52","subject_id":"612ba6c594a6d54154a88ae7","study_id":"60edd13110225f80f9f3709b","session_id":"6196e449ca4a3c0da406d8bd","condition":"full-information","relevant_dimensions":["antennae","wings"],"bee_group":{"antennae":"A","wings":"2","pattern":"X","legs":"X"},"action":"harvest","summary":"good-harvest","bonus":1.720000000000001},{"rt":1007,"stimulus":"\n                    <p><b>Action: <em>harvest</em></b></p>\n                    <p>This is the bee that you just saw.</p>\n                    <img src=\"bees-with-color/bee-B1SF.svg\" width=\"200\">\n                    <p><span class=\"greenText\"><b>Successful harvest!</b></span><br>Your pay has increased by $0.02. Your bonus pay is now $1.06.</p>\n            ","response":0,"trial_type":"html-button-response","trial_index":112,"time_elapsed":1592958,"internal_node_id":"0.0-4.0-1.52","subject_id":"612ba6c594a6d54154a88ae7","study_id":"60edd13110225f80f9f3709b","session_id":"6196e449ca4a3c0da406d8bd","condition":"full-information","relevant_dimensions":["antennae","wings"],"bee_group":{"antennae":"A","wings":"2","pattern":"X","legs":"X"},"bonus":1.720000000000001},{"rt":19322.80000001192,"stimulus":"bees-with-color/bee-B2DM.svg","response":0,"trial_type":"image-button-response","trial_index":113,"time_elapsed":1612290,"internal_node_id":"0.0-4.0-0.53","subject_id":"612ba6c594a6d54154a88ae7","study_id":"60edd13110225f80f9f3709b","session_id":"6196e449ca4a3c0da406d8bd","condition":"full-information","relevant_dimensions":["antennae","wings"],"bee_group":{"antennae":"A","wings":"2","pattern":"X","legs":"X"},"action":"harvest","summary":"good-harvest","bonus":1.720000000000001},{"rt":1021.0999999642372,"stimulus":"\n                    <p><b>Action: <em>harvest</em></b></p>\n                    <p>This is the bee that you just saw.</p>\n                    <img src=\"bees-with-color/bee-B2DM.svg\" width=\"200\">\n                    <p><span class=\"greenText\"><b>Successful harvest!</b></span><br>Your pay has increased by $0.02. Your bonus pay is now $1.08.</p>\n            ","response":0,"trial_type":"html-button-response","trial_index":114,"time_elapsed":1613313,"internal_node_id":"0.0-4.0-1.53","subject_id":"612ba6c594a6d54154a88ae7","study_id":"60edd13110225f80f9f3709b","session_id":"6196e449ca4a3c0da406d8bd","condition":"full-information","relevant_dimensions":["antennae","wings"],"bee_group":{"antennae":"A","wings":"2","pattern":"X","legs":"X"},"bonus":1.720000000000001},{"rt":22573.099999964237,"stimulus":"bees-with-color/bee-A1SM.svg","response":0,"trial_type":"image-button-response","trial_index":115,"time_elapsed":1635888,"internal_node_id":"0.0-4.0-0.54","subject_id":"612ba6c594a6d54154a88ae7","study_id":"60edd13110225f80f9f3709b","session_id":"6196e449ca4a3c0da406d8bd","condition":"full-information","relevant_dimensions":["antennae","wings"],"bee_group":{"antennae":"A","wings":"2","pattern":"X","legs":"X"},"action":"harvest","summary":"good-harvest","bonus":1.720000000000001},{"rt":989.5,"stimulus":"\n                    <p><b>Action: <em>harvest</em></b></p>\n                    <p>This is the bee that you just saw.</p>\n                    <img src=\"bees-with-color/bee-A1SM.svg\" width=\"200\">\n                    <p><span class=\"greenText\"><b>Successful harvest!</b></span><br>Your pay has increased by $0.02. Your bonus pay is now $1.10.</p>\n            ","response":0,"trial_type":"html-button-response","trial_index":116,"time_elapsed":1636880,"internal_node_id":"0.0-4.0-1.54","subject_id":"612ba6c594a6d54154a88ae7","study_id":"60edd13110225f80f9f3709b","session_id":"6196e449ca4a3c0da406d8bd","condition":"full-information","relevant_dimensions":["antennae","wings"],"bee_group":{"antennae":"A","wings":"2","pattern":"X","legs":"X"},"bonus":1.720000000000001},{"rt":34140.10000002384,"stimulus":"bees-with-color/bee-B1DF.svg","response":0,"trial_type":"image-button-response","trial_index":117,"time_elapsed":1671019,"internal_node_id":"0.0-4.0-0.55","subject_id":"612ba6c594a6d54154a88ae7","study_id":"60edd13110225f80f9f3709b","session_id":"6196e449ca4a3c0da406d8bd","condition":"full-information","relevant_dimensions":["antennae","wings"],"bee_group":{"antennae":"A","wings":"2","pattern":"X","legs":"X"},"action":"harvest","summary":"good-harvest","bonus":1.720000000000001},{"rt":1584.6000000238419,"stimulus":"\n                    <p><b>Action: <em>harvest</em></b></p>\n                    <p>This is the bee that you just saw.</p>\n                    <img src=\"bees-with-color/bee-B1DF.svg\" width=\"200\">\n                    <p><span class=\"greenText\"><b>Successful harvest!</b></span><br>Your pay has increased by $0.02. Your bonus pay is now $1.12.</p>\n            ","response":0,"trial_type":"html-button-response","trial_index":118,"time_elapsed":1672606,"internal_node_id":"0.0-4.0-1.55","subject_id":"612ba6c594a6d54154a88ae7","study_id":"60edd13110225f80f9f3709b","session_id":"6196e449ca4a3c0da406d8bd","condition":"full-information","relevant_dimensions":["antennae","wings"],"bee_group":{"antennae":"A","wings":"2","pattern":"X","legs":"X"},"bonus":1.720000000000001},{"rt":7279.900000035763,"stimulus":"bees-with-color/bee-A2SF.svg","response":1,"trial_type":"image-button-response","trial_index":119,"time_elapsed":1679888,"internal_node_id":"0.0-4.0-0.56","subject_id":"612ba6c594a6d54154a88ae7","study_id":"60edd13110225f80f9f3709b","session_id":"6196e449ca4a3c0da406d8bd","condition":"full-information","relevant_dimensions":["antennae","wings"],"bee_group":{"antennae":"A","wings":"2","pattern":"X","legs":"X"},"action":"avoid","summary":"good-avoid","bonus":1.720000000000001},{"rt":1154.6000000238419,"stimulus":"\n                    <p><b>Action: <em>avoid</em></b></p>\n                    <p>This is the bee that you just saw.</p>\n                    <img src=\"bees-with-color/bee-A2SF.svg\" width=\"200\">\n                    <p><span class=\"greenText\">Good choice!</span>  This bee would have stung you.<br>Your bonus pay is unchanged, and remains at $1.12.</p>\n            ","response":0,"trial_type":"html-button-response","trial_index":120,"time_elapsed":1681045,"internal_node_id":"0.0-4.0-1.56","subject_id":"612ba6c594a6d54154a88ae7","study_id":"60edd13110225f80f9f3709b","session_id":"6196e449ca4a3c0da406d8bd","condition":"full-information","relevant_dimensions":["antennae","wings"],"bee_group":{"antennae":"A","wings":"2","pattern":"X","legs":"X"},"bonus":1.720000000000001},{"rt":8310.5,"stimulus":"bees-with-color/bee-A2DF.svg","response":1,"trial_type":"image-button-response","trial_index":121,"time_elapsed":1689358,"internal_node_id":"0.0-4.0-0.57","subject_id":"612ba6c594a6d54154a88ae7","study_id":"60edd13110225f80f9f3709b","session_id":"6196e449ca4a3c0da406d8bd","condition":"full-information","relevant_dimensions":["antennae","wings"],"bee_group":{"antennae":"A","wings":"2","pattern":"X","legs":"X"},"action":"avoid","summary":"good-avoid","bonus":1.720000000000001},{"rt":936.8999999761581,"stimulus":"\n                    <p><b>Action: <em>avoid</em></b></p>\n                    <p>This is the bee that you just saw.</p>\n                    <img src=\"bees-with-color/bee-A2DF.svg\" width=\"200\">\n                    <p><span class=\"greenText\">Good choice!</span>  This bee would have stung you.<br>Your bonus pay is unchanged, and remains at $1.12.</p>\n            ","response":0,"trial_type":"html-button-response","trial_index":122,"time_elapsed":1690297,"internal_node_id":"0.0-4.0-1.57","subject_id":"612ba6c594a6d54154a88ae7","study_id":"60edd13110225f80f9f3709b","session_id":"6196e449ca4a3c0da406d8bd","condition":"full-information","relevant_dimensions":["antennae","wings"],"bee_group":{"antennae":"A","wings":"2","pattern":"X","legs":"X"},"bonus":1.720000000000001},{"rt":8881.599999964237,"stimulus":"bees-with-color/bee-B2SF.svg","response":0,"trial_type":"image-button-response","trial_index":123,"time_elapsed":1699182,"internal_node_id":"0.0-4.0-0.58","subject_id":"612ba6c594a6d54154a88ae7","study_id":"60edd13110225f80f9f3709b","session_id":"6196e449ca4a3c0da406d8bd","condition":"full-information","relevant_dimensions":["antennae","wings"],"bee_group":{"antennae":"A","wings":"2","pattern":"X","legs":"X"},"action":"harvest","summary":"good-harvest","bonus":1.720000000000001},{"rt":1085.300000011921,"stimulus":"\n                    <p><b>Action: <em>harvest</em></b></p>\n                    <p>This is the bee that you just saw.</p>\n                    <img src=\"bees-with-color/bee-B2SF.svg\" width=\"200\">\n                    <p><span class=\"greenText\"><b>Successful harvest!</b></span><br>Your pay has increased by $0.02. Your bonus pay is now $1.14.</p>\n            ","response":0,"trial_type":"html-button-response","trial_index":124,"time_elapsed":1700270,"internal_node_id":"0.0-4.0-1.58","subject_id":"612ba6c594a6d54154a88ae7","study_id":"60edd13110225f80f9f3709b","session_id":"6196e449ca4a3c0da406d8bd","condition":"full-information","relevant_dimensions":["antennae","wings"],"bee_group":{"antennae":"A","wings":"2","pattern":"X","legs":"X"},"bonus":1.720000000000001},{"rt":8335,"stimulus":"bees-with-color/bee-B2DF.svg","response":0,"trial_type":"image-button-response","trial_index":125,"time_elapsed":1708607,"internal_node_id":"0.0-4.0-0.59","subject_id":"612ba6c594a6d54154a88ae7","study_id":"60edd13110225f80f9f3709b","session_id":"6196e449ca4a3c0da406d8bd","condition":"full-information","relevant_dimensions":["antennae","wings"],"bee_group":{"antennae":"A","wings":"2","pattern":"X","legs":"X"},"action":"harvest","summary":"good-harvest","bonus":1.720000000000001},{"rt":1166.6000000238419,"stimulus":"\n                    <p><b>Action: <em>harvest</em></b></p>\n                    <p>This is the bee that you just saw.</p>\n                    <img src=\"bees-with-color/bee-B2DF.svg\" width=\"200\">\n                    <p><span class=\"greenText\"><b>Successful harvest!</b></span><br>Your pay has increased by $0.02. Your bonus pay is now $1.16.</p>\n            ","response":0,"trial_type":"html-button-response","trial_index":126,"time_elapsed":1709776,"internal_node_id":"0.0-4.0-1.59","subject_id":"612ba6c594a6d54154a88ae7","study_id":"60edd13110225f80f9f3709b","session_id":"6196e449ca4a3c0da406d8bd","condition":"full-information","relevant_dimensions":["antennae","wings"],"bee_group":{"antennae":"A","wings":"2","pattern":"X","legs":"X"},"bonus":1.720000000000001},{"rt":11033.100000023842,"stimulus":"bees-with-color/bee-B1DM.svg","response":0,"trial_type":"image-button-response","trial_index":127,"time_elapsed":1720804,"internal_node_id":"0.0-4.0-0.60","subject_id":"612ba6c594a6d54154a88ae7","study_id":"60edd13110225f80f9f3709b","session_id":"6196e449ca4a3c0da406d8bd","condition":"full-information","relevant_dimensions":["antennae","wings"],"bee_group":{"antennae":"A","wings":"2","pattern":"X","legs":"X"},"action":"harvest","summary":"good-harvest","bonus":1.720000000000001},{"rt":944.1999999880791,"stimulus":"\n                    <p><b>Action: <em>harvest</em></b></p>\n                    <p>This is the bee that you just saw.</p>\n                    <img src=\"bees-with-color/bee-B1DM.svg\" width=\"200\">\n                    <p><span class=\"greenText\"><b>Successful harvest!</b></span><br>Your pay has increased by $0.02. Your bonus pay is now $1.18.</p>\n            ","response":0,"trial_type":"html-button-response","trial_index":128,"time_elapsed":1721750,"internal_node_id":"0.0-4.0-1.60","subject_id":"612ba6c594a6d54154a88ae7","study_id":"60edd13110225f80f9f3709b","session_id":"6196e449ca4a3c0da406d8bd","condition":"full-information","relevant_dimensions":["antennae","wings"],"bee_group":{"antennae":"A","wings":"2","pattern":"X","legs":"X"},"bonus":1.720000000000001},{"rt":24335.200000047684,"stimulus":"bees-with-color/bee-A1DF.svg","response":0,"trial_type":"image-button-response","trial_index":129,"time_elapsed":1746088,"internal_node_id":"0.0-4.0-0.61","subject_id":"612ba6c594a6d54154a88ae7","study_id":"60edd13110225f80f9f3709b","session_id":"6196e449ca4a3c0da406d8bd","condition":"full-information","relevant_dimensions":["antennae","wings"],"bee_group":{"antennae":"A","wings":"2","pattern":"X","legs":"X"},"action":"harvest","summary":"good-harvest","bonus":1.720000000000001},{"rt":1256.8999999761581,"stimulus":"\n                    <p><b>Action: <em>harvest</em></b></p>\n                    <p>This is the bee that you just saw.</p>\n                    <img src=\"bees-with-color/bee-A1DF.svg\" width=\"200\">\n                    <p><span class=\"greenText\"><b>Successful harvest!</b></span><br>Your pay has increased by $0.02. Your bonus pay is now $1.20.</p>\n            ","response":0,"trial_type":"html-button-response","trial_index":130,"time_elapsed":1747348,"internal_node_id":"0.0-4.0-1.61","subject_id":"612ba6c594a6d54154a88ae7","study_id":"60edd13110225f80f9f3709b","session_id":"6196e449ca4a3c0da406d8bd","condition":"full-information","relevant_dimensions":["antennae","wings"],"bee_group":{"antennae":"A","wings":"2","pattern":"X","legs":"X"},"bonus":1.720000000000001},{"rt":12965.300000011921,"stimulus":"bees-with-color/bee-B2SM.svg","response":0,"trial_type":"image-button-response","trial_index":131,"time_elapsed":1760317,"internal_node_id":"0.0-4.0-0.62","subject_id":"612ba6c594a6d54154a88ae7","study_id":"60edd13110225f80f9f3709b","session_id":"6196e449ca4a3c0da406d8bd","condition":"full-information","relevant_dimensions":["antennae","wings"],"bee_group":{"antennae":"A","wings":"2","pattern":"X","legs":"X"},"action":"harvest","summary":"good-harvest","bonus":1.720000000000001},{"rt":1217.300000011921,"stimulus":"\n                    <p><b>Action: <em>harvest</em></b></p>\n                    <p>This is the bee that you just saw.</p>\n                    <img src=\"bees-with-color/bee-B2SM.svg\" width=\"200\">\n                    <p><span class=\"greenText\"><b>Successful harvest!</b></span><br>Your pay has increased by $0.02. Your bonus pay is now $1.22.</p>\n            ","response":0,"trial_type":"html-button-response","trial_index":132,"time_elapsed":1761538,"internal_node_id":"0.0-4.0-1.62","subject_id":"612ba6c594a6d54154a88ae7","study_id":"60edd13110225f80f9f3709b","session_id":"6196e449ca4a3c0da406d8bd","condition":"full-information","relevant_dimensions":["antennae","wings"],"bee_group":{"antennae":"A","wings":"2","pattern":"X","legs":"X"},"bonus":1.720000000000001},{"rt":15136.300000011921,"stimulus":"bees-with-color/bee-B1SM.svg","response":0,"trial_type":"image-button-response","trial_index":133,"time_elapsed":1776689,"internal_node_id":"0.0-4.0-0.63","subject_id":"612ba6c594a6d54154a88ae7","study_id":"60edd13110225f80f9f3709b","session_id":"6196e449ca4a3c0da406d8bd","condition":"full-information","relevant_dimensions":["antennae","wings"],"bee_group":{"antennae":"A","wings":"2","pattern":"X","legs":"X"},"action":"harvest","summary":"good-harvest","bonus":1.720000000000001},{"rt":1100,"stimulus":"\n                    <p><b>Action: <em>harvest</em></b></p>\n                    <p>This is the bee that you just saw.</p>\n                    <img src=\"bees-with-color/bee-B1SM.svg\" width=\"200\">\n                    <p><span class=\"greenText\"><b>Successful harvest!</b></span><br>Your pay has increased by $0.02. Your bonus pay is now $1.24.</p>\n            ","response":0,"trial_type":"html-button-response","trial_index":134,"time_elapsed":1777791,"internal_node_id":"0.0-4.0-1.63","subject_id":"612ba6c594a6d54154a88ae7","study_id":"60edd13110225f80f9f3709b","session_id":"6196e449ca4a3c0da406d8bd","condition":"full-information","relevant_dimensions":["antennae","wings"],"bee_group":{"antennae":"A","wings":"2","pattern":"X","legs":"X"},"bonus":1.720000000000001},{"rt":4623.299999952316,"stimulus":"You have completed the first part of this experiment.<br><br>You will now begin a shorter second part, in which you will receive no feedback.<br>The same rules regarding bonus pay apply.<br><br>Press any key to begin.","response":" ","trial_type":"html-keyboard-response","trial_index":135,"time_elapsed":1782416,"internal_node_id":"0.0-5.0","subject_id":"612ba6c594a6d54154a88ae7","study_id":"60edd13110225f80f9f3709b","session_id":"6196e449ca4a3c0da406d8bd","condition":"full-information","relevant_dimensions":["antennae","wings"],"bee_group":{"antennae":"A","wings":"2","pattern":"X","legs":"X"},"bonus":1.720000000000001},{"rt":13855,"stimulus":"bees-with-color/bee-A2DM.svg","response":1,"trial_type":"image-button-response","trial_index":136,"time_elapsed":1796279,"internal_node_id":"0.0-6.0-0.0","subject_id":"612ba6c594a6d54154a88ae7","study_id":"60edd13110225f80f9f3709b","session_id":"6196e449ca4a3c0da406d8bd","condition":"full-information","relevant_dimensions":["antennae","wings"],"bee_group":{"antennae":"A","wings":"2","pattern":"X","legs":"X"},"bonus":1.720000000000001},{"rt":6477.899999976158,"stimulus":"bees-with-color/bee-B1DF.svg","response":0,"trial_type":"image-button-response","trial_index":137,"time_elapsed":1802761,"internal_node_id":"0.0-6.0-0.1","subject_id":"612ba6c594a6d54154a88ae7","study_id":"60edd13110225f80f9f3709b","session_id":"6196e449ca4a3c0da406d8bd","condition":"full-information","relevant_dimensions":["antennae","wings"],"bee_group":{"antennae":"A","wings":"2","pattern":"X","legs":"X"},"bonus":1.720000000000001},{"rt":16638.69999998808,"stimulus":"bees-with-color/bee-A1SF.svg","response":0,"trial_type":"image-button-response","trial_index":138,"time_elapsed":1819404,"internal_node_id":"0.0-6.0-0.2","subject_id":"612ba6c594a6d54154a88ae7","study_id":"60edd13110225f80f9f3709b","session_id":"6196e449ca4a3c0da406d8bd","condition":"full-information","relevant_dimensions":["antennae","wings"],"bee_group":{"antennae":"A","wings":"2","pattern":"X","legs":"X"},"bonus":1.720000000000001},{"rt":5275.300000011921,"stimulus":"bees-with-color/bee-A1DF.svg","response":0,"trial_type":"image-button-response","trial_index":139,"time_elapsed":1824683,"internal_node_id":"0.0-6.0-0.3","subject_id":"612ba6c594a6d54154a88ae7","study_id":"60edd13110225f80f9f3709b","session_id":"6196e449ca4a3c0da406d8bd","condition":"full-information","relevant_dimensions":["antennae","wings"],"bee_group":{"antennae":"A","wings":"2","pattern":"X","legs":"X"},"bonus":1.720000000000001},{"rt":16235.200000047684,"stimulus":"bees-with-color/bee-B2DM.svg","response":0,"trial_type":"image-button-response","trial_index":140,"time_elapsed":1840910,"internal_node_id":"0.0-6.0-0.4","subject_id":"612ba6c594a6d54154a88ae7","study_id":"60edd13110225f80f9f3709b","session_id":"6196e449ca4a3c0da406d8bd","condition":"full-information","relevant_dimensions":["antennae","wings"],"bee_group":{"antennae":"A","wings":"2","pattern":"X","legs":"X"},"bonus":1.720000000000001},{"rt":4782.400000035763,"stimulus":"bees-with-color/bee-A2DF.svg","response":1,"trial_type":"image-button-response","trial_index":141,"time_elapsed":1845696,"internal_node_id":"0.0-6.0-0.5","subject_id":"612ba6c594a6d54154a88ae7","study_id":"60edd13110225f80f9f3709b","session_id":"6196e449ca4a3c0da406d8bd","condition":"full-information","relevant_dimensions":["antennae","wings"],"bee_group":{"antennae":"A","wings":"2","pattern":"X","legs":"X"},"bonus":1.720000000000001},{"rt":19198.299999952316,"stimulus":"bees-with-color/bee-A1SM.svg","response":0,"trial_type":"image-button-response","trial_index":142,"time_elapsed":1864897,"internal_node_id":"0.0-6.0-0.6","subject_id":"612ba6c594a6d54154a88ae7","study_id":"60edd13110225f80f9f3709b","session_id":"6196e449ca4a3c0da406d8bd","condition":"full-information","relevant_dimensions":["antennae","wings"],"bee_group":{"antennae":"A","wings":"2","pattern":"X","legs":"X"},"bonus":1.720000000000001},{"rt":10052.699999988079,"stimulus":"bees-with-color/bee-B1SM.svg","response":0,"trial_type":"image-button-response","trial_index":143,"time_elapsed":1874952,"internal_node_id":"0.0-6.0-0.7","subject_id":"612ba6c594a6d54154a88ae7","study_id":"60edd13110225f80f9f3709b","session_id":"6196e449ca4a3c0da406d8bd","condition":"full-information","relevant_dimensions":["antennae","wings"],"bee_group":{"antennae":"A","wings":"2","pattern":"X","legs":"X"},"bonus":1.720000000000001},{"rt":12805,"stimulus":"bees-with-color/bee-B1DM.svg","response":0,"trial_type":"image-button-response","trial_index":144,"time_elapsed":1887762,"internal_node_id":"0.0-6.0-0.8","subject_id":"612ba6c594a6d54154a88ae7","study_id":"60edd13110225f80f9f3709b","session_id":"6196e449ca4a3c0da406d8bd","condition":"full-information","relevant_dimensions":["antennae","wings"],"bee_group":{"antennae":"A","wings":"2","pattern":"X","legs":"X"},"bonus":1.720000000000001},{"rt":13129.899999976158,"stimulus":"bees-with-color/bee-B2SF.svg","response":0,"trial_type":"image-button-response","trial_index":145,"time_elapsed":1900908,"internal_node_id":"0.0-6.0-0.9","subject_id":"612ba6c594a6d54154a88ae7","study_id":"60edd13110225f80f9f3709b","session_id":"6196e449ca4a3c0da406d8bd","condition":"full-information","relevant_dimensions":["antennae","wings"],"bee_group":{"antennae":"A","wings":"2","pattern":"X","legs":"X"},"bonus":1.720000000000001},{"rt":6128.199999988079,"stimulus":"bees-with-color/bee-A2SM.svg","response":1,"trial_type":"image-button-response","trial_index":146,"time_elapsed":1907039,"internal_node_id":"0.0-6.0-0.10","subject_id":"612ba6c594a6d54154a88ae7","study_id":"60edd13110225f80f9f3709b","session_id":"6196e449ca4a3c0da406d8bd","condition":"full-information","relevant_dimensions":["antennae","wings"],"bee_group":{"antennae":"A","wings":"2","pattern":"X","legs":"X"},"bonus":1.720000000000001},{"rt":10929.800000011921,"stimulus":"bees-with-color/bee-B2DF.svg","response":0,"trial_type":"image-button-response","trial_index":147,"time_elapsed":1917971,"internal_node_id":"0.0-6.0-0.11","subject_id":"612ba6c594a6d54154a88ae7","study_id":"60edd13110225f80f9f3709b","session_id":"6196e449ca4a3c0da406d8bd","condition":"full-information","relevant_dimensions":["antennae","wings"],"bee_group":{"antennae":"A","wings":"2","pattern":"X","legs":"X"},"bonus":1.720000000000001},{"rt":21938.600000023842,"stimulus":"bees-with-color/bee-B2SM.svg","response":0,"trial_type":"image-button-response","trial_index":148,"time_elapsed":1939912,"internal_node_id":"0.0-6.0-0.12","subject_id":"612ba6c594a6d54154a88ae7","study_id":"60edd13110225f80f9f3709b","session_id":"6196e449ca4a3c0da406d8bd","condition":"full-information","relevant_dimensions":["antennae","wings"],"bee_group":{"antennae":"A","wings":"2","pattern":"X","legs":"X"},"bonus":1.720000000000001},{"rt":16881.80000001192,"stimulus":"bees-with-color/bee-A1DM.svg","response":0,"trial_type":"image-button-response","trial_index":149,"time_elapsed":1956787,"internal_node_id":"0.0-6.0-0.13","subject_id":"612ba6c594a6d54154a88ae7","study_id":"60edd13110225f80f9f3709b","session_id":"6196e449ca4a3c0da406d8bd","condition":"full-information","relevant_dimensions":["antennae","wings"],"bee_group":{"antennae":"A","wings":"2","pattern":"X","legs":"X"},"bonus":1.720000000000001},{"rt":5518.700000047684,"stimulus":"bees-with-color/bee-B1SF.svg","response":0,"trial_type":"image-button-response","trial_index":150,"time_elapsed":1962310,"internal_node_id":"0.0-6.0-0.14","subject_id":"612ba6c594a6d54154a88ae7","study_id":"60edd13110225f80f9f3709b","session_id":"6196e449ca4a3c0da406d8bd","condition":"full-information","relevant_dimensions":["antennae","wings"],"bee_group":{"antennae":"A","wings":"2","pattern":"X","legs":"X"},"bonus":1.720000000000001},{"rt":5491.399999976158,"stimulus":"bees-with-color/bee-A2SF.svg","response":1,"trial_type":"image-button-response","trial_index":151,"time_elapsed":1967805,"internal_node_id":"0.0-6.0-0.15","subject_id":"612ba6c594a6d54154a88ae7","study_id":"60edd13110225f80f9f3709b","session_id":"6196e449ca4a3c0da406d8bd","condition":"full-information","relevant_dimensions":["antennae","wings"],"bee_group":{"antennae":"A","wings":"2","pattern":"X","legs":"X"},"bonus":1.720000000000001},{"rt":3070.599999964237,"stimulus":"bees-with-color/bee-A2SF.svg","response":1,"trial_type":"image-button-response","trial_index":152,"time_elapsed":1970878,"internal_node_id":"0.0-6.0-0.16","subject_id":"612ba6c594a6d54154a88ae7","study_id":"60edd13110225f80f9f3709b","session_id":"6196e449ca4a3c0da406d8bd","condition":"full-information","relevant_dimensions":["antennae","wings"],"bee_group":{"antennae":"A","wings":"2","pattern":"X","legs":"X"},"bonus":1.720000000000001},{"rt":12896.300000011921,"stimulus":"bees-with-color/bee-B2SM.svg","response":0,"trial_type":"image-button-response","trial_index":153,"time_elapsed":1983777,"internal_node_id":"0.0-6.0-0.17","subject_id":"612ba6c594a6d54154a88ae7","study_id":"60edd13110225f80f9f3709b","session_id":"6196e449ca4a3c0da406d8bd","condition":"full-information","relevant_dimensions":["antennae","wings"],"bee_group":{"antennae":"A","wings":"2","pattern":"X","legs":"X"},"bonus":1.720000000000001},{"rt":9146.399999976158,"stimulus":"bees-with-color/bee-B2DM.svg","response":0,"trial_type":"image-button-response","trial_index":154,"time_elapsed":1992927,"internal_node_id":"0.0-6.0-0.18","subject_id":"612ba6c594a6d54154a88ae7","study_id":"60edd13110225f80f9f3709b","session_id":"6196e449ca4a3c0da406d8bd","condition":"full-information","relevant_dimensions":["antennae","wings"],"bee_group":{"antennae":"A","wings":"2","pattern":"X","legs":"X"},"bonus":1.720000000000001},{"rt":8590.199999988079,"stimulus":"bees-with-color/bee-B2SF.svg","response":0,"trial_type":"image-button-response","trial_index":155,"time_elapsed":2001521,"internal_node_id":"0.0-6.0-0.19","subject_id":"612ba6c594a6d54154a88ae7","study_id":"60edd13110225f80f9f3709b","session_id":"6196e449ca4a3c0da406d8bd","condition":"full-information","relevant_dimensions":["antennae","wings"],"bee_group":{"antennae":"A","wings":"2","pattern":"X","legs":"X"},"bonus":1.720000000000001},{"rt":7395.800000011921,"stimulus":"bees-with-color/bee-A2SM.svg","response":1,"trial_type":"image-button-response","trial_index":156,"time_elapsed":2008920,"internal_node_id":"0.0-6.0-0.20","subject_id":"612ba6c594a6d54154a88ae7","study_id":"60edd13110225f80f9f3709b","session_id":"6196e449ca4a3c0da406d8bd","condition":"full-information","relevant_dimensions":["antennae","wings"],"bee_group":{"antennae":"A","wings":"2","pattern":"X","legs":"X"},"bonus":1.720000000000001},{"rt":3858.199999988079,"stimulus":"bees-with-color/bee-B1SM.svg","response":0,"trial_type":"image-button-response","trial_index":157,"time_elapsed":2012780,"internal_node_id":"0.0-6.0-0.21","subject_id":"612ba6c594a6d54154a88ae7","study_id":"60edd13110225f80f9f3709b","session_id":