[{"success":true,"trial_type":"fullscreen","trial_index":0,"time_elapsed":2464,"internal_node_id":"0.0-0.0","subject_id":"5f5a27482be30c0718bbf1e0","study_id":"6197b3f67c2b5cd3b6d9596a","session_id":"619be58dddedfe58ac30e535","condition":"contingent","relevant_dimensions":["wings","pattern"],"bee_group":{"antennae":"X","wings":"2","pattern":"D","legs":"X"},"bonus":0.20000000000000126},{"success":true,"timeout":false,"failed_images":[],"failed_audio":[],"failed_video":[],"trial_type":"preload","trial_index":1,"time_elapsed":2468,"internal_node_id":"0.0-1.0","subject_id":"5f5a27482be30c0718bbf1e0","study_id":"6197b3f67c2b5cd3b6d9596a","session_id":"619be58dddedfe58ac30e535","condition":"contingent","relevant_dimensions":["wings","pattern"],"bee_group":{"antennae":"X","wings":"2","pattern":"D","legs":"X"},"bonus":0.20000000000000126},{"rt":1464,"stimulus":"Welcome! Press any key to begin.","response":"k","trial_type":"html-keyboard-response","trial_index":2,"time_elapsed":3933,"internal_node_id":"0.0-2.0","subject_id":"5f5a27482be30c0718bbf1e0","study_id":"6197b3f67c2b5cd3b6d9596a","session_id":"619be58dddedfe58ac30e535","condition":"contingent","relevant_dimensions":["wings","pattern"],"bee_group":{"antennae":"X","wings":"2","pattern":"D","legs":"X"},"bonus":0.20000000000000126},{"view_history":[{"page_index":0,"viewing_time":1023},{"page_index":1,"viewing_time":2678},{"page_index":2,"viewing_time":2210},{"page_index":3,"viewing_time":1863},{"page_index":4,"viewing_time":748},{"page_index":5,"viewing_time":702},{"page_index":6,"viewing_time":1035},{"page_index":7,"viewing_time":2481},{"page_index":8,"viewing_time":965},{"page_index":9,"viewing_time":2144},{"page_index":10,"viewing_time":1532},{"page_index":11,"viewing_time":1032},{"page_index":10,"viewing_time":715},{"page_index":9,"viewing_time":595},{"page_index":8,"viewing_time":2397},{"page_index":9,"viewing_time":1560},{"page_index":10,"viewing_time":864},{"page_index":11,"viewing_time":10397},{"page_index":12,"viewing_time":2663},{"page_index":13,"viewing_time":1006},{"page_index":14,"viewing_time":1109}],"rt":39720,"trial_type":"instructions","trial_index":3,"time_elapsed":43651,"internal_node_id":"0.0-3.0-0.0","subject_id":"5f5a27482be30c0718bbf1e0","study_id":"6197b3f67c2b5cd3b6d9596a","session_id":"619be58dddedfe58ac30e535","condition":"contingent","relevant_dimensions":["wings","pattern"],"bee_group":{"antennae":"X","wings":"2","pattern":"D","legs":"X"},"bonus":0.20000000000000126},{"rt":6926,"response":{"Q0":["Two or six legs","Stripes or spots on body","Single or double wings","Antennae or no antennae"]},"question_order":[0],"trial_type":"survey-multi-select","trial_index":4,"time_elapsed":50580,"internal_node_id":"0.0-3.0-1.0","subject_id":"5f5a27482be30c0718bbf1e0","study_id":"6197b3f67c2b5cd3b6d9596a","session_id":"619be58dddedfe58ac30e535","condition":"contingent","relevant_dimensions":["wings","pattern"],"bee_group":{"antennae":"X","wings":"2","pattern":"D","legs":"X"},"correct":true,"bonus":0.20000000000000126},{"rt":15206,"response":{"Q1":"No.","Q2":"Based on the four features of the bee.","Q3":"You do not learn if it was friendly or dangerous, and do not alter your bonus."},"question_order":[0,1,2],"trial_type":"survey-multi-choice","trial_index":5,"time_elapsed":65789,"internal_node_id":"0.0-3.0-2.0","subject_id":"5f5a27482be30c0718bbf1e0","study_id":"6197b3f67c2b5cd3b6d9596a","session_id":"619be58dddedfe58ac30e535","condition":"contingent","relevant_dimensions":["wings","pattern"],"bee_group":{"antennae":"X","wings":"2","pattern":"D","legs":"X"},"correct":true,"bonus":0.20000000000000126},{"rt":1139,"stimulus":"<p>Congrats, you got everything right<br>When you're ready, click the button below to continue to the experiment.</p>","response":0,"trial_type":"html-button-response","trial_index":6,"time_elapsed":66929,"internal_node_id":"0.0-3.0-3.0","subject_id":"5f5a27482be30c0718bbf1e0","study_id":"6197b3f67c2b5cd3b6d9596a","session_id":"619be58dddedfe58ac30e535","condition":"contingent","relevant_dimensions":["wings","pattern"],"bee_group":{"antennae":"X","wings":"2","pattern":"D","legs":"X"},"bonus":0.20000000000000126},{"rt":5646,"stimulus":"bees-with-color/bee-A2DF.svg","response":0,"trial_type":"image-button-response","trial_index":7,"time_elapsed":72578,"internal_node_id":"0.0-4.0-0.0","subject_id":"5f5a27482be30c0718bbf1e0","study_id":"6197b3f67c2b5cd3b6d9596a","session_id":"619be58dddedfe58ac30e535","condition":"contingent","relevant_dimensions":["wings","pattern"],"bee_group":{"antennae":"X","wings":"2","pattern":"D","legs":"X"},"action":"harvest","summary":"bad-harvest","bonus":0.20000000000000126},{"rt":7309,"stimulus":"\n                    <p><b>Action: <em>harvest</em></b></p>\n                    <p>This is the bee that you just saw.</p>\n                    <img src=\"bees-with-color/bee-A2DF.svg\" width=\"200\">\n                    <p><span class=\"redText\">Bad choice, the bee was angry.</span><br><b>You have been stung!</b><br>Your pay has been decreased by $0.10. Your bonus pay is now $0.44.</p>\n            ","response":0,"trial_type":"html-button-response","trial_index":8,"time_elapsed":79895,"internal_node_id":"0.0-4.0-1.0","subject_id":"5f5a27482be30c0718bbf1e0","study_id":"6197b3f67c2b5cd3b6d9596a","session_id":"619be58dddedfe58ac30e535","condition":"contingent","relevant_dimensions":["wings","pattern"],"bee_group":{"antennae":"X","wings":"2","pattern":"D","legs":"X"},"bonus":0.20000000000000126},{"rt":2909,"stimulus":"bees-with-color/bee-A2SF.svg","response":0,"trial_type":"image-button-response","trial_index":9,"time_elapsed":82805,"internal_node_id":"0.0-4.0-0.1","subject_id":"5f5a27482be30c0718bbf1e0","study_id":"6197b3f67c2b5cd3b6d9596a","session_id":"619be58dddedfe58ac30e535","condition":"contingent","relevant_dimensions":["wings","pattern"],"bee_group":{"antennae":"X","wings":"2","pattern":"D","legs":"X"},"action":"harvest","summary":"good-harvest","bonus":0.20000000000000126},{"rt":938,"stimulus":"\n                    <p><b>Action: <em>harvest</em></b></p>\n                    <p>This is the bee that you just saw.</p>\n                    <img src=\"bees-with-color/bee-A2SF.svg\" width=\"200\">\n                    <p><span class=\"greenText\"><b>Successful harvest!</b></span><br>Your pay has increased by $0.02. Your bonus pay is now $0.46.</p>\n            ","response":0,"trial_type":"html-button-response","trial_index":10,"time_elapsed":83744,"internal_node_id":"0.0-4.0-1.1","subject_id":"5f5a27482be30c0718bbf1e0","study_id":"6197b3f67c2b5cd3b6d9596a","session_id":"619be58dddedfe58ac30e535","condition":"contingent","relevant_dimensions":["wings","pattern"],"bee_group":{"antennae":"X","wings":"2","pattern":"D","legs":"X"},"bonus":0.20000000000000126},{"rt":4125,"stimulus":"bees-with-color/bee-B2SM.svg","response":0,"trial_type":"image-button-response","trial_index":11,"time_elapsed":87871,"internal_node_id":"0.0-4.0-0.2","subject_id":"5f5a27482be30c0718bbf1e0","study_id":"6197b3f67c2b5cd3b6d9596a","session_id":"619be58dddedfe58ac30e535","condition":"contingent","relevant_dimensions":["wings","pattern"],"bee_group":{"antennae":"X","wings":"2","pattern":"D","legs":"X"},"action":"harvest","summary":"good-harvest","bonus":0.20000000000000126},{"rt":656,"stimulus":"\n                    <p><b>Action: <em>harvest</em></b></p>\n                    <p>This is the bee that you just saw.</p>\n                    <img src=\"bees-with-color/bee-B2SM.svg\" width=\"200\">\n                    <p><span class=\"greenText\"><b>Successful harvest!</b></span><br>Your pay has increased by $0.02. Your bonus pay is now $0.48.</p>\n            ","response":0,"trial_type":"html-button-response","trial_index":12,"time_elapsed":88527,"internal_node_id":"0.0-4.0-1.2","subject_id":"5f5a27482be30c0718bbf1e0","study_id":"6197b3f67c2b5cd3b6d9596a","session_id":"619be58dddedfe58ac30e535","condition":"contingent","relevant_dimensions":["wings","pattern"],"bee_group":{"antennae":"X","wings":"2","pattern":"D","legs":"X"},"bonus":0.20000000000000126},{"rt":7144,"stimulus":"bees-with-color/bee-A1SF.svg","response":0,"trial_type":"image-button-response","trial_index":13,"time_elapsed":95673,"internal_node_id":"0.0-4.0-0.3","subject_id":"5f5a27482be30c0718bbf1e0","study_id":"6197b3f67c2b5cd3b6d9596a","session_id":"619be58dddedfe58ac30e535","condition":"contingent","relevant_dimensions":["wings","pattern"],"bee_group":{"antennae":"X","wings":"2","pattern":"D","legs":"X"},"action":"harvest","summary":"good-harvest","bonus":0.20000000000000126},{"rt":689,"stimulus":"\n                    <p><b>Action: <em>harvest</em></b></p>\n                    <p>This is the bee that you just saw.</p>\n                    <img src=\"bees-with-color/bee-A1SF.svg\" width=\"200\">\n                    <p><span class=\"greenText\"><b>Successful harvest!</b></span><br>Your pay has increased by $0.02. Your bonus pay is now $0.50.</p>\n            ","response":0,"trial_type":"html-button-response","trial_index":14,"time_elapsed":96363,"internal_node_id":"0.0-4.0-1.3","subject_id":"5f5a27482be30c0718bbf1e0","study_id":"6197b3f67c2b5cd3b6d9596a","session_id":"619be58dddedfe58ac30e535","condition":"contingent","relevant_dimensions":["wings","pattern"],"bee_group":{"antennae":"X","wings":"2","pattern":"D","legs":"X"},"bonus":0.20000000000000126},{"rt":2112,"stimulus":"bees-with-color/bee-B1DF.svg","response":0,"trial_type":"image-button-response","trial_index":15,"time_elapsed":98475,"internal_node_id":"0.0-4.0-0.4","subject_id":"5f5a27482be30c0718bbf1e0","study_id":"6197b3f67c2b5cd3b6d9596a","session_id":"619be58dddedfe58ac30e535","condition":"contingent","relevant_dimensions":["wings","pattern"],"bee_group":{"antennae":"X","wings":"2","pattern":"D","legs":"X"},"action":"harvest","summary":"good-harvest","bonus":0.20000000000000126},{"rt":894,"stimulus":"\n                    <p><b>Action: <em>harvest</em></b></p>\n                    <p>This is the bee that you just saw.</p>\n                    <img src=\"bees-with-color/bee-B1DF.svg\" width=\"200\">\n                    <p><span class=\"greenText\"><b>Successful harvest!</b></span><br>Your pay has increased by $0.02. Your bonus pay is now $0.52.</p>\n            ","response":0,"trial_type":"html-button-response","trial_index":16,"time_elapsed":99369,"internal_node_id":"0.0-4.0-1.4","subject_id":"5f5a27482be30c0718bbf1e0","study_id":"6197b3f67c2b5cd3b6d9596a","session_id":"619be58dddedfe58ac30e535","condition":"contingent","relevant_dimensions":["wings","pattern"],"bee_group":{"antennae":"X","wings":"2","pattern":"D","legs":"X"},"bonus":0.20000000000000126},{"rt":2016,"stimulus":"bees-with-color/bee-B2DF.svg","response":0,"trial_type":"image-button-response","trial_index":17,"time_elapsed":101386,"internal_node_id":"0.0-4.0-0.5","subject_id":"5f5a27482be30c0718bbf1e0","study_id":"6197b3f67c2b5cd3b6d9596a","session_id":"619be58dddedfe58ac30e535","condition":"contingent","relevant_dimensions":["wings","pattern"],"bee_group":{"antennae":"X","wings":"2","pattern":"D","legs":"X"},"action":"harvest","summary":"bad-harvest","bonus":0.20000000000000126},{"rt":1347,"stimulus":"\n                    <p><b>Action: <em>harvest</em></b></p>\n                    <p>This is the bee that you just saw.</p>\n                    <img src=\"bees-with-color/bee-B2DF.svg\" width=\"200\">\n                    <p><span class=\"redText\">Bad choice, the bee was angry.</span><br><b>You have been stung!</b><br>Your pay has been decreased by $0.10. Your bonus pay is now $0.42.</p>\n            ","response":0,"trial_type":"html-button-response","trial_index":18,"time_elapsed":102734,"internal_node_id":"0.0-4.0-1.5","subject_id":"5f5a27482be30c0718bbf1e0","study_id":"6197b3f67c2b5cd3b6d9596a","session_id":"619be58dddedfe58ac30e535","condition":"contingent","relevant_dimensions":["wings","pattern"],"bee_group":{"antennae":"X","wings":"2","pattern":"D","legs":"X"},"bonus":0.20000000000000126},{"rt":1127,"stimulus":"bees-with-color/bee-B2SF.svg","response":0,"trial_type":"image-button-response","trial_index":19,"time_elapsed":103863,"internal_node_id":"0.0-4.0-0.6","subject_id":"5f5a27482be30c0718bbf1e0","study_id":"6197b3f67c2b5cd3b6d9596a","session_id":"619be58dddedfe58ac30e535","condition":"contingent","relevant_dimensions":["wings","pattern"],"bee_group":{"antennae":"X","wings":"2","pattern":"D","legs":"X"},"action":"harvest","summary":"good-harvest","bonus":0.20000000000000126},{"rt":746,"stimulus":"\n                    <p><b>Action: <em>harvest</em></b></p>\n                    <p>This is the bee that you just saw.</p>\n                    <img src=\"bees-with-color/bee-B2SF.svg\" width=\"200\">\n                    <p><span class=\"greenText\"><b>Successful harvest!</b></span><br>Your pay has increased by $0.02. Your bonus pay is now $0.44.</p>\n            ","response":0,"trial_type":"html-button-response","trial_index":20,"time_elapsed":104610,"internal_node_id":"0.0-4.0-1.6","subject_id":"5f5a27482be30c0718bbf1e0","study_id":"6197b3f67c2b5cd3b6d9596a","session_id":"619be58dddedfe58ac30e535","condition":"contingent","relevant_dimensions":["wings","pattern"],"bee_group":{"antennae":"X","wings":"2","pattern":"D","legs":"X"},"bonus":0.20000000000000126},{"rt":3890,"stimulus":"bees-with-color/bee-B1SM.svg","response":0,"trial_type":"image-button-response","trial_index":21,"time_elapsed":108502,"internal_node_id":"0.0-4.0-0.7","subject_id":"5f5a27482be30c0718bbf1e0","study_id":"6197b3f67c2b5cd3b6d9596a","session_id":"619be58dddedfe58ac30e535","condition":"contingent","relevant_dimensions":["wings","pattern"],"bee_group":{"antennae":"X","wings":"2","pattern":"D","legs":"X"},"action":"harvest","summary":"good-harvest","bonus":0.20000000000000126},{"rt":795,"stimulus":"\n                    <p><b>Action: <em>harvest</em></b></p>\n                    <p>This is the bee that you just saw.</p>\n                    <img src=\"bees-with-color/bee-B1SM.svg\" width=\"200\">\n                    <p><span class=\"greenText\"><b>Successful harvest!</b></span><br>Your pay has increased by $0.02. Your bonus pay is now $0.46.</p>\n            ","response":0,"trial_type":"html-button-response","trial_index":22,"time_elapsed":109298,"internal_node_id":"0.0-4.0-1.7","subject_id":"5f5a27482be30c0718bbf1e0","study_id":"6197b3f67c2b5cd3b6d9596a","session_id":"619be58dddedfe58ac30e535","condition":"contingent","relevant_dimensions":["wings","pattern"],"bee_group":{"antennae":"X","wings":"2","pattern":"D","legs":"X"},"bonus":0.20000000000000126},{"rt":1815,"stimulus":"bees-with-color/bee-A1DF.svg","response":0,"trial_type":"image-button-response","trial_index":23,"time_elapsed":111115,"internal_node_id":"0.0-4.0-0.8","subject_id":"5f5a27482be30c0718bbf1e0","study_id":"6197b3f67c2b5cd3b6d9596a","session_id":"619be58dddedfe58ac30e535","condition":"contingent","relevant_dimensions":["wings","pattern"],"bee_group":{"antennae":"X","wings":"2","pattern":"D","legs":"X"},"action":"harvest","summary":"good-harvest","bonus":0.20000000000000126},{"rt":989,"stimulus":"\n                    <p><b>Action: <em>harvest</em></b></p>\n                    <p>This is the bee that you just saw.</p>\n                    <img src=\"bees-with-color/bee-A1DF.svg\" width=\"200\">\n                    <p><span class=\"greenText\"><b>Successful harvest!</b></span><br>Your pay has increased by $0.02. Your bonus pay is now $0.48.</p>\n            ","response":0,"trial_type":"html-button-response","trial_index":24,"time_elapsed":112104,"internal_node_id":"0.0-4.0-1.8","subject_id":"5f5a27482be30c0718bbf1e0","study_id":"6197b3f67c2b5cd3b6d9596a","session_id":"619be58dddedfe58ac30e535","condition":"contingent","relevant_dimensions":["wings","pattern"],"bee_group":{"antennae":"X","wings":"2","pattern":"D","legs":"X"},"bonus":0.20000000000000126},{"rt":2423,"stimulus":"bees-with-color/bee-A1DM.svg","response":0,"trial_type":"image-button-response","trial_index":25,"time_elapsed":114529,"internal_node_id":"0.0-4.0-0.9","subject_id":"5f5a27482be30c0718bbf1e0","study_id":"6197b3f67c2b5cd3b6d9596a","session_id":"619be58dddedfe58ac30e535","condition":"contingent","relevant_dimensions":["wings","pattern"],"bee_group":{"antennae":"X","wings":"2","pattern":"D","legs":"X"},"action":"harvest","summary":"good-harvest","bonus":0.20000000000000126},{"rt":652,"stimulus":"\n                    <p><b>Action: <em>harvest</em></b></p>\n                    <p>This is the bee that you just saw.</p>\n                    <img src=\"bees-with-color/bee-A1DM.svg\" width=\"200\">\n                    <p><span class=\"greenText\"><b>Successful harvest!</b></span><br>Your pay has increased by $0.02. Your bonus pay is now $0.50.</p>\n            ","response":0,"trial_type":"html-button-response","trial_index":26,"time_elapsed":115182,"internal_node_id":"0.0-4.0-1.9","subject_id":"5f5a27482be30c0718bbf1e0","study_id":"6197b3f67c2b5cd3b6d9596a","session_id":"619be58dddedfe58ac30e535","condition":"contingent","relevant_dimensions":["wings","pattern"],"bee_group":{"antennae":"X","wings":"2","pattern":"D","legs":"X"},"bonus":0.20000000000000126},{"rt":3722,"stimulus":"bees-with-color/bee-B2DM.svg","response":0,"trial_type":"image-button-response","trial_index":27,"time_elapsed":118904,"internal_node_id":"0.0-4.0-0.10","subject_id":"5f5a27482be30c0718bbf1e0","study_id":"6197b3f67c2b5cd3b6d9596a","session_id":"619be58dddedfe58ac30e535","condition":"contingent","relevant_dimensions":["wings","pattern"],"bee_group":{"antennae":"X","wings":"2","pattern":"D","legs":"X"},"action":"harvest","summary":"bad-harvest","bonus":0.20000000000000126},{"rt":1849,"stimulus":"\n                    <p><b>Action: <em>harvest</em></b></p>\n                    <p>This is the bee that you just saw.</p>\n                    <img src=\"bees-with-color/bee-B2DM.svg\" width=\"200\">\n                    <p><span class=\"redText\">Bad choice, the bee was angry.</span><br><b>You have been stung!</b><br>Your pay has been decreased by $0.10. Your bonus pay is now $0.40.</p>\n            ","response":0,"trial_type":"html-button-response","trial_index":28,"time_elapsed":120754,"internal_node_id":"0.0-4.0-1.10","subject_id":"5f5a27482be30c0718bbf1e0","study_id":"6197b3f67c2b5cd3b6d9596a","session_id":"619be58dddedfe58ac30e535","condition":"contingent","relevant_dimensions":["wings","pattern"],"bee_group":{"antennae":"X","wings":"2","pattern":"D","legs":"X"},"bonus":0.20000000000000126},{"rt":3059,"stimulus":"bees-with-color/bee-B1DM.svg","response":0,"trial_type":"image-button-response","trial_index":29,"time_elapsed":123814,"internal_node_id":"0.0-4.0-0.11","subject_id":"5f5a27482be30c0718bbf1e0","study_id":"6197b3f67c2b5cd3b6d9596a","session_id":"619be58dddedfe58ac30e535","condition":"contingent","relevant_dimensions":["wings","pattern"],"bee_group":{"antennae":"X","wings":"2","pattern":"D","legs":"X"},"action":"harvest","summary":"good-harvest","bonus":0.20000000000000126},{"rt":634,"stimulus":"\n                    <p><b>Action: <em>harvest</em></b></p>\n                    <p>This is the bee that you just saw.</p>\n                    <img src=\"bees-with-color/bee-B1DM.svg\" width=\"200\">\n                    <p><span class=\"greenText\"><b>Successful harvest!</b></span><br>Your pay has increased by $0.02. Your bonus pay is now $0.42.</p>\n            ","response":0,"trial_type":"html-button-response","trial_index":30,"time_elapsed":124448,"internal_node_id":"0.0-4.0-1.11","subject_id":"5f5a27482be30c0718bbf1e0","study_id":"6197b3f67c2b5cd3b6d9596a","session_id":"619be58dddedfe58ac30e535","condition":"contingent","relevant_dimensions":["wings","pattern"],"bee_group":{"antennae":"X","wings":"2","pattern":"D","legs":"X"},"bonus":0.20000000000000126},{"rt":1737,"stimulus":"bees-with-color/bee-B1SF.svg","response":0,"trial_type":"image-button-response","trial_index":31,"time_elapsed":126186,"internal_node_id":"0.0-4.0-0.12","subject_id":"5f5a27482be30c0718bbf1e0","study_id":"6197b3f67c2b5cd3b6d9596a","session_id":"619be58dddedfe58ac30e535","condition":"contingent","relevant_dimensions":["wings","pattern"],"bee_group":{"antennae":"X","wings":"2","pattern":"D","legs":"X"},"action":"harvest","summary":"good-harvest","bonus":0.20000000000000126},{"rt":615,"stimulus":"\n                    <p><b>Action: <em>harvest</em></b></p>\n                    <p>This is the bee that you just saw.</p>\n                    <img src=\"bees-with-color/bee-B1SF.svg\" width=\"200\">\n                    <p><span class=\"greenText\"><b>Successful harvest!</b></span><br>Your pay has increased by $0.02. Your bonus pay is now $0.44.</p>\n            ","response":0,"trial_type":"html-button-response","trial_index":32,"time_elapsed":126802,"internal_node_id":"0.0-4.0-1.12","subject_id":"5f5a27482be30c0718bbf1e0","study_id":"6197b3f67c2b5cd3b6d9596a","session_id":"619be58dddedfe58ac30e535","condition":"contingent","relevant_dimensions":["wings","pattern"],"bee_group":{"antennae":"X","wings":"2","pattern":"D","legs":"X"},"bonus":0.20000000000000126},{"rt":3278,"stimulus":"bees-with-color/bee-A2DM.svg","response":1,"trial_type":"image-button-response","trial_index":33,"time_elapsed":130080,"internal_node_id":"0.0-4.0-0.13","subject_id":"5f5a27482be30c0718bbf1e0","study_id":"6197b3f67c2b5cd3b6d9596a","session_id":"619be58dddedfe58ac30e535","condition":"contingent","relevant_dimensions":["wings","pattern"],"bee_group":{"antennae":"X","wings":"2","pattern":"D","legs":"X"},"action":"avoid","summary":"good-avoid","bonus":0.20000000000000126},{"rt":4224,"stimulus":"\n                    <p><b>Action: <em>avoid</em></b></p>\n                    <p>This is the bee that you just saw.</p>\n                    <img src=\"bees-with-color/bee-A2DM.svg\" width=\"200\">\n                    <p><br>Your bonus pay is unchanged, and remains at $0.44.</p>\n            ","response":0,"trial_type":"html-button-response","trial_index":34,"time_elapsed":134304,"internal_node_id":"0.0-4.0-1.13","subject_id":"5f5a27482be30c0718bbf1e0","study_id":"6197b3f67c2b5cd3b6d9596a","session_id":"619be58dddedfe58ac30e535","condition":"contingent","relevant_dimensions":["wings","pattern"],"bee_group":{"antennae":"X","wings":"2","pattern":"D","legs":"X"},"bonus":0.20000000000000126},{"rt":2785,"stimulus":"bees-with-color/bee-A2SM.svg","response":0,"trial_type":"image-button-response","trial_index":35,"time_elapsed":137090,"internal_node_id":"0.0-4.0-0.14","subject_id":"5f5a27482be30c0718bbf1e0","study_id":"6197b3f67c2b5cd3b6d9596a","session_id":"619be58dddedfe58ac30e535","condition":"contingent","relevant_dimensions":["wings","pattern"],"bee_group":{"antennae":"X","wings":"2","pattern":"D","legs":"X"},"action":"harvest","summary":"good-harvest","bonus":0.20000000000000126},{"rt":734,"stimulus":"\n                    <p><b>Action: <em>harvest</em></b></p>\n                    <p>This is the bee that you just saw.</p>\n                    <img src=\"bees-with-color/bee-A2SM.svg\" width=\"200\">\n                    <p><span class=\"greenText\"><b>Successful harvest!</b></span><br>Your pay has increased by $0.02. Your bonus pay is now $0.46.</p>\n            ","response":0,"trial_type":"html-button-response","trial_index":36,"time_elapsed":137824,"internal_node_id":"0.0-4.0-1.14","subject_id":"5f5a27482be30c0718bbf1e0","study_id":"6197b3f67c2b5cd3b6d9596a","session_id":"619be58dddedfe58ac30e535","condition":"contingent","relevant_dimensions":["wings","pattern"],"bee_group":{"antennae":"X","wings":"2","pattern":"D","legs":"X"},"bonus":0.20000000000000126},{"rt":28395,"stimulus":"bees-with-color/bee-A1SM.svg","response":0,"trial_type":"image-button-response","trial_index":37,"time_elapsed":166219,"internal_node_id":"0.0-4.0-0.15","subject_id":"5f5a27482be30c0718bbf1e0","study_id":"6197b3f67c2b5cd3b6d9596a","session_id":"619be58dddedfe58ac30e535","condition":"contingent","relevant_dimensions":["wings","pattern"],"bee_group":{"antennae":"X","wings":"2","pattern":"D","legs":"X"},"action":"harvest","summary":"good-harvest","bonus":0.20000000000000126},{"rt":661,"stimulus":"\n                    <p><b>Action: <em>harvest</em></b></p>\n                    <p>This is the bee that you just saw.</p>\n                    <img src=\"bees-with-color/bee-A1SM.svg\" width=\"200\">\n                    <p><span class=\"greenText\"><b>Successful harvest!</b></span><br>Your pay has increased by $0.02. Your bonus pay is now $0.48.</p>\n            ","response":0,"trial_type":"html-button-response","trial_index":38,"time_elapsed":166881,"internal_node_id":"0.0-4.0-1.15","subject_id":"5f5a27482be30c0718bbf1e0","study_id":"6197b3f67c2b5cd3b6d9596a","session_id":"619be58dddedfe58ac30e535","condition":"contingent","relevant_dimensions":["wings","pattern"],"bee_group":{"antennae":"X","wings":"2","pattern":"D","legs":"X"},"bonus":0.20000000000000126},{"rt":3812,"stimulus":"bees-with-color/bee-B2DF.svg","response":0,"trial_type":"image-button-response","trial_index":39,"time_elapsed":170693,"internal_node_id":"0.0-4.0-0.16","subject_id":"5f5a27482be30c0718bbf1e0","study_id":"6197b3f67c2b5cd3b6d9596a","session_id":"619be58dddedfe58ac30e535","condition":"contingent","relevant_dimensions":["wings","pattern"],"bee_group":{"antennae":"X","wings":"2","pattern":"D","legs":"X"},"action":"harvest","summary":"bad-harvest","bonus":0.20000000000000126},{"rt":776,"stimulus":"\n                    <p><b>Action: <em>harvest</em></b></p>\n                    <p>This is the bee that you just saw.</p>\n                    <img src=\"bees-with-color/bee-B2DF.svg\" width=\"200\">\n                    <p><span class=\"redText\">Bad choice, the bee was angry.</span><br><b>You have been stung!</b><br>Your pay has been decreased by $0.10. Your bonus pay is now $0.38.</p>\n            ","response":0,"trial_type":"html-button-response","trial_index":40,"time_elapsed":171471,"internal_node_id":"0.0-4.0-1.16","subject_id":"5f5a27482be30c0718bbf1e0","study_id":"6197b3f67c2b5cd3b6d9596a","session_id":"619be58dddedfe58ac30e535","condition":"contingent","relevant_dimensions":["wings","pattern"],"bee_group":{"antennae":"X","wings":"2","pattern":"D","legs":"X"},"bonus":0.20000000000000126},{"rt":997,"stimulus":"bees-with-color/bee-B1DF.svg","response":0,"trial_type":"image-button-response","trial_index":41,"time_elapsed":172469,"internal_node_id":"0.0-4.0-0.17","subject_id":"5f5a27482be30c0718bbf1e0","study_id":"6197b3f67c2b5cd3b6d9596a","session_id":"619be58dddedfe58ac30e535","condition":"contingent","relevant_dimensions":["wings","pattern"],"bee_group":{"antennae":"X","wings":"2","pattern":"D","legs":"X"},"action":"harvest","summary":"good-harvest","bonus":0.20000000000000126},{"rt":599,"stimulus":"\n                    <p><b>Action: <em>harvest</em></b></p>\n                    <p>This is the bee that you just saw.</p>\n                    <img src=\"bees-with-color/bee-B1DF.svg\" width=\"200\">\n                    <p><span class=\"greenText\"><b>Successful harvest!</b></span><br>Your pay has increased by $0.02. Your bonus pay is now $0.40.</p>\n            ","response":0,"trial_type":"html-button-response","trial_index":42,"time_elapsed":173069,"internal_node_id":"0.0-4.0-1.17","subject_id":"5f5a27482be30c0718bbf1e0","study_id":"6197b3f67c2b5cd3b6d9596a","session_id":"619be58dddedfe58ac30e535","condition":"contingent","relevant_dimensions":["wings","pattern"],"bee_group":{"antennae":"X","wings":"2","pattern":"D","legs":"X"},"bonus":0.20000000000000126},{"rt":4888,"stimulus":"bees-with-color/bee-B2SM.svg","response":0,"trial_type":"image-button-response","trial_index":43,"time_elapsed":177959,"internal_node_id":"0.0-4.0-0.18","subject_id":"5f5a27482be30c0718bbf1e0","study_id":"6197b3f67c2b5cd3b6d9596a","session_id":"619be58dddedfe58ac30e535","condition":"contingent","relevant_dimensions":["wings","pattern"],"bee_group":{"antennae":"X","wings":"2","pattern":"D","legs":"X"},"action":"harvest","summary":"good-harvest","bonus":0.20000000000000126},{"rt":738,"stimulus":"\n                    <p><b>Action: <em>harvest</em></b></p>\n                    <p>This is the bee that you just saw.</p>\n                    <img src=\"bees-with-color/bee-B2SM.svg\" width=\"200\">\n                    <p><span class=\"greenText\"><b>Successful harvest!</b></span><br>Your pay has increased by $0.02. Your bonus pay is now $0.42.</p>\n            ","response":0,"trial_type":"html-button-response","trial_index":44,"time_elapsed":178697,"internal_node_id":"0.0-4.0-1.18","subject_id":"5f5a27482be30c0718bbf1e0","study_id":"6197b3f67c2b5cd3b6d9596a","session_id":"619be58dddedfe58ac30e535","condition":"contingent","relevant_dimensions":["wings","pattern"],"bee_group":{"antennae":"X","wings":"2","pattern":"D","legs":"X"},"bonus":0.20000000000000126},{"rt":5588,"stimulus":"bees-with-color/bee-A1DF.svg","response":0,"trial_type":"image-button-response","trial_index":45,"time_elapsed":184285,"internal_node_id":"0.0-4.0-0.19","subject_id":"5f5a27482be30c0718bbf1e0","study_id":"6197b3f67c2b5cd3b6d9596a","session_id":"619be58dddedfe58ac30e535","condition":"contingent","relevant_dimensions":["wings","pattern"],"bee_group":{"antennae":"X","wings":"2","pattern":"D","legs":"X"},"action":"harvest","summary":"good-harvest","bonus":0.20000000000000126},{"rt":625,"stimulus":"\n                    <p><b>Action: <em>harvest</em></b></p>\n                    <p>This is the bee that you just saw.</p>\n                    <img src=\"bees-with-color/bee-A1DF.svg\" width=\"200\">\n                    <p><span class=\"greenText\"><b>Successful harvest!</b></span><br>Your pay has increased by $0.02. Your bonus pay is now $0.44.</p>\n            ","response":0,"trial_type":"html-button-response","trial_index":46,"time_elapsed":184911,"internal_node_id":"0.0-4.0-1.19","subject_id":"5f5a27482be30c0718bbf1e0","study_id":"6197b3f67c2b5cd3b6d9596a","session_id":"619be58dddedfe58ac30e535","condition":"contingent","relevant_dimensions":["wings","pattern"],"bee_group":{"antennae":"X","wings":"2","pattern":"D","legs":"X"},"bonus":0.20000000000000126},{"rt":1009,"stimulus":"bees-with-color/bee-B1SM.svg","response":0,"trial_type":"image-button-response","trial_index":47,"time_elapsed":185921,"internal_node_id":"0.0-4.0-0.20","subject_id":"5f5a27482be30c0718bbf1e0","study_id":"6197b3f67c2b5cd3b6d9596a","session_id":"619be58dddedfe58ac30e535","condition":"contingent","relevant_dimensions":["wings","pattern"],"bee_group":{"antennae":"X","wings":"2","pattern":"D","legs":"X"},"action":"harvest","summary":"good-harvest","bonus":0.20000000000000126},{"rt":529,"stimulus":"\n                    <p><b>Action: <em>harvest</em></b></p>\n                    <p>This is the bee that you just saw.</p>\n                    <img src=\"bees-with-color/bee-B1SM.svg\" width=\"200\">\n                    <p><span class=\"greenText\"><b>Successful harvest!</b></span><br>Your pay has increased by $0.02. Your bonus pay is now $0.46.</p>\n            ","response":0,"trial_type":"html-button-response","trial_index":48,"time_elapsed":186450,"internal_node_id":"0.0-4.0-1.20","subject_id":"5f5a27482be30c0718bbf1e0","study_id":"6197b3f67c2b5cd3b6d9596a","session_id":"619be58dddedfe58ac30e535","condition":"contingent","relevant_dimensions":["wings","pattern"],"bee_group":{"antennae":"X","wings":"2","pattern":"D","legs":"X"},"bonus":0.20000000000000126},{"rt":1429,"stimulus":"bees-with-color/bee-A2DF.svg","response":1,"trial_type":"image-button-response","trial_index":49,"time_elapsed":187880,"internal_node_id":"0.0-4.0-0.21","subject_id":"5f5a27482be30c0718bbf1e0","study_id":"6197b3f67c2b5cd3b6d9596a","session_id":"619be58dddedfe58ac30e535","condition":"contingent","relevant_dimensions":["wings","pattern"],"bee_group":{"antennae":"X","wings":"2","pattern":"D","legs":"X"},"action":"avoid","summary":"good-avoid","bonus":0.20000000000000126},{"rt":633,"stimulus":"\n                    <p><b>Action: <em>avoid</em></b></p>\n                    <p>This is the bee that you just saw.</p>\n                    <img src=\"bees-with-color/bee-A2DF.svg\" width=\"200\">\n                    <p><br>Your bonus pay is unchanged, and remains at $0.46.</p>\n            ","response":0,"trial_type":"html-button-response","trial_index":50,"time_elapsed":188515,"internal_node_id":"0.0-4.0-1.21","subject_id":"5f5a27482be30c0718bbf1e0","study_id":"6197b3f67c2b5cd3b6d9596a","session_id":"619be58dddedfe58ac30e535","condition":"contingent","relevant_dimensions":["wings","pattern"],"bee_group":{"antennae":"X","wings":"2","pattern":"D","legs":"X"},"bonus":0.20000000000000126},{"rt":1850,"stimulus":"bees-with-color/bee-A1SM.svg","response":0,"trial_type":"image-button-response","trial_index":51,"time_elapsed":190367,"internal_node_id":"0.0-4.0-0.22","subject_id":"5f5a27482be30c0718bbf1e0","study_id":"6197b3f67c2b5cd3b6d9596a","session_id":"619be58dddedfe58ac30e535","condition":"contingent","relevant_dimensions":["wings","pattern"],"bee_group":{"antennae":"X","wings":"2","pattern":"D","legs":"X"},"action":"harvest","summary":"good-harvest","bonus":0.20000000000000126},{"rt":538,"stimulus":"\n                    <p><b>Action: <em>harvest</em></b></p>\n                    <p>This is the bee that you just saw.</p>\n                    <img src=\"bees-with-color/bee-A1SM.svg\" width=\"200\">\n                    <p><span class=\"greenText\"><b>Successful harvest!</b></span><br>Your pay has increased by $0.02. Your bonus pay is now $0.48.</p>\n            ","response":0,"trial_type":"html-button-response","trial_index":52,"time_elapsed":190907,"internal_node_id":"0.0-4.0-1.22","subject_id":"5f5a27482be30c0718bbf1e0","study_id":"6197b3f67c2b5cd3b6d9596a","session_id":"619be58dddedfe58ac30e535","condition":"contingent","relevant_dimensions":["wings","pattern"],"bee_group":{"antennae":"X","wings":"2","pattern":"D","legs":"X"},"bonus":0.20000000000000126},{"rt":1260,"stimulus":"bees-with-color/bee-B1DM.svg","response":1,"trial_type":"image-button-response","trial_index":53,"time_elapsed":192167,"internal_node_id":"0.0-4.0-0.23","subject_id":"5f5a27482be30c0718bbf1e0","study_id":"6197b3f67c2b5cd3b6d9596a","session_id":"619be58dddedfe58ac30e535","condition":"contingent","relevant_dimensions":["wings","pattern"],"bee_group":{"antennae":"X","wings":"2","pattern":"D","legs":"X"},"action":"avoid","summary":"bad-avoid","bonus":0.20000000000000126},{"rt":548,"stimulus":"\n                    <p><b>Action: <em>avoid</em></b></p>\n                    <p>This is the bee that you just saw.</p>\n                    <img src=\"bees-with-color/bee-B1DM.svg\" width=\"200\">\n                    <p><br>Your bonus pay is unchanged, and remains at $0.48.</p>\n            ","response":0,"trial_type":"html-button-response","trial_index":54,"time_elapsed":192715,"internal_node_id":"0.0-4.0-1.23","subject_id":"5f5a27482be30c0718bbf1e0","study_id":"6197b3f67c2b5cd3b6d9596a","session_id":"619be58dddedfe58ac30e535","condition":"contingent","relevant_dimensions":["wings","pattern"],"bee_group":{"antennae":"X","wings":"2","pattern":"D","legs":"X"},"bonus":0.20000000000000126},{"rt":1270,"stimulus":"bees-with-color/bee-B2DM.svg","response":0,"trial_type":"image-button-response","trial_index":55,"time_elapsed":193984,"internal_node_id":"0.0-4.0-0.24","subject_id":"5f5a27482be30c0718bbf1e0","study_id":"6197b3f67c2b5cd3b6d9596a","session_id":"619be58dddedfe58ac30e535","condition":"contingent","relevant_dimensions":["wings","pattern"],"bee_group":{"antennae":"X","wings":"2","pattern":"D","legs":"X"},"action":"harvest","summary":"bad-harvest","bonus":0.20000000000000126},{"rt":946,"stimulus":"\n                    <p><b>Action: <em>harvest</em></b></p>\n                    <p>This is the bee that you just saw.</p>\n                    <img src=\"bees-with-color/bee-B2DM.svg\" width=\"200\">\n                    <p><span class=\"redText\">Bad choice, the bee was angry.</span><br><b>You have been stung!</b><br>Your pay has been decreased by $0.10. Your bonus pay is now $0.38.</p>\n            ","response":0,"trial_type":"html-button-response","trial_index":56,"time_elapsed":194933,"internal_node_id":"0.0-4.0-1.24","subject_id":"5f5a27482be30c0718bbf1e0","study_id":"6197b3f67c2b5cd3b6d9596a","session_id":"619be58dddedfe58ac30e535","condition":"contingent","relevant_dimensions":["wings","pattern"],"bee_group":{"antennae":"X","wings":"2","pattern":"D","legs":"X"},"bonus":0.20000000000000126},{"rt":1273,"stimulus":"bees-with-color/bee-A2DM.svg","response":0,"trial_type":"image-button-response","trial_index":57,"time_elapsed":196206,"internal_node_id":"0.0-4.0-0.25","subject_id":"5f5a27482be30c0718bbf1e0","study_id":"6197b3f67c2b5cd3b6d9596a","session_id":"619be58dddedfe58ac30e535","condition":"contingent","relevant_dimensions":["wings","pattern"],"bee_group":{"antennae":"X","wings":"2","pattern":"D","legs":"X"},"action":"harvest","summary":"bad-harvest","bonus":0.20000000000000126},{"rt":538,"stimulus":"\n                    <p><b>Action: <em>harvest</em></b></p>\n                    <p>This is the bee that you just saw.</p>\n                    <img src=\"bees-with-color/bee-A2DM.svg\" width=\"200\">\n                    <p><span class=\"redText\">Bad choice, the bee was angry.</span><br><b>You have been stung!</b><br>Your pay has been decreased by $0.10. Your bonus pay is now $0.28.</p>\n            ","response":0,"trial_type":"html-button-response","trial_index":58,"time_elapsed":196744,"internal_node_id":"0.0-4.0-1.25","subject_id":"5f5a27482be30c0718bbf1e0","study_id":"6197b3f67c2b5cd3b6d9596a","session_id":"619be58dddedfe58ac30e535","condition":"contingent","relevant_dimensions":["wings","pattern"],"bee_group":{"antennae":"X","wings":"2","pattern":"D","legs":"X"},"bonus":0.20000000000000126},{"rt":1084,"stimulus":"bees-with-color/bee-B1SF.svg","response":0,"trial_type":"image-button-response","trial_index":59,"time_elapsed":197830,"internal_node_id":"0.0-4.0-0.26","subject_id":"5f5a27482be30c0718bbf1e0","study_id":"6197b3f67c2b5cd3b6d9596a","session_id":"619be58dddedfe58ac30e535","condition":"contingent","relevant_dimensions":["wings","pattern"],"bee_group":{"antennae":"X","wings":"2","pattern":"D","legs":"X"},"action":"harvest","summary":"good-harvest","bonus":0.20000000000000126},{"rt":698,"stimulus":"\n                    <p><b>Action: <em>harvest</em></b></p>\n                    <p>This is the bee that you just saw.</p>\n                    <img src=\"bees-with-color/bee-B1SF.svg\" width=\"200\">\n                    <p><span class=\"greenText\"><b>Successful harvest!</b></span><br>Your pay has increased by $0.02. Your bonus pay is now $0.30.</p>\n            ","response":0,"trial_type":"html-button-response","trial_index":60,"time_elapsed":198529,"internal_node_id":"0.0-4.0-1.26","subject_id":"5f5a27482be30c0718bbf1e0","study_id":"6197b3f67c2b5cd3b6d9596a","session_id":"619be58dddedfe58ac30e535","condition":"contingent","relevant_dimensions":["wings","pattern"],"bee_group":{"antennae":"X","wings":"2","pattern":"D","legs":"X"},"bonus":0.20000000000000126},{"rt":2081,"stimulus":"bees-with-color/bee-A1SF.svg","response":0,"trial_type":"image-button-response","trial_index":61,"time_elapsed":200610,"internal_node_id":"0.0-4.0-0.27","subject_id":"5f5a27482be30c0718bbf1e0","study_id":"6197b3f67c2b5cd3b6d9596a","session_id":"619be58dddedfe58ac30e535","condition":"contingent","relevant_dimensions":["wings","pattern"],"bee_group":{"antennae":"X","wings":"2","pattern":"D","legs":"X"},"action":"harvest","summary":"good-harvest","bonus":0.20000000000000126},{"rt":871,"stimulus":"\n                    <p><b>Action: <em>harvest</em></b></p>\n                    <p>This is the bee that you just saw.</p>\n                    <img src=\"bees-with-color/bee-A1SF.svg\" width=\"200\">\n                    <p><span class=\"greenText\"><b>Successful harvest!</b></span><br>Your pay has increased by $0.02. Your bonus pay is now $0.32.</p>\n            ","response":0,"trial_type":"html-button-response","trial_index":62,"time_elapsed":201482,"internal_node_id":"0.0-4.0-1.27","subject_id":"5f5a27482be30c0718bbf1e0","study_id":"6197b3f67c2b5cd3b6d9596a","session_id":"619be58dddedfe58ac30e535","condition":"contingent","relevant_dimensions":["wings","pattern"],"bee_group":{"antennae":"X","wings":"2","pattern":"D","legs":"X"},"bonus":0.20000000000000126},{"rt":3372,"stimulus":"bees-with-color/bee-B2SF.svg","response":1,"trial_type":"image-button-response","trial_index":63,"time_elapsed":204856,"internal_node_id":"0.0-4.0-0.28","subject_id":"5f5a27482be30c0718bbf1e0","study_id":"6197b3f67c2b5cd3b6d9596a","session_id":"619be58dddedfe58ac30e535","condition":"contingent","relevant_dimensions":["wings","pattern"],"bee_group":{"antennae":"X","wings":"2","pattern":"D","legs":"X"},"action":"avoid","summary":"bad-avoid","bonus":0.20000000000000126},{"rt":546,"stimulus":"\n                    <p><b>Action: <em>avoid</em></b></p>\n                    <p>This is the bee that you just saw.</p>\n                    <img src=\"bees-with-color/bee-B2SF.svg\" width=\"200\">\n                    <p><br>Your bonus pay is unchanged, and remains at $0.32.</p>\n            ","response":0,"trial_type":"html-button-response","trial_index":64,"time_elapsed":205402,"internal_node_id":"0.0-4.0-1.28","subject_id":"5f5a27482be30c0718bbf1e0","study_id":"6197b3f67c2b5cd3b6d9596a","session_id":"619be58dddedfe58ac30e535","condition":"contingent","relevant_dimensions":["wings","pattern"],"bee_group":{"antennae":"X","wings":"2","pattern":"D","legs":"X"},"bonus":0.20000000000000126},{"rt":1278,"stimulus":"bees-with-color/bee-A2SM.svg","response":0,"trial_type":"image-button-response","trial_index":65,"time_elapsed":206681,"internal_node_id":"0.0-4.0-0.29","subject_id":"5f5a27482be30c0718bbf1e0","study_id":"6197b3f67c2b5cd3b6d9596a","session_id":"619be58dddedfe58ac30e535","condition":"contingent","relevant_dimensions":["wings","pattern"],"bee_group":{"antennae":"X","wings":"2","pattern":"D","legs":"X"},"action":"harvest","summary":"good-harvest","bonus":0.20000000000000126},{"rt":566,"stimulus":"\n                    <p><b>Action: <em>harvest</em></b></p>\n                    <p>This is the bee that you just saw.</p>\n                    <img src=\"bees-with-color/bee-A2SM.svg\" width=\"200\">\n                    <p><span class=\"greenText\"><b>Successful harvest!</b></span><br>Your pay has increased by $0.02. Your bonus pay is now $0.34.</p>\n            ","response":0,"trial_type":"html-button-response","trial_index":66,"time_elapsed":207248,"internal_node_id":"0.0-4.0-1.29","subject_id":"5f5a27482be30c0718bbf1e0","study_id":"6197b3f67c2b5cd3b6d9596a","session_id":"619be58dddedfe58ac30e535","condition":"contingent","relevant_dimensions":["wings","pattern"],"bee_group":{"antennae":"X","wings":"2","pattern":"D","legs":"X"},"bonus":0.20000000000000126},{"rt":1499,"stimulus":"bees-with-color/bee-A1DM.svg","response":0,"trial_type":"image-button-response","trial_index":67,"time_elapsed":208748,"internal_node_id":"0.0-4.0-0.30","subject_id":"5f5a27482be30c0718bbf1e0","study_id":"6197b3f67c2b5cd3b6d9596a","session_id":"619be58dddedfe58ac30e535","condition":"contingent","relevant_dimensions":["wings","pattern"],"bee_group":{"antennae":"X","wings":"2","pattern":"D","legs":"X"},"action":"harvest","summary":"good-harvest","bonus":0.20000000000000126},{"rt":553,"stimulus":"\n                    <p><b>Action: <em>harvest</em></b></p>\n                    <p>This is the bee that you just saw.</p>\n                    <img src=\"bees-with-color/bee-A1DM.svg\" width=\"200\">\n                    <p><span class=\"greenText\"><b>Successful harvest!</b></span><br>Your pay has increased by $0.02. Your bonus pay is now $0.36.</p>\n            ","response":0,"trial_type":"html-button-response","trial_index":68,"time_elapsed":209302,"internal_node_id":"0.0-4.0-1.30","subject_id":"5f5a27482be30c0718bbf1e0","study_id":"6197b3f67c2b5cd3b6d9596a","session_id":"619be58dddedfe58ac30e535","condition":"contingent","relevant_dimensions":["wings","pattern"],"bee_group":{"antennae":"X","wings":"2","pattern":"D","legs":"X"},"bonus":0.20000000000000126},{"rt":1388,"stimulus":"bees-with-color/bee-A2SF.svg","response":0,"trial_type":"image-button-response","trial_index":69,"time_elapsed":210692,"internal_node_id":"0.0-4.0-0.31","subject_id":"5f5a27482be30c0718bbf1e0","study_id":"6197b3f67c2b5cd3b6d9596a","session_id":"619be58dddedfe58ac30e535","condition":"contingent","relevant_dimensions":["wings","pattern"],"bee_group":{"antennae":"X","wings":"2","pattern":"D","legs":"X"},"action":"harvest","summary":"good-harvest","bonus":0.20000000000000126},{"rt":512,"stimulus":"\n                    <p><b>Action: <em>harvest</em></b></p>\n                    <p>This is the bee that you just saw.</p>\n                    <img src=\"bees-with-color/bee-A2SF.svg\" width=\"200\">\n                    <p><span class=\"greenText\"><b>Successful harvest!</b></span><br>Your pay has increased by $0.02. Your bonus pay is now $0.38.</p>\n            ","response":0,"trial_type":"html-button-response","trial_index":70,"time_elapsed":211204,"internal_node_id":"0.0-4.0-1.31","subject_id":"5f5a27482be30c0718bbf1e0","study_id":"6197b3f67c2b5cd3b6d9596a","session_id":"619be58dddedfe58ac30e535","condition":"contingent","relevant_dimensions":["wings","pattern"],"bee_group":{"antennae":"X","wings":"2","pattern":"D","legs":"X"},"bonus":0.20000000000000126},{"rt":1147,"stimulus":"bees-with-color/bee-B1SF.svg","response":0,"trial_type":"image-button-response","trial_index":71,"time_elapsed":212352,"internal_node_id":"0.0-4.0-0.32","subject_id":"5f5a27482be30c0718bbf1e0","study_id":"6197b3f67c2b5cd3b6d9596a","session_id":"619be58dddedfe58ac30e535","condition":"contingent","relevant_dimensions":["wings","pattern"],"bee_group":{"antennae":"X","wings":"2","pattern":"D","legs":"X"},"action":"harvest","summary":"good-harvest","bonus":0.20000000000000126},{"rt":476,"stimulus":"\n                    <p><b>Action: <em>harvest</em></b></p>\n                    <p>This is the bee that you just saw.</p>\n                    <img src=\"bees-with-color/bee-B1SF.svg\" width=\"200\">\n                    <p><span class=\"greenText\"><b>Successful harvest!</b></span><br>Your pay has increased by $0.02. Your bonus pay is now $0.40.</p>\n            ","response":0,"trial_type":"html-button-response","trial_index":72,"time_elapsed":212828,"internal_node_id":"0.0-4.0-1.32","subject_id":"5f5a27482be30c0718bbf1e0","study_id":"6197b3f67c2b5cd3b6d9596a","session_id":"619be58dddedfe58ac30e535","condition":"contingent","relevant_dimensions":["wings","pattern"],"bee_group":{"antennae":"X","wings":"2","pattern":"D","legs":"X"},"bonus":0.20000000000000126},{"rt":2416,"stimulus":"bees-with-color/bee-B2DF.svg","response":1,"trial_type":"image-button-response","trial_index":73,"time_elapsed":215245,"internal_node_id":"0.0-4.0-0.33","subject_id":"5f5a27482be30c0718bbf1e0","study_id":"6197b3f67c2b5cd3b6d9596a","session_id":"619be58dddedfe58ac30e535","condition":"contingent","relevant_dimensions":["wings","pattern"],"bee_group":{"antennae":"X","wings":"2","pattern":"D","legs":"X"},"action":"avoid","summary":"good-avoid","bonus":0.20000000000000126},{"rt":640,"stimulus":"\n                    <p><b>Action: <em>avoid</em></b></p>\n                    <p>This is the bee that you just saw.</p>\n                    <img src=\"bees-with-color/bee-B2DF.svg\" width=\"200\">\n                    <p><br>Your bonus pay is unchanged, and remains at $0.40.</p>\n            ","response":0,"trial_type":"html-button-response","trial_index":74,"time_elapsed":215886,"internal_node_id":"0.0-4.0-1.33","subject_id":"5f5a27482be30c0718bbf1e0","study_id":"6197b3f67c2b5cd3b6d9596a","session_id":"619be58dddedfe58ac30e535","condition":"contingent","relevant_dimensions":["wings","pattern"],"bee_group":{"antennae":"X","wings":"2","pattern":"D","legs":"X"},"bonus":0.20000000000000126},{"rt":3274,"stimulus":"bees-with-color/bee-B1DM.svg","response":0,"trial_type":"image-button-response","trial_index":75,"time_elapsed":219160,"internal_node_id":"0.0-4.0-0.34","subject_id":"5f5a27482be30c0718bbf1e0","study_id":"6197b3f67c2b5cd3b6d9596a","session_id":"619be58dddedfe58ac30e535","condition":"contingent","relevant_dimensions":["wings","pattern"],"bee_group":{"antennae":"X","wings":"2","pattern":"D","legs":"X"},"action":"harvest","summary":"good-harvest","bonus":0.20000000000000126},{"rt":559,"stimulus":"\n                    <p><b>Action: <em>harvest</em></b></p>\n                    <p>This is the bee that you just saw.</p>\n                    <img src=\"bees-with-color/bee-B1DM.svg\" width=\"200\">\n                    <p><span class=\"greenText\"><b>Successful harvest!</b></span><br>Your pay has increased by $0.02. Your bonus pay is now $0.42.</p>\n            ","response":0,"trial_type":"html-button-response","trial_index":76,"time_elapsed":219720,"internal_node_id":"0.0-4.0-1.34","subject_id":"5f5a27482be30c0718bbf1e0","study_id":"6197b3f67c2b5cd3b6d9596a","session_id":"619be58dddedfe58ac30e535","condition":"contingent","relevant_dimensions":["wings","pattern"],"bee_group":{"antennae":"X","wings":"2","pattern":"D","legs":"X"},"bonus":0.20000000000000126},{"rt":971,"stimulus":"bees-with-color/bee-A1SM.svg","response":0,"trial_type":"image-button-response","trial_index":77,"time_elapsed":220693,"internal_node_id":"0.0-4.0-0.35","subject_id":"5f5a27482be30c0718bbf1e0","study_id":"6197b3f67c2b5cd3b6d9596a","session_id":"619be58dddedfe58ac30e535","condition":"contingent","relevant_dimensions":["wings","pattern"],"bee_group":{"antennae":"X","wings":"2","pattern":"D","legs":"X"},"action":"harvest","summary":"good-harvest","bonus":0.20000000000000126},{"rt":467,"stimulus":"\n                    <p><b>Action: <em>harvest</em></b></p>\n                    <p>This is the bee that you just saw.</p>\n                    <img src=\"bees-with-color/bee-A1SM.svg\" width=\"200\">\n                    <p><span class=\"greenText\"><b>Successful harvest!</b></span><br>Your pay has increased by $0.02. Your bonus pay is now $0.44.</p>\n            ","response":0,"trial_type":"html-button-response","trial_index":78,"time_elapsed":221161,"internal_node_id":"0.0-4.0-1.35","subject_id":"5f5a27482be30c0718bbf1e0","study_id":"6197b3f67c2b5cd3b6d9596a","session_id":"619be58dddedfe58ac30e535","condition":"contingent","relevant_dimensions":["wings","pattern"],"bee_group":{"antennae":"X","wings":"2","pattern":"D","legs":"X"},"bonus":0.20000000000000126},{"rt":989,"stimulus":"bees-with-color/bee-B2SF.svg","response":0,"trial_type":"image-button-response","trial_index":79,"time_elapsed":222152,"internal_node_id":"0.0-4.0-0.36","subject_id":"5f5a27482be30c0718bbf1e0","study_id":"6197b3f67c2b5cd3b6d9596a","session_id":"619be58dddedfe58ac30e535","condition":"contingent","relevant_dimensions":["wings","pattern"],"bee_group":{"antennae":"X","wings":"2","pattern":"D","legs":"X"},"action":"harvest","summary":"good-harvest","bonus":0.20000000000000126},{"rt":755,"stimulus":"\n                    <p><b>Action: <em>harvest</em></b></p>\n                    <p>This is the bee that you just saw.</p>\n                    <img src=\"bees-with-color/bee-B2SF.svg\" width=\"200\">\n                    <p><span class=\"greenText\"><b>Successful harvest!</b></span><br>Your pay has increased by $0.02. Your bonus pay is now $0.46.</p>\n            ","response":0,"trial_type":"html-button-response","trial_index":80,"time_elapsed":222908,"internal_node_id":"0.0-4.0-1.36","subject_id":"5f5a27482be30c0718bbf1e0","study_id":"6197b3f67c2b5cd3b6d9596a","session_id":"619be58dddedfe58ac30e535","condition":"contingent","relevant_dimensions":["wings","pattern"],"bee_group":{"antennae":"X","wings":"2","pattern":"D","legs":"X"},"bonus":0.20000000000000126},{"rt":735,"stimulus":"bees-with-color/bee-B1SM.svg","response":0,"trial_type":"image-button-response","trial_index":81,"time_elapsed":223644,"internal_node_id":"0.0-4.0-0.37","subject_id":"5f5a27482be30c0718bbf1e0","study_id":"6197b3f67c2b5cd3b6d9596a","session_id":"619be58dddedfe58ac30e535","condition":"contingent","relevant_dimensions":["wings","pattern"],"bee_group":{"antennae":"X","wings":"2","pattern":"D","legs":"X"},"action":"harvest","summary":"good-harvest","bonus":0.20000000000000126},{"rt":414,"stimulus":"\n                    <p><b>Action: <em>harvest</em></b></p>\n                    <p>This is the bee that you just saw.</p>\n                    <img src=\"bees-with-color/bee-B1SM.svg\" width=\"200\">\n                    <p><span class=\"greenText\"><b>Successful harvest!</b></span><br>Your pay has increased by $0.02. Your bonus pay is now $0.48.</p>\n            ","response":0,"trial_type":"html-button-response","trial_index":82,"time_elapsed":224058,"internal_node_id":"0.0-4.0-1.37","subject_id":"5f5a27482be30c0718bbf1e0","study_id":"6197b3f67c2b5cd3b6d9596a","session_id":"619be58dddedfe58ac30e535","condition":"contingent","relevant_dimensions":["wings","pattern"],"bee_group":{"antennae":"X","wings":"2","pattern":"D","legs":"X"},"bonus":0.20000000000000126},{"rt":981,"stimulus":"bees-with-color/bee-A2SF.svg","response":0,"trial_type":"image-button-response","trial_index":83,"time_elapsed":225040,"internal_node_id":"0.0-4.0-0.38","subject_id":"5f5a27482be30c0718bbf1e0","study_id":"6197b3f67c2b5cd3b6d9596a","session_id":"619be58dddedfe58ac30e535","condition":"contingent","relevant_dimensions":["wings","pattern"],"bee_group":{"antennae":"X","wings":"2","pattern":"D","legs":"X"},"action":"harvest","summary":"good-harvest","bonus":0.20000000000000126},{"rt":509,"stimulus":"\n                    <p><b>Action: <em>harvest</em></b></p>\n                    <p>This is the bee that you just saw.</p>\n                    <img src=\"bees-with-color/bee-A2SF.svg\" width=\"200\">\n                    <p><span class=\"greenText\"><b>Successful harvest!</b></span><br>Your pay has increased by $0.02. Your bonus pay is now $0.50.</p>\n            ","response":0,"trial_type":"html-button-response","trial_index":84,"time_elapsed":225550,"internal_node_id":"0.0-4.0-1.38","subject_id":"5f5a27482be30c0718bbf1e0","study_id":"6197b3f67c2b5cd3b6d9596a","session_id":"619be58dddedfe58ac30e535","condition":"contingent","relevant_dimensions":["wings","pattern"],"bee_group":{"antennae":"X","wings":"2","pattern":"D","legs":"X"},"bonus":0.20000000000000126},{"rt":1234,"stimulus":"bees-with-color/bee-A2DF.svg","response":1,"trial_type":"image-button-response","trial_index":85,"time_elapsed":226786,"internal_node_id":"0.0-4.0-0.39","subject_id":"5f5a27482be30c0718bbf1e0","study_id":"6197b3f67c2b5cd3b6d9596a","session_id":"619be58dddedfe58ac30e535","condition":"contingent","relevant_dimensions":["wings","pattern"],"bee_group":{"antennae":"X","wings":"2","pattern":"D","legs":"X"},"action":"avoid","summary":"good-avoid","bonus":0.20000000000000126},{"rt":5392,"stimulus":"\n                    <p><b>Action: <em>avoid</em></b></p>\n                    <p>This is the bee that you just saw.</p>\n                    <img src=\"bees-with-color/bee-A2DF.svg\" width=\"200\">\n                    <p><br>Your bonus pay is unchanged, and remains at $0.50.</p>\n            ","response":0,"trial_type":"html-button-response","trial_index":86,"time_elapsed":232177,"internal_node_id":"0.0-4.0-1.39","subject_id":"5f5a27482be30c0718bbf1e0","study_id":"6197b3f67c2b5cd3b6d9596a","session_id":"619be58dddedfe58ac30e535","condition":"contingent","relevant_dimensions":["wings","pattern"],"bee_group":{"antennae":"X","wings":"2","pattern":"D","legs":"X"},"bonus":0.20000000000000126},{"rt":1199,"stimulus":"bees-with-color/bee-A1DF.svg","response":0,"trial_type":"image-button-response","trial_index":87,"time_elapsed":233377,"internal_node_id":"0.0-4.0-0.40","subject_id":"5f5a27482be30c0718bbf1e0","study_id":"6197b3f67c2b5cd3b6d9596a","session_id":"619be58dddedfe58ac30e535","condition":"contingent","relevant_dimensions":["wings","pattern"],"bee_group":{"antennae":"X","wings":"2","pattern":"D","legs":"X"},"action":"harvest","summary":"good-harvest","bonus":0.20000000000000126},{"rt":573,"stimulus":"\n                    <p><b>Action: <em>harvest</em></b></p>\n                    <p>This is the bee that you just saw.</p>\n                    <img src=\"bees-with-color/bee-A1DF.svg\" width=\"200\">\n                    <p><span class=\"greenText\"><b>Successful harvest!</b></span><br>Your pay has increased by $0.02. Your bonus pay is now $0.52.</p>\n            ","response":0,"trial_type":"html-button-response","trial_index":88,"time_elapsed":233952,"internal_node_id":"0.0-4.0-1.40","subject_id":"5f5a27482be30c0718bbf1e0","study_id":"6197b3f67c2b5cd3b6d9596a","session_id":"619be58dddedfe58ac30e535","condition":"contingent","relevant_dimensions":["wings","pattern"],"bee_group":{"antennae":"X","wings":"2","pattern":"D","legs":"X"},"bonus":0.20000000000000126},{"rt":816,"stimulus":"bees-with-color/bee-A1DM.svg","response":0,"trial_type":"image-button-response","trial_index":89,"time_elapsed":234769,"internal_node_id":"0.0-4.0-0.41","subject_id":"5f5a27482be30c0718bbf1e0","study_id":"6197b3f67c2b5cd3b6d9596a","session_id":"619be58dddedfe58ac30e535","condition":"contingent","relevant_dimensions":["wings","pattern"],"bee_group":{"antennae":"X","wings":"2","pattern":"D","legs":"X"},"action":"harvest","summary":"good-harvest","bonus":0.20000000000000126},{"rt":533,"stimulus":"\n                    <p><b>Action: <em>harvest</em></b></p>\n                    <p>This is the bee that you just saw.</p>\n                    <img src=\"bees-with-color/bee-A1DM.svg\" width=\"200\">\n                    <p><span class=\"greenText\"><b>Successful harvest!</b></span><br>Your pay has increased by $0.02. Your bonus pay is now $0.54.</p>\n            ","response":0,"trial_type":"html-button-response","trial_index":90,"time_elapsed":235303,"internal_node_id":"0.0-4.0-1.41","subject_id":"5f5a27482be30c0718bbf1e0","study_id":"6197b3f67c2b5cd3b6d9596a","session_id":"619be58dddedfe58ac30e535","condition":"contingent","relevant_dimensions":["wings","pattern"],"bee_group":{"antennae":"X","wings":"2","pattern":"D","legs":"X"},"bonus":0.20000000000000126},{"rt":1442,"stimulus":"bees-with-color/bee-B2SM.svg","response":0,"trial_type":"image-button-response","trial_index":91,"time_elapsed":236746,"internal_node_id":"0.0-4.0-0.42","subject_id":"5f5a27482be30c0718bbf1e0","study_id":"6197b3f67c2b5cd3b6d9596a","session_id":"619be58dddedfe58ac30e535","condition":"contingent","relevant_dimensions":["wings","pattern"],"bee_group":{"antennae":"X","wings":"2","pattern":"D","legs":"X"},"action":"harvest","summary":"good-harvest","bonus":0.20000000000000126},{"rt":456,"stimulus":"\n                    <p><b>Action: <em>harvest</em></b></p>\n                    <p>This is the bee that you just saw.</p>\n                    <img src=\"bees-with-color/bee-B2SM.svg\" width=\"200\">\n                    <p><span class=\"greenText\"><b>Successful harvest!</b></span><br>Your pay has increased by $0.02. Your bonus pay is now $0.56.</p>\n            ","response":0,"trial_type":"html-button-response","trial_index":92,"time_elapsed":237201,"internal_node_id":"0.0-4.0-1.42","subject_id":"5f5a27482be30c0718bbf1e0","study_id":"6197b3f67c2b5cd3b6d9596a","session_id":"619be58dddedfe58ac30e535","condition":"contingent","relevant_dimensions":["wings","pattern"],"bee_group":{"antennae":"X","wings":"2","pattern":"D","legs":"X"},"bonus":0.20000000000000126},{"rt":3455,"stimulus":"bees-with-color/bee-A2DM.svg","response":1,"trial_type":"image-button-response","trial_index":93,"time_elapsed":240658,"internal_node_id":"0.0-4.0-0.43","subject_id":"5f5a27482be30c0718bbf1e0","study_id":"6197b3f67c2b5cd3b6d9596a","session_id":"619be58dddedfe58ac30e535","condition":"contingent","relevant_dimensions":["wings","pattern"],"bee_group":{"antennae":"X","wings":"2","pattern":"D","legs":"X"},"action":"avoid","summary":"good-avoid","bonus":0.20000000000000126},{"rt":587,"stimulus":"\n                    <p><b>Action: <em>avoid</em></b></p>\n                    <p>This is the bee that you just saw.</p>\n                    <img src=\"bees-with-color/bee-A2DM.svg\" width=\"200\">\n                    <p><br>Your bonus pay is unchanged, and remains at $0.56.</p>\n            ","response":0,"trial_type":"html-button-response","trial_index":94,"time_elapsed":241245,"internal_node_id":"0.0-4.0-1.43","subject_id":"5f5a27482be30c0718bbf1e0","study_id":"6197b3f67c2b5cd3b6d9596a","session_id":"619be58dddedfe58ac30e535","condition":"contingent","relevant_dimensions":["wings","pattern"],"bee_group":{"antennae":"X","wings":"2","pattern":"D","legs":"X"},"bonus":0.20000000000000126},{"rt":1675,"stimulus":"bees-with-color/bee-A1SF.svg","response":0,"trial_type":"image-button-response","trial_index":95,"time_elapsed":242922,"internal_node_id":"0.0-4.0-0.44","subject_id":"5f5a27482be30c0718bbf1e0","study_id":"6197b3f67c2b5cd3b6d9596a","session_id":"619be58dddedfe58ac30e535","condition":"contingent","relevant_dimensions":["wings","pattern"],"bee_group":{"antennae":"X","wings":"2","pattern":"D","legs":"X"},"action":"harvest","summary":"good-harvest","bonus":0.20000000000000126},{"rt":602,"stimulus":"\n                    <p><b>Action: <em>harvest</em></b></p>\n                    <p>This is the bee that you just saw.</p>\n                    <img src=\"bees-with-color/bee-A1SF.svg\" width=\"200\">\n                    <p><span class=\"greenText\"><b>Successful harvest!</b></span><br>Your pay has increased by $0.02. Your bonus pay is now $0.58.</p>\n            ","response":0,"trial_type":"html-button-response","trial_index":96,"time_elapsed":243525,"internal_node_id":"0.0-4.0-1.44","subject_id":"5f5a27482be30c0718bbf1e0","study_id":"6197b3f67c2b5cd3b6d9596a","session_id":"619be58dddedfe58ac30e535","condition":"contingent","relevant_dimensions":["wings","pattern"],"bee_group":{"antennae":"X","wings":"2","pattern":"D","legs":"X"},"bonus":0.20000000000000126},{"rt":1516,"stimulus":"bees-with-color/bee-B1DF.svg","response":0,"trial_type":"image-button-response","trial_index":97,"time_elapsed":245042,"internal_node_id":"0.0-4.0-0.45","subject_id":"5f5a27482be30c0718bbf1e0","study_id":"6197b3f67c2b5cd3b6d9596a","session_id":"619be58dddedfe58ac30e535","condition":"contingent","relevant_dimensions":["wings","pattern"],"bee_group":{"antennae":"X","wings":"2","pattern":"D","legs":"X"},"action":"harvest","summary":"good-harvest","bonus":0.20000000000000126},{"rt":836,"stimulus":"\n                    <p><b>Action: <em>harvest</em></b></p>\n                    <p>This is the bee that you just saw.</p>\n                    <img src=\"bees-with-color/bee-B1DF.svg\" width=\"200\">\n                    <p><span class=\"greenText\"><b>Successful harvest!</b></span><br>Your pay has increased by $0.02. Your bonus pay is now $0.60.</p>\n            ","response":0,"trial_type":"html-button-response","trial_index":98,"time_elapsed":245879,"internal_node_id":"0.0-4.0-1.45","subject_id":"5f5a27482be30c0718bbf1e0","study_id":"6197b3f67c2b5cd3b6d9596a","session_id":"619be58dddedfe58ac30e535","condition":"contingent","relevant_dimensions":["wings","pattern"],"bee_group":{"antennae":"X","wings":"2","pattern":"D","legs":"X"},"bonus":0.20000000000000126},{"rt":903,"stimulus":"bees-with-color/bee-B2DM.svg","response":0,"trial_type":"image-button-response","trial_index":99,"time_elapsed":246784,"internal_node_id":"0.0-4.0-0.46","subject_id":"5f5a27482be30c0718bbf1e0","study_id":"6197b3f67c2b5cd3b6d9596a","session_id":"619be58dddedfe58ac30e535","condition":"contingent","relevant_dimensions":["wings","pattern"],"bee_group":{"antennae":"X","wings":"2","pattern":"D","legs":"X"},"action":"harvest","summary":"bad-harvest","bonus":0.20000000000000126},{"rt":579,"stimulus":"\n                    <p><b>Action: <em>harvest</em></b></p>\n                    <p>This is the bee that you just saw.</p>\n                    <img src=\"bees-with-color/bee-B2DM.svg\" width=\"200\">\n                    <p><span class=\"redText\">Bad choice, the bee was angry.</span><br><b>You have been stung!</b><br>Your pay has been decreased by $0.10. Your bonus pay is now $0.50.</p>\n            ","response":0,"trial_type":"html-button-response","trial_index":100,"time_elapsed":247363,"internal_node_id":"0.0-4.0-1.46","subject_id":"5f5a27482be30c0718bbf1e0","study_id":"6197b3f67c2b5cd3b6d9596a","session_id":"619be58dddedfe58ac30e535","condition":"contingent","relevant_dimensions":["wings","pattern"],"bee_group":{"antennae":"X","wings":"2","pattern":"D","legs":"X"},"bonus":0.20000000000000126},{"rt":1667,"stimulus":"bees-with-color/bee-A2SM.svg","response":0,"trial_type":"image-button-response","trial_index":101,"time_elapsed":249031,"internal_node_id":"0.0-4.0-0.47","subject_id":"5f5a27482be30c0718bbf1e0","study_id":"6197b3f67c2b5cd3b6d9596a","session_id":"619be58dddedfe58ac30e535","condition":"contingent","relevant_dimensions":["wings","pattern"],"bee_group":{"antennae":"X","wings":"2","pattern":"D","legs":"X"},"action":"harvest","summary":"good-harvest","bonus":0.20000000000000126},{"rt":438,"stimulus":"\n                    <p><b>Action: <em>harvest</em></b></p>\n                    <p>This is the bee that you just saw.</p>\n                    <img src=\"bees-with-color/bee-A2SM.svg\" width=\"200\">\n                    <p><span class=\"greenText\"><b>Successful harvest!</b></span><br>Your pay has increased by $0.02. Your bonus pay is now $0.52.</p>\n            ","response":0,"trial_type":"html-button-response","trial_index":102,"time_elapsed":249471,"internal_node_id":"0.0-4.0-1.47","subject_id":"5f5a27482be30c0718bbf1e0","study_id":"6197b3f67c2b5cd3b6d9596a","session_id":"619be58dddedfe58ac30e535","condition":"contingent","relevant_dimensions":["wings","pattern"],"bee_group":{"antennae":"X","wings":"2","pattern":"D","legs":"X"},"bonus":0.20000000000000126},{"rt":806,"stimulus":"bees-with-color/bee-A1DM.svg","response":0,"trial_type":"image-button-response","trial_index":103,"time_elapsed":250277,"internal_node_id":"0.0-4.0-0.48","subject_id":"5f5a27482be30c0718bbf1e0","study_id":"6197b3f67c2b5cd3b6d9596a","session_id":"619be58dddedfe58ac30e535","condition":"contingent","relevant_dimensions":["wings","pattern"],"bee_group":{"antennae":"X","wings":"2","pattern":"D","legs":"X"},"action":"harvest","summary":"good-harvest","bonus":0.20000000000000126},{"rt":459,"stimulus":"\n                    <p><b>Action: <em>harvest</em></b></p>\n                    <p>This is the bee that you just saw.</p>\n                    <img src=\"bees-with-color/bee-A1DM.svg\" width=\"200\">\n                    <p><span class=\"greenText\"><b>Successful harvest!</b></span><br>Your pay has increased by $0.02. Your bonus pay is now $0.54.</p>\n            ","response":0,"trial_type":"html-button-response","trial_index":104,"time_elapsed":250737,"internal_node_id":"0.0-4.0-1.48","subject_id":"5f5a27482be30c0718bbf1e0","study_id":"6197b3f67c2b5cd3b6d9596a","session_id":"619be58dddedfe58ac30e535","condition":"contingent","relevant_dimensions":["wings","pattern"],"bee_group":{"antennae":"X","wings":"2","pattern":"D","legs":"X"},"bonus":0.20000000000000126},{"rt":754,"stimulus":"bees-with-color/bee-B1SM.svg","response":0,"trial_type":"image-button-response","trial_index":105,"time_elapsed":251493,"internal_node_id":"0.0-4.0-0.49","subject_id":"5f5a27482be30c0718bbf1e0","study_id":"6197b3f67c2b5cd3b6d9596a","session_id":"619be58dddedfe58ac30e535","condition":"contingent","relevant_dimensions":["wings","pattern"],"bee_group":{"antennae":"X","wings":"2","pattern":"D","legs":"X"},"action":"harvest","summary":"good-harvest","bonus":0.20000000000000126},{"rt":459,"stimulus":"\n                    <p><b>Action: <em>harvest</em></b></p>\n                    <p>This is the bee that you just saw.</p>\n                    <img src=\"bees-with-color/bee-B1SM.svg\" width=\"200\">\n                    <p><span class=\"greenText\"><b>Successful harvest!</b></span><br>Your pay has increased by $0.02. Your bonus pay is now $0.56.</p>\n            ","response":0,"trial_type":"html-button-response","trial_index":106,"time_elapsed":251953,"internal_node_id":"0.0-4.0-1.49","subject_id":"5f5a27482be30c0718bbf1e0","study_id":"6197b3f67c2b5cd3b6d9596a","session_id":"619be58dddedfe58ac30e535","condition":"contingent","relevant_dimensions":["wings","pattern"],"bee_group":{"antennae":"X","wings":"2","pattern":"D","legs":"X"},"bonus":0.20000000000000126},{"rt":806,"stimulus":"bees-with-color/bee-A1DF.svg","response":0,"trial_type":"image-button-response","trial_index":107,"time_elapsed":252760,"internal_node_id":"0.0-4.0-0.50","subject_id":"5f5a27482be30c0718bbf1e0","study_id":"6197b3f67c2b5cd3b6d9596a","session_id":"619be58dddedfe58ac30e535","condition":"contingent","relevant_dimensions":["wings","pattern"],"bee_group":{"antennae":"X","wings":"2","pattern":"D","legs":"X"},"action":"harvest","summary":"good-harvest","bonus":0.20000000000000126},{"rt":483,"stimulus":"\n                    <p><b>Action: <em>harvest</em></b></p>\n                    <p>This is the bee that you just saw.</p>\n                    <img src=\"bees-with-color/bee-A1DF.svg\" width=\"200\">\n                    <p><span class=\"greenText\"><b>Successful harvest!</b></span><br>Your pay has increased by $0.02. Your bonus pay is now $0.58.</p>\n            ","response":0,"trial_type":"html-button-response","trial_index":108,"time_elapsed":253243,"internal_node_id":"0.0-4.0-1.50","subject_id":"5f5a27482be30c0718bbf1e0","study_id":"6197b3f67c2b5cd3b6d9596a","session_id":"619be58dddedfe58ac30e535","condition":"contingent","relevant_dimensions":["wings","pattern"],"bee_group":{"antennae":"X","wings":"2","pattern":"D","legs":"X"},"bonus":0.20000000000000126},{"rt":1430,"stimulus":"bees-with-color/bee-A2SM.svg","response":0,"trial_type":"image-button-response","trial_index":109,"time_elapsed":254673,"internal_node_id":"0.0-4.0-0.51","subject_id":"5f5a27482be30c0718bbf1e0","study_id":"6197b3f67c2b5cd3b6d9596a","session_id":"619be58dddedfe58ac30e535","condition":"contingent","relevant_dimensions":["wings","pattern"],"bee_group":{"antennae":"X","wings":"2","pattern":"D","legs":"X"},"action":"harvest","summary":"good-harvest","bonus":0.20000000000000126},{"rt":498,"stimulus":"\n                    <p><b>Action: <em>harvest</em></b></p>\n                    <p>This is the bee that you just saw.</p>\n                    <img src=\"bees-with-color/bee-A2SM.svg\" width=\"200\">\n                    <p><span class=\"greenText\"><b>Successful harvest!</b></span><br>Your pay has increased by $0.02. Your bonus pay is now $0.60.</p>\n            ","response":0,"trial_type":"html-button-response","trial_index":110,"time_elapsed":255171,"internal_node_id":"0.0-4.0-1.51","subject_id":"5f5a27482be30c0718bbf1e0","study_id":"6197b3f67c2b5cd3b6d9596a","session_id":"619be58dddedfe58ac30e535","condition":"contingent","relevant_dimensions":["wings","pattern"],"bee_group":{"antennae":"X","wings":"2","pattern":"D","legs":"X"},"bonus":0.20000000000000126},{"rt":1036,"stimulus":"bees-with-color/bee-A2SF.svg","response":0,"trial_type":"image-button-response","trial_index":111,"time_elapsed":256207,"internal_node_id":"0.0-4.0-0.52","subject_id":"5f5a27482be30c0718bbf1e0","study_id":"6197b3f67c2b5cd3b6d9596a","session_id":"619be58dddedfe58ac30e535","condition":"contingent","relevant_dimensions":["wings","pattern"],"bee_group":{"antennae":"X","wings":"2","pattern":"D","legs":"X"},"action":"harvest","summary":"good-harvest","bonus":0.20000000000000126},{"rt":471,"stimulus":"\n                    <p><b>Action: <em>harvest</em></b></p>\n                    <p>This is the bee that you just saw.</p>\n                    <img src=\"bees-with-color/bee-A2SF.svg\" width=\"200\">\n                    <p><span class=\"greenText\"><b>Successful harvest!</b></span><br>Your pay has increased by $0.02. Your bonus pay is now $0.62.</p>\n            ","response":0,"trial_type":"html-button-response","trial_index":112,"time_elapsed":256679,"internal_node_id":"0.0-4.0-1.52","subject_id":"5f5a27482be30c0718bbf1e0","study_id":"6197b3f67c2b5cd3b6d9596a","session_id":"619be58dddedfe58ac30e535","condition":"contingent","relevant_dimensions":["wings","pattern"],"bee_group":{"antennae":"X","wings":"2","pattern":"D","legs":"X"},"bonus":0.20000000000000126},{"rt":2346,"stimulus":"bees-with-color/bee-B2DF.svg","response":0,"trial_type":"image-button-response","trial_index":113,"time_elapsed":259025,"internal_node_id":"0.0-4.0-0.53","subject_id":"5f5a27482be30c0718bbf1e0","study_id":"6197b3f67c2b5cd3b6d9596a","session_id":"619be58dddedfe58ac30e535","condition":"contingent","relevant_dimensions":["wings","pattern"],"bee_group":{"antennae":"X","wings":"2","pattern":"D","legs":"X"},"action":"harvest","summary":"bad-harvest","bonus":0.20000000000000126},{"rt":911,"stimulus":"\n                    <p><b>Action: <em>harvest</em></b></p>\n                    <p>This is the bee that you just saw.</p>\n                    <img src=\"bees-with-color/bee-B2DF.svg\" width=\"200\">\n                    <p><span class=\"redText\">Bad choice, the bee was angry.</span><br><b>You have been stung!</b><br>Your pay has been decreased by $0.10. Your bonus pay is now $0.52.</p>\n            ","response":0,"trial_type":"html-button-response","trial_index":114,"time_elapsed":259937,"internal_node_id":"0.0-4.0-1.53","subject_id":"5f5a27482be30c0718bbf1e0","study_id":"6197b3f67c2b5cd3b6d9596a","session_id":"619be58dddedfe58ac30e535","condition":"contingent","relevant_dimensions":["wings","pattern"],"bee_group":{"antennae":"X","wings":"2","pattern":"D","legs":"X"},"bonus":0.20000000000000126},{"rt":1593,"stimulus":"bees-with-color/bee-B2DM.svg","response":1,"trial_type":"image-button-response","trial_index":115,"time_elapsed":261530,"internal_node_id":"0.0-4.0-0.54","subject_id":"5f5a27482be30c0718bbf1e0","study_id":"6197b3f67c2b5cd3b6d9596a","session_id":"619be58dddedfe58ac30e535","condition":"contingent","relevant_dimensions":["wings","pattern"],"bee_group":{"antennae":"X","wings":"2","pattern":"D","legs":"X"},"action":"avoid","summary":"good-avoid","bonus":0.20000000000000126},{"rt":1026,"stimulus":"\n                    <p><b>Action: <em>avoid</em></b></p>\n                    <p>This is the bee that you just saw.</p>\n                    <img src=\"bees-with-color/bee-B2DM.svg\" width=\"200\">\n                    <p><br>Your bonus pay is unchanged, and remains at $0.52.</p>\n            ","response":0,"trial_type":"html-button-response","trial_index":116,"time_elapsed":262559,"internal_node_id":"0.0-4.0-1.54","subject_id":"5f5a27482be30c0718bbf1e0","study_id":"6197b3f67c2b5cd3b6d9596a","session_id":"619be58dddedfe58ac30e535","condition":"contingent","relevant_dimensions":["wings","pattern"],"bee_group":{"antennae":"X","wings":"2","pattern":"D","legs":"X"},"bonus":0.20000000000000126},{"rt":880,"stimulus":"bees-with-color/bee-B2SF.svg","response":0,"trial_type":"image-button-response","trial_index":117,"time_elapsed":263439,"internal_node_id":"0.0-4.0-0.55","subject_id":"5f5a27482be30c0718bbf1e0","study_id":"6197b3f67c2b5cd3b6d9596a","session_id":"619be58dddedfe58ac30e535","condition":"contingent","relevant_dimensions":["wings","pattern"],"bee_group":{"antennae":"X","wings":"2","pattern":"D","legs":"X"},"action":"harvest","summary":"good-harvest","bonus":0.20000000000000126},{"rt":474,"stimulus":"\n                    <p><b>Action: <em>harvest</em></b></p>\n                    <p>This is the bee that you just saw.</p>\n                    <img src=\"bees-with-color/bee-B2SF.svg\" width=\"200\">\n                    <p><span class=\"greenText\"><b>Successful harvest!</b></span><br>Your pay has increased by $0.02. Your bonus pay is now $0.54.</p>\n            ","response":0,"trial_type":"html-button-response","trial_index":118,"time_elapsed":263915,"internal_node_id":"0.0-4.0-1.55","subject_id":"5f5a27482be30c0718bbf1e0","study_id":"6197b3f67c2b5cd3b6d9596a","session_id":"619be58dddedfe58ac30e535","condition":"contingent","relevant_dimensions":["wings","pattern"],"bee_group":{"antennae":"X","wings":"2","pattern":"D","legs":"X"},"bonus":0.20000000000000126},{"rt":1480,"stimulus":"bees-with-color/bee-A2DF.svg","response":0,"trial_type":"image-button-response","trial_index":119,"time_elapsed":265395,"internal_node_id":"0.0-4.0-0.56","subject_id":"5f5a27482be30c0718bbf1e0","study_id":"6197b3f67c2b5cd3b6d9596a","session_id":"619be58dddedfe58ac30e535","condition":"contingent","relevant_dimensions":["wings","pattern"],"bee_group":{"antennae":"X","wings":"2","pattern":"D","legs":"X"},"action":"harvest","summary":"bad-harvest","bonus":0.20000000000000126},{"rt":611,"stimulus":"\n                    <p><b>Action: <em>harvest</em></b></p>\n                    <p>This is the bee that you just saw.</p>\n                    <img src=\"bees-with-color/bee-A2DF.svg\" width=\"200\">\n                    <p><span class=\"redText\">Bad choice, the bee was angry.</span><br><b>You have been stung!</b><br>Your pay has been decreased by $0.10. Your bonus pay is now $0.44.</p>\n            ","response":0,"trial_type":"html-button-response","trial_index":120,"time_elapsed":266007,"internal_node_id":"0.0-4.0-1.56","subject_id":"5f5a27482be30c0718bbf1e0","study_id":"6197b3f67c2b5cd3b6d9596a","session_id":"619be58dddedfe58ac30e535","condition":"contingent","relevant_dimensions":["wings","pattern"],"bee_group":{"antennae":"X","wings":"2","pattern":"D","legs":"X"},"bonus":0.20000000000000126},{"rt":1087,"stimulus":"bees-with-color/bee-A1SM.svg","response":0,"trial_type":"image-button-response","trial_index":121,"time_elapsed":267095,"internal_node_id":"0.0-4.0-0.57","subject_id":"5f5a27482be30c0718bbf1e0","study_id":"6197b3f67c2b5cd3b6d9596a","session_id":"619be58dddedfe58ac30e535","condition":"contingent","relevant_dimensions":["wings","pattern"],"bee_group":{"antennae":"X","wings":"2","pattern":"D","legs":"X"},"action":"harvest","summary":"good-harvest","bonus":0.20000000000000126},{"rt":435,"stimulus":"\n                    <p><b>Action: <em>harvest</em></b></p>\n                    <p>This is the bee that you just saw.</p>\n                    <img src=\"bees-with-color/bee-A1SM.svg\" width=\"200\">\n                    <p><span class=\"greenText\"><b>Successful harvest!</b></span><br>Your pay has increased by $0.02. Your bonus pay is now $0.46.</p>\n            ","response":0,"trial_type":"html-button-response","trial_index":122,"time_elapsed":267531,"internal_node_id":"0.0-4.0-1.57","subject_id":"5f5a27482be30c0718bbf1e0","study_id":"6197b3f67c2b5cd3b6d9596a","session_id":"619be58dddedfe58ac30e535","condition":"contingent","relevant_dimensions":["wings","pattern"],"bee_group":{"antennae":"X","wings":"2","pattern":"D","legs":"X"},"bonus":0.20000000000000126},{"rt":1023,"stimulus":"bees-with-color/bee-B2SM.svg","response":0,"trial_type":"image-button-response","trial_index":123,"time_elapsed":268555,"internal_node_id":"0.0-4.0-0.58","subject_id":"5f5a27482be30c0718bbf1e0","study_id":"6197b3f67c2b5cd3b6d9596a","session_id":"619be58dddedfe58ac30e535","condition":"contingent","relevant_dimensions":["wings","pattern"],"bee_group":{"antennae":"X","wings":"2","pattern":"D","legs":"X"},"action":"harvest","summary":"good-harvest","bonus":0.20000000000000126},{"rt":459,"stimulus":"\n                    <p><b>Action: <em>harvest</em></b></p>\n                    <p>This is the bee that you just saw.</p>\n                    <img src=\"bees-with-color/bee-B2SM.svg\" width=\"200\">\n                    <p><span class=\"greenText\"><b>Successful harvest!</b></span><br>Your pay has increased by $0.02. Your bonus pay is now $0.48.</p>\n            ","response":0,"trial_type":"html-button-response","trial_index":124,"time_elapsed":269015,"internal_node_id":"0.0-4.0-1.58","subject_id":"5f5a27482be30c0718bbf1e0","study_id":"6197b3f67c2b5cd3b6d9596a","session_id":"619be58dddedfe58ac30e535","condition":"contingent","relevant_dimensions":["wings","pattern"],"bee_group":{"antennae":"X","wings":"2","pattern":"D","legs":"X"},"bonus":0.20000000000000126},{"rt":949,"stimulus":"bees-with-color/bee-B1DF.svg","response":0,"trial_type":"image-button-response","trial_index":125,"time_elapsed":269964,"internal_node_id":"0.0-4.0-0.59","subject_id":"5f5a27482be30c0718bbf1e0","study_id":"6197b3f67c2b5cd3b6d9596a","session_id":"619be58dddedfe58ac30e535","condition":"contingent","relevant_dimensions":["wings","pattern"],"bee_group":{"antennae":"X","wings":"2","pattern":"D","legs":"X"},"action":"harvest","summary":"good-harvest","bonus":0.20000000000000126},{"rt":409,"stimulus":"\n                    <p><b>Action: <em>harvest</em></b></p>\n                    <p>This is the bee that you just saw.</p>\n                    <img src=\"bees-with-color/bee-B1DF.svg\" width=\"200\">\n                    <p><span class=\"greenText\"><b>Successful harvest!</b></span><br>Your pay has increased by $0.02. Your bonus pay is now $0.50.</p>\n            ","response":0,"trial_type":"html-button-response","trial_index":126,"time_elapsed":270375,"internal_node_id":"0.0-4.0-1.59","subject_id":"5f5a27482be30c0718bbf1e0","study_id":"6197b3f67c2b5cd3b6d9596a","session_id":"619be58dddedfe58ac30e535","condition":"contingent","relevant_dimensions":["wings","pattern"],"bee_group":{"antennae":"X","wings":"2","pattern":"D","legs":"X"},"bonus":0.20000000000000126},{"rt":2703,"stimulus":"bees-with-color/bee-A2DM.svg","response":1,"trial_type":"image-button-response","trial_index":127,"time_elapsed":273079,"internal_node_id":"0.0-4.0-0.60","subject_id":"5f5a27482be30c0718bbf1e0","study_id":"6197b3f67c2b5cd3b6d9596a","session_id":"619be58dddedfe58ac30e535","condition":"contingent","relevant_dimensions":["wings","pattern"],"bee_group":{"antennae":"X","wings":"2","pattern":"D","legs":"X"},"action":"avoid","summary":"good-avoid","bonus":0.20000000000000126},{"rt":549,"stimulus":"\n                    <p><b>Action: <em>avoid</em></b></p>\n                    <p>This is the bee that you just saw.</p>\n                    <img src=\"bees-with-color/bee-A2DM.svg\" width=\"200\">\n                    <p><br>Your bonus pay is unchanged, and remains at $0.50.</p>\n            ","response":0,"trial_type":"html-button-response","trial_index":128,"time_elapsed":273629,"internal_node_id":"0.0-4.0-1.60","subject_id":"5f5a27482be30c0718bbf1e0","study_id":"6197b3f67c2b5cd3b6d9596a","session_id":"619be58dddedfe58ac30e535","condition":"contingent","relevant_dimensions":["wings","pattern"],"bee_group":{"antennae":"X","wings":"2","pattern":"D","legs":"X"},"bonus":0.20000000000000126},{"rt":789,"stimulus":"bees-with-color/bee-B1DM.svg","response":0,"trial_type":"image-button-response","trial_index":129,"time_elapsed":274419,"internal_node_id":"0.0-4.0-0.61","subject_id":"5f5a27482be30c0718bbf1e0","study_id":"6197b3f67c2b5cd3b6d9596a","session_id":"619be58dddedfe58ac30e535","condition":"contingent","relevant_dimensions":["wings","pattern"],"bee_group":{"antennae":"X","wings":"2","pattern":"D","legs":"X"},"action":"harvest","summary":"good-harvest","bonus":0.20000000000000126},{"rt":488,"stimulus":"\n                    <p><b>Action: <em>harvest</em></b></p>\n                    <p>This is the bee that you just saw.</p>\n                    <img src=\"bees-with-color/bee-B1DM.svg\" width=\"200\">\n                    <p><span class=\"greenText\"><b>Successful harvest!</b></span><br>Your pay has increased by $0.02. Your bonus pay is now $0.52.</p>\n            ","response":0,"trial_type":"html-button-response","trial_index":130,"time_elapsed":274907,"internal_node_id":"0.0-4.0-1.61","subject_id":"5f5a27482be30c0718bbf1e0","study_id":"6197b3f67c2b5cd3b6d9596a","session_id":"619be58dddedfe58ac30e535","condition":"contingent","relevant_dimensions":["wings","pattern"],"bee_group":{"antennae":"X","wings":"2","pattern":"D","legs":"X"},"bonus":0.20000000000000126},{"rt":883,"stimulus":"bees-with-color/bee-B1SF.svg","response":0,"trial_type":"image-button-response","trial_index":131,"time_elapsed":275791,"internal_node_id":"0.0-4.0-0.62","subject_id":"5f5a27482be30c0718bbf1e0","study_id":"6197b3f67c2b5cd3b6d9596a","session_id":"619be58dddedfe58ac30e535","condition":"contingent","relevant_dimensions":["wings","pattern"],"bee_group":{"antennae":"X","wings":"2","pattern":"D","legs":"X"},"action":"harvest","summary":"good-harvest","bonus":0.20000000000000126},{"rt":447,"stimulus":"\n                    <p><b>Action: <em>harvest</em></b></p>\n                    <p>This is the bee that you just saw.</p>\n                    <img src=\"bees-with-color/bee-B1SF.svg\" width=\"200\">\n                    <p><span class=\"greenText\"><b>Successful harvest!</b></span><br>Your pay has increased by $0.02. Your bonus pay is now $0.54.</p>\n            ","response":0,"trial_type":"html-button-response","trial_index":132,"time_elapsed":276239,"internal_node_id":"0.0-4.0-1.62","subject_id":"5f5a27482be30c0718bbf1e0","study_id":"6197b3f67c2b5cd3b6d9596a","session_id":"619be58dddedfe58ac30e535","condition":"contingent","relevant_dimensions":["wings","pattern"],"bee_group":{"antennae":"X","wings":"2","pattern":"D","legs":"X"},"bonus":0.20000000000000126},{"rt":1281,"stimulus":"bees-with-color/bee-A1SF.svg","response":0,"trial_type":"image-button-response","trial_index":133,"time_elapsed":277521,"internal_node_id":"0.0-4.0-0.63","subject_id":"5f5a27482be30c0718bbf1e0","study_id":"6197b3f67c2b5cd3b6d9596a","session_id":"619be58dddedfe58ac30e535","condition":"contingent","relevant_dimensions":["wings","pattern"],"bee_group":{"antennae":"X","wings":"2","pattern":"D","legs":"X"},"action":"harvest","summary":"good-harvest","bonus":0.20000000000000126},{"rt":1216,"stimulus":"\n                    <p><b>Action: <em>harvest</em></b></p>\n                    <p>This is the bee that you just saw.</p>\n                    <img src=\"bees-with-color/bee-A1SF.svg\" width=\"200\">\n                    <p><span class=\"greenText\"><b>Successful harvest!</b></span><br>Your pay has increased by $0.02. Your bonus pay is now $0.56.</p>\n            ","response":0,"trial_type":"html-button-response","trial_index":134,"time_elapsed":278736,"internal_node_id":"0.0-4.0-1.63","subject_id":"5f5a27482be30c0718bbf1e0","study_id":"6197b3f67c2b5cd3b6d9596a","session_id":"619be58dddedfe58ac30e535","condition":"contingent","relevant_dimensions":["wings","pattern"],"bee_group":{"antennae":"X","wings":"2","pattern":"D","legs":"X"},"bonus":0.20000000000000126},{"rt":2980,"stimulus":"You have completed the first part of this experiment.<br><br>You will now begin a shorter second part, in which you will receive no feedback.<br>The same rules regarding bonus pay apply.<br><br>Press any key to begin.","response":"k","trial_type":"html-keyboard-response","trial_index":135,"time_elapsed":281718,"internal_node_id":"0.0-5.0","subject_id":"5f5a27482be30c0718bbf1e0","study_id":"6197b3f67c2b5cd3b6d9596a","session_id":"619be58dddedfe58ac30e535","condition":"contingent","relevant_dimensions":["wings","pattern"],"bee_group":{"antennae":"X","wings":"2","pattern":"D","legs":"X"},"bonus":0.20000000000000126},{"rt":3522,"stimulus":"bees-with-color/bee-B2SM.svg","response":0,"trial_type":"image-button-response","trial_index":136,"time_elapsed":285240,"internal_node_id":"0.0-6.0-0.0","subject_id":"5f5a27482be30c0718bbf1e0","study_id":"6197b3f67c2b5cd3b6d9596a","session_id":"619be58dddedfe58ac30e535","condition":"contingent","relevant_dimensions":["wings","pattern"],"bee_group":{"antennae":"X","wings":"2","pattern":"D","legs":"X"},"bonus":0.20000000000000126},{"rt":2077,"stimulus":"bees-with-color/bee-A1DM.svg","response":0,"trial_type":"image-button-response","trial_index":137,"time_elapsed":287318,"internal_node_id":"0.0-6.0-0.1","subject_id":"5f5a27482be30c0718bbf1e0","study_id":"6197b3f67c2b5cd3b6d9596a","session_id":"619be58dddedfe58ac30e535","condition":"contingent","relevant_dimensions":["wings","pattern"],"bee_group":{"antennae":"X","wings":"2","pattern":"D","legs":"X"},"bonus":0.20000000000000126},{"rt":626,"stimulus":"bees-with-color/bee-B1DM.svg","response":1,"trial_type":"image-button-response","trial_index":138,"time_elapsed":287945,"internal_node_id":"0.0-6.0-0.2","subject_id":"5f5a27482be30c0718bbf1e0","study_id":"6197b3f67c2b5cd3b6d9596a","session_id":"619be58dddedfe58ac30e535","condition":"contingent","relevant_dimensions":["wings","pattern"],"bee_group":{"antennae":"X","wings":"2","pattern":"D","legs":"X"},"bonus":0.20000000000000126},{"rt":389,"stimulus":"bees-with-color/bee-A1DF.svg","response":1,"trial_type":"image-button-response","trial_index":139,"time_elapsed":288335,"internal_node_id":"0.0-6.0-0.3","subject_id":"5f5a27482be30c0718bbf1e0","study_id":"6197b3f67c2b5cd3b6d9596a","session_id":"619be58dddedfe58ac30e535","condition":"contingent","relevant_dimensions":["wings","pattern"],"bee_group":{"antennae":"X","wings":"2","pattern":"D","legs":"X"},"bonus":0.20000000000000126},{"rt":417,"stimulus":"bees-with-color/bee-A2DF.svg","response":0,"trial_type":"image-button-response","trial_index":140,"time_elapsed":288752,"internal_node_id":"0.0-6.0-0.4","subject_id":"5f5a27482be30c0718bbf1e0","study_id":"6197b3f67c2b5cd3b6d9596a","session_id":"619be58dddedfe58ac30e535","condition":"contingent","relevant_dimensions":["wings","pattern"],"bee_group":{"antennae":"X","wings":"2","pattern":"D","legs":"X"},"bonus":0.20000000000000126},{"rt":349,"stimulus":"bees-with-color/bee-A2SF.svg","response":0,"trial_type":"image-button-response","trial_index":141,"time_elapsed":289103,"internal_node_id":"0.0-6.0-0.5","subject_id":"5f5a27482be30c0718bbf1e0","study_id":"6197b3f67c2b5cd3b6d9596a","session_id":"619be58dddedfe58ac30e535","condition":"contingent","relevant_dimensions":["wings","pattern"],"bee_group":{"antennae":"X","wings":"2","pattern":"D","legs":"X"},"bonus":0.20000000000000126},{"rt":158,"stimulus":"bees-with-color/bee-A2DM.svg","response":0,"trial_type":"image-button-response","trial_index":142,"time_elapsed":289262,"internal_node_id":"0.0-6.0-0.6","subject_id":"5f5a27482be30c0718bbf1e0","study_id":"6197b3f67c2b5cd3b6d9596a","session_id":"619be58dddedfe58ac30e535","condition":"contingent","relevant_dimensions":["wings","pattern"],"bee_group":{"antennae":"X","wings":"2","pattern":"D","legs":"X"},"bonus":0.20000000000000126},{"rt":565,"stimulus":"bees-with-color/bee-A1SM.svg","response":1,"trial_type":"image-button-response","trial_index":143,"time_elapsed":289828,"internal_node_id":"0.0-6.0-0.7","subject_id":"5f5a27482be30c0718bbf1e0","study_id":"6197b3f67c2b5cd3b6d9596a","session_id":"619be58dddedfe58ac30e535","condition":"contingent","relevant_dimensions":["wings","pattern"],"bee_group":{"antennae":"X","wings":"2","pattern":"D","legs":"X"},"bonus":0.20000000000000126},{"rt":158,"stimulus":"bees-with-color/bee-A2SM.svg","response":1,"trial_type":"image-button-response","trial_index":144,"time_elapsed":289986,"internal_node_id":"0.0-6.0-0.8","subject_id":"5f5a27482be30c0718bbf1e0","study_id":"6197b3f67c2b5cd3b6d9596a","session_id":"619be58dddedfe58ac30e535","condition":"contingent","relevant_dimensions":["wings","pattern"],"bee_group":{"antennae":"X","wings":"2","pattern":"D","legs":"X"},"bonus":0.20000000000000126},{"rt":503,"stimulus":"bees-with-color/bee-A1SF.svg","response":1,"trial_type":"image-button-response","trial_index":145,"time_elapsed":290491,"internal_node_id":"0.0-6.0-0.9","subject_id":"5f5a27482be30c0718bbf1e0","study_id":"6197b3f67c2b5cd3b6d9596a","session_id":"619be58dddedfe58ac30e535","condition":"contingent","relevant_dimensions":["wings","pattern"],"bee_group":{"antennae":"X","wings":"2","pattern":"D","legs":"X"},"bonus":0.20000000000000126},{"rt":330,"stimulus":"bees-with-color/bee-B2DF.svg","response":1,"trial_type":"image-button-response","trial_index":146,"time_elapsed":290822,"internal_node_id":"0.0-6.0-0.10","subject_id":"5f5a27482be30c0718bbf1e0","study_id":"6197b3f67c2b5cd3b6d9596a","session_id":"619be58dddedfe58ac30e535","condition":"contingent","relevant_dimensions":["wings","pattern"],"bee_group":{"antennae":"X","wings":"2","pattern":"D","legs":"X"},"bonus":0.20000000000000126},{"rt":240,"stimulus":"bees-with-color/bee-B1DF.svg","response":1,"trial_type":"image-button-response","trial_index":147,"time_elapsed":291063,"internal_node_id":"0.0-6.0-0.11","subject_id":"5f5a27482be30c0718bbf1e0","study_id":"6197b3f67c2b5cd3b6d9596a","session_id":"619be58dddedfe58ac30e535","condition":"contingent","relevant_dimensions":["wings","pattern"],"bee_group":{"antennae":"X","wings":"2","pattern":"D","legs":"X"},"bonus":0.20000000000000126},{"rt":327,"stimulus":"bees-with-color/bee-B1SM.svg","response":0,"trial_type":"image-button-response","trial_index":148,"time_elapsed":291390,"internal_node_id":"0.0-6.0-0.12","subject_id":"5f5a27482be30c0718bbf1e0","study_id":"6197b3f67c2b5cd3b6d9596a","session_id":"619be58dddedfe58ac30e535","condition":"contingent","relevant_dimensions":["wings","pattern"],"bee_group":{"antennae":"X","wings":"2","pattern":"D","legs":"X"},"bonus":0.20000000000000126},{"rt":188,"stimulus":"bees-with-color/bee-B2SF.svg","response":0,"trial_type":"image-button-response","trial_index":149,"time_elapsed":291580,"internal_node_id":"0.0-6.0-0.13","subject_id":"5f5a27482be30c0718bbf1e0","study_id":"6197b3f67c2b5cd3b6d9596a","session_id":"619be58dddedfe58ac30e535","condition":"contingent","relevant_dimensions":["wings","pattern"],"bee_group":{"antennae":"X","wings":"2","pattern":"D","legs":"X"},"bonus":0.20000000000000126},{"rt":156,"stimulus":"bees-with-color/bee-B2DM.svg","response":0,"trial_type":"image-button-response","trial_index":150,"time_elapsed":291736,"internal_node_id":"0.0-6.0-0.14","subject_id":"5f5a27482be30c0718bbf1e0","study_id":"6197b3f67c2b5cd3b6d9596a","session_id":"619be58dddedfe58ac30e535","condition":"contingent","relevant_dimensions":["wings","pattern"],"bee_group":{"antennae":"X","wings":"2","pattern":"D","legs":"X"},"bonus":0.20000000000000126},{"rt":147,"stimulus":"bees-with-color/bee-B1SF.svg","response":0,"trial_type":"image-button-response","trial_index":151,"time_elapsed":291884,"internal_node_id":"0.0-6.0-0.15","subject_id":"5f5a27482be30c0718bbf1e0","study_id":"6197b3f67c2b5cd3b6d9596a","session_id":"619be58dddedfe58ac30e535","condition":"contingent","relevant_dimensions":["wings","pattern"],"bee_group":{"antennae":"X","wings":"2","pattern":"D","legs":"X"},"bonus":0.20000000000000126},{"rt":141,"stimulus":"bees-with-color/bee-A2SF.svg","response":0,"trial_type":"image-button-response","trial_index":152,"time_elapsed":292026,"internal_node_id":"0.0-6.0-0.16","subject_id":"5f5a27482be30c0718bbf1e0","study_id":"6197b3f67c2b5cd3b6d9596a","session_id":"619be58dddedfe58ac30e535","condition":"contingent","relevant_dimensions":["wings","pattern"],"bee_group":{"antennae":"X","wings":"2","pattern":"D","legs":"X"},"bonus":0.20000000000000126},{"rt":1014,"stimulus":"bees-with-color/bee-B2DM.svg","response":0,"trial_type":"image-button-response","trial_index":153,"time_elapsed":293043,"internal_node_id":"0.0-6.0-0.17","subject_id":"5f5a27482be30c0718bbf1e0","study_id":"6197b3f67c2b5cd3b6d9596a","session_id":"619be58dddedfe58ac30e535","condition":"contingent","relevant_dimensions":["wings","pattern"],"bee_group":{"antennae":"X","wings":"2","pattern":"D","legs":"X"},"bonus":0.20000000000000126},{"rt":386,"stimulus":"bees-with-color/bee-B1DF.svg","response":0,"trial_type":"image-button-response","trial_index":154,"time_elapsed":293428,"internal_node_id":"0.0-6.0-0.18","subject_id":"5f5a27482be30c0718bbf1e0","study_id":"6197b3f67c2b5cd3b6d9596a","session_id":"619be58dddedfe58ac30e535","condition":"contingent","relevant_dimensions":["wings","pattern"],"bee_group":{"antennae":"X","wings":"2","pattern":"D","legs":"X"},"bonus":0.20000000000000126},{"rt":307,"stimulus":"bees-with-color/bee-B2SF.svg","response":1,"trial_type":"image-button-response","trial_index":155,"time_elapsed":293736,"internal_node_id":"0.0-6.0-0.19","subject_id":"5f5a27482be30c0718bbf1e0","study_id":"6197b3f67c2b5cd3b6d9596a","session_id":"619be58dddedfe58ac30e535","condition":"contingent","relevant_dimensions":["wings","pattern"],"bee_group":{"antennae":"X","wings":"2","pattern":"D","legs":"X"},"bonus":0.20000000000000126},{"rt":168,"stimulus":"bees-with-color/bee-B2SM.svg","response":1,"trial_type":"image-button-response","trial_index":156,"time_elapsed":293904,"internal_node_id":"0.0-6.0-0.20","subject_id":"5f5a27482be30c0718bbf1e0","study_id":"6197b3f67c2b5cd3b6d9596a","session_id":"619be58dddedfe58ac30e535","condition":"contingent","relevant_dimensions":["wings","pattern"],"bee_group":{"antennae":"X","wings":"2","pattern":"D","legs":"X"},"bonus":0.20000000000000126},{"rt":143,"stimulus":"bees-with-color/bee-A1DF.svg","response":1,"trial_type":"image-button-response","trial_index":157,"time_elapsed":294049,"internal_node_id":"0.0-6.0-0.21","subject_id":"5f5a27482be30c0718bbf1e0","study_id":"6197b3f67c2b5cd3b6d9596a","session_id":"619be58dddedfe58ac30e535","condition":"contingent","relevant_dimensions":["wings","pattern"],"bee_group":{"antennae":"X","wings":"2","pattern":"D","legs":"X"},"bonus":0.20000000000000126},{"rt":427,"stimulus":"bees-with-color/bee-A1DM.svg","response":0,"trial_type":"image-button-response","trial_index":158,"time_elapsed":294476,"internal_node_id":"0.0-6.0-0.22","subject_id":"5f5a27482be30c0718bbf1e0","study_id":"6197b3f67c2b5cd3b6d9596a","session_id":"619be58dddedfe58ac30e535","condition":"contingent","relevant_dimensions":["wings","pattern"],"bee_group":{"antennae":"X","wings":"2","pattern":"D","legs":"X"},"bonus":0.20000000000000126},{"rt":542,"stimulus":"bees-with-color/bee-A2DF.svg","response":0,"trial_type":"image-button-response","trial_index":159,"time_elapsed":295018,"internal_node_id":"0.0-6.0-0.23","subject_id":"5f5a27482be30c0718bbf1e0","study_id":"6197b3f67c2b5cd3b6d9596a","session_id":"619be58dddedfe58ac30e535","condition":"contingent","relevant_dimensions":["wings","pattern"],"bee_group":{"antennae":"X","wings":"2","pattern":"D","legs":"X"},"bonus":0.20000000000000126},{"rt":734,"stimulus":"bees-with-color/bee-B1DM.svg","response":1,"trial_type":"image-button-response","trial_index":160,"time_elapsed":295754,"internal_node_id":"0.0-6.0-0.24","subject_id":"5f5a27482be30c0718bbf1e0","study_id":"6197b3f67c2b5cd3b6d9596a","session_id":"619be58dddedfe58ac30e535","condition":"contingent","relevant_dimensions":["wings","pattern"],"bee_group":{"antennae":"X","wings":"2","pattern":"D","legs":"X"},"bonus":0.20000000000000126},{"rt":147,"stimulus":"bees-with-color/bee-A1SM.svg","response":1,"trial_type":"image-button-response","trial_index":161,"time_elapsed":295902,"internal_node_id":"0.0-6.0-0.25","subject_id":"5f5a27482be30c0718bbf1e0","study_id":"6197b3f67c2b5cd3b6d9596a","session_id":"619be58dddedfe58ac30e535","condition":"contingent","relevant_dimensions":["wings","pattern"],"bee_group":{"antennae":"X","wings":"2","pattern":"D","legs":"X"},"bonus":0.20000000000000126},{"rt":422,"stimulus":"bees-with-color/bee-B1SM.svg","response":0,"trial_type":"image-button-response","trial_index":162,"time_elapsed":296324,"internal_node_id":"0.0-6.0-0.26","subject_id":"5f5a27482be30c0718bbf1e0","study_id":"6197b3f67c2b5cd3b6d9596a","session_id":"619be58dddedfe58ac30e535","condition":"contingent","relevant_dimensions":["wings","pattern"],"bee_group":{"antennae":"X","wings":"2","pattern":"D","legs":"X"},"bonus":0.20000000000000126},{"rt":501,"stimulus":"bees-with-color/bee-A2DM.svg","response":0,"trial_type":"image-button-response","trial_index":163,"time_elapsed":296827,"internal_node_id":"0.0-6.0-0.27","subject_id":"5f5a27482be30c0718bbf1e0","study_id":"6197b3f67c2b5cd3b6d9596a","session_id":"619be58dddedfe58ac30e535","condition":"contingent","relevant_dimensions":["wings","pattern"],"bee_group":{"antennae":"X","wings":"2","pattern":"D","legs":"X"