[{"success":true,"trial_type":"fullscreen","trial_index":0,"time_elapsed":5485,"internal_node_id":"0.0-0.0","subject_id":"60f801efc0846c47e4e755e6","study_id":"6197b3f67c2b5cd3b6d9596a","session_id":"619be52526118331e66a69ed","condition":"contingent","relevant_dimensions":["antennae","wings"],"bee_group":{"antennae":"B","wings":"2","pattern":"X","legs":"X"},"bonus":1.3200000000000007},{"success":true,"timeout":false,"failed_images":[],"failed_audio":[],"failed_video":[],"trial_type":"preload","trial_index":1,"time_elapsed":19664,"internal_node_id":"0.0-1.0","subject_id":"60f801efc0846c47e4e755e6","study_id":"6197b3f67c2b5cd3b6d9596a","session_id":"619be52526118331e66a69ed","condition":"contingent","relevant_dimensions":["antennae","wings"],"bee_group":{"antennae":"B","wings":"2","pattern":"X","legs":"X"},"bonus":1.3200000000000007},{"rt":12053.899999976158,"stimulus":"Welcome! Press any key to begin.","response":" ","trial_type":"html-keyboard-response","trial_index":2,"time_elapsed":31719,"internal_node_id":"0.0-2.0","subject_id":"60f801efc0846c47e4e755e6","study_id":"6197b3f67c2b5cd3b6d9596a","session_id":"619be52526118331e66a69ed","condition":"contingent","relevant_dimensions":["antennae","wings"],"bee_group":{"antennae":"B","wings":"2","pattern":"X","legs":"X"},"bonus":1.3200000000000007},{"view_history":[{"page_index":0,"viewing_time":4055.399999976158},{"page_index":1,"viewing_time":6190.899999976158},{"page_index":2,"viewing_time":68722.20000004768},{"page_index":3,"viewing_time":65431.89999997616},{"page_index":4,"viewing_time":5776.600000023842},{"page_index":5,"viewing_time":3415.100000023842},{"page_index":6,"viewing_time":8043.799999952316},{"page_index":7,"viewing_time":2973.3000000715256},{"page_index":8,"viewing_time":2274.2999999523163},{"page_index":9,"viewing_time":1679.5},{"page_index":10,"viewing_time":1376.3999999761581},{"page_index":11,"viewing_time":5881.600000023842},{"page_index":12,"viewing_time":6643.700000047684},{"page_index":13,"viewing_time":1711.1999999284744},{"page_index":14,"viewing_time":6162.100000023842}],"rt":190338.39999997616,"trial_type":"instructions","trial_index":3,"time_elapsed":222058,"internal_node_id":"0.0-3.0-0.0","subject_id":"60f801efc0846c47e4e755e6","study_id":"6197b3f67c2b5cd3b6d9596a","session_id":"619be52526118331e66a69ed","condition":"contingent","relevant_dimensions":["antennae","wings"],"bee_group":{"antennae":"B","wings":"2","pattern":"X","legs":"X"},"bonus":1.3200000000000007},{"rt":9130.100000023842,"response":{"Q0":["Two or six legs","Stripes or spots on body","Single or double wings","Antennae or no antennae"]},"question_order":[0],"trial_type":"survey-multi-select","trial_index":4,"time_elapsed":231193,"internal_node_id":"0.0-3.0-1.0","subject_id":"60f801efc0846c47e4e755e6","study_id":"6197b3f67c2b5cd3b6d9596a","session_id":"619be52526118331e66a69ed","condition":"contingent","relevant_dimensions":["antennae","wings"],"bee_group":{"antennae":"B","wings":"2","pattern":"X","legs":"X"},"correct":true,"bonus":1.3200000000000007},{"rt":35025.60000002384,"response":{"Q1":"No.","Q2":"Based on the four features of the bee.","Q3":"You do not learn if it was friendly or dangerous, and do not alter your bonus."},"question_order":[0,1,2],"trial_type":"survey-multi-choice","trial_index":5,"time_elapsed":266223,"internal_node_id":"0.0-3.0-2.0","subject_id":"60f801efc0846c47e4e755e6","study_id":"6197b3f67c2b5cd3b6d9596a","session_id":"619be52526118331e66a69ed","condition":"contingent","relevant_dimensions":["antennae","wings"],"bee_group":{"antennae":"B","wings":"2","pattern":"X","legs":"X"},"correct":true,"bonus":1.3200000000000007},{"rt":8375.5,"stimulus":"<p>Congrats, you got everything right<br>When you're ready, click the button below to continue to the experiment.</p>","response":0,"trial_type":"html-button-response","trial_index":6,"time_elapsed":274601,"internal_node_id":"0.0-3.0-3.0","subject_id":"60f801efc0846c47e4e755e6","study_id":"6197b3f67c2b5cd3b6d9596a","session_id":"619be52526118331e66a69ed","condition":"contingent","relevant_dimensions":["antennae","wings"],"bee_group":{"antennae":"B","wings":"2","pattern":"X","legs":"X"},"bonus":1.3200000000000007},{"rt":50669.40000009537,"stimulus":"bees-with-color/bee-B2SF.svg","response":0,"trial_type":"image-button-response","trial_index":7,"time_elapsed":325274,"internal_node_id":"0.0-4.0-0.0","subject_id":"60f801efc0846c47e4e755e6","study_id":"6197b3f67c2b5cd3b6d9596a","session_id":"619be52526118331e66a69ed","condition":"contingent","relevant_dimensions":["antennae","wings"],"bee_group":{"antennae":"B","wings":"2","pattern":"X","legs":"X"},"action":"harvest","summary":"bad-harvest","bonus":1.3200000000000007},{"rt":4006.2999999523163,"stimulus":"\n                    <p><b>Action: <em>harvest</em></b></p>\n                    <p>This is the bee that you just saw.</p>\n                    <img src=\"bees-with-color/bee-B2SF.svg\" width=\"200\">\n                    <p><span class=\"redText\">Bad choice, the bee was angry.</span><br><b>You have been stung!</b><br>Your pay has been decreased by $0.10. Your bonus pay is now $0.44.</p>\n            ","response":0,"trial_type":"html-button-response","trial_index":8,"time_elapsed":329288,"internal_node_id":"0.0-4.0-1.0","subject_id":"60f801efc0846c47e4e755e6","study_id":"6197b3f67c2b5cd3b6d9596a","session_id":"619be52526118331e66a69ed","condition":"contingent","relevant_dimensions":["antennae","wings"],"bee_group":{"antennae":"B","wings":"2","pattern":"X","legs":"X"},"bonus":1.3200000000000007},{"rt":5248.700000047684,"stimulus":"bees-with-color/bee-A2SF.svg","response":1,"trial_type":"image-button-response","trial_index":9,"time_elapsed":334540,"internal_node_id":"0.0-4.0-0.1","subject_id":"60f801efc0846c47e4e755e6","study_id":"6197b3f67c2b5cd3b6d9596a","session_id":"619be52526118331e66a69ed","condition":"contingent","relevant_dimensions":["antennae","wings"],"bee_group":{"antennae":"B","wings":"2","pattern":"X","legs":"X"},"action":"avoid","summary":"bad-avoid","bonus":1.3200000000000007},{"rt":2598.5999999046326,"stimulus":"\n                    <p><b>Action: <em>avoid</em></b></p>\n                    <p>This is the bee that you just saw.</p>\n                    <img src=\"bees-with-color/bee-A2SF.svg\" width=\"200\">\n                    <p><br>Your bonus pay is unchanged, and remains at $0.44.</p>\n            ","response":0,"trial_type":"html-button-response","trial_index":10,"time_elapsed":337144,"internal_node_id":"0.0-4.0-1.1","subject_id":"60f801efc0846c47e4e755e6","study_id":"6197b3f67c2b5cd3b6d9596a","session_id":"619be52526118331e66a69ed","condition":"contingent","relevant_dimensions":["antennae","wings"],"bee_group":{"antennae":"B","wings":"2","pattern":"X","legs":"X"},"bonus":1.3200000000000007},{"rt":6806.399999976158,"stimulus":"bees-with-color/bee-A1SM.svg","response":0,"trial_type":"image-button-response","trial_index":11,"time_elapsed":343955,"internal_node_id":"0.0-4.0-0.2","subject_id":"60f801efc0846c47e4e755e6","study_id":"6197b3f67c2b5cd3b6d9596a","session_id":"619be52526118331e66a69ed","condition":"contingent","relevant_dimensions":["antennae","wings"],"bee_group":{"antennae":"B","wings":"2","pattern":"X","legs":"X"},"action":"harvest","summary":"good-harvest","bonus":1.3200000000000007},{"rt":2753.100000023842,"stimulus":"\n                    <p><b>Action: <em>harvest</em></b></p>\n                    <p>This is the bee that you just saw.</p>\n                    <img src=\"bees-with-color/bee-A1SM.svg\" width=\"200\">\n                    <p><span class=\"greenText\"><b>Successful harvest!</b></span><br>Your pay has increased by $0.02. Your bonus pay is now $0.46.</p>\n            ","response":0,"trial_type":"html-button-response","trial_index":12,"time_elapsed":346712,"internal_node_id":"0.0-4.0-1.2","subject_id":"60f801efc0846c47e4e755e6","study_id":"6197b3f67c2b5cd3b6d9596a","session_id":"619be52526118331e66a69ed","condition":"contingent","relevant_dimensions":["antennae","wings"],"bee_group":{"antennae":"B","wings":"2","pattern":"X","legs":"X"},"bonus":1.3200000000000007},{"rt":4725.299999952316,"stimulus":"bees-with-color/bee-A1SF.svg","response":0,"trial_type":"image-button-response","trial_index":13,"time_elapsed":351440,"internal_node_id":"0.0-4.0-0.3","subject_id":"60f801efc0846c47e4e755e6","study_id":"6197b3f67c2b5cd3b6d9596a","session_id":"619be52526118331e66a69ed","condition":"contingent","relevant_dimensions":["antennae","wings"],"bee_group":{"antennae":"B","wings":"2","pattern":"X","legs":"X"},"action":"harvest","summary":"good-harvest","bonus":1.3200000000000007},{"rt":8619.5,"stimulus":"\n                    <p><b>Action: <em>harvest</em></b></p>\n                    <p>This is the bee that you just saw.</p>\n                    <img src=\"bees-with-color/bee-A1SF.svg\" width=\"200\">\n                    <p><span class=\"greenText\"><b>Successful harvest!</b></span><br>Your pay has increased by $0.02. Your bonus pay is now $0.48.</p>\n            ","response":0,"trial_type":"html-button-response","trial_index":14,"time_elapsed":360066,"internal_node_id":"0.0-4.0-1.3","subject_id":"60f801efc0846c47e4e755e6","study_id":"6197b3f67c2b5cd3b6d9596a","session_id":"619be52526118331e66a69ed","condition":"contingent","relevant_dimensions":["antennae","wings"],"bee_group":{"antennae":"B","wings":"2","pattern":"X","legs":"X"},"bonus":1.3200000000000007},{"rt":5403.899999976158,"stimulus":"bees-with-color/bee-A2SM.svg","response":1,"trial_type":"image-button-response","trial_index":15,"time_elapsed":365472,"internal_node_id":"0.0-4.0-0.4","subject_id":"60f801efc0846c47e4e755e6","study_id":"6197b3f67c2b5cd3b6d9596a","session_id":"619be52526118331e66a69ed","condition":"contingent","relevant_dimensions":["antennae","wings"],"bee_group":{"antennae":"B","wings":"2","pattern":"X","legs":"X"},"action":"avoid","summary":"bad-avoid","bonus":1.3200000000000007},{"rt":1277.7000000476837,"stimulus":"\n                    <p><b>Action: <em>avoid</em></b></p>\n                    <p>This is the bee that you just saw.</p>\n                    <img src=\"bees-with-color/bee-A2SM.svg\" width=\"200\">\n                    <p><br>Your bonus pay is unchanged, and remains at $0.48.</p>\n            ","response":0,"trial_type":"html-button-response","trial_index":16,"time_elapsed":366754,"internal_node_id":"0.0-4.0-1.4","subject_id":"60f801efc0846c47e4e755e6","study_id":"6197b3f67c2b5cd3b6d9596a","session_id":"619be52526118331e66a69ed","condition":"contingent","relevant_dimensions":["antennae","wings"],"bee_group":{"antennae":"B","wings":"2","pattern":"X","legs":"X"},"bonus":1.3200000000000007},{"rt":3265.899999976158,"stimulus":"bees-with-color/bee-A1DF.svg","response":0,"trial_type":"image-button-response","trial_index":17,"time_elapsed":370021,"internal_node_id":"0.0-4.0-0.5","subject_id":"60f801efc0846c47e4e755e6","study_id":"6197b3f67c2b5cd3b6d9596a","session_id":"619be52526118331e66a69ed","condition":"contingent","relevant_dimensions":["antennae","wings"],"bee_group":{"antennae":"B","wings":"2","pattern":"X","legs":"X"},"action":"harvest","summary":"good-harvest","bonus":1.3200000000000007},{"rt":4606.899999976158,"stimulus":"\n                    <p><b>Action: <em>harvest</em></b></p>\n                    <p>This is the bee that you just saw.</p>\n                    <img src=\"bees-with-color/bee-A1DF.svg\" width=\"200\">\n                    <p><span class=\"greenText\"><b>Successful harvest!</b></span><br>Your pay has increased by $0.02. Your bonus pay is now $0.50.</p>\n            ","response":0,"trial_type":"html-button-response","trial_index":18,"time_elapsed":374632,"internal_node_id":"0.0-4.0-1.5","subject_id":"60f801efc0846c47e4e755e6","study_id":"6197b3f67c2b5cd3b6d9596a","session_id":"619be52526118331e66a69ed","condition":"contingent","relevant_dimensions":["antennae","wings"],"bee_group":{"antennae":"B","wings":"2","pattern":"X","legs":"X"},"bonus":1.3200000000000007},{"rt":1791.5,"stimulus":"bees-with-color/bee-B2SM.svg","response":1,"trial_type":"image-button-response","trial_index":19,"time_elapsed":376427,"internal_node_id":"0.0-4.0-0.6","subject_id":"60f801efc0846c47e4e755e6","study_id":"6197b3f67c2b5cd3b6d9596a","session_id":"619be52526118331e66a69ed","condition":"contingent","relevant_dimensions":["antennae","wings"],"bee_group":{"antennae":"B","wings":"2","pattern":"X","legs":"X"},"action":"avoid","summary":"good-avoid","bonus":1.3200000000000007},{"rt":1638.3999999761581,"stimulus":"\n                    <p><b>Action: <em>avoid</em></b></p>\n                    <p>This is the bee that you just saw.</p>\n                    <img src=\"bees-with-color/bee-B2SM.svg\" width=\"200\">\n                    <p><br>Your bonus pay is unchanged, and remains at $0.50.</p>\n            ","response":0,"trial_type":"html-button-response","trial_index":20,"time_elapsed":378070,"internal_node_id":"0.0-4.0-1.6","subject_id":"60f801efc0846c47e4e755e6","study_id":"6197b3f67c2b5cd3b6d9596a","session_id":"619be52526118331e66a69ed","condition":"contingent","relevant_dimensions":["antennae","wings"],"bee_group":{"antennae":"B","wings":"2","pattern":"X","legs":"X"},"bonus":1.3200000000000007},{"rt":10371.700000047684,"stimulus":"bees-with-color/bee-A2DF.svg","response":1,"trial_type":"image-button-response","trial_index":21,"time_elapsed":388447,"internal_node_id":"0.0-4.0-0.7","subject_id":"60f801efc0846c47e4e755e6","study_id":"6197b3f67c2b5cd3b6d9596a","session_id":"619be52526118331e66a69ed","condition":"contingent","relevant_dimensions":["antennae","wings"],"bee_group":{"antennae":"B","wings":"2","pattern":"X","legs":"X"},"action":"avoid","summary":"bad-avoid","bonus":1.3200000000000007},{"rt":1680.1000000238419,"stimulus":"\n                    <p><b>Action: <em>avoid</em></b></p>\n                    <p>This is the bee that you just saw.</p>\n                    <img src=\"bees-with-color/bee-A2DF.svg\" width=\"200\">\n                    <p><br>Your bonus pay is unchanged, and remains at $0.50.</p>\n            ","response":0,"trial_type":"html-button-response","trial_index":22,"time_elapsed":390133,"internal_node_id":"0.0-4.0-1.7","subject_id":"60f801efc0846c47e4e755e6","study_id":"6197b3f67c2b5cd3b6d9596a","session_id":"619be52526118331e66a69ed","condition":"contingent","relevant_dimensions":["antennae","wings"],"bee_group":{"antennae":"B","wings":"2","pattern":"X","legs":"X"},"bonus":1.3200000000000007},{"rt":1951.7000000476837,"stimulus":"bees-with-color/bee-B1SF.svg","response":0,"trial_type":"image-button-response","trial_index":23,"time_elapsed":392088,"internal_node_id":"0.0-4.0-0.8","subject_id":"60f801efc0846c47e4e755e6","study_id":"6197b3f67c2b5cd3b6d9596a","session_id":"619be52526118331e66a69ed","condition":"contingent","relevant_dimensions":["antennae","wings"],"bee_group":{"antennae":"B","wings":"2","pattern":"X","legs":"X"},"action":"harvest","summary":"good-harvest","bonus":1.3200000000000007},{"rt":1352.4000000953674,"stimulus":"\n                    <p><b>Action: <em>harvest</em></b></p>\n                    <p>This is the bee that you just saw.</p>\n                    <img src=\"bees-with-color/bee-B1SF.svg\" width=\"200\">\n                    <p><span class=\"greenText\"><b>Successful harvest!</b></span><br>Your pay has increased by $0.02. Your bonus pay is now $0.52.</p>\n            ","response":0,"trial_type":"html-button-response","trial_index":24,"time_elapsed":393445,"internal_node_id":"0.0-4.0-1.8","subject_id":"60f801efc0846c47e4e755e6","study_id":"6197b3f67c2b5cd3b6d9596a","session_id":"619be52526118331e66a69ed","condition":"contingent","relevant_dimensions":["antennae","wings"],"bee_group":{"antennae":"B","wings":"2","pattern":"X","legs":"X"},"bonus":1.3200000000000007},{"rt":1359.6000000238419,"stimulus":"bees-with-color/bee-B1SM.svg","response":0,"trial_type":"image-button-response","trial_index":25,"time_elapsed":394806,"internal_node_id":"0.0-4.0-0.9","subject_id":"60f801efc0846c47e4e755e6","study_id":"6197b3f67c2b5cd3b6d9596a","session_id":"619be52526118331e66a69ed","condition":"contingent","relevant_dimensions":["antennae","wings"],"bee_group":{"antennae":"B","wings":"2","pattern":"X","legs":"X"},"action":"harvest","summary":"good-harvest","bonus":1.3200000000000007},{"rt":1516.1000000238419,"stimulus":"\n                    <p><b>Action: <em>harvest</em></b></p>\n                    <p>This is the bee that you just saw.</p>\n                    <img src=\"bees-with-color/bee-B1SM.svg\" width=\"200\">\n                    <p><span class=\"greenText\"><b>Successful harvest!</b></span><br>Your pay has increased by $0.02. Your bonus pay is now $0.54.</p>\n            ","response":0,"trial_type":"html-button-response","trial_index":26,"time_elapsed":396323,"internal_node_id":"0.0-4.0-1.9","subject_id":"60f801efc0846c47e4e755e6","study_id":"6197b3f67c2b5cd3b6d9596a","session_id":"619be52526118331e66a69ed","condition":"contingent","relevant_dimensions":["antennae","wings"],"bee_group":{"antennae":"B","wings":"2","pattern":"X","legs":"X"},"bonus":1.3200000000000007},{"rt":1910.8000000715256,"stimulus":"bees-with-color/bee-A1DM.svg","response":0,"trial_type":"image-button-response","trial_index":27,"time_elapsed":398236,"internal_node_id":"0.0-4.0-0.10","subject_id":"60f801efc0846c47e4e755e6","study_id":"6197b3f67c2b5cd3b6d9596a","session_id":"619be52526118331e66a69ed","condition":"contingent","relevant_dimensions":["antennae","wings"],"bee_group":{"antennae":"B","wings":"2","pattern":"X","legs":"X"},"action":"harvest","summary":"good-harvest","bonus":1.3200000000000007},{"rt":1189.1000000238419,"stimulus":"\n                    <p><b>Action: <em>harvest</em></b></p>\n                    <p>This is the bee that you just saw.</p>\n                    <img src=\"bees-with-color/bee-A1DM.svg\" width=\"200\">\n                    <p><span class=\"greenText\"><b>Successful harvest!</b></span><br>Your pay has increased by $0.02. Your bonus pay is now $0.56.</p>\n            ","response":0,"trial_type":"html-button-response","trial_index":28,"time_elapsed":399428,"internal_node_id":"0.0-4.0-1.10","subject_id":"60f801efc0846c47e4e755e6","study_id":"6197b3f67c2b5cd3b6d9596a","session_id":"619be52526118331e66a69ed","condition":"contingent","relevant_dimensions":["antennae","wings"],"bee_group":{"antennae":"B","wings":"2","pattern":"X","legs":"X"},"bonus":1.3200000000000007},{"rt":1277.3000000715256,"stimulus":"bees-with-color/bee-B1DM.svg","response":0,"trial_type":"image-button-response","trial_index":29,"time_elapsed":400708,"internal_node_id":"0.0-4.0-0.11","subject_id":"60f801efc0846c47e4e755e6","study_id":"6197b3f67c2b5cd3b6d9596a","session_id":"619be52526118331e66a69ed","condition":"contingent","relevant_dimensions":["antennae","wings"],"bee_group":{"antennae":"B","wings":"2","pattern":"X","legs":"X"},"action":"harvest","summary":"good-harvest","bonus":1.3200000000000007},{"rt":1079,"stimulus":"\n                    <p><b>Action: <em>harvest</em></b></p>\n                    <p>This is the bee that you just saw.</p>\n                    <img src=\"bees-with-color/bee-B1DM.svg\" width=\"200\">\n                    <p><span class=\"greenText\"><b>Successful harvest!</b></span><br>Your pay has increased by $0.02. Your bonus pay is now $0.58.</p>\n            ","response":0,"trial_type":"html-button-response","trial_index":30,"time_elapsed":401791,"internal_node_id":"0.0-4.0-1.11","subject_id":"60f801efc0846c47e4e755e6","study_id":"6197b3f67c2b5cd3b6d9596a","session_id":"619be52526118331e66a69ed","condition":"contingent","relevant_dimensions":["antennae","wings"],"bee_group":{"antennae":"B","wings":"2","pattern":"X","legs":"X"},"bonus":1.3200000000000007},{"rt":1401.2999999523163,"stimulus":"bees-with-color/bee-B1DF.svg","response":0,"trial_type":"image-button-response","trial_index":31,"time_elapsed":403199,"internal_node_id":"0.0-4.0-0.12","subject_id":"60f801efc0846c47e4e755e6","study_id":"6197b3f67c2b5cd3b6d9596a","session_id":"619be52526118331e66a69ed","condition":"contingent","relevant_dimensions":["antennae","wings"],"bee_group":{"antennae":"B","wings":"2","pattern":"X","legs":"X"},"action":"harvest","summary":"good-harvest","bonus":1.3200000000000007},{"rt":1111.6000000238419,"stimulus":"\n                    <p><b>Action: <em>harvest</em></b></p>\n                    <p>This is the bee that you just saw.</p>\n                    <img src=\"bees-with-color/bee-B1DF.svg\" width=\"200\">\n                    <p><span class=\"greenText\"><b>Successful harvest!</b></span><br>Your pay has increased by $0.02. Your bonus pay is now $0.60.</p>\n            ","response":0,"trial_type":"html-button-response","trial_index":32,"time_elapsed":404316,"internal_node_id":"0.0-4.0-1.12","subject_id":"60f801efc0846c47e4e755e6","study_id":"6197b3f67c2b5cd3b6d9596a","session_id":"619be52526118331e66a69ed","condition":"contingent","relevant_dimensions":["antennae","wings"],"bee_group":{"antennae":"B","wings":"2","pattern":"X","legs":"X"},"bonus":1.3200000000000007},{"rt":1175,"stimulus":"bees-with-color/bee-B2DF.svg","response":1,"trial_type":"image-button-response","trial_index":33,"time_elapsed":405493,"internal_node_id":"0.0-4.0-0.13","subject_id":"60f801efc0846c47e4e755e6","study_id":"6197b3f67c2b5cd3b6d9596a","session_id":"619be52526118331e66a69ed","condition":"contingent","relevant_dimensions":["antennae","wings"],"bee_group":{"antennae":"B","wings":"2","pattern":"X","legs":"X"},"action":"avoid","summary":"good-avoid","bonus":1.3200000000000007},{"rt":2177.899999976158,"stimulus":"\n                    <p><b>Action: <em>avoid</em></b></p>\n                    <p>This is the bee that you just saw.</p>\n                    <img src=\"bees-with-color/bee-B2DF.svg\" width=\"200\">\n                    <p><br>Your bonus pay is unchanged, and remains at $0.60.</p>\n            ","response":0,"trial_type":"html-button-response","trial_index":34,"time_elapsed":407672,"internal_node_id":"0.0-4.0-1.13","subject_id":"60f801efc0846c47e4e755e6","study_id":"6197b3f67c2b5cd3b6d9596a","session_id":"619be52526118331e66a69ed","condition":"contingent","relevant_dimensions":["antennae","wings"],"bee_group":{"antennae":"B","wings":"2","pattern":"X","legs":"X"},"bonus":1.3200000000000007},{"rt":1344.1999999284744,"stimulus":"bees-with-color/bee-A2DM.svg","response":1,"trial_type":"image-button-response","trial_index":35,"time_elapsed":409022,"internal_node_id":"0.0-4.0-0.14","subject_id":"60f801efc0846c47e4e755e6","study_id":"6197b3f67c2b5cd3b6d9596a","session_id":"619be52526118331e66a69ed","condition":"contingent","relevant_dimensions":["antennae","wings"],"bee_group":{"antennae":"B","wings":"2","pattern":"X","legs":"X"},"action":"avoid","summary":"bad-avoid","bonus":1.3200000000000007},{"rt":1212.4000000953674,"stimulus":"\n                    <p><b>Action: <em>avoid</em></b></p>\n                    <p>This is the bee that you just saw.</p>\n                    <img src=\"bees-with-color/bee-A2DM.svg\" width=\"200\">\n                    <p><br>Your bonus pay is unchanged, and remains at $0.60.</p>\n            ","response":0,"trial_type":"html-button-response","trial_index":36,"time_elapsed":410239,"internal_node_id":"0.0-4.0-1.14","subject_id":"60f801efc0846c47e4e755e6","study_id":"6197b3f67c2b5cd3b6d9596a","session_id":"619be52526118331e66a69ed","condition":"contingent","relevant_dimensions":["antennae","wings"],"bee_group":{"antennae":"B","wings":"2","pattern":"X","legs":"X"},"bonus":1.3200000000000007},{"rt":1285.2000000476837,"stimulus":"bees-with-color/bee-B2DM.svg","response":1,"trial_type":"image-button-response","trial_index":37,"time_elapsed":411528,"internal_node_id":"0.0-4.0-0.15","subject_id":"60f801efc0846c47e4e755e6","study_id":"6197b3f67c2b5cd3b6d9596a","session_id":"619be52526118331e66a69ed","condition":"contingent","relevant_dimensions":["antennae","wings"],"bee_group":{"antennae":"B","wings":"2","pattern":"X","legs":"X"},"action":"avoid","summary":"good-avoid","bonus":1.3200000000000007},{"rt":1445.7000000476837,"stimulus":"\n                    <p><b>Action: <em>avoid</em></b></p>\n                    <p>This is the bee that you just saw.</p>\n                    <img src=\"bees-with-color/bee-B2DM.svg\" width=\"200\">\n                    <p><br>Your bonus pay is unchanged, and remains at $0.60.</p>\n            ","response":0,"trial_type":"html-button-response","trial_index":38,"time_elapsed":412975,"internal_node_id":"0.0-4.0-1.15","subject_id":"60f801efc0846c47e4e755e6","study_id":"6197b3f67c2b5cd3b6d9596a","session_id":"619be52526118331e66a69ed","condition":"contingent","relevant_dimensions":["antennae","wings"],"bee_group":{"antennae":"B","wings":"2","pattern":"X","legs":"X"},"bonus":1.3200000000000007},{"rt":1582.1999999284744,"stimulus":"bees-with-color/bee-A1SM.svg","response":0,"trial_type":"image-button-response","trial_index":39,"time_elapsed":414559,"internal_node_id":"0.0-4.0-0.16","subject_id":"60f801efc0846c47e4e755e6","study_id":"6197b3f67c2b5cd3b6d9596a","session_id":"619be52526118331e66a69ed","condition":"contingent","relevant_dimensions":["antennae","wings"],"bee_group":{"antennae":"B","wings":"2","pattern":"X","legs":"X"},"action":"harvest","summary":"good-harvest","bonus":1.3200000000000007},{"rt":2388,"stimulus":"\n                    <p><b>Action: <em>harvest</em></b></p>\n                    <p>This is the bee that you just saw.</p>\n                    <img src=\"bees-with-color/bee-A1SM.svg\" width=\"200\">\n                    <p><span class=\"greenText\"><b>Successful harvest!</b></span><br>Your pay has increased by $0.02. Your bonus pay is now $0.62.</p>\n            ","response":0,"trial_type":"html-button-response","trial_index":40,"time_elapsed":416949,"internal_node_id":"0.0-4.0-1.16","subject_id":"60f801efc0846c47e4e755e6","study_id":"6197b3f67c2b5cd3b6d9596a","session_id":"619be52526118331e66a69ed","condition":"contingent","relevant_dimensions":["antennae","wings"],"bee_group":{"antennae":"B","wings":"2","pattern":"X","legs":"X"},"bonus":1.3200000000000007},{"rt":1239.8000000715256,"stimulus":"bees-with-color/bee-B1SF.svg","response":0,"trial_type":"image-button-response","trial_index":41,"time_elapsed":418192,"internal_node_id":"0.0-4.0-0.17","subject_id":"60f801efc0846c47e4e755e6","study_id":"6197b3f67c2b5cd3b6d9596a","session_id":"619be52526118331e66a69ed","condition":"contingent","relevant_dimensions":["antennae","wings"],"bee_group":{"antennae":"B","wings":"2","pattern":"X","legs":"X"},"action":"harvest","summary":"good-harvest","bonus":1.3200000000000007},{"rt":1709.8000000715256,"stimulus":"\n                    <p><b>Action: <em>harvest</em></b></p>\n                    <p>This is the bee that you just saw.</p>\n                    <img src=\"bees-with-color/bee-B1SF.svg\" width=\"200\">\n                    <p><span class=\"greenText\"><b>Successful harvest!</b></span><br>Your pay has increased by $0.02. Your bonus pay is now $0.64.</p>\n            ","response":0,"trial_type":"html-button-response","trial_index":42,"time_elapsed":419906,"internal_node_id":"0.0-4.0-1.17","subject_id":"60f801efc0846c47e4e755e6","study_id":"6197b3f67c2b5cd3b6d9596a","session_id":"619be52526118331e66a69ed","condition":"contingent","relevant_dimensions":["antennae","wings"],"bee_group":{"antennae":"B","wings":"2","pattern":"X","legs":"X"},"bonus":1.3200000000000007},{"rt":1425,"stimulus":"bees-with-color/bee-B2DM.svg","response":1,"trial_type":"image-button-response","trial_index":43,"time_elapsed":421333,"internal_node_id":"0.0-4.0-0.18","subject_id":"60f801efc0846c47e4e755e6","study_id":"6197b3f67c2b5cd3b6d9596a","session_id":"619be52526118331e66a69ed","condition":"contingent","relevant_dimensions":["antennae","wings"],"bee_group":{"antennae":"B","wings":"2","pattern":"X","legs":"X"},"action":"avoid","summary":"good-avoid","bonus":1.3200000000000007},{"rt":1333.7000000476837,"stimulus":"\n                    <p><b>Action: <em>avoid</em></b></p>\n                    <p>This is the bee that you just saw.</p>\n                    <img src=\"bees-with-color/bee-B2DM.svg\" width=\"200\">\n                    <p><br>Your bonus pay is unchanged, and remains at $0.64.</p>\n            ","response":0,"trial_type":"html-button-response","trial_index":44,"time_elapsed":422668,"internal_node_id":"0.0-4.0-1.18","subject_id":"60f801efc0846c47e4e755e6","study_id":"6197b3f67c2b5cd3b6d9596a","session_id":"619be52526118331e66a69ed","condition":"contingent","relevant_dimensions":["antennae","wings"],"bee_group":{"antennae":"B","wings":"2","pattern":"X","legs":"X"},"bonus":1.3200000000000007},{"rt":1128.2000000476837,"stimulus":"bees-with-color/bee-B2SF.svg","response":1,"trial_type":"image-button-response","trial_index":45,"time_elapsed":423799,"internal_node_id":"0.0-4.0-0.19","subject_id":"60f801efc0846c47e4e755e6","study_id":"6197b3f67c2b5cd3b6d9596a","session_id":"619be52526118331e66a69ed","condition":"contingent","relevant_dimensions":["antennae","wings"],"bee_group":{"antennae":"B","wings":"2","pattern":"X","legs":"X"},"action":"avoid","summary":"good-avoid","bonus":1.3200000000000007},{"rt":1026.3999999761581,"stimulus":"\n                    <p><b>Action: <em>avoid</em></b></p>\n                    <p>This is the bee that you just saw.</p>\n                    <img src=\"bees-with-color/bee-B2SF.svg\" width=\"200\">\n                    <p><br>Your bonus pay is unchanged, and remains at $0.64.</p>\n            ","response":0,"trial_type":"html-button-response","trial_index":46,"time_elapsed":424829,"internal_node_id":"0.0-4.0-1.19","subject_id":"60f801efc0846c47e4e755e6","study_id":"6197b3f67c2b5cd3b6d9596a","session_id":"619be52526118331e66a69ed","condition":"contingent","relevant_dimensions":["antennae","wings"],"bee_group":{"antennae":"B","wings":"2","pattern":"X","legs":"X"},"bonus":1.3200000000000007},{"rt":1103.5,"stimulus":"bees-with-color/bee-A1DM.svg","response":0,"trial_type":"image-button-response","trial_index":47,"time_elapsed":425937,"internal_node_id":"0.0-4.0-0.20","subject_id":"60f801efc0846c47e4e755e6","study_id":"6197b3f67c2b5cd3b6d9596a","session_id":"619be52526118331e66a69ed","condition":"contingent","relevant_dimensions":["antennae","wings"],"bee_group":{"antennae":"B","wings":"2","pattern":"X","legs":"X"},"action":"harvest","summary":"good-harvest","bonus":1.3200000000000007},{"rt":1450.9000000953674,"stimulus":"\n                    <p><b>Action: <em>harvest</em></b></p>\n                    <p>This is the bee that you just saw.</p>\n                    <img src=\"bees-with-color/bee-A1DM.svg\" width=\"200\">\n                    <p><span class=\"greenText\"><b>Successful harvest!</b></span><br>Your pay has increased by $0.02. Your bonus pay is now $0.66.</p>\n            ","response":0,"trial_type":"html-button-response","trial_index":48,"time_elapsed":427394,"internal_node_id":"0.0-4.0-1.20","subject_id":"60f801efc0846c47e4e755e6","study_id":"6197b3f67c2b5cd3b6d9596a","session_id":"619be52526118331e66a69ed","condition":"contingent","relevant_dimensions":["antennae","wings"],"bee_group":{"antennae":"B","wings":"2","pattern":"X","legs":"X"},"bonus":1.3200000000000007},{"rt":1492.5,"stimulus":"bees-with-color/bee-A2DM.svg","response":1,"trial_type":"image-button-response","trial_index":49,"time_elapsed":428890,"internal_node_id":"0.0-4.0-0.21","subject_id":"60f801efc0846c47e4e755e6","study_id":"6197b3f67c2b5cd3b6d9596a","session_id":"619be52526118331e66a69ed","condition":"contingent","relevant_dimensions":["antennae","wings"],"bee_group":{"antennae":"B","wings":"2","pattern":"X","legs":"X"},"action":"avoid","summary":"bad-avoid","bonus":1.3200000000000007},{"rt":1012.2000000476837,"stimulus":"\n                    <p><b>Action: <em>avoid</em></b></p>\n                    <p>This is the bee that you just saw.</p>\n                    <img src=\"bees-with-color/bee-A2DM.svg\" width=\"200\">\n                    <p><br>Your bonus pay is unchanged, and remains at $0.66.</p>\n            ","response":0,"trial_type":"html-button-response","trial_index":50,"time_elapsed":429907,"internal_node_id":"0.0-4.0-1.21","subject_id":"60f801efc0846c47e4e755e6","study_id":"6197b3f67c2b5cd3b6d9596a","session_id":"619be52526118331e66a69ed","condition":"contingent","relevant_dimensions":["antennae","wings"],"bee_group":{"antennae":"B","wings":"2","pattern":"X","legs":"X"},"bonus":1.3200000000000007},{"rt":1358.1000000238419,"stimulus":"bees-with-color/bee-A2SF.svg","response":1,"trial_type":"image-button-response","trial_index":51,"time_elapsed":431267,"internal_node_id":"0.0-4.0-0.22","subject_id":"60f801efc0846c47e4e755e6","study_id":"6197b3f67c2b5cd3b6d9596a","session_id":"619be52526118331e66a69ed","condition":"contingent","relevant_dimensions":["antennae","wings"],"bee_group":{"antennae":"B","wings":"2","pattern":"X","legs":"X"},"action":"avoid","summary":"bad-avoid","bonus":1.3200000000000007},{"rt":1275.6000000238419,"stimulus":"\n                    <p><b>Action: <em>avoid</em></b></p>\n                    <p>This is the bee that you just saw.</p>\n                    <img src=\"bees-with-color/bee-A2SF.svg\" width=\"200\">\n                    <p><br>Your bonus pay is unchanged, and remains at $0.66.</p>\n            ","response":0,"trial_type":"html-button-response","trial_index":52,"time_elapsed":432545,"internal_node_id":"0.0-4.0-1.22","subject_id":"60f801efc0846c47e4e755e6","study_id":"6197b3f67c2b5cd3b6d9596a","session_id":"619be52526118331e66a69ed","condition":"contingent","relevant_dimensions":["antennae","wings"],"bee_group":{"antennae":"B","wings":"2","pattern":"X","legs":"X"},"bonus":1.3200000000000007},{"rt":1225.1000000238419,"stimulus":"bees-with-color/bee-A1DF.svg","response":0,"trial_type":"image-button-response","trial_index":53,"time_elapsed":433774,"internal_node_id":"0.0-4.0-0.23","subject_id":"60f801efc0846c47e4e755e6","study_id":"6197b3f67c2b5cd3b6d9596a","session_id":"619be52526118331e66a69ed","condition":"contingent","relevant_dimensions":["antennae","wings"],"bee_group":{"antennae":"B","wings":"2","pattern":"X","legs":"X"},"action":"harvest","summary":"good-harvest","bonus":1.3200000000000007},{"rt":1598.7999999523163,"stimulus":"\n                    <p><b>Action: <em>harvest</em></b></p>\n                    <p>This is the bee that you just saw.</p>\n                    <img src=\"bees-with-color/bee-A1DF.svg\" width=\"200\">\n                    <p><span class=\"greenText\"><b>Successful harvest!</b></span><br>Your pay has increased by $0.02. Your bonus pay is now $0.68.</p>\n            ","response":0,"trial_type":"html-button-response","trial_index":54,"time_elapsed":435375,"internal_node_id":"0.0-4.0-1.23","subject_id":"60f801efc0846c47e4e755e6","study_id":"6197b3f67c2b5cd3b6d9596a","session_id":"619be52526118331e66a69ed","condition":"contingent","relevant_dimensions":["antennae","wings"],"bee_group":{"antennae":"B","wings":"2","pattern":"X","legs":"X"},"bonus":1.3200000000000007},{"rt":1020.8999999761581,"stimulus":"bees-with-color/bee-A1SF.svg","response":0,"trial_type":"image-button-response","trial_index":55,"time_elapsed":436398,"internal_node_id":"0.0-4.0-0.24","subject_id":"60f801efc0846c47e4e755e6","study_id":"6197b3f67c2b5cd3b6d9596a","session_id":"619be52526118331e66a69ed","condition":"contingent","relevant_dimensions":["antennae","wings"],"bee_group":{"antennae":"B","wings":"2","pattern":"X","legs":"X"},"action":"harvest","summary":"good-harvest","bonus":1.3200000000000007},{"rt":1154.6000000238419,"stimulus":"\n                    <p><b>Action: <em>harvest</em></b></p>\n                    <p>This is the bee that you just saw.</p>\n                    <img src=\"bees-with-color/bee-A1SF.svg\" width=\"200\">\n                    <p><span class=\"greenText\"><b>Successful harvest!</b></span><br>Your pay has increased by $0.02. Your bonus pay is now $0.70.</p>\n            ","response":0,"trial_type":"html-button-response","trial_index":56,"time_elapsed":437557,"internal_node_id":"0.0-4.0-1.24","subject_id":"60f801efc0846c47e4e755e6","study_id":"6197b3f67c2b5cd3b6d9596a","session_id":"619be52526118331e66a69ed","condition":"contingent","relevant_dimensions":["antennae","wings"],"bee_group":{"antennae":"B","wings":"2","pattern":"X","legs":"X"},"bonus":1.3200000000000007},{"rt":1257.6999999284744,"stimulus":"bees-with-color/bee-B1SM.svg","response":0,"trial_type":"image-button-response","trial_index":57,"time_elapsed":438817,"internal_node_id":"0.0-4.0-0.25","subject_id":"60f801efc0846c47e4e755e6","study_id":"6197b3f67c2b5cd3b6d9596a","session_id":"619be52526118331e66a69ed","condition":"contingent","relevant_dimensions":["antennae","wings"],"bee_group":{"antennae":"B","wings":"2","pattern":"X","legs":"X"},"action":"harvest","summary":"good-harvest","bonus":1.3200000000000007},{"rt":997.5,"stimulus":"\n                    <p><b>Action: <em>harvest</em></b></p>\n                    <p>This is the bee that you just saw.</p>\n                    <img src=\"bees-with-color/bee-B1SM.svg\" width=\"200\">\n                    <p><span class=\"greenText\"><b>Successful harvest!</b></span><br>Your pay has increased by $0.02. Your bonus pay is now $0.72.</p>\n            ","response":0,"trial_type":"html-button-response","trial_index":58,"time_elapsed":439818,"internal_node_id":"0.0-4.0-1.25","subject_id":"60f801efc0846c47e4e755e6","study_id":"6197b3f67c2b5cd3b6d9596a","session_id":"619be52526118331e66a69ed","condition":"contingent","relevant_dimensions":["antennae","wings"],"bee_group":{"antennae":"B","wings":"2","pattern":"X","legs":"X"},"bonus":1.3200000000000007},{"rt":2370.399999976158,"stimulus":"bees-with-color/bee-B1DF.svg","response":0,"trial_type":"image-button-response","trial_index":59,"time_elapsed":442192,"internal_node_id":"0.0-4.0-0.26","subject_id":"60f801efc0846c47e4e755e6","study_id":"6197b3f67c2b5cd3b6d9596a","session_id":"619be52526118331e66a69ed","condition":"contingent","relevant_dimensions":["antennae","wings"],"bee_group":{"antennae":"B","wings":"2","pattern":"X","legs":"X"},"action":"harvest","summary":"good-harvest","bonus":1.3200000000000007},{"rt":1802.6999999284744,"stimulus":"\n                    <p><b>Action: <em>harvest</em></b></p>\n                    <p>This is the bee that you just saw.</p>\n                    <img src=\"bees-with-color/bee-B1DF.svg\" width=\"200\">\n                    <p><span class=\"greenText\"><b>Successful harvest!</b></span><br>Your pay has increased by $0.02. Your bonus pay is now $0.74.</p>\n            ","response":0,"trial_type":"html-button-response","trial_index":60,"time_elapsed":443997,"internal_node_id":"0.0-4.0-1.26","subject_id":"60f801efc0846c47e4e755e6","study_id":"6197b3f67c2b5cd3b6d9596a","session_id":"619be52526118331e66a69ed","condition":"contingent","relevant_dimensions":["antennae","wings"],"bee_group":{"antennae":"B","wings":"2","pattern":"X","legs":"X"},"bonus":1.3200000000000007},{"rt":2845.8000000715256,"stimulus":"bees-with-color/bee-A2DF.svg","response":1,"trial_type":"image-button-response","trial_index":61,"time_elapsed":446844,"internal_node_id":"0.0-4.0-0.27","subject_id":"60f801efc0846c47e4e755e6","study_id":"6197b3f67c2b5cd3b6d9596a","session_id":"619be52526118331e66a69ed","condition":"contingent","relevant_dimensions":["antennae","wings"],"bee_group":{"antennae":"B","wings":"2","pattern":"X","legs":"X"},"action":"avoid","summary":"bad-avoid","bonus":1.3200000000000007},{"rt":1430.1000000238419,"stimulus":"\n                    <p><b>Action: <em>avoid</em></b></p>\n                    <p>This is the bee that you just saw.</p>\n                    <img src=\"bees-with-color/bee-A2DF.svg\" width=\"200\">\n                    <p><br>Your bonus pay is unchanged, and remains at $0.74.</p>\n            ","response":0,"trial_type":"html-button-response","trial_index":62,"time_elapsed":448278,"internal_node_id":"0.0-4.0-1.27","subject_id":"60f801efc0846c47e4e755e6","study_id":"6197b3f67c2b5cd3b6d9596a","session_id":"619be52526118331e66a69ed","condition":"contingent","relevant_dimensions":["antennae","wings"],"bee_group":{"antennae":"B","wings":"2","pattern":"X","legs":"X"},"bonus":1.3200000000000007},{"rt":1643.6999999284744,"stimulus":"bees-with-color/bee-B2DF.svg","response":1,"trial_type":"image-button-response","trial_index":63,"time_elapsed":449927,"internal_node_id":"0.0-4.0-0.28","subject_id":"60f801efc0846c47e4e755e6","study_id":"6197b3f67c2b5cd3b6d9596a","session_id":"619be52526118331e66a69ed","condition":"contingent","relevant_dimensions":["antennae","wings"],"bee_group":{"antennae":"B","wings":"2","pattern":"X","legs":"X"},"action":"avoid","summary":"good-avoid","bonus":1.3200000000000007},{"rt":1209.6000000238419,"stimulus":"\n                    <p><b>Action: <em>avoid</em></b></p>\n                    <p>This is the bee that you just saw.</p>\n                    <img src=\"bees-with-color/bee-B2DF.svg\" width=\"200\">\n                    <p><br>Your bonus pay is unchanged, and remains at $0.74.</p>\n            ","response":0,"trial_type":"html-button-response","trial_index":64,"time_elapsed":451141,"internal_node_id":"0.0-4.0-1.28","subject_id":"60f801efc0846c47e4e755e6","study_id":"6197b3f67c2b5cd3b6d9596a","session_id":"619be52526118331e66a69ed","condition":"contingent","relevant_dimensions":["antennae","wings"],"bee_group":{"antennae":"B","wings":"2","pattern":"X","legs":"X"},"bonus":1.3200000000000007},{"rt":1376,"stimulus":"bees-with-color/bee-B2SM.svg","response":1,"trial_type":"image-button-response","trial_index":65,"time_elapsed":452522,"internal_node_id":"0.0-4.0-0.29","subject_id":"60f801efc0846c47e4e755e6","study_id":"6197b3f67c2b5cd3b6d9596a","session_id":"619be52526118331e66a69ed","condition":"contingent","relevant_dimensions":["antennae","wings"],"bee_group":{"antennae":"B","wings":"2","pattern":"X","legs":"X"},"action":"avoid","summary":"good-avoid","bonus":1.3200000000000007},{"rt":1294.2999999523163,"stimulus":"\n                    <p><b>Action: <em>avoid</em></b></p>\n                    <p>This is the bee that you just saw.</p>\n                    <img src=\"bees-with-color/bee-B2SM.svg\" width=\"200\">\n                    <p><br>Your bonus pay is unchanged, and remains at $0.74.</p>\n            ","response":0,"trial_type":"html-button-response","trial_index":66,"time_elapsed":453818,"internal_node_id":"0.0-4.0-1.29","subject_id":"60f801efc0846c47e4e755e6","study_id":"6197b3f67c2b5cd3b6d9596a","session_id":"619be52526118331e66a69ed","condition":"contingent","relevant_dimensions":["antennae","wings"],"bee_group":{"antennae":"B","wings":"2","pattern":"X","legs":"X"},"bonus":1.3200000000000007},{"rt":1449,"stimulus":"bees-with-color/bee-B1DM.svg","response":0,"trial_type":"image-button-response","trial_index":67,"time_elapsed":455269,"internal_node_id":"0.0-4.0-0.30","subject_id":"60f801efc0846c47e4e755e6","study_id":"6197b3f67c2b5cd3b6d9596a","session_id":"619be52526118331e66a69ed","condition":"contingent","relevant_dimensions":["antennae","wings"],"bee_group":{"antennae":"B","wings":"2","pattern":"X","legs":"X"},"action":"harvest","summary":"good-harvest","bonus":1.3200000000000007},{"rt":1315.2999999523163,"stimulus":"\n                    <p><b>Action: <em>harvest</em></b></p>\n                    <p>This is the bee that you just saw.</p>\n                    <img src=\"bees-with-color/bee-B1DM.svg\" width=\"200\">\n                    <p><span class=\"greenText\"><b>Successful harvest!</b></span><br>Your pay has increased by $0.02. Your bonus pay is now $0.76.</p>\n            ","response":0,"trial_type":"html-button-response","trial_index":68,"time_elapsed":456587,"internal_node_id":"0.0-4.0-1.30","subject_id":"60f801efc0846c47e4e755e6","study_id":"6197b3f67c2b5cd3b6d9596a","session_id":"619be52526118331e66a69ed","condition":"contingent","relevant_dimensions":["antennae","wings"],"bee_group":{"antennae":"B","wings":"2","pattern":"X","legs":"X"},"bonus":1.3200000000000007},{"rt":1468.8000000715256,"stimulus":"bees-with-color/bee-A2SM.svg","response":1,"trial_type":"image-button-response","trial_index":69,"time_elapsed":458058,"internal_node_id":"0.0-4.0-0.31","subject_id":"60f801efc0846c47e4e755e6","study_id":"6197b3f67c2b5cd3b6d9596a","session_id":"619be52526118331e66a69ed","condition":"contingent","relevant_dimensions":["antennae","wings"],"bee_group":{"antennae":"B","wings":"2","pattern":"X","legs":"X"},"action":"avoid","summary":"bad-avoid","bonus":1.3200000000000007},{"rt":1404.2000000476837,"stimulus":"\n                    <p><b>Action: <em>avoid</em></b></p>\n                    <p>This is the bee that you just saw.</p>\n                    <img src=\"bees-with-color/bee-A2SM.svg\" width=\"200\">\n                    <p><br>Your bonus pay is unchanged, and remains at $0.76.</p>\n            ","response":0,"trial_type":"html-button-response","trial_index":70,"time_elapsed":459463,"internal_node_id":"0.0-4.0-1.31","subject_id":"60f801efc0846c47e4e755e6","study_id":"6197b3f67c2b5cd3b6d9596a","session_id":"619be52526118331e66a69ed","condition":"contingent","relevant_dimensions":["antennae","wings"],"bee_group":{"antennae":"B","wings":"2","pattern":"X","legs":"X"},"bonus":1.3200000000000007},{"rt":1232.3999999761581,"stimulus":"bees-with-color/bee-B1DM.svg","response":0,"trial_type":"image-button-response","trial_index":71,"time_elapsed":460697,"internal_node_id":"0.0-4.0-0.32","subject_id":"60f801efc0846c47e4e755e6","study_id":"6197b3f67c2b5cd3b6d9596a","session_id":"619be52526118331e66a69ed","condition":"contingent","relevant_dimensions":["antennae","wings"],"bee_group":{"antennae":"B","wings":"2","pattern":"X","legs":"X"},"action":"harvest","summary":"good-harvest","bonus":1.3200000000000007},{"rt":1658,"stimulus":"\n                    <p><b>Action: <em>harvest</em></b></p>\n                    <p>This is the bee that you just saw.</p>\n                    <img src=\"bees-with-color/bee-B1DM.svg\" width=\"200\">\n                    <p><span class=\"greenText\"><b>Successful harvest!</b></span><br>Your pay has increased by $0.02. Your bonus pay is now $0.78.</p>\n            ","response":0,"trial_type":"html-button-response","trial_index":72,"time_elapsed":462357,"internal_node_id":"0.0-4.0-1.32","subject_id":"60f801efc0846c47e4e755e6","study_id":"6197b3f67c2b5cd3b6d9596a","session_id":"619be52526118331e66a69ed","condition":"contingent","relevant_dimensions":["antennae","wings"],"bee_group":{"antennae":"B","wings":"2","pattern":"X","legs":"X"},"bonus":1.3200000000000007},{"rt":1240.5,"stimulus":"bees-with-color/bee-A1DF.svg","response":0,"trial_type":"image-button-response","trial_index":73,"time_elapsed":463603,"internal_node_id":"0.0-4.0-0.33","subject_id":"60f801efc0846c47e4e755e6","study_id":"6197b3f67c2b5cd3b6d9596a","session_id":"619be52526118331e66a69ed","condition":"contingent","relevant_dimensions":["antennae","wings"],"bee_group":{"antennae":"B","wings":"2","pattern":"X","legs":"X"},"action":"harvest","summary":"good-harvest","bonus":1.3200000000000007},{"rt":1342.3999999761581,"stimulus":"\n                    <p><b>Action: <em>harvest</em></b></p>\n                    <p>This is the bee that you just saw.</p>\n                    <img src=\"bees-with-color/bee-A1DF.svg\" width=\"200\">\n                    <p><span class=\"greenText\"><b>Successful harvest!</b></span><br>Your pay has increased by $0.02. Your bonus pay is now $0.80.</p>\n            ","response":0,"trial_type":"html-button-response","trial_index":74,"time_elapsed":464947,"internal_node_id":"0.0-4.0-1.33","subject_id":"60f801efc0846c47e4e755e6","study_id":"6197b3f67c2b5cd3b6d9596a","session_id":"619be52526118331e66a69ed","condition":"contingent","relevant_dimensions":["antennae","wings"],"bee_group":{"antennae":"B","wings":"2","pattern":"X","legs":"X"},"bonus":1.3200000000000007},{"rt":1225,"stimulus":"bees-with-color/bee-A2DF.svg","response":1,"trial_type":"image-button-response","trial_index":75,"time_elapsed":466173,"internal_node_id":"0.0-4.0-0.34","subject_id":"60f801efc0846c47e4e755e6","study_id":"6197b3f67c2b5cd3b6d9596a","session_id":"619be52526118331e66a69ed","condition":"contingent","relevant_dimensions":["antennae","wings"],"bee_group":{"antennae":"B","wings":"2","pattern":"X","legs":"X"},"action":"avoid","summary":"bad-avoid","bonus":1.3200000000000007},{"rt":1509.3000000715256,"stimulus":"\n                    <p><b>Action: <em>avoid</em></b></p>\n                    <p>This is the bee that you just saw.</p>\n                    <img src=\"bees-with-color/bee-A2DF.svg\" width=\"200\">\n                    <p><br>Your bonus pay is unchanged, and remains at $0.80.</p>\n            ","response":0,"trial_type":"html-button-response","trial_index":76,"time_elapsed":467684,"internal_node_id":"0.0-4.0-1.34","subject_id":"60f801efc0846c47e4e755e6","study_id":"6197b3f67c2b5cd3b6d9596a","session_id":"619be52526118331e66a69ed","condition":"contingent","relevant_dimensions":["antennae","wings"],"bee_group":{"antennae":"B","wings":"2","pattern":"X","legs":"X"},"bonus":1.3200000000000007},{"rt":1495.5,"stimulus":"bees-with-color/bee-B2SM.svg","response":1,"trial_type":"image-button-response","trial_index":77,"time_elapsed":469184,"internal_node_id":"0.0-4.0-0.35","subject_id":"60f801efc0846c47e4e755e6","study_id":"6197b3f67c2b5cd3b6d9596a","session_id":"619be52526118331e66a69ed","condition":"contingent","relevant_dimensions":["antennae","wings"],"bee_group":{"antennae":"B","wings":"2","pattern":"X","legs":"X"},"action":"avoid","summary":"good-avoid","bonus":1.3200000000000007},{"rt":1252.1000000238419,"stimulus":"\n                    <p><b>Action: <em>avoid</em></b></p>\n                    <p>This is the bee that you just saw.</p>\n                    <img src=\"bees-with-color/bee-B2SM.svg\" width=\"200\">\n                    <p><br>Your bonus pay is unchanged, and remains at $0.80.</p>\n            ","response":0,"trial_type":"html-button-response","trial_index":78,"time_elapsed":470440,"internal_node_id":"0.0-4.0-1.35","subject_id":"60f801efc0846c47e4e755e6","study_id":"6197b3f67c2b5cd3b6d9596a","session_id":"619be52526118331e66a69ed","condition":"contingent","relevant_dimensions":["antennae","wings"],"bee_group":{"antennae":"B","wings":"2","pattern":"X","legs":"X"},"bonus":1.3200000000000007},{"rt":1303.4000000953674,"stimulus":"bees-with-color/bee-B2DM.svg","response":1,"trial_type":"image-button-response","trial_index":79,"time_elapsed":471746,"internal_node_id":"0.0-4.0-0.36","subject_id":"60f801efc0846c47e4e755e6","study_id":"6197b3f67c2b5cd3b6d9596a","session_id":"619be52526118331e66a69ed","condition":"contingent","relevant_dimensions":["antennae","wings"],"bee_group":{"antennae":"B","wings":"2","pattern":"X","legs":"X"},"action":"avoid","summary":"good-avoid","bonus":1.3200000000000007},{"rt":4487.100000023842,"stimulus":"\n                    <p><b>Action: <em>avoid</em></b></p>\n                    <p>This is the bee that you just saw.</p>\n                    <img src=\"bees-with-color/bee-B2DM.svg\" width=\"200\">\n                    <p><br>Your bonus pay is unchanged, and remains at $0.80.</p>\n            ","response":0,"trial_type":"html-button-response","trial_index":80,"time_elapsed":476235,"internal_node_id":"0.0-4.0-1.36","subject_id":"60f801efc0846c47e4e755e6","study_id":"6197b3f67c2b5cd3b6d9596a","session_id":"619be52526118331e66a69ed","condition":"contingent","relevant_dimensions":["antennae","wings"],"bee_group":{"antennae":"B","wings":"2","pattern":"X","legs":"X"},"bonus":1.3200000000000007},{"rt":1292.5999999046326,"stimulus":"bees-with-color/bee-B1SF.svg","response":0,"trial_type":"image-button-response","trial_index":81,"time_elapsed":477530,"internal_node_id":"0.0-4.0-0.37","subject_id":"60f801efc0846c47e4e755e6","study_id":"6197b3f67c2b5cd3b6d9596a","session_id":"619be52526118331e66a69ed","condition":"contingent","relevant_dimensions":["antennae","wings"],"bee_group":{"antennae":"B","wings":"2","pattern":"X","legs":"X"},"action":"harvest","summary":"good-harvest","bonus":1.3200000000000007},{"rt":1568,"stimulus":"\n                    <p><b>Action: <em>harvest</em></b></p>\n                    <p>This is the bee that you just saw.</p>\n                    <img src=\"bees-with-color/bee-B1SF.svg\" width=\"200\">\n                    <p><span class=\"greenText\"><b>Successful harvest!</b></span><br>Your pay has increased by $0.02. Your bonus pay is now $0.82.</p>\n            ","response":0,"trial_type":"html-button-response","trial_index":82,"time_elapsed":479102,"internal_node_id":"0.0-4.0-1.37","subject_id":"60f801efc0846c47e4e755e6","study_id":"6197b3f67c2b5cd3b6d9596a","session_id":"619be52526118331e66a69ed","condition":"contingent","relevant_dimensions":["antennae","wings"],"bee_group":{"antennae":"B","wings":"2","pattern":"X","legs":"X"},"bonus":1.3200000000000007},{"rt":1910.6999999284744,"stimulus":"bees-with-color/bee-A2SF.svg","response":1,"trial_type":"image-button-response","trial_index":83,"time_elapsed":481015,"internal_node_id":"0.0-4.0-0.38","subject_id":"60f801efc0846c47e4e755e6","study_id":"6197b3f67c2b5cd3b6d9596a","session_id":"619be52526118331e66a69ed","condition":"contingent","relevant_dimensions":["antennae","wings"],"bee_group":{"antennae":"B","wings":"2","pattern":"X","legs":"X"},"action":"avoid","summary":"bad-avoid","bonus":1.3200000000000007},{"rt":1980.5,"stimulus":"\n                    <p><b>Action: <em>avoid</em></b></p>\n                    <p>This is the bee that you just saw.</p>\n                    <img src=\"bees-with-color/bee-A2SF.svg\" width=\"200\">\n                    <p><br>Your bonus pay is unchanged, and remains at $0.82.</p>\n            ","response":0,"trial_type":"html-button-response","trial_index":84,"time_elapsed":482997,"internal_node_id":"0.0-4.0-1.38","subject_id":"60f801efc0846c47e4e755e6","study_id":"6197b3f67c2b5cd3b6d9596a","session_id":"619be52526118331e66a69ed","condition":"contingent","relevant_dimensions":["antennae","wings"],"bee_group":{"antennae":"B","wings":"2","pattern":"X","legs":"X"},"bonus":1.3200000000000007},{"rt":1134.2999999523163,"stimulus":"bees-with-color/bee-A1SF.svg","response":0,"trial_type":"image-button-response","trial_index":85,"time_elapsed":484135,"internal_node_id":"0.0-4.0-0.39","subject_id":"60f801efc0846c47e4e755e6","study_id":"6197b3f67c2b5cd3b6d9596a","session_id":"619be52526118331e66a69ed","condition":"contingent","relevant_dimensions":["antennae","wings"],"bee_group":{"antennae":"B","wings":"2","pattern":"X","legs":"X"},"action":"harvest","summary":"good-harvest","bonus":1.3200000000000007},{"rt":2469.5999999046326,"stimulus":"\n                    <p><b>Action: <em>harvest</em></b></p>\n                    <p>This is the bee that you just saw.</p>\n                    <img src=\"bees-with-color/bee-A1SF.svg\" width=\"200\">\n                    <p><span class=\"greenText\"><b>Successful harvest!</b></span><br>Your pay has increased by $0.02. Your bonus pay is now $0.84.</p>\n            ","response":0,"trial_type":"html-button-response","trial_index":86,"time_elapsed":486608,"internal_node_id":"0.0-4.0-1.39","subject_id":"60f801efc0846c47e4e755e6","study_id":"6197b3f67c2b5cd3b6d9596a","session_id":"619be52526118331e66a69ed","condition":"contingent","relevant_dimensions":["antennae","wings"],"bee_group":{"antennae":"B","wings":"2","pattern":"X","legs":"X"},"bonus":1.3200000000000007},{"rt":1513.1000000238419,"stimulus":"bees-with-color/bee-A2DM.svg","response":1,"trial_type":"image-button-response","trial_index":87,"time_elapsed":488129,"internal_node_id":"0.0-4.0-0.40","subject_id":"60f801efc0846c47e4e755e6","study_id":"6197b3f67c2b5cd3b6d9596a","session_id":"619be52526118331e66a69ed","condition":"contingent","relevant_dimensions":["antennae","wings"],"bee_group":{"antennae":"B","wings":"2","pattern":"X","legs":"X"},"action":"avoid","summary":"bad-avoid","bonus":1.3200000000000007},{"rt":1046.6000000238419,"stimulus":"\n                    <p><b>Action: <em>avoid</em></b></p>\n                    <p>This is the bee that you just saw.</p>\n                    <img src=\"bees-with-color/bee-A2DM.svg\" width=\"200\">\n                    <p><br>Your bonus pay is unchanged, and remains at $0.84.</p>\n            ","response":0,"trial_type":"html-button-response","trial_index":88,"time_elapsed":489177,"internal_node_id":"0.0-4.0-1.40","subject_id":"60f801efc0846c47e4e755e6","study_id":"6197b3f67c2b5cd3b6d9596a","session_id":"619be52526118331e66a69ed","condition":"contingent","relevant_dimensions":["antennae","wings"],"bee_group":{"antennae":"B","wings":"2","pattern":"X","legs":"X"},"bonus":1.3200000000000007},{"rt":1839.6000000238419,"stimulus":"bees-with-color/bee-B2SF.svg","response":1,"trial_type":"image-button-response","trial_index":89,"time_elapsed":491019,"internal_node_id":"0.0-4.0-0.41","subject_id":"60f801efc0846c47e4e755e6","study_id":"6197b3f67c2b5cd3b6d9596a","session_id":"619be52526118331e66a69ed","condition":"contingent","relevant_dimensions":["antennae","wings"],"bee_group":{"antennae":"B","wings":"2","pattern":"X","legs":"X"},"action":"avoid","summary":"good-avoid","bonus":1.3200000000000007},{"rt":1122.6000000238419,"stimulus":"\n                    <p><b>Action: <em>avoid</em></b></p>\n                    <p>This is the bee that you just saw.</p>\n                    <img src=\"bees-with-color/bee-B2SF.svg\" width=\"200\">\n                    <p><br>Your bonus pay is unchanged, and remains at $0.84.</p>\n            ","response":0,"trial_type":"html-button-response","trial_index":90,"time_elapsed":492145,"internal_node_id":"0.0-4.0-1.41","subject_id":"60f801efc0846c47e4e755e6","study_id":"6197b3f67c2b5cd3b6d9596a","session_id":"619be52526118331e66a69ed","condition":"contingent","relevant_dimensions":["antennae","wings"],"bee_group":{"antennae":"B","wings":"2","pattern":"X","legs":"X"},"bonus":1.3200000000000007},{"rt":2024.5,"stimulus":"bees-with-color/bee-B1SM.svg","response":0,"trial_type":"image-button-response","trial_index":91,"time_elapsed":494174,"internal_node_id":"0.0-4.0-0.42","subject_id":"60f801efc0846c47e4e755e6","study_id":"6197b3f67c2b5cd3b6d9596a","session_id":"619be52526118331e66a69ed","condition":"contingent","relevant_dimensions":["antennae","wings"],"bee_group":{"antennae":"B","wings":"2","pattern":"X","legs":"X"},"action":"harvest","summary":"good-harvest","bonus":1.3200000000000007},{"rt":1477.8999999761581,"stimulus":"\n                    <p><b>Action: <em>harvest</em></b></p>\n                    <p>This is the bee that you just saw.</p>\n                    <img src=\"bees-with-color/bee-B1SM.svg\" width=\"200\">\n                    <p><span class=\"greenText\"><b>Successful harvest!</b></span><br>Your pay has increased by $0.02. Your bonus pay is now $0.86.</p>\n            ","response":0,"trial_type":"html-button-response","trial_index":92,"time_elapsed":495656,"internal_node_id":"0.0-4.0-1.42","subject_id":"60f801efc0846c47e4e755e6","study_id":"6197b3f67c2b5cd3b6d9596a","session_id":"619be52526118331e66a69ed","condition":"contingent","relevant_dimensions":["antennae","wings"],"bee_group":{"antennae":"B","wings":"2","pattern":"X","legs":"X"},"bonus":1.3200000000000007},{"rt":1263.6999999284744,"stimulus":"bees-with-color/bee-A2SM.svg","response":1,"trial_type":"image-button-response","trial_index":93,"time_elapsed":496925,"internal_node_id":"0.0-4.0-0.43","subject_id":"60f801efc0846c47e4e755e6","study_id":"6197b3f67c2b5cd3b6d9596a","session_id":"619be52526118331e66a69ed","condition":"contingent","relevant_dimensions":["antennae","wings"],"bee_group":{"antennae":"B","wings":"2","pattern":"X","legs":"X"},"action":"avoid","summary":"bad-avoid","bonus":1.3200000000000007},{"rt":1583.5,"stimulus":"\n                    <p><b>Action: <em>avoid</em></b></p>\n                    <p>This is the bee that you just saw.</p>\n                    <img src=\"bees-with-color/bee-A2SM.svg\" width=\"200\">\n                    <p><br>Your bonus pay is unchanged, and remains at $0.86.</p>\n            ","response":0,"trial_type":"html-button-response","trial_index":94,"time_elapsed":498511,"internal_node_id":"0.0-4.0-1.43","subject_id":"60f801efc0846c47e4e755e6","study_id":"6197b3f67c2b5cd3b6d9596a","session_id":"619be52526118331e66a69ed","condition":"contingent","relevant_dimensions":["antennae","wings"],"bee_group":{"antennae":"B","wings":"2","pattern":"X","legs":"X"},"bonus":1.3200000000000007},{"rt":1244.2000000476837,"stimulus":"bees-with-color/bee-B2DF.svg","response":1,"trial_type":"image-button-response","trial_index":95,"time_elapsed":499757,"internal_node_id":"0.0-4.0-0.44","subject_id":"60f801efc0846c47e4e755e6","study_id":"6197b3f67c2b5cd3b6d9596a","session_id":"619be52526118331e66a69ed","condition":"contingent","relevant_dimensions":["antennae","wings"],"bee_group":{"antennae":"B","wings":"2","pattern":"X","legs":"X"},"action":"avoid","summary":"good-avoid","bonus":1.3200000000000007},{"rt":1491.1999999284744,"stimulus":"\n                    <p><b>Action: <em>avoid</em></b></p>\n                    <p>This is the bee that you just saw.</p>\n                    <img src=\"bees-with-color/bee-B2DF.svg\" width=\"200\">\n                    <p><br>Your bonus pay is unchanged, and remains at $0.86.</p>\n            ","response":0,"trial_type":"html-button-response","trial_index":96,"time_elapsed":501251,"internal_node_id":"0.0-4.0-1.44","subject_id":"60f801efc0846c47e4e755e6","study_id":"6197b3f67c2b5cd3b6d9596a","session_id":"619be52526118331e66a69ed","condition":"contingent","relevant_dimensions":["antennae","wings"],"bee_group":{"antennae":"B","wings":"2","pattern":"X","legs":"X"},"bonus":1.3200000000000007},{"rt":1053.7000000476837,"stimulus":"bees-with-color/bee-A1DM.svg","response":0,"trial_type":"image-button-response","trial_index":97,"time_elapsed":502306,"internal_node_id":"0.0-4.0-0.45","subject_id":"60f801efc0846c47e4e755e6","study_id":"6197b3f67c2b5cd3b6d9596a","session_id":"619be52526118331e66a69ed","condition":"contingent","relevant_dimensions":["antennae","wings"],"bee_group":{"antennae":"B","wings":"2","pattern":"X","legs":"X"},"action":"harvest","summary":"good-harvest","bonus":1.3200000000000007},{"rt":1467.3999999761581,"stimulus":"\n                    <p><b>Action: <em>harvest</em></b></p>\n                    <p>This is the bee that you just saw.</p>\n                    <img src=\"bees-with-color/bee-A1DM.svg\" width=\"200\">\n                    <p><span class=\"greenText\"><b>Successful harvest!</b></span><br>Your pay has increased by $0.02. Your bonus pay is now $0.88.</p>\n            ","response":0,"trial_type":"html-button-response","trial_index":98,"time_elapsed":503776,"internal_node_id":"0.0-4.0-1.45","subject_id":"60f801efc0846c47e4e755e6","study_id":"6197b3f67c2b5cd3b6d9596a","session_id":"619be52526118331e66a69ed","condition":"contingent","relevant_dimensions":["antennae","wings"],"bee_group":{"antennae":"B","wings":"2","pattern":"X","legs":"X"},"bonus":1.3200000000000007},{"rt":1284,"stimulus":"bees-with-color/bee-A1SM.svg","response":0,"trial_type":"image-button-response","trial_index":99,"time_elapsed":505062,"internal_node_id":"0.0-4.0-0.46","subject_id":"60f801efc0846c47e4e755e6","study_id":"6197b3f67c2b5cd3b6d9596a","session_id":"619be52526118331e66a69ed","condition":"contingent","relevant_dimensions":["antennae","wings"],"bee_group":{"antennae":"B","wings":"2","pattern":"X","legs":"X"},"action":"harvest","summary":"good-harvest","bonus":1.3200000000000007},{"rt":1052.2000000476837,"stimulus":"\n                    <p><b>Action: <em>harvest</em></b></p>\n                    <p>This is the bee that you just saw.</p>\n                    <img src=\"bees-with-color/bee-A1SM.svg\" width=\"200\">\n                    <p><span class=\"greenText\"><b>Successful harvest!</b></span><br>Your pay has increased by $0.02. Your bonus pay is now $0.90.</p>\n            ","response":0,"trial_type":"html-button-response","trial_index":100,"time_elapsed":506118,"internal_node_id":"0.0-4.0-1.46","subject_id":"60f801efc0846c47e4e755e6","study_id":"6197b3f67c2b5cd3b6d9596a","session_id":"619be52526118331e66a69ed","condition":"contingent","relevant_dimensions":["antennae","wings"],"bee_group":{"antennae":"B","wings":"2","pattern":"X","legs":"X"},"bonus":1.3200000000000007},{"rt":1346.6000000238419,"stimulus":"bees-with-color/bee-B1DF.svg","response":0,"trial_type":"image-button-response","trial_index":101,"time_elapsed":507468,"internal_node_id":"0.0-4.0-0.47","subject_id":"60f801efc0846c47e4e755e6","study_id":"6197b3f67c2b5cd3b6d9596a","session_id":"619be52526118331e66a69ed","condition":"contingent","relevant_dimensions":["antennae","wings"],"bee_group":{"antennae":"B","wings":"2","pattern":"X","legs":"X"},"action":"harvest","summary":"good-harvest","bonus":1.3200000000000007},{"rt":1006.6000000238419,"stimulus":"\n                    <p><b>Action: <em>harvest</em></b></p>\n                    <p>This is the bee that you just saw.</p>\n                    <img src=\"bees-with-color/bee-B1DF.svg\" width=\"200\">\n                    <p><span class=\"greenText\"><b>Successful harvest!</b></span><br>Your pay has increased by $0.02. Your bonus pay is now $0.92.</p>\n            ","response":0,"trial_type":"html-button-response","trial_index":102,"time_elapsed":508476,"internal_node_id":"0.0-4.0-1.47","subject_id":"60f801efc0846c47e4e755e6","study_id":"6197b3f67c2b5cd3b6d9596a","session_id":"619be52526118331e66a69ed","condition":"contingent","relevant_dimensions":["antennae","wings"],"bee_group":{"antennae":"B","wings":"2","pattern":"X","legs":"X"},"bonus":1.3200000000000007},{"rt":1107.5,"stimulus":"bees-with-color/bee-A1DF.svg","response":0,"trial_type":"image-button-response","trial_index":103,"time_elapsed":509586,"internal_node_id":"0.0-4.0-0.48","subject_id":"60f801efc0846c47e4e755e6","study_id":"6197b3f67c2b5cd3b6d9596a","session_id":"619be52526118331e66a69ed","condition":"contingent","relevant_dimensions":["antennae","wings"],"bee_group":{"antennae":"B","wings":"2","pattern":"X","legs":"X"},"action":"harvest","summary":"good-harvest","bonus":1.3200000000000007},{"rt":1385,"stimulus":"\n                    <p><b>Action: <em>harvest</em></b></p>\n                    <p>This is the bee that you just saw.</p>\n                    <img src=\"bees-with-color/bee-A1DF.svg\" width=\"200\">\n                    <p><span class=\"greenText\"><b>Successful harvest!</b></span><br>Your pay has increased by $0.02. Your bonus pay is now $0.94.</p>\n            ","response":0,"trial_type":"html-button-response","trial_index":104,"time_elapsed":510979,"internal_node_id":"0.0-4.0-1.48","subject_id":"60f801efc0846c47e4e755e6","study_id":"6197b3f67c2b5cd3b6d9596a","session_id":"619be52526118331e66a69ed","condition":"contingent","relevant_dimensions":["antennae","wings"],"bee_group":{"antennae":"B","wings":"2","pattern":"X","legs":"X"},"bonus":1.3200000000000007},{"rt":1057.4000000953674,"stimulus":"bees-with-color/bee-B1DM.svg","response":0,"trial_type":"image-button-response","trial_index":105,"time_elapsed":512040,"internal_node_id":"0.0-4.0-0.49","subject_id":"60f801efc0846c47e4e755e6","study_id":"6197b3f67c2b5cd3b6d9596a","session_id":"619be52526118331e66a69ed","condition":"contingent","relevant_dimensions":["antennae","wings"],"bee_group":{"antennae":"B","wings":"2","pattern":"X","legs":"X"},"action":"harvest","summary":"good-harvest","bonus":1.3200000000000007},{"rt":1177,"stimulus":"\n                    <p><b>Action: <em>harvest</em></b></p>\n                    <p>This is the bee that you just saw.</p>\n                    <img src=\"bees-with-color/bee-B1DM.svg\" width=\"200\">\n                    <p><span class=\"greenText\"><b>Successful harvest!</b></span><br>Your pay has increased by $0.02. Your bonus pay is now $0.96.</p>\n            ","response":0,"trial_type":"html-button-response","trial_index":106,"time_elapsed":513219,"internal_node_id":"0.0-4.0-1.49","subject_id":"60f801efc0846c47e4e755e6","study_id":"6197b3f67c2b5cd3b6d9596a","session_id":"619be52526118331e66a69ed","condition":"contingent","relevant_dimensions":["antennae","wings"],"bee_group":{"antennae":"B","wings":"2","pattern":"X","legs":"X"},"bonus":1.3200000000000007},{"rt":1809.8000000715256,"stimulus":"bees-with-color/bee-A1SF.svg","response":0,"trial_type":"image-button-response","trial_index":107,"time_elapsed":515030,"internal_node_id":"0.0-4.0-0.50","subject_id":"60f801efc0846c47e4e755e6","study_id":"6197b3f67c2b5cd3b6d9596a","session_id":"619be52526118331e66a69ed","condition":"contingent","relevant_dimensions":["antennae","wings"],"bee_group":{"antennae":"B","wings":"2","pattern":"X","legs":"X"},"action":"harvest","summary":"good-harvest","bonus":1.3200000000000007},{"rt":935.8999999761581,"stimulus":"\n                    <p><b>Action: <em>harvest</em></b></p>\n                    <p>This is the bee that you just saw.</p>\n                    <img src=\"bees-with-color/bee-A1SF.svg\" width=\"200\">\n                    <p><span class=\"greenText\"><b>Successful harvest!</b></span><br>Your pay has increased by $0.02. Your bonus pay is now $0.98.</p>\n            ","response":0,"trial_type":"html-button-response","trial_index":108,"time_elapsed":515968,"internal_node_id":"0.0-4.0-1.50","subject_id":"60f801efc0846c47e4e755e6","study_id":"6197b3f67c2b5cd3b6d9596a","session_id":"619be52526118331e66a69ed","condition":"contingent","relevant_dimensions":["antennae","wings"],"bee_group":{"antennae":"B","wings":"2","pattern":"X","legs":"X"},"bonus":1.3200000000000007},{"rt":1608.8000000715256,"stimulus":"bees-with-color/bee-B2SF.svg","response":1,"trial_type":"image-button-response","trial_index":109,"time_elapsed":517579,"internal_node_id":"0.0-4.0-0.51","subject_id":"60f801efc0846c47e4e755e6","study_id":"6197b3f67c2b5cd3b6d9596a","session_id":"619be52526118331e66a69ed","condition":"contingent","relevant_dimensions":["antennae","wings"],"bee_group":{"antennae":"B","wings":"2","pattern":"X","legs":"X"},"action":"avoid","summary":"good-avoid","bonus":1.3200000000000007},{"rt":1257.6000000238419,"stimulus":"\n                    <p><b>Action: <em>avoid</em></b></p>\n                    <p>This is the bee that you just saw.</p>\n                    <img src=\"bees-with-color/bee-B2SF.svg\" width=\"200\">\n                    <p><br>Your bonus pay is unchanged, and remains at $0.98.</p>\n            ","response":0,"trial_type":"html-button-response","trial_index":110,"time_elapsed":518840,"internal_node_id":"0.0-4.0-1.51","subject_id":"60f801efc0846c47e4e755e6","study_id":"6197b3f67c2b5cd3b6d9596a","session_id":"619be52526118331e66a69ed","condition":"contingent","relevant_dimensions":["antennae","wings"],"bee_group":{"antennae":"B","wings":"2","pattern":"X","legs":"X"},"bonus":1.3200000000000007},{"rt":1172.3000000715256,"stimulus":"bees-with-color/bee-B1SF.svg","response":0,"trial_type":"image-button-response","trial_index":111,"time_elapsed":520016,"internal_node_id":"0.0-4.0-0.52","subject_id":"60f801efc0846c47e4e755e6","study_id":"6197b3f67c2b5cd3b6d9596a","session_id":"619be52526118331e66a69ed","condition":"contingent","relevant_dimensions":["antennae","wings"],"bee_group":{"antennae":"B","wings":"2","pattern":"X","legs":"X"},"action":"harvest","summary":"good-harvest","bonus":1.3200000000000007},{"rt":1089.6999999284744,"stimulus":"\n                    <p><b>Action: <em>harvest</em></b></p>\n                    <p>This is the bee that you just saw.</p>\n                    <img src=\"bees-with-color/bee-B1SF.svg\" width=\"200\">\n                    <p><span class=\"greenText\"><b>Successful harvest!</b></span><br>Your pay has increased by $0.02. Your bonus pay is now $1.00.</p>\n            ","response":0,"trial_type":"html-button-response","trial_index":112,"time_elapsed":521108,"internal_node_id":"0.0-4.0-1.52","subject_id":"60f801efc0846c47e4e755e6","study_id":"6197b3f67c2b5cd3b6d9596a","session_id":"619be52526118331e66a69ed","condition":"contingent","relevant_dimensions":["antennae","wings"],"bee_group":{"antennae":"B","wings":"2","pattern":"X","legs":"X"},"bonus":1.3200000000000007},{"rt":1790.5,"stimulus":"bees-with-color/bee-A2SF.svg","response":1,"trial_type":"image-button-response","trial_index":113,"time_elapsed":522900,"internal_node_id":"0.0-4.0-0.53","subject_id":"60f801efc0846c47e4e755e6","study_id":"6197b3f67c2b5cd3b6d9596a","session_id":"619be52526118331e66a69ed","condition":"contingent","relevant_dimensions":["antennae","wings"],"bee_group":{"antennae":"B","wings":"2","pattern":"X","legs":"X"},"action":"avoid","summary":"bad-avoid","bonus":1.3200000000000007},{"rt":1060.1999999284744,"stimulus":"\n                    <p><b>Action: <em>avoid</em></b></p>\n                    <p>This is the bee that you just saw.</p>\n                    <img src=\"bees-with-color/bee-A2SF.svg\" width=\"200\">\n                    <p><br>Your bonus pay is unchanged, and remains at $1.00.</p>\n            ","response":0,"trial_type":"html-button-response","trial_index":114,"time_elapsed":523962,"internal_node_id":"0.0-4.0-1.53","subject_id":"60f801efc0846c47e4e755e6","study_id":"6197b3f67c2b5cd3b6d9596a","session_id":"619be52526118331e66a69ed","condition":"contingent","relevant_dimensions":["antennae","wings"],"bee_group":{"antennae":"B","wings":"2","pattern":"X","legs":"X"},"bonus":1.3200000000000007},{"rt":1583.3999999761581,"stimulus":"bees-with-color/bee-B2DM.svg","response":1,"trial_type":"image-button-response","trial_index":115,"time_elapsed":525546,"internal_node_id":"0.0-4.0-0.54","subject_id":"60f801efc0846c47e4e755e6","study_id":"6197b3f67c2b5cd3b6d9596a","session_id":"619be52526118331e66a69ed","condition":"contingent","relevant_dimensions":["antennae","wings"],"bee_group":{"antennae":"B","wings":"2","pattern":"X","legs":"X"},"action":"avoid","summary":"good-avoid","bonus":1.3200000000000007},{"rt":1295.9000000953674,"stimulus":"\n                    <p><b>Action: <em>avoid</em></b></p>\n                    <p>This is the bee that you just saw.</p>\n                    <img src=\"bees-with-color/bee-B2DM.svg\" width=\"200\">\n                    <p><br>Your bonus pay is unchanged, and remains at $1.00.</p>\n            ","response":0,"trial_type":"html-button-response","trial_index":116,"time_elapsed":526844,"internal_node_id":"0.0-4.0-1.54","subject_id":"60f801efc0846c47e4e755e6","study_id":"6197b3f67c2b5cd3b6d9596a","session_id":"619be52526118331e66a69ed","condition":"contingent","relevant_dimensions":["antennae","wings"],"bee_group":{"antennae":"B","wings":"2","pattern":"X","legs":"X"},"bonus":1.3200000000000007},{"rt":1312.3999999761581,"stimulus":"bees-with-color/bee-A2DF.svg","response":1,"trial_type":"image-button-response","trial_index":117,"time_elapsed":528158,"internal_node_id":"0.0-4.0-0.55","subject_id":"60f801efc0846c47e4e755e6","study_id":"6197b3f67c2b5cd3b6d9596a","session_id":"619be52526118331e66a69ed","condition":"contingent","relevant_dimensions":["antennae","wings"],"bee_group":{"antennae":"B","wings":"2","pattern":"X","legs":"X"},"action":"avoid","summary":"bad-avoid","bonus":1.3200000000000007},{"rt":1302.8999999761581,"stimulus":"\n                    <p><b>Action: <em>avoid</em></b></p>\n                    <p>This is the bee that you just saw.</p>\n                    <img src=\"bees-with-color/bee-A2DF.svg\" width=\"200\">\n                    <p><br>Your bonus pay is unchanged, and remains at $1.00.</p>\n            ","response":0,"trial_type":"html-button-response","trial_index":118,"time_elapsed":529463,"internal_node_id":"0.0-4.0-1.55","subject_id":"60f801efc0846c47e4e755e6","study_id":"6197b3f67c2b5cd3b6d9596a","session_id":"619be52526118331e66a69ed","condition":"contingent","relevant_dimensions":["antennae","wings"],"bee_group":{"antennae":"B","wings":"2","pattern":"X","legs":"X"},"bonus":1.3200000000000007},{"rt":1351.6999999284744,"stimulus":"bees-with-color/bee-A2SM.svg","response":1,"trial_type":"image-button-response","trial_index":119,"time_elapsed":530817,"internal_node_id":"0.0-4.0-0.56","subject_id":"60f801efc0846c47e4e755e6","study_id":"6197b3f67c2b5cd3b6d9596a","session_id":"619be52526118331e66a69ed","condition":"contingent","relevant_dimensions":["antennae","wings"],"bee_group":{"antennae":"B","wings":"2","pattern":"X","legs":"X"},"action":"avoid","summary":"bad-avoid","bonus":1.3200000000000007},{"rt":1096.2999999523163,"stimulus":"\n                    <p><b>Action: <em>avoid</em></b></p>\n                    <p>This is the bee that you just saw.</p>\n                    <img src=\"bees-with-color/bee-A2SM.svg\" width=\"200\">\n                    <p><br>Your bonus pay is unchanged, and remains at $1.00.</p>\n            ","response":0,"trial_type":"html-button-response","trial_index":120,"time_elapsed":531917,"internal_node_id":"0.0-4.0-1.56","subject_id":"60f801efc0846c47e4e755e6","study_id":"6197b3f67c2b5cd3b6d9596a","session_id":"619be52526118331e66a69ed","condition":"contingent","relevant_dimensions":["antennae","wings"],"bee_group":{"antennae":"B","wings":"2","pattern":"X","legs":"X"},"bonus":1.3200000000000007},{"rt":1276.9000000953674,"stimulus":"bees-with-color/bee-B2DF.svg","response":1,"trial_type":"image-button-response","trial_index":121,"time_elapsed":533198,"internal_node_id":"0.0-4.0-0.57","subject_id":"60f801efc0846c47e4e755e6","study_id":"6197b3f67c2b5cd3b6d9596a","session_id":"619be52526118331e66a69ed","condition":"contingent","relevant_dimensions":["antennae","wings"],"bee_group":{"antennae":"B","wings":"2","pattern":"X","legs":"X"},"action":"avoid","summary":"good-avoid","bonus":1.3200000000000007},{"rt":1024.7999999523163,"stimulus":"\n                    <p><b>Action: <em>avoid</em></b></p>\n                    <p>This is the bee that you just saw.</p>\n                    <img src=\"bees-with-color/bee-B2DF.svg\" width=\"200\">\n                    <p><br>Your bonus pay is unchanged, and remains at $1.00.</p>\n            ","response":0,"trial_type":"html-button-response","trial_index":122,"time_elapsed":534227,"internal_node_id":"0.0-4.0-1.57","subject_id":"60f801efc0846c47e4e755e6","study_id":"6197b3f67c2b5cd3b6d9596a","session_id":"619be52526118331e66a69ed","condition":"contingent","relevant_dimensions":["antennae","wings"],"bee_group":{"antennae":"B","wings":"2","pattern":"X","legs":"X"},"bonus":1.3200000000000007},{"rt":2125.3000000715256,"stimulus":"bees-with-color/bee-B1SM.svg","response":0,"trial_type":"image-button-response","trial_index":123,"time_elapsed":536355,"internal_node_id":"0.0-4.0-0.58","subject_id":"60f801efc0846c47e4e755e6","study_id":"6197b3f67c2b5cd3b6d9596a","session_id":"619be52526118331e66a69ed","condition":"contingent","relevant_dimensions":["antennae","wings"],"bee_group":{"antennae":"B","wings":"2","pattern":"X","legs":"X"},"action":"harvest","summary":"good-harvest","bonus":1.3200000000000007},{"rt":1400.2999999523163,"stimulus":"\n                    <p><b>Action: <em>harvest</em></b></p>\n                    <p>This is the bee that you just saw.</p>\n                    <img src=\"bees-with-color/bee-B1SM.svg\" width=\"200\">\n                    <p><span class=\"greenText\"><b>Successful harvest!</b></span><br>Your pay has increased by $0.02. Your bonus pay is now $1.02.</p>\n            ","response":0,"trial_type":"html-button-response","trial_index":124,"time_elapsed":537758,"internal_node_id":"0.0-4.0-1.58","subject_id":"60f801efc0846c47e4e755e6","study_id":"6197b3f67c2b5cd3b6d9596a","session_id":"619be52526118331e66a69ed","condition":"contingent","relevant_dimensions":["antennae","wings"],"bee_group":{"antennae":"B","wings":"2","pattern":"X","legs":"X"},"bonus":1.3200000000000007},{"rt":1246,"stimulus":"bees-with-color/bee-A2DM.svg","response":1,"trial_type":"image-button-response","trial_index":125,"time_elapsed":539007,"internal_node_id":"0.0-4.0-0.59","subject_id":"60f801efc0846c47e4e755e6","study_id":"6197b3f67c2b5cd3b6d9596a","session_id":"619be52526118331e66a69ed","condition":"contingent","relevant_dimensions":["antennae","wings"],"bee_group":{"antennae":"B","wings":"2","pattern":"X","legs":"X"},"action":"avoid","summary":"bad-avoid","bonus":1.3200000000000007},{"rt":1198.3999999761581,"stimulus":"\n                    <p><b>Action: <em>avoid</em></b></p>\n                    <p>This is the bee that you just saw.</p>\n                    <img src=\"bees-with-color/bee-A2DM.svg\" width=\"200\">\n                    <p><br>Your bonus pay is unchanged, and remains at $1.02.</p>\n            ","response":0,"trial_type":"html-button-response","trial_index":126,"time_elapsed":540208,"internal_node_id":"0.0-4.0-1.59","subject_id":"60f801efc0846c47e4e755e6","study_id":"6197b3f67c2b5cd3b6d9596a","session_id":"619be52526118331e66a69ed","condition":"contingent","relevant_dimensions":["antennae","wings"],"bee_group":{"antennae":"B","wings":"2","pattern":"X","legs":"X"},"bonus":1.3200000000000007},{"rt":1136.8999999761581,"stimulus":"bees-with-color/bee-B1DF.svg","response":0,"trial_type":"image-button-response","trial_index":127,"time_elapsed":541350,"internal_node_id":"0.0-4.0-0.60","subject_id":"60f801efc0846c47e4e755e6","study_id":"6197b3f67c2b5cd3b6d9596a","session_id":"619be52526118331e66a69ed","condition":"contingent","relevant_dimensions":["antennae","wings"],"bee_group":{"antennae":"B","wings":"2","pattern":"X","legs":"X"},"action":"harvest","summary":"good-harvest","bonus":1.3200000000000007},{"rt":1013.6000000238419,"stimulus":"\n                    <p><b>Action: <em>harvest</em></b></p>\n                    <p>This is the bee that you just saw.</p>\n                    <img src=\"bees-with-color/bee-B1DF.svg\" width=\"200\">\n                    <p><span class=\"greenText\"><b>Successful harvest!</b></span><br>Your pay has increased by $0.02. Your bonus pay is now $1.04.</p>\n            ","response":0,"trial_type":"html-button-response","trial_index":128,"time_elapsed":542370,"internal_node_id":"0.0-4.0-1.60","subject_id":"60f801efc0846c47e4e755e6","study_id":"6197b3f67c2b5cd3b6d9596a","session_id":"619be52526118331e66a69ed","condition":"contingent","relevant_dimensions":["antennae","wings"],"bee_group":{"antennae":"B","wings":"2","pattern":"X","legs":"X"},"bonus":1.3200000000000007},{"rt":1138.8000000715256,"stimulus":"bees-with-color/bee-A1DM.svg","response":0,"trial_type":"image-button-response","trial_index":129,"time_elapsed":543513,"internal_node_id":"0.0-4.0-0.61","subject_id":"60f801efc0846c47e4e755e6","study_id":"6197b3f67c2b5cd3b6d9596a","session_id":"619be52526118331e66a69ed","condition":"contingent","relevant_dimensions":["antennae","wings"],"bee_group":{"antennae":"B","wings":"2","pattern":"X","legs":"X"},"action":"harvest","summary":"good-harvest","bonus":1.3200000000000007},{"rt":1079,"stimulus":"\n                    <p><b>Action: <em>harvest</em></b></p>\n                    <p>This is the bee that you just saw.</p>\n                    <img src=\"bees-with-color/bee-A1DM.svg\" width=\"200\">\n                    <p><span class=\"greenText\"><b>Successful harvest!</b></span><br>Your pay has increased by $0.02. Your bonus pay is now $1.06.</p>\n            ","response":0,"trial_type":"html-button-response","trial_index":130,"time_elapsed":544593,"internal_node_id":"0.0-4.0-1.61","subject_id":"60f801efc0846c47e4e755e6","study_id":"6197b3f67c2b5cd3b6d9596a","session_id":"619be52526118331e66a69ed","condition":"contingent","relevant_dimensions":["antennae","wings"],"bee_group":{"antennae":"B","wings":"2","pattern":"X","legs":"X"},"bonus":1.3200000000000007},{"rt":1484.7999999523163,"stimulus":"bees-with-color/bee-B2SM.svg","response":1,"trial_type":"image-button-response","trial_index":131,"time_elapsed":546080,"internal_node_id":"0.0-4.0-0.62","subject_id":"60f801efc0846c47e4e755e6","study_id":"6197b3f67c2b5cd3b6d9596a","session_id":"619be52526118331e66a69ed","condition":"contingent","relevant_dimensions":["antennae","wings"],"bee_group":{"antennae":"B","wings":"2","pattern":"X","legs":"X"},"action":"avoid","summary":"good-avoid","bonus":1.3200000000000007},{"rt":1857.2999999523163,"stimulus":"\n                    <p><b>Action: <em>avoid</em></b></p>\n                    <p>This is the bee that you just saw.</p>\n                    <img src=\"bees-with-color/bee-B2SM.svg\" width=\"200\">\n                    <p><br>Your bonus pay is unchanged, and remains at $1.06.</p>\n            ","response":0,"trial_type":"html-button-response","trial_index":132,"time_elapsed":547940,"internal_node_id":"0.0-4.0-1.62","subject_id":"60f801efc0846c47e4e755e6","study_id":"6197b3f67c2b5cd3b6d9596a","session_id":"619be52526118331e66a69ed","condition":"contingent","relevant_dimensions":["antennae","wings"],"bee_group":{"antennae":"B","wings":"2","pattern":"X","legs":"X"},"bonus":1.3200000000000007},{"rt":1199.5,"stimulus":"bees-with-color/bee-A1SM.svg","response":0,"trial_type":"image-button-response","trial_index":133,"time_elapsed":549142,"internal_node_id":"0.0-4.0-0.63","subject_id":"60f801efc0846c47e4e755e6","study_id":"6197b3f67c2b5cd3b6d9596a","session_id":"619be52526118331e66a69ed","condition":"contingent","relevant_dimensions":["antennae","wings"],"bee_group":{"antennae":"B","wings":"2","pattern":"X","legs":"X"},"action":"harvest","summary":"good-harvest","bonus":1.3200000000000007},{"rt":1519.8000000715256,"stimulus":"\n                    <p><b>Action: <em>harvest</em></b></p>\n                    <p>This is the bee that you just saw.</p>\n                    <img src=\"bees-with-color/bee-A1SM.svg\" width=\"200\">\n                    <p><span class=\"greenText\"><b>Successful harvest!</b></span><br>Your pay has increased by $0.02. Your bonus pay is now $1.08.</p>\n            ","response":0,"trial_type":"html-button-response","trial_index":134,"time_elapsed":550663,"internal_node_id":"0.0-4.0-1.63","subject_id":"60f801efc0846c47e4e755e6","study_id":"6197b3f67c2b5cd3b6d9596a","session_id":"619be52526118331e66a69ed","condition":"contingent","relevant_dimensions":["antennae","wings"],"bee_group":{"antennae":"B","wings":"2","pattern":"X","legs":"X"},"bonus":1.3200000000000007},{"rt":4969.399999976158,"stimulus":"You have completed the first part of this experiment.<br><br>You will now begin a shorter second part, in which you will receive no feedback.<br>The same rules regarding bonus pay apply.<br><br>Press any key to begin.","response":"alt","trial_type":"html-keyboard-response","trial_index":135,"time_elapsed":555635,"internal_node_id":"0.0-5.0","subject_id":"60f801efc0846c47e4e755e6","study_id":"6197b3f67c2b5cd3b6d9596a","session_id":"619be52526118331e66a69ed","condition":"contingent","relevant_dimensions":["antennae","wings"],"bee_group":{"antennae":"B","wings":"2","pattern":"X","legs":"X"},"bonus":1.3200000000000007},{"rt":2951.5,"stimulus":"bees-with-color/bee-B2SF.svg","response":0,"trial_type":"image-button-response","trial_index":136,"time_elapsed":558614,"internal_node_id":"0.0-6.0-0.0","subject_id":"60f801efc0846c47e4e755e6","study_id":"6197b3f67c2b5cd3b6d9596a","session_id":"619be52526118331e66a69ed","condition":"contingent","relevant_dimensions":["antennae","wings"],"bee_group":{"antennae":"B","wings":"2","pattern":"X","legs":"X"},"bonus":1.3200000000000007},{"rt":4590.700000047684,"stimulus":"bees-with-color/bee-B1SF.svg","response":0,"trial_type":"image-button-response","trial_index":137,"time_elapsed":563210,"internal_node_id":"0.0-6.0-0.1","subject_id":"60f801efc0846c47e4e755e6","study_id":"6197b3f67c2b5cd3b6d9596a","session_id":"619be52526118331e66a69ed","condition":"contingent","relevant_dimensions":["antennae","wings"],"bee_group":{"antennae":"B","wings":"2","pattern":"X","legs":"X"},"bonus":1.3200000000000007},{"rt":2058.5,"stimulus":"bees-with-color/bee-A2SM.svg","response":1,"trial_type":"image-button-response","trial_index":138,"time_elapsed":565281,"internal_node_id":"0.0-6.0-0.2","subject_id":"60f801efc0846c47e4e755e6","study_id":"6197b3f67c2b5cd3b6d9596a","session_id":"619be52526118331e66a69ed","condition":"contingent","relevant_dimensions":["antennae","wings"],"bee_group":{"antennae":"B","wings":"2","pattern":"X","legs":"X"},"bonus":1.3200000000000007},{"rt":1194.7000000476837,"stimulus":"bees-with-color/bee-A2DF.svg","response":1,"trial_type":"image-button-response","trial_index":139,"time_elapsed":566481,"internal_node_id":"0.0-6.0-0.3","subject_id":"60f801efc0846c47e4e755e6","study_id":"6197b3f67c2b5cd3b6d9596a","session_id":"619be52526118331e66a69ed","condition":"contingent","relevant_dimensions":["antennae","wings"],"bee_group":{"antennae":"B","wings":"2","pattern":"X","legs":"X"},"bonus":1.3200000000000007},{"rt":664.6000000238419,"stimulus":"bees-with-color/bee-A2DM.svg","response":1,"trial_type":"image-button-response","trial_index":140,"time_elapsed":567148,"internal_node_id":"0.0-6.0-0.4","subject_id":"60f801efc0846c47e4e755e6","study_id":"6197b3f67c2b5cd3b6d9596a","session_id":"619be52526118331e66a69ed","condition":"contingent","relevant_dimensions":["antennae","wings"],"bee_group":{"antennae":"B","wings":"2","pattern":"X","legs":"X"},"bonus":1.3200000000000007},{"rt":723.5,"stimulus":"bees-with-color/bee-A2SF.svg","response":1,"trial_type":"image-button-response","trial_index":141,"time_elapsed":567874,"internal_node_id":"0.0-6.0-0.5","subject_id":"60f801efc0846c47e4e755e6","study_id":"6197b3f67c2b5cd3b6d9596a","session_id":"619be52526118331e66a69ed","condition":"contingent","relevant_dimensions":["antennae","wings"],"bee_group":{"antennae":"B","wings":"2","pattern":"X","legs":"X"},"bonus":1.3200000000000007},{"rt":1081.7000000476837,"stimulus":"bees-with-color/bee-A1SF.svg","response":0,"trial_type":"image-button-response","trial_index":142,"time_elapsed":568959,"internal_node_id":"0.0-6.0-0.6","subject_id":"60f801efc0846c47e4e755e6","study_id":"6197b3f67c2b5cd3b6d9596a","session_id":"619be52526118331e66a69ed","condition":"contingent","relevant_dimensions":["antennae","wings"],"bee_group":{"antennae":"B","wings":"2","pattern":"X","legs":"X"},"bonus":1.3200000000000007},{"rt":1363.7999999523163,"stimulus":"bees-with-color/bee-B2SM.svg","response":1,"trial_type":"image-button-response","trial_index":143,"time_elapsed":570327,"internal_node_id":"0.0-6.0-0.7","subject_id":"60f801efc0846c47e4e755e6","study_id":"6197b3f67c2b5cd3b6d9596a","session_id":"619be52526118331e66a69ed","condition":"contingent","relevant_dimensions":["antennae","wings"],"bee_group":{"antennae":"B","wings":"2","pattern":"X","legs":"X"},"bonus":1.3200000000000007},{"rt":1127.7999999523163,"stimulus":"bees-with-color/bee-B1DM.svg","response":0,"trial_type":"image-button-response","trial_index":144,"time_elapsed":571457,"internal_node_id":"0.0-6.0-0.8","subject_id":"60f801efc0846c47e4e755e6","study_id":"6197b3f67c2b5cd3b6d9596a","session_id":"619be52526118331e66a69ed","condition":"contingent","relevant_dimensions":["antennae","wings"],"bee_group":{"antennae":"B","wings":"2","pattern":"X","legs":"X"},"bonus":1.3200000000000007},{"rt":1522.6000000238419,"stimulus":"bees-with-color/bee-B1DF.svg","response":0,"trial_type":"image-button-response","trial_index":145,"time_elapsed":572983,"internal_node_id":"0.0-6.0-0.9","subject_id":"60f801efc0846c47e4e755e6","study_id":"6197b3f67c2b5cd3b6d9596a","session_id":"619be52526118331e66a69ed","condition":"contingent","relevant_dimensions":["antennae","wings"],"bee_group":{"antennae":"B","wings":"2","pattern":"X","legs":"X"},"bonus":1.3200000000000007},{"rt":719.3000000715256,"stimulus":"bees-with-color/bee-B1SM.svg","response":0,"trial_type":"image-button-response","trial_index":146,"time_elapsed":573706,"internal_node_id":"0.0-6.0-0.10","subject_id":"60f801efc0846c47e4e755e6","study_id":"6197b3f67c2b5cd3b6d9596a","session_id":"619be52526118331e66a69ed","condition":"contingent","relevant_dimensions":["antennae","wings"],"bee_group":{"antennae":"B","wings":"2","pattern":"X","legs":"X"},"bonus":1.3200000000000007},{"rt":1775.2999999523163,"stimulus":"bees-with-color/bee-B2DM.svg","response":1,"trial_type":"image-button-response","trial_index":147,"time_elapsed":575485,"internal_node_id":"0.0-6.0-0.11","subject_id":"60f801efc0846c47e4e755e6","study_id":"6197b3f67c2b5cd3b6d9596a","session_id":"619be52526118331e66a69ed","condition":"contingent","relevant_dimensions":["antennae","wings"],"bee_group":{"antennae":"B","wings":"2","pattern":"X","legs":"X"},"bonus":1.3200000000000007},{"rt":662.7999999523163,"stimulus":"bees-with-color/bee-B2DF.svg","response":1,"trial_type":"image-button-response","trial_index":148,"time_elapsed":576152,"internal_node_id":"0.0-6.0-0.12","subject_id":"60f801efc0846c47e4e755e6","study_id":"6197b3f67c2b5cd3b6d9596a","session_id":"619be52526118331e66a69ed","condition":"contingent","relevant_dimensions":["antennae","wings"],"bee_group":{"antennae":"B","wings":"2","pattern":"X","legs":"X"},"bonus":1.3200000000000007},{"rt":1144.5,"stimulus":"bees-with-color/bee-A1DF.svg","response":0,"trial_type":"image-button-response","trial_index":149,"time_elapsed":577300,"internal_node_id":"0.0-6.0-0.13","subject_id":"60f801efc0846c47e4e755e6","study_id":"6197b3f67c2b5cd3b6d9596a","session_id":"619be52526118331e66a69ed","condition":"contingent","relevant_dimensions":["antennae","wings"],"bee_group":{"antennae":"B","wings":"2","pattern":"X","legs":"X"},"bonus":1.3200000000000007},{"rt":643.8999999761581,"stimulus":"bees-with-color/bee-A1DM.svg","response":0,"trial_type":"image-button-response","trial_index":150,"time_elapsed":577947,"internal_node_id":"0.0-6.0-0.14","subject_id":"60f801efc0846c47e4e755e6","study_id":"6197b3f67c2b5cd3b6d9596a","session_id":"619be52526118331e66a69ed","condition":"contingent","relevant_dimensions":["antennae","wings"],"bee_group":{"antennae":"B","wings":"2","pattern":"X","legs":"X"},"bonus":1.3200000000000007},{"rt":629,"stimulus":"bees-with-color/bee-A1SM.svg","response":0,"trial_type":"image-button-response","trial_index":151,"time_elapsed":578580,"internal_node_id":"0.0-6.0-0.15","subject_id":"60f801efc0846c47e4e755e6","study_id":"6197b3f67c2b5cd3b6d9596a","session_id":"619be52526118331e66a69ed","condition":"contingent","relevant_dimensions":["antennae","wings"],"bee_group":{"antennae":"B","wings":"2","pattern":"X","legs":"X"},"bonus":1.3200000000000007},{"rt":601.8999999761581,"stimulus":"bees-with-color/bee-A1SF.svg","response":0,"trial_type":"image-button-response","trial_index":152,"time_elapsed":579185,"internal_node_id":"0.0-6.0-0.16","subject_id":"60f801efc0846c47e4e755e6","study_id":"6197b3f67c2b5cd3b6d9596a","session_id":"619be52526118331e66a69ed","condition":"contingent","relevant_dimensions":["antennae","wings"],"bee_group":{"antennae":"B","wings":"2","pattern":"X","legs":"X"},"bonus":1.3200000000000007},{"rt":563.3999999761581,"stimulus":"bees-with-color/bee-B1DF.svg","response":0,"trial_type":"image-button-response","trial_index":153,"time_elapsed":579753,"internal_node_id":"0.0-6.0-0.17","subject_id":"60f801efc0846c47e4e755e6","study_id":"6197b3f67c2b5cd3b6d9596a","session_id":"619be52526118331e66a69ed","condition":"contingent","relevant_dimensions":["antennae","wings"],"bee_group":{"antennae":"B","wings":"2","pattern":"X","legs":"X"},"bonus":1.3200000000000007},{"rt":565.8000000715256,"stimulus":"bees-with-color/bee-A2DF.svg","response":0,"trial_type":"image-button-response","trial_index":154,"time_elapsed":580323,"internal_node_id":"0.0-6.0-0.18","subject_id":"60f801efc0846c47e4e755e6","study_id":"6197b3f67c2b5cd3b6d9596a","session_id":"619be52526118331e66a69ed","condition":"contingent","relevant_dimensions":["antennae","wings"],"bee_group":{"antennae":"B","wings":"2","pattern":"X","legs":"X"},"bonus":1.3200000000000007},{"rt":1417.2999999523163,"stimulus":"bees-with-color/bee-B2DM.svg","response":1,"trial_type":"image-button-response","trial_index":155,"time_elapsed":581743,"internal_node_id":"0.0-6.0-0.19","subject_id":"60f801efc0846c47e4e755e6","study_id":"6197b3f67c2b5cd3b6d9596a","session_id":"619be52526118331e66a69ed","condition":"contingent","relevant_dimensions":["antennae","wings"],"bee_group":{"antennae":"B","wings":"2","pattern":"X","legs":"X"},"bonus":1.3200000000000007},{"rt":776.1000000238419,"stimulus":"bees-with-color/bee-B2SF.svg","response":1,"trial_type":"image-button-response","trial_index":156,"time_elapsed":582522,"internal_node_id":"0.0-6.0-0.20","subject_id":"60f801efc0846c47e4e755e6","study_id":"6197b3f67c2b5cd3b6d9596a","session_id":"619be52526118331e66a69ed","condition":"contingent","relevant_dimensions":["antennae","wings"],"bee_group":{"antennae":"B","wings":"2","pattern":"X","legs":"X"},"bonus":1.3200000000000007},{"rt":1456.2000000476837,"stimulus":"bees-with-color/bee-A1DM.svg","response":0,"trial_type":"image-button-response","trial_index":157,"time_elapsed":583980,"internal_node_id":"0.0-6.0-0.21","subject_id":"60f801efc0846c47e4e755e6","study_id":"6197b3f67c2b5cd3b6d9596a","session_id":"619be52526118331e66a69ed","condition":"contingent","relevant_dimensions":["antennae","wings"],"bee_group":{"antennae":"B","wings":"2","pattern":"X","legs":"X"},"bonus":1.3200000000000007},{"rt":643.1000000238419,"stimulus":"bees-with-color/bee-A1DF.svg","response":0,"trial_type":"image-button-response","trial_index":158,"time_elapsed":584625,"internal_node_id":"0.0-6.0-0.22","subject_id":"60f801efc0846c47e4e755e6","study_id":"6197b3f67c2b5cd3b6d9596a","session_id":"619be52526118331e66a69ed","condition":"contingent","relevant_dimensions":["antennae","wings"],"bee_group":{"antennae":"B","wings":"2","pattern":"X","legs":"X"},"bonus":1.3200000000000007},{"rt":699.8999999761581,"stimulus":"bees-with-color/bee-B1SF.svg","response":0,"trial_type":"image-button-response","trial_index":159,"time_elapsed":585327,"internal_node_id":"0.0-6.0-0.23","subject_id":"60f801efc0846c47e4e755e6","study_id":"6197b3f67c2b5cd3b6d9596a","session_id":"619be52526118331e66a69ed","condition":"contingent","relevant_dimensions":["antennae","wings"],"bee_group":{"antennae":"B","wings":"2","pattern":"X","legs":"X"},"bonus":1.3200000000000007},{"rt":1404.2999999523163,"stimulus":"bees-with-color/bee-A2SM.svg","response":1,"trial_type":"image-button-response","trial_index":160,"time_elapsed":586735,"internal_node_id":"0.0-6.0-0.24","subject_id":"60f801efc0846c47e4e755e6","study_id":"6197b3f67c2b5cd3b6d9596a","session_id":"619be52526118331e66a69ed","condition":"contingent","relevant_dimensions":["antennae","wings"],"bee_group":{"antennae":"B","wings":"2","pattern":"X","legs":"X"},"bonus":1.3200000000000007},{"rt":663.6000000238419,"stimulus":"bees-with-color/bee-A2DM.svg","response":1,"trial_type":"image-button-response","trial_index":161,"time_elapsed":587404,"internal_node_id":"0.0-6.0-0.25","subject_id":"60f801efc0846c47e4e755e6","study_id":"6197b3f67c2b5cd3b6d9596a","session_id":"619be52526118331e66a69ed","condition":"contingent","relevant_dimensions":["antennae","wings"],"bee_group":{"antennae":"B","wings":"2","pattern":"X","legs":"X"},"bonus":1.3200000000000007},{"rt":649.7999999523163,"stimulus":"bees-with-color/bee-B2SM.svg","response":1,"trial_type":"image-button-response","trial_index":162,"time_elapsed":588061,"internal_node_id":"0.0-6.0-0.26","subject_id":"60f801efc0846c47e4e755e6","study_id":"6197b3f67c2b5cd3b6d9596a","session_id":"619be52526118331e66a69ed","condition":"contingent","relevant_dimensions":["antennae","wings"],"bee_group":{"antennae":"B","wings":"2","pattern":"X","legs":"X"},"bonus":1.3200000000000007},{"rt":860.8000000715256,"stimulus":"bees-with-color/bee-B2DF.svg","response":1,"trial_type":"image-button-response","trial_index":163,"time_elapsed":588924,"internal_node_id":"0.0-6.0-0.27","subject_id":"60f801efc0846c47e4e755e6","study_id":"6197b3f67c2b5cd3b6d9596a","session_id":"619be52526118331e66a69ed","condition":"contingent","relevant_dimensions":["antennae","wings"],"bee_group":{"antennae":"B","wings":"2","pattern":"X","legs":"X"},"bonus":1.3200000000000007},{"rt":1387.6999999284744,"stimulus":"bees-with-color/bee-B1DM.