[{"success":true,"trial_type":"fullscreen","trial_index":0,"time_elapsed":4181,"internal_node_id":"0.0-0.0","subject_id":"611231e33c2e4198943389a9","study_id":"6197b3f67c2b5cd3b6d9596a","session_id":"6197b88b2ca0f0d44bdf3e6c","condition":"full-information","relevant_dimensions":["pattern","legs"],"bee_group":{"antennae":"X","wings":"X","pattern":"S","legs":"F"},"bonus":1.1400000000000006},{"success":true,"timeout":false,"failed_images":[],"failed_audio":[],"failed_video":[],"trial_type":"preload","trial_index":1,"time_elapsed":6643,"internal_node_id":"0.0-1.0","subject_id":"611231e33c2e4198943389a9","study_id":"6197b3f67c2b5cd3b6d9596a","session_id":"6197b88b2ca0f0d44bdf3e6c","condition":"full-information","relevant_dimensions":["pattern","legs"],"bee_group":{"antennae":"X","wings":"X","pattern":"S","legs":"F"},"bonus":1.1400000000000006},{"rt":3190.399999976158,"stimulus":"Welcome! Press any key to begin.","response":" ","trial_type":"html-keyboard-response","trial_index":2,"time_elapsed":9836,"internal_node_id":"0.0-2.0","subject_id":"611231e33c2e4198943389a9","study_id":"6197b3f67c2b5cd3b6d9596a","session_id":"6197b88b2ca0f0d44bdf3e6c","condition":"full-information","relevant_dimensions":["pattern","legs"],"bee_group":{"antennae":"X","wings":"X","pattern":"S","legs":"F"},"bonus":1.1400000000000006},{"view_history":[{"page_index":0,"viewing_time":4981.300000071526},{"page_index":1,"viewing_time":16695.699999928474},{"page_index":2,"viewing_time":14535.899999976158},{"page_index":3,"viewing_time":21952.900000095367},{"page_index":4,"viewing_time":9358.899999976158},{"page_index":5,"viewing_time":7976},{"page_index":6,"viewing_time":10191.899999976158},{"page_index":7,"viewing_time":6344},{"page_index":8,"viewing_time":3104},{"page_index":9,"viewing_time":2920},{"page_index":10,"viewing_time":1944},{"page_index":11,"viewing_time":8511.799999952316},{"page_index":12,"viewing_time":17687.900000095367},{"page_index":13,"viewing_time":1208},{"page_index":14,"viewing_time":2056}],"rt":129469.10000002384,"trial_type":"instructions","trial_index":3,"time_elapsed":139305,"internal_node_id":"0.0-3.0-0.0","subject_id":"611231e33c2e4198943389a9","study_id":"6197b3f67c2b5cd3b6d9596a","session_id":"6197b88b2ca0f0d44bdf3e6c","condition":"full-information","relevant_dimensions":["pattern","legs"],"bee_group":{"antennae":"X","wings":"X","pattern":"S","legs":"F"},"bonus":1.1400000000000006},{"rt":11294.5,"response":{"Q0":["Two or six legs","Stripes or spots on body","Single or double wings","Antennae or no antennae"]},"question_order":[0],"trial_type":"survey-multi-select","trial_index":4,"time_elapsed":150618,"internal_node_id":"0.0-3.0-1.0","subject_id":"611231e33c2e4198943389a9","study_id":"6197b3f67c2b5cd3b6d9596a","session_id":"6197b88b2ca0f0d44bdf3e6c","condition":"full-information","relevant_dimensions":["pattern","legs"],"bee_group":{"antennae":"X","wings":"X","pattern":"S","legs":"F"},"correct":true,"bonus":1.1400000000000006},{"rt":36231.5,"response":{"Q1":"No.","Q2":"Based on the four features of the bee.","Q3":"You do not learn if it was friendly or dangerous, and do not alter your bonus."},"question_order":[0,1,2],"trial_type":"survey-multi-choice","trial_index":5,"time_elapsed":186858,"internal_node_id":"0.0-3.0-2.0","subject_id":"611231e33c2e4198943389a9","study_id":"6197b3f67c2b5cd3b6d9596a","session_id":"6197b88b2ca0f0d44bdf3e6c","condition":"full-information","relevant_dimensions":["pattern","legs"],"bee_group":{"antennae":"X","wings":"X","pattern":"S","legs":"F"},"correct":false,"bonus":1.1400000000000006},{"rt":4558.699999928474,"stimulus":"<p>You did not answer all comprehension questions correctly.<br>Press <b>continue</b> to review the instructions again.</p>","response":0,"trial_type":"html-button-response","trial_index":6,"time_elapsed":191425,"internal_node_id":"0.0-3.0-3.0","subject_id":"611231e33c2e4198943389a9","study_id":"6197b3f67c2b5cd3b6d9596a","session_id":"6197b88b2ca0f0d44bdf3e6c","condition":"full-information","relevant_dimensions":["pattern","legs"],"bee_group":{"antennae":"X","wings":"X","pattern":"S","legs":"F"},"bonus":1.1400000000000006},{"view_history":[{"page_index":0,"viewing_time":1525.1000000238419},{"page_index":1,"viewing_time":2984.0999999046326},{"page_index":2,"viewing_time":1040},{"page_index":3,"viewing_time":744.2000000476837},{"page_index":4,"viewing_time":663.7999999523163},{"page_index":5,"viewing_time":544.4000000953674},{"page_index":6,"viewing_time":727.5999999046326},{"page_index":7,"viewing_time":1664},{"page_index":8,"viewing_time":2384},{"page_index":9,"viewing_time":903.9000000953674},{"page_index":10,"viewing_time":784},{"page_index":11,"viewing_time":2256},{"page_index":12,"viewing_time":7528},{"page_index":13,"viewing_time":1040},{"page_index":12,"viewing_time":752},{"page_index":11,"viewing_time":7247.899999976158},{"page_index":12,"viewing_time":728},{"page_index":13,"viewing_time":856},{"page_index":14,"viewing_time":775.8999999761581}],"rt":35149.5,"trial_type":"instructions","trial_index":7,"time_elapsed":226577,"internal_node_id":"0.0-3.0-4.0-0.0","subject_id":"611231e33c2e4198943389a9","study_id":"6197b3f67c2b5cd3b6d9596a","session_id":"6197b88b2ca0f0d44bdf3e6c","condition":"full-information","relevant_dimensions":["pattern","legs"],"bee_group":{"antennae":"X","wings":"X","pattern":"S","legs":"F"},"bonus":1.1400000000000006},{"rt":7330.100000023842,"response":{"Q0":["Two or six legs","Stripes or spots on body","Single or double wings","Antennae or no antennae"]},"question_order":[0],"trial_type":"survey-multi-select","trial_index":8,"time_elapsed":233914,"internal_node_id":"0.0-3.0-4.0-1.0","subject_id":"611231e33c2e4198943389a9","study_id":"6197b3f67c2b5cd3b6d9596a","session_id":"6197b88b2ca0f0d44bdf3e6c","condition":"full-information","relevant_dimensions":["pattern","legs"],"bee_group":{"antennae":"X","wings":"X","pattern":"S","legs":"F"},"correct":true,"bonus":1.1400000000000006},{"rt":15992.199999928474,"response":{"Q1":"No.","Q2":"Based on the four features of the bee.","Q3":"You learn if it was friendly or dangerous, but do not alter your bonus."},"question_order":[0,1,2],"trial_type":"survey-multi-choice","trial_index":9,"time_elapsed":249914,"internal_node_id":"0.0-3.0-4.0-2.0","subject_id":"611231e33c2e4198943389a9","study_id":"6197b3f67c2b5cd3b6d9596a","session_id":"6197b88b2ca0f0d44bdf3e6c","condition":"full-information","relevant_dimensions":["pattern","legs"],"bee_group":{"antennae":"X","wings":"X","pattern":"S","legs":"F"},"correct":true,"bonus":1.1400000000000006},{"rt":2184.0999999046326,"stimulus":"<p>Congrats, you got everything right<br>When you're ready, click the button below to continue to the experiment.</p>","response":0,"trial_type":"html-button-response","trial_index":10,"time_elapsed":252105,"internal_node_id":"0.0-3.0-4.0-3.0","subject_id":"611231e33c2e4198943389a9","study_id":"6197b3f67c2b5cd3b6d9596a","session_id":"6197b88b2ca0f0d44bdf3e6c","condition":"full-information","relevant_dimensions":["pattern","legs"],"bee_group":{"antennae":"X","wings":"X","pattern":"S","legs":"F"},"bonus":1.1400000000000006},{"rt":5355.300000071526,"stimulus":"bees-with-color/bee-B1DM.svg","response":0,"trial_type":"image-button-response","trial_index":11,"time_elapsed":257465,"internal_node_id":"0.0-4.0-0.0","subject_id":"611231e33c2e4198943389a9","study_id":"6197b3f67c2b5cd3b6d9596a","session_id":"6197b88b2ca0f0d44bdf3e6c","condition":"full-information","relevant_dimensions":["pattern","legs"],"bee_group":{"antennae":"X","wings":"X","pattern":"S","legs":"F"},"action":"harvest","summary":"good-harvest","bonus":1.1400000000000006},{"rt":6898.600000023842,"stimulus":"\n                    <p><b>Action: <em>harvest</em></b></p>\n                    <p>This is the bee that you just saw.</p>\n                    <img src=\"bees-with-color/bee-B1DM.svg\" width=\"200\">\n                    <p><span class=\"greenText\"><b>Successful harvest!</b></span><br>Your pay has increased by $0.02. Your bonus pay is now $0.56.</p>\n            ","response":0,"trial_type":"html-button-response","trial_index":12,"time_elapsed":264369,"internal_node_id":"0.0-4.0-1.0","subject_id":"611231e33c2e4198943389a9","study_id":"6197b3f67c2b5cd3b6d9596a","session_id":"6197b88b2ca0f0d44bdf3e6c","condition":"full-information","relevant_dimensions":["pattern","legs"],"bee_group":{"antennae":"X","wings":"X","pattern":"S","legs":"F"},"bonus":1.1400000000000006},{"rt":3539.5999999046326,"stimulus":"bees-with-color/bee-A2DF.svg","response":1,"trial_type":"image-button-response","trial_index":13,"time_elapsed":267913,"internal_node_id":"0.0-4.0-0.1","subject_id":"611231e33c2e4198943389a9","study_id":"6197b3f67c2b5cd3b6d9596a","session_id":"6197b88b2ca0f0d44bdf3e6c","condition":"full-information","relevant_dimensions":["pattern","legs"],"bee_group":{"antennae":"X","wings":"X","pattern":"S","legs":"F"},"action":"avoid","summary":"bad-avoid","bonus":1.1400000000000006},{"rt":3468.6999999284744,"stimulus":"\n                    <p><b>Action: <em>avoid</em></b></p>\n                    <p>This is the bee that you just saw.</p>\n                    <img src=\"bees-with-color/bee-A2DF.svg\" width=\"200\">\n                    <p><span class=\"redText\">Bad choice,</span> the bee was friendly.<br>Your bonus pay is unchanged, and remains at $0.56.</p>\n            ","response":0,"trial_type":"html-button-response","trial_index":14,"time_elapsed":271385,"internal_node_id":"0.0-4.0-1.1","subject_id":"611231e33c2e4198943389a9","study_id":"6197b3f67c2b5cd3b6d9596a","session_id":"6197b88b2ca0f0d44bdf3e6c","condition":"full-information","relevant_dimensions":["pattern","legs"],"bee_group":{"antennae":"X","wings":"X","pattern":"S","legs":"F"},"bonus":1.1400000000000006},{"rt":1948.2999999523163,"stimulus":"bees-with-color/bee-A1DM.svg","response":0,"trial_type":"image-button-response","trial_index":15,"time_elapsed":273337,"internal_node_id":"0.0-4.0-0.2","subject_id":"611231e33c2e4198943389a9","study_id":"6197b3f67c2b5cd3b6d9596a","session_id":"6197b88b2ca0f0d44bdf3e6c","condition":"full-information","relevant_dimensions":["pattern","legs"],"bee_group":{"antennae":"X","wings":"X","pattern":"S","legs":"F"},"action":"harvest","summary":"good-harvest","bonus":1.1400000000000006},{"rt":5147.5,"stimulus":"\n                    <p><b>Action: <em>harvest</em></b></p>\n                    <p>This is the bee that you just saw.</p>\n                    <img src=\"bees-with-color/bee-A1DM.svg\" width=\"200\">\n                    <p><span class=\"greenText\"><b>Successful harvest!</b></span><br>Your pay has increased by $0.02. Your bonus pay is now $0.58.</p>\n            ","response":0,"trial_type":"html-button-response","trial_index":16,"time_elapsed":278489,"internal_node_id":"0.0-4.0-1.2","subject_id":"611231e33c2e4198943389a9","study_id":"6197b3f67c2b5cd3b6d9596a","session_id":"6197b88b2ca0f0d44bdf3e6c","condition":"full-information","relevant_dimensions":["pattern","legs"],"bee_group":{"antennae":"X","wings":"X","pattern":"S","legs":"F"},"bonus":1.1400000000000006},{"rt":1620.2000000476837,"stimulus":"bees-with-color/bee-B1SF.svg","response":1,"trial_type":"image-button-response","trial_index":17,"time_elapsed":280113,"internal_node_id":"0.0-4.0-0.3","subject_id":"611231e33c2e4198943389a9","study_id":"6197b3f67c2b5cd3b6d9596a","session_id":"6197b88b2ca0f0d44bdf3e6c","condition":"full-information","relevant_dimensions":["pattern","legs"],"bee_group":{"antennae":"X","wings":"X","pattern":"S","legs":"F"},"action":"avoid","summary":"good-avoid","bonus":1.1400000000000006},{"rt":1548.7000000476837,"stimulus":"\n                    <p><b>Action: <em>avoid</em></b></p>\n                    <p>This is the bee that you just saw.</p>\n                    <img src=\"bees-with-color/bee-B1SF.svg\" width=\"200\">\n                    <p><span class=\"greenText\">Good choice!</span>  This bee would have stung you.<br>Your bonus pay is unchanged, and remains at $0.58.</p>\n            ","response":0,"trial_type":"html-button-response","trial_index":18,"time_elapsed":281665,"internal_node_id":"0.0-4.0-1.3","subject_id":"611231e33c2e4198943389a9","study_id":"6197b3f67c2b5cd3b6d9596a","session_id":"6197b88b2ca0f0d44bdf3e6c","condition":"full-information","relevant_dimensions":["pattern","legs"],"bee_group":{"antennae":"X","wings":"X","pattern":"S","legs":"F"},"bonus":1.1400000000000006},{"rt":1604.7000000476837,"stimulus":"bees-with-color/bee-B2DF.svg","response":0,"trial_type":"image-button-response","trial_index":19,"time_elapsed":283273,"internal_node_id":"0.0-4.0-0.4","subject_id":"611231e33c2e4198943389a9","study_id":"6197b3f67c2b5cd3b6d9596a","session_id":"6197b88b2ca0f0d44bdf3e6c","condition":"full-information","relevant_dimensions":["pattern","legs"],"bee_group":{"antennae":"X","wings":"X","pattern":"S","legs":"F"},"action":"harvest","summary":"good-harvest","bonus":1.1400000000000006},{"rt":1101.0999999046326,"stimulus":"\n                    <p><b>Action: <em>harvest</em></b></p>\n                    <p>This is the bee that you just saw.</p>\n                    <img src=\"bees-with-color/bee-B2DF.svg\" width=\"200\">\n                    <p><span class=\"greenText\"><b>Successful harvest!</b></span><br>Your pay has increased by $0.02. Your bonus pay is now $0.60.</p>\n            ","response":0,"trial_type":"html-button-response","trial_index":20,"time_elapsed":284377,"internal_node_id":"0.0-4.0-1.4","subject_id":"611231e33c2e4198943389a9","study_id":"6197b3f67c2b5cd3b6d9596a","session_id":"6197b88b2ca0f0d44bdf3e6c","condition":"full-information","relevant_dimensions":["pattern","legs"],"bee_group":{"antennae":"X","wings":"X","pattern":"S","legs":"F"},"bonus":1.1400000000000006},{"rt":1292.7000000476837,"stimulus":"bees-with-color/bee-A2SF.svg","response":1,"trial_type":"image-button-response","trial_index":21,"time_elapsed":285673,"internal_node_id":"0.0-4.0-0.5","subject_id":"611231e33c2e4198943389a9","study_id":"6197b3f67c2b5cd3b6d9596a","session_id":"6197b88b2ca0f0d44bdf3e6c","condition":"full-information","relevant_dimensions":["pattern","legs"],"bee_group":{"antennae":"X","wings":"X","pattern":"S","legs":"F"},"action":"avoid","summary":"good-avoid","bonus":1.1400000000000006},{"rt":1101.4000000953674,"stimulus":"\n                    <p><b>Action: <em>avoid</em></b></p>\n                    <p>This is the bee that you just saw.</p>\n                    <img src=\"bees-with-color/bee-A2SF.svg\" width=\"200\">\n                    <p><span class=\"greenText\">Good choice!</span>  This bee would have stung you.<br>Your bonus pay is unchanged, and remains at $0.60.</p>\n            ","response":0,"trial_type":"html-button-response","trial_index":22,"time_elapsed":286777,"internal_node_id":"0.0-4.0-1.5","subject_id":"611231e33c2e4198943389a9","study_id":"6197b3f67c2b5cd3b6d9596a","session_id":"6197b88b2ca0f0d44bdf3e6c","condition":"full-information","relevant_dimensions":["pattern","legs"],"bee_group":{"antennae":"X","wings":"X","pattern":"S","legs":"F"},"bonus":1.1400000000000006},{"rt":1685.3000000715256,"stimulus":"bees-with-color/bee-A2DM.svg","response":0,"trial_type":"image-button-response","trial_index":23,"time_elapsed":288465,"internal_node_id":"0.0-4.0-0.6","subject_id":"611231e33c2e4198943389a9","study_id":"6197b3f67c2b5cd3b6d9596a","session_id":"6197b88b2ca0f0d44bdf3e6c","condition":"full-information","relevant_dimensions":["pattern","legs"],"bee_group":{"antennae":"X","wings":"X","pattern":"S","legs":"F"},"action":"harvest","summary":"good-harvest","bonus":1.1400000000000006},{"rt":1389.2000000476837,"stimulus":"\n                    <p><b>Action: <em>harvest</em></b></p>\n                    <p>This is the bee that you just saw.</p>\n                    <img src=\"bees-with-color/bee-A2DM.svg\" width=\"200\">\n                    <p><span class=\"greenText\"><b>Successful harvest!</b></span><br>Your pay has increased by $0.02. Your bonus pay is now $0.62.</p>\n            ","response":0,"trial_type":"html-button-response","trial_index":24,"time_elapsed":289857,"internal_node_id":"0.0-4.0-1.6","subject_id":"611231e33c2e4198943389a9","study_id":"6197b3f67c2b5cd3b6d9596a","session_id":"6197b88b2ca0f0d44bdf3e6c","condition":"full-information","relevant_dimensions":["pattern","legs"],"bee_group":{"antennae":"X","wings":"X","pattern":"S","legs":"F"},"bonus":1.1400000000000006},{"rt":2389.5,"stimulus":"bees-with-color/bee-A1SM.svg","response":1,"trial_type":"image-button-response","trial_index":25,"time_elapsed":292249,"internal_node_id":"0.0-4.0-0.7","subject_id":"611231e33c2e4198943389a9","study_id":"6197b3f67c2b5cd3b6d9596a","session_id":"6197b88b2ca0f0d44bdf3e6c","condition":"full-information","relevant_dimensions":["pattern","legs"],"bee_group":{"antennae":"X","wings":"X","pattern":"S","legs":"F"},"action":"avoid","summary":"bad-avoid","bonus":1.1400000000000006},{"rt":2252.600000023842,"stimulus":"\n                    <p><b>Action: <em>avoid</em></b></p>\n                    <p>This is the bee that you just saw.</p>\n                    <img src=\"bees-with-color/bee-A1SM.svg\" width=\"200\">\n                    <p><span class=\"redText\">Bad choice,</span> the bee was friendly.<br>Your bonus pay is unchanged, and remains at $0.62.</p>\n            ","response":0,"trial_type":"html-button-response","trial_index":26,"time_elapsed":294504,"internal_node_id":"0.0-4.0-1.7","subject_id":"611231e33c2e4198943389a9","study_id":"6197b3f67c2b5cd3b6d9596a","session_id":"6197b88b2ca0f0d44bdf3e6c","condition":"full-information","relevant_dimensions":["pattern","legs"],"bee_group":{"antennae":"X","wings":"X","pattern":"S","legs":"F"},"bonus":1.1400000000000006},{"rt":1796.2000000476837,"stimulus":"bees-with-color/bee-B1SM.svg","response":1,"trial_type":"image-button-response","trial_index":27,"time_elapsed":296305,"internal_node_id":"0.0-4.0-0.8","subject_id":"611231e33c2e4198943389a9","study_id":"6197b3f67c2b5cd3b6d9596a","session_id":"6197b88b2ca0f0d44bdf3e6c","condition":"full-information","relevant_dimensions":["pattern","legs"],"bee_group":{"antennae":"X","wings":"X","pattern":"S","legs":"F"},"action":"avoid","summary":"bad-avoid","bonus":1.1400000000000006},{"rt":965.1000000238419,"stimulus":"\n                    <p><b>Action: <em>avoid</em></b></p>\n                    <p>This is the bee that you just saw.</p>\n                    <img src=\"bees-with-color/bee-B1SM.svg\" width=\"200\">\n                    <p><span class=\"redText\">Bad choice,</span> the bee was friendly.<br>Your bonus pay is unchanged, and remains at $0.62.</p>\n            ","response":0,"trial_type":"html-button-response","trial_index":28,"time_elapsed":297273,"internal_node_id":"0.0-4.0-1.8","subject_id":"611231e33c2e4198943389a9","study_id":"6197b3f67c2b5cd3b6d9596a","session_id":"6197b88b2ca0f0d44bdf3e6c","condition":"full-information","relevant_dimensions":["pattern","legs"],"bee_group":{"antennae":"X","wings":"X","pattern":"S","legs":"F"},"bonus":1.1400000000000006},{"rt":1949.3000000715256,"stimulus":"bees-with-color/bee-B1DF.svg","response":1,"trial_type":"image-button-response","trial_index":29,"time_elapsed":299225,"internal_node_id":"0.0-4.0-0.9","subject_id":"611231e33c2e4198943389a9","study_id":"6197b3f67c2b5cd3b6d9596a","session_id":"6197b88b2ca0f0d44bdf3e6c","condition":"full-information","relevant_dimensions":["pattern","legs"],"bee_group":{"antennae":"X","wings":"X","pattern":"S","legs":"F"},"action":"avoid","summary":"bad-avoid","bonus":1.1400000000000006},{"rt":820.8999999761581,"stimulus":"\n                    <p><b>Action: <em>avoid</em></b></p>\n                    <p>This is the bee that you just saw.</p>\n                    <img src=\"bees-with-color/bee-B1DF.svg\" width=\"200\">\n                    <p><span class=\"redText\">Bad choice,</span> the bee was friendly.<br>Your bonus pay is unchanged, and remains at $0.62.</p>\n            ","response":0,"trial_type":"html-button-response","trial_index":30,"time_elapsed":300048,"internal_node_id":"0.0-4.0-1.9","subject_id":"611231e33c2e4198943389a9","study_id":"6197b3f67c2b5cd3b6d9596a","session_id":"6197b88b2ca0f0d44bdf3e6c","condition":"full-information","relevant_dimensions":["pattern","legs"],"bee_group":{"antennae":"X","wings":"X","pattern":"S","legs":"F"},"bonus":1.1400000000000006},{"rt":1453.5,"stimulus":"bees-with-color/bee-B2SM.svg","response":0,"trial_type":"image-button-response","trial_index":31,"time_elapsed":301504,"internal_node_id":"0.0-4.0-0.10","subject_id":"611231e33c2e4198943389a9","study_id":"6197b3f67c2b5cd3b6d9596a","session_id":"6197b88b2ca0f0d44bdf3e6c","condition":"full-information","relevant_dimensions":["pattern","legs"],"bee_group":{"antennae":"X","wings":"X","pattern":"S","legs":"F"},"action":"harvest","summary":"good-harvest","bonus":1.1400000000000006},{"rt":1005.1000000238419,"stimulus":"\n                    <p><b>Action: <em>harvest</em></b></p>\n                    <p>This is the bee that you just saw.</p>\n                    <img src=\"bees-with-color/bee-B2SM.svg\" width=\"200\">\n                    <p><span class=\"greenText\"><b>Successful harvest!</b></span><br>Your pay has increased by $0.02. Your bonus pay is now $0.64.</p>\n            ","response":0,"trial_type":"html-button-response","trial_index":32,"time_elapsed":302512,"internal_node_id":"0.0-4.0-1.10","subject_id":"611231e33c2e4198943389a9","study_id":"6197b3f67c2b5cd3b6d9596a","session_id":"6197b88b2ca0f0d44bdf3e6c","condition":"full-information","relevant_dimensions":["pattern","legs"],"bee_group":{"antennae":"X","wings":"X","pattern":"S","legs":"F"},"bonus":1.1400000000000006},{"rt":1748.8999999761581,"stimulus":"bees-with-color/bee-B2SF.svg","response":1,"trial_type":"image-button-response","trial_index":33,"time_elapsed":304265,"internal_node_id":"0.0-4.0-0.11","subject_id":"611231e33c2e4198943389a9","study_id":"6197b3f67c2b5cd3b6d9596a","session_id":"6197b88b2ca0f0d44bdf3e6c","condition":"full-information","relevant_dimensions":["pattern","legs"],"bee_group":{"antennae":"X","wings":"X","pattern":"S","legs":"F"},"action":"avoid","summary":"good-avoid","bonus":1.1400000000000006},{"rt":724.5,"stimulus":"\n                    <p><b>Action: <em>avoid</em></b></p>\n                    <p>This is the bee that you just saw.</p>\n                    <img src=\"bees-with-color/bee-B2SF.svg\" width=\"200\">\n                    <p><span class=\"greenText\">Good choice!</span>  This bee would have stung you.<br>Your bonus pay is unchanged, and remains at $0.64.</p>\n            ","response":0,"trial_type":"html-button-response","trial_index":34,"time_elapsed":304992,"internal_node_id":"0.0-4.0-1.11","subject_id":"611231e33c2e4198943389a9","study_id":"6197b3f67c2b5cd3b6d9596a","session_id":"6197b88b2ca0f0d44bdf3e6c","condition":"full-information","relevant_dimensions":["pattern","legs"],"bee_group":{"antennae":"X","wings":"X","pattern":"S","legs":"F"},"bonus":1.1400000000000006},{"rt":1197.3999999761581,"stimulus":"bees-with-color/bee-B2DM.svg","response":0,"trial_type":"image-button-response","trial_index":35,"time_elapsed":306192,"internal_node_id":"0.0-4.0-0.12","subject_id":"611231e33c2e4198943389a9","study_id":"6197b3f67c2b5cd3b6d9596a","session_id":"6197b88b2ca0f0d44bdf3e6c","condition":"full-information","relevant_dimensions":["pattern","legs"],"bee_group":{"antennae":"X","wings":"X","pattern":"S","legs":"F"},"action":"harvest","summary":"good-harvest","bonus":1.1400000000000006},{"rt":1436.7000000476837,"stimulus":"\n                    <p><b>Action: <em>harvest</em></b></p>\n                    <p>This is the bee that you just saw.</p>\n                    <img src=\"bees-with-color/bee-B2DM.svg\" width=\"200\">\n                    <p><span class=\"greenText\"><b>Successful harvest!</b></span><br>Your pay has increased by $0.02. Your bonus pay is now $0.66.</p>\n            ","response":0,"trial_type":"html-button-response","trial_index":36,"time_elapsed":307632,"internal_node_id":"0.0-4.0-1.12","subject_id":"611231e33c2e4198943389a9","study_id":"6197b3f67c2b5cd3b6d9596a","session_id":"6197b88b2ca0f0d44bdf3e6c","condition":"full-information","relevant_dimensions":["pattern","legs"],"bee_group":{"antennae":"X","wings":"X","pattern":"S","legs":"F"},"bonus":1.1400000000000006},{"rt":3701.2999999523163,"stimulus":"bees-with-color/bee-A1DF.svg","response":1,"trial_type":"image-button-response","trial_index":37,"time_elapsed":311336,"internal_node_id":"0.0-4.0-0.13","subject_id":"611231e33c2e4198943389a9","study_id":"6197b3f67c2b5cd3b6d9596a","session_id":"6197b88b2ca0f0d44bdf3e6c","condition":"full-information","relevant_dimensions":["pattern","legs"],"bee_group":{"antennae":"X","wings":"X","pattern":"S","legs":"F"},"action":"avoid","summary":"bad-avoid","bonus":1.1400000000000006},{"rt":868.7999999523163,"stimulus":"\n                    <p><b>Action: <em>avoid</em></b></p>\n                    <p>This is the bee that you just saw.</p>\n                    <img src=\"bees-with-color/bee-A1DF.svg\" width=\"200\">\n                    <p><span class=\"redText\">Bad choice,</span> the bee was friendly.<br>Your bonus pay is unchanged, and remains at $0.66.</p>\n            ","response":0,"trial_type":"html-button-response","trial_index":38,"time_elapsed":312208,"internal_node_id":"0.0-4.0-1.13","subject_id":"611231e33c2e4198943389a9","study_id":"6197b3f67c2b5cd3b6d9596a","session_id":"6197b88b2ca0f0d44bdf3e6c","condition":"full-information","relevant_dimensions":["pattern","legs"],"bee_group":{"antennae":"X","wings":"X","pattern":"S","legs":"F"},"bonus":1.1400000000000006},{"rt":1052.9000000953674,"stimulus":"bees-with-color/bee-A1SF.svg","response":1,"trial_type":"image-button-response","trial_index":39,"time_elapsed":313264,"internal_node_id":"0.0-4.0-0.14","subject_id":"611231e33c2e4198943389a9","study_id":"6197b3f67c2b5cd3b6d9596a","session_id":"6197b88b2ca0f0d44bdf3e6c","condition":"full-information","relevant_dimensions":["pattern","legs"],"bee_group":{"antennae":"X","wings":"X","pattern":"S","legs":"F"},"action":"avoid","summary":"good-avoid","bonus":1.1400000000000006},{"rt":692.1000000238419,"stimulus":"\n                    <p><b>Action: <em>avoid</em></b></p>\n                    <p>This is the bee that you just saw.</p>\n                    <img src=\"bees-with-color/bee-A1SF.svg\" width=\"200\">\n                    <p><span class=\"greenText\">Good choice!</span>  This bee would have stung you.<br>Your bonus pay is unchanged, and remains at $0.66.</p>\n            ","response":0,"trial_type":"html-button-response","trial_index":40,"time_elapsed":313960,"internal_node_id":"0.0-4.0-1.14","subject_id":"611231e33c2e4198943389a9","study_id":"6197b3f67c2b5cd3b6d9596a","session_id":"6197b88b2ca0f0d44bdf3e6c","condition":"full-information","relevant_dimensions":["pattern","legs"],"bee_group":{"antennae":"X","wings":"X","pattern":"S","legs":"F"},"bonus":1.1400000000000006},{"rt":1877.2000000476837,"stimulus":"bees-with-color/bee-A2SM.svg","response":1,"trial_type":"image-button-response","trial_index":41,"time_elapsed":315840,"internal_node_id":"0.0-4.0-0.15","subject_id":"611231e33c2e4198943389a9","study_id":"6197b3f67c2b5cd3b6d9596a","session_id":"6197b88b2ca0f0d44bdf3e6c","condition":"full-information","relevant_dimensions":["pattern","legs"],"bee_group":{"antennae":"X","wings":"X","pattern":"S","legs":"F"},"action":"avoid","summary":"bad-avoid","bonus":1.1400000000000006},{"rt":853,"stimulus":"\n                    <p><b>Action: <em>avoid</em></b></p>\n                    <p>This is the bee that you just saw.</p>\n                    <img src=\"bees-with-color/bee-A2SM.svg\" width=\"200\">\n                    <p><span class=\"redText\">Bad choice,</span> the bee was friendly.<br>Your bonus pay is unchanged, and remains at $0.66.</p>\n            ","response":0,"trial_type":"html-button-response","trial_index":42,"time_elapsed":316696,"internal_node_id":"0.0-4.0-1.15","subject_id":"611231e33c2e4198943389a9","study_id":"6197b3f67c2b5cd3b6d9596a","session_id":"6197b88b2ca0f0d44bdf3e6c","condition":"full-information","relevant_dimensions":["pattern","legs"],"bee_group":{"antennae":"X","wings":"X","pattern":"S","legs":"F"},"bonus":1.1400000000000006},{"rt":1676.2000000476837,"stimulus":"bees-with-color/bee-A2SM.svg","response":0,"trial_type":"image-button-response","trial_index":43,"time_elapsed":318376,"internal_node_id":"0.0-4.0-0.16","subject_id":"611231e33c2e4198943389a9","study_id":"6197b3f67c2b5cd3b6d9596a","session_id":"6197b88b2ca0f0d44bdf3e6c","condition":"full-information","relevant_dimensions":["pattern","legs"],"bee_group":{"antennae":"X","wings":"X","pattern":"S","legs":"F"},"action":"harvest","summary":"good-harvest","bonus":1.1400000000000006},{"rt":1141,"stimulus":"\n                    <p><b>Action: <em>harvest</em></b></p>\n                    <p>This is the bee that you just saw.</p>\n                    <img src=\"bees-with-color/bee-A2SM.svg\" width=\"200\">\n                    <p><span class=\"greenText\"><b>Successful harvest!</b></span><br>Your pay has increased by $0.02. Your bonus pay is now $0.68.</p>\n            ","response":0,"trial_type":"html-button-response","trial_index":44,"time_elapsed":319520,"internal_node_id":"0.0-4.0-1.16","subject_id":"611231e33c2e4198943389a9","study_id":"6197b3f67c2b5cd3b6d9596a","session_id":"6197b88b2ca0f0d44bdf3e6c","condition":"full-information","relevant_dimensions":["pattern","legs"],"bee_group":{"antennae":"X","wings":"X","pattern":"S","legs":"F"},"bonus":1.1400000000000006},{"rt":2532.7999999523163,"stimulus":"bees-with-color/bee-A1SM.svg","response":0,"trial_type":"image-button-response","trial_index":45,"time_elapsed":322056,"internal_node_id":"0.0-4.0-0.17","subject_id":"611231e33c2e4198943389a9","study_id":"6197b3f67c2b5cd3b6d9596a","session_id":"6197b88b2ca0f0d44bdf3e6c","condition":"full-information","relevant_dimensions":["pattern","legs"],"bee_group":{"antennae":"X","wings":"X","pattern":"S","legs":"F"},"action":"harvest","summary":"good-harvest","bonus":1.1400000000000006},{"rt":2660.7999999523163,"stimulus":"\n                    <p><b>Action: <em>harvest</em></b></p>\n                    <p>This is the bee that you just saw.</p>\n                    <img src=\"bees-with-color/bee-A1SM.svg\" width=\"200\">\n                    <p><span class=\"greenText\"><b>Successful harvest!</b></span><br>Your pay has increased by $0.02. Your bonus pay is now $0.70.</p>\n            ","response":0,"trial_type":"html-button-response","trial_index":46,"time_elapsed":324720,"internal_node_id":"0.0-4.0-1.17","subject_id":"611231e33c2e4198943389a9","study_id":"6197b3f67c2b5cd3b6d9596a","session_id":"6197b88b2ca0f0d44bdf3e6c","condition":"full-information","relevant_dimensions":["pattern","legs"],"bee_group":{"antennae":"X","wings":"X","pattern":"S","legs":"F"},"bonus":1.1400000000000006},{"rt":1444.3999999761581,"stimulus":"bees-with-color/bee-B1DM.svg","response":1,"trial_type":"image-button-response","trial_index":47,"time_elapsed":326168,"internal_node_id":"0.0-4.0-0.18","subject_id":"611231e33c2e4198943389a9","study_id":"6197b3f67c2b5cd3b6d9596a","session_id":"6197b88b2ca0f0d44bdf3e6c","condition":"full-information","relevant_dimensions":["pattern","legs"],"bee_group":{"antennae":"X","wings":"X","pattern":"S","legs":"F"},"action":"avoid","summary":"bad-avoid","bonus":1.1400000000000006},{"rt":612.6999999284744,"stimulus":"\n                    <p><b>Action: <em>avoid</em></b></p>\n                    <p>This is the bee that you just saw.</p>\n                    <img src=\"bees-with-color/bee-B1DM.svg\" width=\"200\">\n                    <p><span class=\"redText\">Bad choice,</span> the bee was friendly.<br>Your bonus pay is unchanged, and remains at $0.70.</p>\n            ","response":0,"trial_type":"html-button-response","trial_index":48,"time_elapsed":326784,"internal_node_id":"0.0-4.0-1.18","subject_id":"611231e33c2e4198943389a9","study_id":"6197b3f67c2b5cd3b6d9596a","session_id":"6197b88b2ca0f0d44bdf3e6c","condition":"full-information","relevant_dimensions":["pattern","legs"],"bee_group":{"antennae":"X","wings":"X","pattern":"S","legs":"F"},"bonus":1.1400000000000006},{"rt":1108.7999999523163,"stimulus":"bees-with-color/bee-A2DM.svg","response":0,"trial_type":"image-button-response","trial_index":49,"time_elapsed":327896,"internal_node_id":"0.0-4.0-0.19","subject_id":"611231e33c2e4198943389a9","study_id":"6197b3f67c2b5cd3b6d9596a","session_id":"6197b88b2ca0f0d44bdf3e6c","condition":"full-information","relevant_dimensions":["pattern","legs"],"bee_group":{"antennae":"X","wings":"X","pattern":"S","legs":"F"},"action":"harvest","summary":"good-harvest","bonus":1.1400000000000006},{"rt":1365.0999999046326,"stimulus":"\n                    <p><b>Action: <em>harvest</em></b></p>\n                    <p>This is the bee that you just saw.</p>\n                    <img src=\"bees-with-color/bee-A2DM.svg\" width=\"200\">\n                    <p><span class=\"greenText\"><b>Successful harvest!</b></span><br>Your pay has increased by $0.02. Your bonus pay is now $0.72.</p>\n            ","response":0,"trial_type":"html-button-response","trial_index":50,"time_elapsed":329264,"internal_node_id":"0.0-4.0-1.19","subject_id":"611231e33c2e4198943389a9","study_id":"6197b3f67c2b5cd3b6d9596a","session_id":"6197b88b2ca0f0d44bdf3e6c","condition":"full-information","relevant_dimensions":["pattern","legs"],"bee_group":{"antennae":"X","wings":"X","pattern":"S","legs":"F"},"bonus":1.1400000000000006},{"rt":1260.6000000238419,"stimulus":"bees-with-color/bee-B2SF.svg","response":1,"trial_type":"image-button-response","trial_index":51,"time_elapsed":330528,"internal_node_id":"0.0-4.0-0.20","subject_id":"611231e33c2e4198943389a9","study_id":"6197b3f67c2b5cd3b6d9596a","session_id":"6197b88b2ca0f0d44bdf3e6c","condition":"full-information","relevant_dimensions":["pattern","legs"],"bee_group":{"antennae":"X","wings":"X","pattern":"S","legs":"F"},"action":"avoid","summary":"good-avoid","bonus":1.1400000000000006},{"rt":676.6000000238419,"stimulus":"\n                    <p><b>Action: <em>avoid</em></b></p>\n                    <p>This is the bee that you just saw.</p>\n                    <img src=\"bees-with-color/bee-B2SF.svg\" width=\"200\">\n                    <p><span class=\"greenText\">Good choice!</span>  This bee would have stung you.<br>Your bonus pay is unchanged, and remains at $0.72.</p>\n            ","response":0,"trial_type":"html-button-response","trial_index":52,"time_elapsed":331208,"internal_node_id":"0.0-4.0-1.20","subject_id":"611231e33c2e4198943389a9","study_id":"6197b3f67c2b5cd3b6d9596a","session_id":"6197b88b2ca0f0d44bdf3e6c","condition":"full-information","relevant_dimensions":["pattern","legs"],"bee_group":{"antennae":"X","wings":"X","pattern":"S","legs":"F"},"bonus":1.1400000000000006},{"rt":1220.8999999761581,"stimulus":"bees-with-color/bee-A1SF.svg","response":1,"trial_type":"image-button-response","trial_index":53,"time_elapsed":332432,"internal_node_id":"0.0-4.0-0.21","subject_id":"611231e33c2e4198943389a9","study_id":"6197b3f67c2b5cd3b6d9596a","session_id":"6197b88b2ca0f0d44bdf3e6c","condition":"full-information","relevant_dimensions":["pattern","legs"],"bee_group":{"antennae":"X","wings":"X","pattern":"S","legs":"F"},"action":"avoid","summary":"good-avoid","bonus":1.1400000000000006},{"rt":844.6999999284744,"stimulus":"\n                    <p><b>Action: <em>avoid</em></b></p>\n                    <p>This is the bee that you just saw.</p>\n                    <img src=\"bees-with-color/bee-A1SF.svg\" width=\"200\">\n                    <p><span class=\"greenText\">Good choice!</span>  This bee would have stung you.<br>Your bonus pay is unchanged, and remains at $0.72.</p>\n            ","response":0,"trial_type":"html-button-response","trial_index":54,"time_elapsed":333280,"internal_node_id":"0.0-4.0-1.21","subject_id":"611231e33c2e4198943389a9","study_id":"6197b3f67c2b5cd3b6d9596a","session_id":"6197b88b2ca0f0d44bdf3e6c","condition":"full-information","relevant_dimensions":["pattern","legs"],"bee_group":{"antennae":"X","wings":"X","pattern":"S","legs":"F"},"bonus":1.1400000000000006},{"rt":2213,"stimulus":"bees-with-color/bee-A1DM.svg","response":1,"trial_type":"image-button-response","trial_index":55,"time_elapsed":335496,"internal_node_id":"0.0-4.0-0.22","subject_id":"611231e33c2e4198943389a9","study_id":"6197b3f67c2b5cd3b6d9596a","session_id":"6197b88b2ca0f0d44bdf3e6c","condition":"full-information","relevant_dimensions":["pattern","legs"],"bee_group":{"antennae":"X","wings":"X","pattern":"S","legs":"F"},"action":"avoid","summary":"bad-avoid","bonus":1.1400000000000006},{"rt":1058.3999999761581,"stimulus":"\n                    <p><b>Action: <em>avoid</em></b></p>\n                    <p>This is the bee that you just saw.</p>\n                    <img src=\"bees-with-color/bee-A1DM.svg\" width=\"200\">\n                    <p><span class=\"redText\">Bad choice,</span> the bee was friendly.<br>Your bonus pay is unchanged, and remains at $0.72.</p>\n            ","response":0,"trial_type":"html-button-response","trial_index":56,"time_elapsed":336560,"internal_node_id":"0.0-4.0-1.22","subject_id":"611231e33c2e4198943389a9","study_id":"6197b3f67c2b5cd3b6d9596a","session_id":"6197b88b2ca0f0d44bdf3e6c","condition":"full-information","relevant_dimensions":["pattern","legs"],"bee_group":{"antennae":"X","wings":"X","pattern":"S","legs":"F"},"bonus":1.1400000000000006},{"rt":1644.2999999523163,"stimulus":"bees-with-color/bee-B1SM.svg","response":0,"trial_type":"image-button-response","trial_index":57,"time_elapsed":338208,"internal_node_id":"0.0-4.0-0.23","subject_id":"611231e33c2e4198943389a9","study_id":"6197b3f67c2b5cd3b6d9596a","session_id":"6197b88b2ca0f0d44bdf3e6c","condition":"full-information","relevant_dimensions":["pattern","legs"],"bee_group":{"antennae":"X","wings":"X","pattern":"S","legs":"F"},"action":"harvest","summary":"good-harvest","bonus":1.1400000000000006},{"rt":820.5,"stimulus":"\n                    <p><b>Action: <em>harvest</em></b></p>\n                    <p>This is the bee that you just saw.</p>\n                    <img src=\"bees-with-color/bee-B1SM.svg\" width=\"200\">\n                    <p><span class=\"greenText\"><b>Successful harvest!</b></span><br>Your pay has increased by $0.02. Your bonus pay is now $0.74.</p>\n            ","response":0,"trial_type":"html-button-response","trial_index":58,"time_elapsed":339032,"internal_node_id":"0.0-4.0-1.23","subject_id":"611231e33c2e4198943389a9","study_id":"6197b3f67c2b5cd3b6d9596a","session_id":"6197b88b2ca0f0d44bdf3e6c","condition":"full-information","relevant_dimensions":["pattern","legs"],"bee_group":{"antennae":"X","wings":"X","pattern":"S","legs":"F"},"bonus":1.1400000000000006},{"rt":1221.1999999284744,"stimulus":"bees-with-color/bee-B2DM.svg","response":0,"trial_type":"image-button-response","trial_index":59,"time_elapsed":340255,"internal_node_id":"0.0-4.0-0.24","subject_id":"611231e33c2e4198943389a9","study_id":"6197b3f67c2b5cd3b6d9596a","session_id":"6197b88b2ca0f0d44bdf3e6c","condition":"full-information","relevant_dimensions":["pattern","legs"],"bee_group":{"antennae":"X","wings":"X","pattern":"S","legs":"F"},"action":"harvest","summary":"good-harvest","bonus":1.1400000000000006},{"rt":1141.5,"stimulus":"\n                    <p><b>Action: <em>harvest</em></b></p>\n                    <p>This is the bee that you just saw.</p>\n                    <img src=\"bees-with-color/bee-B2DM.svg\" width=\"200\">\n                    <p><span class=\"greenText\"><b>Successful harvest!</b></span><br>Your pay has increased by $0.02. Your bonus pay is now $0.76.</p>\n            ","response":0,"trial_type":"html-button-response","trial_index":60,"time_elapsed":341399,"internal_node_id":"0.0-4.0-1.24","subject_id":"611231e33c2e4198943389a9","study_id":"6197b3f67c2b5cd3b6d9596a","session_id":"6197b88b2ca0f0d44bdf3e6c","condition":"full-information","relevant_dimensions":["pattern","legs"],"bee_group":{"antennae":"X","wings":"X","pattern":"S","legs":"F"},"bonus":1.1400000000000006},{"rt":1398.1000000238419,"stimulus":"bees-with-color/bee-B1SF.svg","response":1,"trial_type":"image-button-response","trial_index":61,"time_elapsed":342800,"internal_node_id":"0.0-4.0-0.25","subject_id":"611231e33c2e4198943389a9","study_id":"6197b3f67c2b5cd3b6d9596a","session_id":"6197b88b2ca0f0d44bdf3e6c","condition":"full-information","relevant_dimensions":["pattern","legs"],"bee_group":{"antennae":"X","wings":"X","pattern":"S","legs":"F"},"action":"avoid","summary":"good-avoid","bonus":1.1400000000000006},{"rt":732.3999999761581,"stimulus":"\n                    <p><b>Action: <em>avoid</em></b></p>\n                    <p>This is the bee that you just saw.</p>\n                    <img src=\"bees-with-color/bee-B1SF.svg\" width=\"200\">\n                    <p><span class=\"greenText\">Good choice!</span>  This bee would have stung you.<br>Your bonus pay is unchanged, and remains at $0.76.</p>\n            ","response":0,"trial_type":"html-button-response","trial_index":62,"time_elapsed":343535,"internal_node_id":"0.0-4.0-1.25","subject_id":"611231e33c2e4198943389a9","study_id":"6197b3f67c2b5cd3b6d9596a","session_id":"6197b88b2ca0f0d44bdf3e6c","condition":"full-information","relevant_dimensions":["pattern","legs"],"bee_group":{"antennae":"X","wings":"X","pattern":"S","legs":"F"},"bonus":1.1400000000000006},{"rt":1413.6999999284744,"stimulus":"bees-with-color/bee-A2DF.svg","response":1,"trial_type":"image-button-response","trial_index":63,"time_elapsed":344952,"internal_node_id":"0.0-4.0-0.26","subject_id":"611231e33c2e4198943389a9","study_id":"6197b3f67c2b5cd3b6d9596a","session_id":"6197b88b2ca0f0d44bdf3e6c","condition":"full-information","relevant_dimensions":["pattern","legs"],"bee_group":{"antennae":"X","wings":"X","pattern":"S","legs":"F"},"action":"avoid","summary":"bad-avoid","bonus":1.1400000000000006},{"rt":717.1999999284744,"stimulus":"\n                    <p><b>Action: <em>avoid</em></b></p>\n                    <p>This is the bee that you just saw.</p>\n                    <img src=\"bees-with-color/bee-A2DF.svg\" width=\"200\">\n                    <p><span class=\"redText\">Bad choice,</span> the bee was friendly.<br>Your bonus pay is unchanged, and remains at $0.76.</p>\n            ","response":0,"trial_type":"html-button-response","trial_index":64,"time_elapsed":345671,"internal_node_id":"0.0-4.0-1.26","subject_id":"611231e33c2e4198943389a9","study_id":"6197b3f67c2b5cd3b6d9596a","session_id":"6197b88b2ca0f0d44bdf3e6c","condition":"full-information","relevant_dimensions":["pattern","legs"],"bee_group":{"antennae":"X","wings":"X","pattern":"S","legs":"F"},"bonus":1.1400000000000006},{"rt":1484.8000000715256,"stimulus":"bees-with-color/bee-B2DF.svg","response":1,"trial_type":"image-button-response","trial_index":65,"time_elapsed":347159,"internal_node_id":"0.0-4.0-0.27","subject_id":"611231e33c2e4198943389a9","study_id":"6197b3f67c2b5cd3b6d9596a","session_id":"6197b88b2ca0f0d44bdf3e6c","condition":"full-information","relevant_dimensions":["pattern","legs"],"bee_group":{"antennae":"X","wings":"X","pattern":"S","legs":"F"},"action":"avoid","summary":"bad-avoid","bonus":1.1400000000000006},{"rt":605,"stimulus":"\n                    <p><b>Action: <em>avoid</em></b></p>\n                    <p>This is the bee that you just saw.</p>\n                    <img src=\"bees-with-color/bee-B2DF.svg\" width=\"200\">\n                    <p><span class=\"redText\">Bad choice,</span> the bee was friendly.<br>Your bonus pay is unchanged, and remains at $0.76.</p>\n            ","response":0,"trial_type":"html-button-response","trial_index":66,"time_elapsed":347767,"internal_node_id":"0.0-4.0-1.27","subject_id":"611231e33c2e4198943389a9","study_id":"6197b3f67c2b5cd3b6d9596a","session_id":"6197b88b2ca0f0d44bdf3e6c","condition":"full-information","relevant_dimensions":["pattern","legs"],"bee_group":{"antennae":"X","wings":"X","pattern":"S","legs":"F"},"bonus":1.1400000000000006},{"rt":2509.600000023842,"stimulus":"bees-with-color/bee-B2SM.svg","response":1,"trial_type":"image-button-response","trial_index":67,"time_elapsed":350279,"internal_node_id":"0.0-4.0-0.28","subject_id":"611231e33c2e4198943389a9","study_id":"6197b3f67c2b5cd3b6d9596a","session_id":"6197b88b2ca0f0d44bdf3e6c","condition":"full-information","relevant_dimensions":["pattern","legs"],"bee_group":{"antennae":"X","wings":"X","pattern":"S","legs":"F"},"action":"avoid","summary":"bad-avoid","bonus":1.1400000000000006},{"rt":669.2999999523163,"stimulus":"\n                    <p><b>Action: <em>avoid</em></b></p>\n                    <p>This is the bee that you just saw.</p>\n                    <img src=\"bees-with-color/bee-B2SM.svg\" width=\"200\">\n                    <p><span class=\"redText\">Bad choice,</span> the bee was friendly.<br>Your bonus pay is unchanged, and remains at $0.76.</p>\n            ","response":0,"trial_type":"html-button-response","trial_index":68,"time_elapsed":350951,"internal_node_id":"0.0-4.0-1.28","subject_id":"611231e33c2e4198943389a9","study_id":"6197b3f67c2b5cd3b6d9596a","session_id":"6197b88b2ca0f0d44bdf3e6c","condition":"full-information","relevant_dimensions":["pattern","legs"],"bee_group":{"antennae":"X","wings":"X","pattern":"S","legs":"F"},"bonus":1.1400000000000006},{"rt":1060.3000000715256,"stimulus":"bees-with-color/bee-B1DF.svg","response":1,"trial_type":"image-button-response","trial_index":69,"time_elapsed":352015,"internal_node_id":"0.0-4.0-0.29","subject_id":"611231e33c2e4198943389a9","study_id":"6197b3f67c2b5cd3b6d9596a","session_id":"6197b88b2ca0f0d44bdf3e6c","condition":"full-information","relevant_dimensions":["pattern","legs"],"bee_group":{"antennae":"X","wings":"X","pattern":"S","legs":"F"},"action":"avoid","summary":"bad-avoid","bonus":1.1400000000000006},{"rt":533.2000000476837,"stimulus":"\n                    <p><b>Action: <em>avoid</em></b></p>\n                    <p>This is the bee that you just saw.</p>\n                    <img src=\"bees-with-color/bee-B1DF.svg\" width=\"200\">\n                    <p><span class=\"redText\">Bad choice,</span> the bee was friendly.<br>Your bonus pay is unchanged, and remains at $0.76.</p>\n            ","response":0,"trial_type":"html-button-response","trial_index":70,"time_elapsed":352551,"internal_node_id":"0.0-4.0-1.29","subject_id":"611231e33c2e4198943389a9","study_id":"6197b3f67c2b5cd3b6d9596a","session_id":"6197b88b2ca0f0d44bdf3e6c","condition":"full-information","relevant_dimensions":["pattern","legs"],"bee_group":{"antennae":"X","wings":"X","pattern":"S","legs":"F"},"bonus":1.1400000000000006},{"rt":1685.5,"stimulus":"bees-with-color/bee-A1DF.svg","response":1,"trial_type":"image-button-response","trial_index":71,"time_elapsed":354240,"internal_node_id":"0.0-4.0-0.30","subject_id":"611231e33c2e4198943389a9","study_id":"6197b3f67c2b5cd3b6d9596a","session_id":"6197b88b2ca0f0d44bdf3e6c","condition":"full-information","relevant_dimensions":["pattern","legs"],"bee_group":{"antennae":"X","wings":"X","pattern":"S","legs":"F"},"action":"avoid","summary":"bad-avoid","bonus":1.1400000000000006},{"rt":541,"stimulus":"\n                    <p><b>Action: <em>avoid</em></b></p>\n                    <p>This is the bee that you just saw.</p>\n                    <img src=\"bees-with-color/bee-A1DF.svg\" width=\"200\">\n                    <p><span class=\"redText\">Bad choice,</span> the bee was friendly.<br>Your bonus pay is unchanged, and remains at $0.76.</p>\n            ","response":0,"trial_type":"html-button-response","trial_index":72,"time_elapsed":354783,"internal_node_id":"0.0-4.0-1.30","subject_id":"611231e33c2e4198943389a9","study_id":"6197b3f67c2b5cd3b6d9596a","session_id":"6197b88b2ca0f0d44bdf3e6c","condition":"full-information","relevant_dimensions":["pattern","legs"],"bee_group":{"antennae":"X","wings":"X","pattern":"S","legs":"F"},"bonus":1.1400000000000006},{"rt":2117.5,"stimulus":"bees-with-color/bee-A2SF.svg","response":1,"trial_type":"image-button-response","trial_index":73,"time_elapsed":356903,"internal_node_id":"0.0-4.0-0.31","subject_id":"611231e33c2e4198943389a9","study_id":"6197b3f67c2b5cd3b6d9596a","session_id":"6197b88b2ca0f0d44bdf3e6c","condition":"full-information","relevant_dimensions":["pattern","legs"],"bee_group":{"antennae":"X","wings":"X","pattern":"S","legs":"F"},"action":"avoid","summary":"good-avoid","bonus":1.1400000000000006},{"rt":797.3000000715256,"stimulus":"\n                    <p><b>Action: <em>avoid</em></b></p>\n                    <p>This is the bee that you just saw.</p>\n                    <img src=\"bees-with-color/bee-A2SF.svg\" width=\"200\">\n                    <p><span class=\"greenText\">Good choice!</span>  This bee would have stung you.<br>Your bonus pay is unchanged, and remains at $0.76.</p>\n            ","response":0,"trial_type":"html-button-response","trial_index":74,"time_elapsed":357703,"internal_node_id":"0.0-4.0-1.31","subject_id":"611231e33c2e4198943389a9","study_id":"6197b3f67c2b5cd3b6d9596a","session_id":"6197b88b2ca0f0d44bdf3e6c","condition":"full-information","relevant_dimensions":["pattern","legs"],"bee_group":{"antennae":"X","wings":"X","pattern":"S","legs":"F"},"bonus":1.1400000000000006},{"rt":1172.9000000953674,"stimulus":"bees-with-color/bee-B2SM.svg","response":0,"trial_type":"image-button-response","trial_index":75,"time_elapsed":358879,"internal_node_id":"0.0-4.0-0.32","subject_id":"611231e33c2e4198943389a9","study_id":"6197b3f67c2b5cd3b6d9596a","session_id":"6197b88b2ca0f0d44bdf3e6c","condition":"full-information","relevant_dimensions":["pattern","legs"],"bee_group":{"antennae":"X","wings":"X","pattern":"S","legs":"F"},"action":"harvest","summary":"good-harvest","bonus":1.1400000000000006},{"rt":733,"stimulus":"\n                    <p><b>Action: <em>harvest</em></b></p>\n                    <p>This is the bee that you just saw.</p>\n                    <img src=\"bees-with-color/bee-B2SM.svg\" width=\"200\">\n                    <p><span class=\"greenText\"><b>Successful harvest!</b></span><br>Your pay has increased by $0.02. Your bonus pay is now $0.78.</p>\n            ","response":0,"trial_type":"html-button-response","trial_index":76,"time_elapsed":359616,"internal_node_id":"0.0-4.0-1.32","subject_id":"611231e33c2e4198943389a9","study_id":"6197b3f67c2b5cd3b6d9596a","session_id":"6197b88b2ca0f0d44bdf3e6c","condition":"full-information","relevant_dimensions":["pattern","legs"],"bee_group":{"antennae":"X","wings":"X","pattern":"S","legs":"F"},"bonus":1.1400000000000006},{"rt":1079.8999999761581,"stimulus":"bees-with-color/bee-A1DM.svg","response":0,"trial_type":"image-button-response","trial_index":77,"time_elapsed":360698,"internal_node_id":"0.0-4.0-0.33","subject_id":"611231e33c2e4198943389a9","study_id":"6197b3f67c2b5cd3b6d9596a","session_id":"6197b88b2ca0f0d44bdf3e6c","condition":"full-information","relevant_dimensions":["pattern","legs"],"bee_group":{"antennae":"X","wings":"X","pattern":"S","legs":"F"},"action":"harvest","summary":"good-harvest","bonus":1.1400000000000006},{"rt":866.1000000238419,"stimulus":"\n                    <p><b>Action: <em>harvest</em></b></p>\n                    <p>This is the bee that you just saw.</p>\n                    <img src=\"bees-with-color/bee-A1DM.svg\" width=\"200\">\n                    <p><span class=\"greenText\"><b>Successful harvest!</b></span><br>Your pay has increased by $0.02. Your bonus pay is now $0.80.</p>\n            ","response":0,"trial_type":"html-button-response","trial_index":78,"time_elapsed":361567,"internal_node_id":"0.0-4.0-1.33","subject_id":"611231e33c2e4198943389a9","study_id":"6197b3f67c2b5cd3b6d9596a","session_id":"6197b88b2ca0f0d44bdf3e6c","condition":"full-information","relevant_dimensions":["pattern","legs"],"bee_group":{"antennae":"X","wings":"X","pattern":"S","legs":"F"},"bonus":1.1400000000000006},{"rt":1813.5,"stimulus":"bees-with-color/bee-A1DF.svg","response":0,"trial_type":"image-button-response","trial_index":79,"time_elapsed":363383,"internal_node_id":"0.0-4.0-0.34","subject_id":"611231e33c2e4198943389a9","study_id":"6197b3f67c2b5cd3b6d9596a","session_id":"6197b88b2ca0f0d44bdf3e6c","condition":"full-information","relevant_dimensions":["pattern","legs"],"bee_group":{"antennae":"X","wings":"X","pattern":"S","legs":"F"},"action":"harvest","summary":"good-harvest","bonus":1.1400000000000006},{"rt":756.7000000476837,"stimulus":"\n                    <p><b>Action: <em>harvest</em></b></p>\n                    <p>This is the bee that you just saw.</p>\n                    <img src=\"bees-with-color/bee-A1DF.svg\" width=\"200\">\n                    <p><span class=\"greenText\"><b>Successful harvest!</b></span><br>Your pay has increased by $0.02. Your bonus pay is now $0.82.</p>\n            ","response":0,"trial_type":"html-button-response","trial_index":80,"time_elapsed":364143,"internal_node_id":"0.0-4.0-1.34","subject_id":"611231e33c2e4198943389a9","study_id":"6197b3f67c2b5cd3b6d9596a","session_id":"6197b88b2ca0f0d44bdf3e6c","condition":"full-information","relevant_dimensions":["pattern","legs"],"bee_group":{"antennae":"X","wings":"X","pattern":"S","legs":"F"},"bonus":1.1400000000000006},{"rt":1349.3000000715256,"stimulus":"bees-with-color/bee-A2DF.svg","response":1,"trial_type":"image-button-response","trial_index":81,"time_elapsed":365495,"internal_node_id":"0.0-4.0-0.35","subject_id":"611231e33c2e4198943389a9","study_id":"6197b3f67c2b5cd3b6d9596a","session_id":"6197b88b2ca0f0d44bdf3e6c","condition":"full-information","relevant_dimensions":["pattern","legs"],"bee_group":{"antennae":"X","wings":"X","pattern":"S","legs":"F"},"action":"avoid","summary":"bad-avoid","bonus":1.1400000000000006},{"rt":708.8000000715256,"stimulus":"\n                    <p><b>Action: <em>avoid</em></b></p>\n                    <p>This is the bee that you just saw.</p>\n                    <img src=\"bees-with-color/bee-A2DF.svg\" width=\"200\">\n                    <p><span class=\"redText\">Bad choice,</span> the bee was friendly.<br>Your bonus pay is unchanged, and remains at $0.82.</p>\n            ","response":0,"trial_type":"html-button-response","trial_index":82,"time_elapsed":366207,"internal_node_id":"0.0-4.0-1.35","subject_id":"611231e33c2e4198943389a9","study_id":"6197b3f67c2b5cd3b6d9596a","session_id":"6197b88b2ca0f0d44bdf3e6c","condition":"full-information","relevant_dimensions":["pattern","legs"],"bee_group":{"antennae":"X","wings":"X","pattern":"S","legs":"F"},"bonus":1.1400000000000006},{"rt":1244.5,"stimulus":"bees-with-color/bee-B1SM.svg","response":0,"trial_type":"image-button-response","trial_index":83,"time_elapsed":367455,"internal_node_id":"0.0-4.0-0.36","subject_id":"611231e33c2e4198943389a9","study_id":"6197b3f67c2b5cd3b6d9596a","session_id":"6197b88b2ca0f0d44bdf3e6c","condition":"full-information","relevant_dimensions":["pattern","legs"],"bee_group":{"antennae":"X","wings":"X","pattern":"S","legs":"F"},"action":"harvest","summary":"good-harvest","bonus":1.1400000000000006},{"rt":724.8000000715256,"stimulus":"\n                    <p><b>Action: <em>harvest</em></b></p>\n                    <p>This is the bee that you just saw.</p>\n                    <img src=\"bees-with-color/bee-B1SM.svg\" width=\"200\">\n                    <p><span class=\"greenText\"><b>Successful harvest!</b></span><br>Your pay has increased by $0.02. Your bonus pay is now $0.84.</p>\n            ","response":0,"trial_type":"html-button-response","trial_index":84,"time_elapsed":368183,"internal_node_id":"0.0-4.0-1.36","subject_id":"611231e33c2e4198943389a9","study_id":"6197b3f67c2b5cd3b6d9596a","session_id":"6197b88b2ca0f0d44bdf3e6c","condition":"full-information","relevant_dimensions":["pattern","legs"],"bee_group":{"antennae":"X","wings":"X","pattern":"S","legs":"F"},"bonus":1.1400000000000006},{"rt":1989.2000000476837,"stimulus":"bees-with-color/bee-B1SF.svg","response":1,"trial_type":"image-button-response","trial_index":85,"time_elapsed":370176,"internal_node_id":"0.0-4.0-0.37","subject_id":"611231e33c2e4198943389a9","study_id":"6197b3f67c2b5cd3b6d9596a","session_id":"6197b88b2ca0f0d44bdf3e6c","condition":"full-information","relevant_dimensions":["pattern","legs"],"bee_group":{"antennae":"X","wings":"X","pattern":"S","legs":"F"},"action":"avoid","summary":"good-avoid","bonus":1.1400000000000006},{"rt":709.2999999523163,"stimulus":"\n                    <p><b>Action: <em>avoid</em></b></p>\n                    <p>This is the bee that you just saw.</p>\n                    <img src=\"bees-with-color/bee-B1SF.svg\" width=\"200\">\n                    <p><span class=\"greenText\">Good choice!</span>  This bee would have stung you.<br>Your bonus pay is unchanged, and remains at $0.84.</p>\n            ","response":0,"trial_type":"html-button-response","trial_index":86,"time_elapsed":370891,"internal_node_id":"0.0-4.0-1.37","subject_id":"611231e33c2e4198943389a9","study_id":"6197b3f67c2b5cd3b6d9596a","session_id":"6197b88b2ca0f0d44bdf3e6c","condition":"full-information","relevant_dimensions":["pattern","legs"],"bee_group":{"antennae":"X","wings":"X","pattern":"S","legs":"F"},"bonus":1.1400000000000006},{"rt":1073.8000000715256,"stimulus":"bees-with-color/bee-B2DM.svg","response":0,"trial_type":"image-button-response","trial_index":87,"time_elapsed":371968,"internal_node_id":"0.0-4.0-0.38","subject_id":"611231e33c2e4198943389a9","study_id":"6197b3f67c2b5cd3b6d9596a","session_id":"6197b88b2ca0f0d44bdf3e6c","condition":"full-information","relevant_dimensions":["pattern","legs"],"bee_group":{"antennae":"X","wings":"X","pattern":"S","legs":"F"},"action":"harvest","summary":"good-harvest","bonus":1.1400000000000006},{"rt":1580.6000000238419,"stimulus":"\n                    <p><b>Action: <em>harvest</em></b></p>\n                    <p>This is the bee that you just saw.</p>\n                    <img src=\"bees-with-color/bee-B2DM.svg\" width=\"200\">\n                    <p><span class=\"greenText\"><b>Successful harvest!</b></span><br>Your pay has increased by $0.02. Your bonus pay is now $0.86.</p>\n            ","response":0,"trial_type":"html-button-response","trial_index":88,"time_elapsed":373552,"internal_node_id":"0.0-4.0-1.38","subject_id":"611231e33c2e4198943389a9","study_id":"6197b3f67c2b5cd3b6d9596a","session_id":"6197b88b2ca0f0d44bdf3e6c","condition":"full-information","relevant_dimensions":["pattern","legs"],"bee_group":{"antennae":"X","wings":"X","pattern":"S","legs":"F"},"bonus":1.1400000000000006},{"rt":1365.2000000476837,"stimulus":"bees-with-color/bee-A1SF.svg","response":1,"trial_type":"image-button-response","trial_index":89,"time_elapsed":374920,"internal_node_id":"0.0-4.0-0.39","subject_id":"611231e33c2e4198943389a9","study_id":"6197b3f67c2b5cd3b6d9596a","session_id":"6197b88b2ca0f0d44bdf3e6c","condition":"full-information","relevant_dimensions":["pattern","legs"],"bee_group":{"antennae":"X","wings":"X","pattern":"S","legs":"F"},"action":"avoid","summary":"good-avoid","bonus":1.1400000000000006},{"rt":706.2000000476837,"stimulus":"\n                    <p><b>Action: <em>avoid</em></b></p>\n                    <p>This is the bee that you just saw.</p>\n                    <img src=\"bees-with-color/bee-A1SF.svg\" width=\"200\">\n                    <p><span class=\"greenText\">Good choice!</span>  This bee would have stung you.<br>Your bonus pay is unchanged, and remains at $0.86.</p>\n            ","response":0,"trial_type":"html-button-response","trial_index":90,"time_elapsed":375632,"internal_node_id":"0.0-4.0-1.39","subject_id":"611231e33c2e4198943389a9","study_id":"6197b3f67c2b5cd3b6d9596a","session_id":"6197b88b2ca0f0d44bdf3e6c","condition":"full-information","relevant_dimensions":["pattern","legs"],"bee_group":{"antennae":"X","wings":"X","pattern":"S","legs":"F"},"bonus":1.1400000000000006},{"rt":1116.6000000238419,"stimulus":"bees-with-color/bee-B1DF.svg","response":1,"trial_type":"image-button-response","trial_index":91,"time_elapsed":376752,"internal_node_id":"0.0-4.0-0.40","subject_id":"611231e33c2e4198943389a9","study_id":"6197b3f67c2b5cd3b6d9596a","session_id":"6197b88b2ca0f0d44bdf3e6c","condition":"full-information","relevant_dimensions":["pattern","legs"],"bee_group":{"antennae":"X","wings":"X","pattern":"S","legs":"F"},"action":"avoid","summary":"bad-avoid","bonus":1.1400000000000006},{"rt":628.5,"stimulus":"\n                    <p><b>Action: <em>avoid</em></b></p>\n                    <p>This is the bee that you just saw.</p>\n                    <img src=\"bees-with-color/bee-B1DF.svg\" width=\"200\">\n                    <p><span class=\"redText\">Bad choice,</span> the bee was friendly.<br>Your bonus pay is unchanged, and remains at $0.86.</p>\n            ","response":0,"trial_type":"html-button-response","trial_index":92,"time_elapsed":377384,"internal_node_id":"0.0-4.0-1.40","subject_id":"611231e33c2e4198943389a9","study_id":"6197b3f67c2b5cd3b6d9596a","session_id":"6197b88b2ca0f0d44bdf3e6c","condition":"full-information","relevant_dimensions":["pattern","legs"],"bee_group":{"antennae":"X","wings":"X","pattern":"S","legs":"F"},"bonus":1.1400000000000006},{"rt":1416.2999999523163,"stimulus":"bees-with-color/bee-B2SF.svg","response":1,"trial_type":"image-button-response","trial_index":93,"time_elapsed":378804,"internal_node_id":"0.0-4.0-0.41","subject_id":"611231e33c2e4198943389a9","study_id":"6197b3f67c2b5cd3b6d9596a","session_id":"6197b88b2ca0f0d44bdf3e6c","condition":"full-information","relevant_dimensions":["pattern","legs"],"bee_group":{"antennae":"X","wings":"X","pattern":"S","legs":"F"},"action":"avoid","summary":"good-avoid","bonus":1.1400000000000006},{"rt":671.8000000715256,"stimulus":"\n                    <p><b>Action: <em>avoid</em></b></p>\n                    <p>This is the bee that you just saw.</p>\n                    <img src=\"bees-with-color/bee-B2SF.svg\" width=\"200\">\n                    <p><span class=\"greenText\">Good choice!</span>  This bee would have stung you.<br>Your bonus pay is unchanged, and remains at $0.86.</p>\n            ","response":0,"trial_type":"html-button-response","trial_index":94,"time_elapsed":379480,"internal_node_id":"0.0-4.0-1.41","subject_id":"611231e33c2e4198943389a9","study_id":"6197b3f67c2b5cd3b6d9596a","session_id":"6197b88b2ca0f0d44bdf3e6c","condition":"full-information","relevant_dimensions":["pattern","legs"],"bee_group":{"antennae":"X","wings":"X","pattern":"S","legs":"F"},"bonus":1.1400000000000006},{"rt":1004.8999999761581,"stimulus":"bees-with-color/bee-A2SM.svg","response":0,"trial_type":"image-button-response","trial_index":95,"time_elapsed":380488,"internal_node_id":"0.0-4.0-0.42","subject_id":"611231e33c2e4198943389a9","study_id":"6197b3f67c2b5cd3b6d9596a","session_id":"6197b88b2ca0f0d44bdf3e6c","condition":"full-information","relevant_dimensions":["pattern","legs"],"bee_group":{"antennae":"X","wings":"X","pattern":"S","legs":"F"},"action":"harvest","summary":"good-harvest","bonus":1.1400000000000006},{"rt":1028.6000000238419,"stimulus":"\n                    <p><b>Action: <em>harvest</em></b></p>\n                    <p>This is the bee that you just saw.</p>\n                    <img src=\"bees-with-color/bee-A2SM.svg\" width=\"200\">\n                    <p><span class=\"greenText\"><b>Successful harvest!</b></span><br>Your pay has increased by $0.02. Your bonus pay is now $0.88.</p>\n            ","response":0,"trial_type":"html-button-response","trial_index":96,"time_elapsed":381520,"internal_node_id":"0.0-4.0-1.42","subject_id":"611231e33c2e4198943389a9","study_id":"6197b3f67c2b5cd3b6d9596a","session_id":"6197b88b2ca0f0d44bdf3e6c","condition":"full-information","relevant_dimensions":["pattern","legs"],"bee_group":{"antennae":"X","wings":"X","pattern":"S","legs":"F"},"bonus":1.1400000000000006},{"rt":1244.7999999523163,"stimulus":"bees-with-color/bee-A2SF.svg","response":0,"trial_type":"image-button-response","trial_index":97,"time_elapsed":382768,"internal_node_id":"0.0-4.0-0.43","subject_id":"611231e33c2e4198943389a9","study_id":"6197b3f67c2b5cd3b6d9596a","session_id":"6197b88b2ca0f0d44bdf3e6c","condition":"full-information","relevant_dimensions":["pattern","legs"],"bee_group":{"antennae":"X","wings":"X","pattern":"S","legs":"F"},"action":"harvest","summary":"bad-harvest","bonus":1.1400000000000006},{"rt":1612.7999999523163,"stimulus":"\n                    <p><b>Action: <em>harvest</em></b></p>\n                    <p>This is the bee that you just saw.</p>\n                    <img src=\"bees-with-color/bee-A2SF.svg\" width=\"200\">\n                    <p><span class=\"redText\">Bad choice, the bee was angry.</span><br><b>You have been stung!</b><br>Your pay has been decreased by $0.10. Your bonus pay is now $0.78.</p>\n            ","response":0,"trial_type":"html-button-response","trial_index":98,"time_elapsed":384384,"internal_node_id":"0.0-4.0-1.43","subject_id":"611231e33c2e4198943389a9","study_id":"6197b3f67c2b5cd3b6d9596a","session_id":"6197b88b2ca0f0d44bdf3e6c","condition":"full-information","relevant_dimensions":["pattern","legs"],"bee_group":{"antennae":"X","wings":"X","pattern":"S","legs":"F"},"bonus":1.1400000000000006},{"rt":2245.7000000476837,"stimulus":"bees-with-color/bee-B1DM.svg","response":1,"trial_type":"image-button-response","trial_index":99,"time_elapsed":386632,"internal_node_id":"0.0-4.0-0.44","subject_id":"611231e33c2e4198943389a9","study_id":"6197b3f67c2b5cd3b6d9596a","session_id":"6197b88b2ca0f0d44bdf3e6c","condition":"full-information","relevant_dimensions":["pattern","legs"],"bee_group":{"antennae":"X","wings":"X","pattern":"S","legs":"F"},"action":"avoid","summary":"bad-avoid","bonus":1.1400000000000006},{"rt":613.3999999761581,"stimulus":"\n                    <p><b>Action: <em>avoid</em></b></p>\n                    <p>This is the bee that you just saw.</p>\n                    <img src=\"bees-with-color/bee-B1DM.svg\" width=\"200\">\n                    <p><span class=\"redText\">Bad choice,</span> the bee was friendly.<br>Your bonus pay is unchanged, and remains at $0.78.</p>\n            ","response":0,"trial_type":"html-button-response","trial_index":100,"time_elapsed":387248,"internal_node_id":"0.0-4.0-1.44","subject_id":"611231e33c2e4198943389a9","study_id":"6197b3f67c2b5cd3b6d9596a","session_id":"6197b88b2ca0f0d44bdf3e6c","condition":"full-information","relevant_dimensions":["pattern","legs"],"bee_group":{"antennae":"X","wings":"X","pattern":"S","legs":"F"},"bonus":1.1400000000000006},{"rt":1292.5,"stimulus":"bees-with-color/bee-B2DF.svg","response":1,"trial_type":"image-button-response","trial_index":101,"time_elapsed":388544,"internal_node_id":"0.0-4.0-0.45","subject_id":"611231e33c2e4198943389a9","study_id":"6197b3f67c2b5cd3b6d9596a","session_id":"6197b88b2ca0f0d44bdf3e6c","condition":"full-information","relevant_dimensions":["pattern","legs"],"bee_group":{"antennae":"X","wings":"X","pattern":"S","legs":"F"},"action":"avoid","summary":"bad-avoid","bonus":1.1400000000000006},{"rt":613.5,"stimulus":"\n                    <p><b>Action: <em>avoid</em></b></p>\n                    <p>This is the bee that you just saw.</p>\n                    <img src=\"bees-with-color/bee-B2DF.svg\" width=\"200\">\n                    <p><span class=\"redText\">Bad choice,</span> the bee was friendly.<br>Your bonus pay is unchanged, and remains at $0.78.</p>\n            ","response":0,"trial_type":"html-button-response","trial_index":102,"time_elapsed":389160,"internal_node_id":"0.0-4.0-1.45","subject_id":"611231e33c2e4198943389a9","study_id":"6197b3f67c2b5cd3b6d9596a","session_id":"6197b88b2ca0f0d44bdf3e6c","condition":"full-information","relevant_dimensions":["pattern","legs"],"bee_group":{"antennae":"X","wings":"X","pattern":"S","legs":"F"},"bonus":1.1400000000000006},{"rt":1373.7000000476837,"stimulus":"bees-with-color/bee-A2DM.svg","response":0,"trial_type":"image-button-response","trial_index":103,"time_elapsed":390536,"internal_node_id":"0.0-4.0-0.46","subject_id":"611231e33c2e4198943389a9","study_id":"6197b3f67c2b5cd3b6d9596a","session_id":"6197b88b2ca0f0d44bdf3e6c","condition":"full-information","relevant_dimensions":["pattern","legs"],"bee_group":{"antennae":"X","wings":"X","pattern":"S","legs":"F"},"action":"harvest","summary":"good-harvest","bonus":1.1400000000000006},{"rt":3205.5,"stimulus":"\n                    <p><b>Action: <em>harvest</em></b></p>\n                    <p>This is the bee that you just saw.</p>\n                    <img src=\"bees-with-color/bee-A2DM.svg\" width=\"200\">\n                    <p><span class=\"greenText\"><b>Successful harvest!</b></span><br>Your pay has increased by $0.02. Your bonus pay is now $0.80.</p>\n            ","response":0,"trial_type":"html-button-response","trial_index":104,"time_elapsed":393744,"internal_node_id":"0.0-4.0-1.46","subject_id":"611231e33c2e4198943389a9","study_id":"6197b3f67c2b5cd3b6d9596a","session_id":"6197b88b2ca0f0d44bdf3e6c","condition":"full-information","relevant_dimensions":["pattern","legs"],"bee_group":{"antennae":"X","wings":"X","pattern":"S","legs":"F"},"bonus":1.1400000000000006},{"rt":1716.3999999761581,"stimulus":"bees-with-color/bee-A1SM.svg","response":0,"trial_type":"image-button-response","trial_index":105,"time_elapsed":395464,"internal_node_id":"0.0-4.0-0.47","subject_id":"611231e33c2e4198943389a9","study_id":"6197b3f67c2b5cd3b6d9596a","session_id":"6197b88b2ca0f0d44bdf3e6c","condition":"full-information","relevant_dimensions":["pattern","legs"],"bee_group":{"antennae":"X","wings":"X","pattern":"S","legs":"F"},"action":"harvest","summary":"good-harvest","bonus":1.1400000000000006},{"rt":741.2999999523163,"stimulus":"\n                    <p><b>Action: <em>harvest</em></b></p>\n                    <p>This is the bee that you just saw.</p>\n                    <img src=\"bees-with-color/bee-A1SM.svg\" width=\"200\">\n                    <p><span class=\"greenText\"><b>Successful harvest!</b></span><br>Your pay has increased by $0.02. Your bonus pay is now $0.82.</p>\n            ","response":0,"trial_type":"html-button-response","trial_index":106,"time_elapsed":396208,"internal_node_id":"0.0-4.0-1.47","subject_id":"611231e33c2e4198943389a9","study_id":"6197b3f67c2b5cd3b6d9596a","session_id":"6197b88b2ca0f0d44bdf3e6c","condition":"full-information","relevant_dimensions":["pattern","legs"],"bee_group":{"antennae":"X","wings":"X","pattern":"S","legs":"F"},"bonus":1.1400000000000006},{"rt":2109.8000000715256,"stimulus":"bees-with-color/bee-B1SM.svg","response":1,"trial_type":"image-button-response","trial_index":107,"time_elapsed":398320,"internal_node_id":"0.0-4.0-0.48","subject_id":"611231e33c2e4198943389a9","study_id":"6197b3f67c2b5cd3b6d9596a","session_id":"6197b88b2ca0f0d44bdf3e6c","condition":"full-information","relevant_dimensions":["pattern","legs"],"bee_group":{"antennae":"X","wings":"X","pattern":"S","legs":"F"},"action":"avoid","summary":"bad-avoid","bonus":1.1400000000000006},{"rt":693,"stimulus":"\n                    <p><b>Action: <em>avoid</em></b></p>\n                    <p>This is the bee that you just saw.</p>\n                    <img src=\"bees-with-color/bee-B1SM.svg\" width=\"200\">\n                    <p><span class=\"redText\">Bad choice,</span> the bee was friendly.<br>Your bonus pay is unchanged, and remains at $0.82.</p>\n            ","response":0,"trial_type":"html-button-response","trial_index":108,"time_elapsed":399016,"internal_node_id":"0.0-4.0-1.48","subject_id":"611231e33c2e4198943389a9","study_id":"6197b3f67c2b5cd3b6d9596a","session_id":"6197b88b2ca0f0d44bdf3e6c","condition":"full-information","relevant_dimensions":["pattern","legs"],"bee_group":{"antennae":"X","wings":"X","pattern":"S","legs":"F"},"bonus":1.1400000000000006},{"rt":1213.3999999761581,"stimulus":"bees-with-color/bee-A1DM.svg","response":0,"trial_type":"image-button-response","trial_index":109,"time_elapsed":400233,"internal_node_id":"0.0-4.0-0.49","subject_id":"611231e33c2e4198943389a9","study_id":"6197b3f67c2b5cd3b6d9596a","session_id":"6197b88b2ca0f0d44bdf3e6c","condition":"full-information","relevant_dimensions":["pattern","legs"],"bee_group":{"antennae":"X","wings":"X","pattern":"S","legs":"F"},"action":"harvest","summary":"good-harvest","bonus":1.1400000000000006},{"rt":804.1000000238419,"stimulus":"\n                    <p><b>Action: <em>harvest</em></b></p>\n                    <p>This is the bee that you just saw.</p>\n                    <img src=\"bees-with-color/bee-A1DM.svg\" width=\"200\">\n                    <p><span class=\"greenText\"><b>Successful harvest!</b></span><br>Your pay has increased by $0.02. Your bonus pay is now $0.84.</p>\n            ","response":0,"trial_type":"html-button-response","trial_index":110,"time_elapsed":401040,"internal_node_id":"0.0-4.0-1.49","subject_id":"611231e33c2e4198943389a9","study_id":"6197b3f67c2b5cd3b6d9596a","session_id":"6197b88b2ca0f0d44bdf3e6c","condition":"full-information","relevant_dimensions":["pattern","legs"],"bee_group":{"antennae":"X","wings":"X","pattern":"S","legs":"F"},"bonus":1.1400000000000006},{"rt":1229.8999999761581,"stimulus":"bees-with-color/bee-B2DF.svg","response":1,"trial_type":"image-button-response","trial_index":111,"time_elapsed":402272,"internal_node_id":"0.0-4.0-0.50","subject_id":"611231e33c2e4198943389a9","study_id":"6197b3f67c2b5cd3b6d9596a","session_id":"6197b88b2ca0f0d44bdf3e6c","condition":"full-information","relevant_dimensions":["pattern","legs"],"bee_group":{"antennae":"X","wings":"X","pattern":"S","legs":"F"},"action":"avoid","summary":"bad-avoid","bonus":1.1400000000000006},{"rt":620.6999999284744,"stimulus":"\n                    <p><b>Action: <em>avoid</em></b></p>\n                    <p>This is the bee that you just saw.</p>\n                    <img src=\"bees-with-color/bee-B2DF.svg\" width=\"200\">\n                    <p><span class=\"redText\">Bad choice,</span> the bee was friendly.<br>Your bonus pay is unchanged, and remains at $0.84.</p>\n            ","response":0,"trial_type":"html-button-response","trial_index":112,"time_elapsed":402896,"internal_node_id":"0.0-4.0-1.50","subject_id":"611231e33c2e4198943389a9","study_id":"6197b3f67c2b5cd3b6d9596a","session_id":"6197b88b2ca0f0d44bdf3e6c","condition":"full-information","relevant_dimensions":["pattern","legs"],"bee_group":{"antennae":"X","wings":"X","pattern":"S","legs":"F"},"bonus":1.1400000000000006},{"rt":2140.899999976158,"stimulus":"bees-with-color/bee-A2DF.svg","response":1,"trial_type":"image-button-response","trial_index":113,"time_elapsed":405040,"internal_node_id":"0.0-4.0-0.51","subject_id":"611231e33c2e4198943389a9","study_id":"6197b3f67c2b5cd3b6d9596a","session_id":"6197b88b2ca0f0d44bdf3e6c","condition":"full-information","relevant_dimensions":["pattern","legs"],"bee_group":{"antennae":"X","wings":"X","pattern":"S","legs":"F"},"action":"avoid","summary":"bad-avoid","bonus":1.1400000000000006},{"rt":861.1000000238419,"stimulus":"\n                    <p><b>Action: <em>avoid</em></b></p>\n                    <p>This is the bee that you just saw.</p>\n                    <img src=\"bees-with-color/bee-A2DF.svg\" width=\"200\">\n                    <p><span class=\"redText\">Bad choice,</span> the bee was friendly.<br>Your bonus pay is unchanged, and remains at $0.84.</p>\n            ","response":0,"trial_type":"html-button-response","trial_index":114,"time_elapsed":405904,"internal_node_id":"0.0-4.0-1.51","subject_id":"611231e33c2e4198943389a9","study_id":"6197b3f67c2b5cd3b6d9596a","session_id":"6197b88b2ca0f0d44bdf3e6c","condition":"full-information","relevant_dimensions":["pattern","legs"],"bee_group":{"antennae":"X","wings":"X","pattern":"S","legs":"F"},"bonus":1.1400000000000006},{"rt":1453.2999999523163,"stimulus":"bees-with-color/bee-A2SF.svg","response":1,"trial_type":"image-button-response","trial_index":115,"time_elapsed":407360,"internal_node_id":"0.0-4.0-0.52","subject_id":"611231e33c2e4198943389a9","study_id":"6197b3f67c2b5cd3b6d9596a","session_id":"6197b88b2ca0f0d44bdf3e6c","condition":"full-information","relevant_dimensions":["pattern","legs"],"bee_group":{"antennae":"X","wings":"X","pattern":"S","legs":"F"},"action":"avoid","summary":"good-avoid","bonus":1.1400000000000006},{"rt":652.8999999761581,"stimulus":"\n                    <p><b>Action: <em>avoid</em></b></p>\n                    <p>This is the bee that you just saw.</p>\n                    <img src=\"bees-with-color/bee-A2SF.svg\" width=\"200\">\n                    <p><span class=\"greenText\">Good choice!</span>  This bee would have stung you.<br>Your bonus pay is unchanged, and remains at $0.84.</p>\n            ","response":0,"trial_type":"html-button-response","trial_index":116,"time_elapsed":408016,"internal_node_id":"0.0-4.0-1.52","subject_id":"611231e33c2e4198943389a9","study_id":"6197b3f67c2b5cd3b6d9596a","session_id":"6197b88b2ca0f0d44bdf3e6c","condition":"full-information","relevant_dimensions":["pattern","legs"],"bee_group":{"antennae":"X","wings":"X","pattern":"S","legs":"F"},"bonus":1.1400000000000006},{"rt":1237.5,"stimulus":"bees-with-color/bee-A2SM.svg","response":0,"trial_type":"image-button-response","trial_index":117,"time_elapsed":409256,"internal_node_id":"0.0-4.0-0.53","subject_id":"611231e33c2e4198943389a9","study_id":"6197b3f67c2b5cd3b6d9596a","session_id":"6197b88b2ca0f0d44bdf3e6c","condition":"full-information","relevant_dimensions":["pattern","legs"],"bee_group":{"antennae":"X","wings":"X","pattern":"S","legs":"F"},"action":"harvest","summary":"good-harvest","bonus":1.1400000000000006},{"rt":748.5,"stimulus":"\n                    <p><b>Action: <em>harvest</em></b></p>\n                    <p>This is the bee that you just saw.</p>\n                    <img src=\"bees-with-color/bee-A2SM.svg\" width=\"200\">\n                    <p><span class=\"greenText\"><b>Successful harvest!</b></span><br>Your pay has increased by $0.02. Your bonus pay is now $0.86.</p>\n            ","response":0,"trial_type":"html-button-response","trial_index":118,"time_elapsed":410008,"internal_node_id":"0.0-4.0-1.53","subject_id":"611231e33c2e4198943389a9","study_id":"6197b3f67c2b5cd3b6d9596a","session_id":"6197b88b2ca0f0d44bdf3e6c","condition":"full-information","relevant_dimensions":["pattern","legs"],"bee_group":{"antennae":"X","wings":"X","pattern":"S","legs":"F"},"bonus":1.1400000000000006},{"rt":1492.8999999761581,"stimulus":"bees-with-color/bee-B2SF.svg","response":1,"trial_type":"image-button-response","trial_index":119,"time_elapsed":411504,"internal_node_id":"0.0-4.0-0.54","subject_id":"611231e33c2e4198943389a9","study_id":"6197b3f67c2b5cd3b6d9596a","session_id":"6197b88b2ca0f0d44bdf3e6c","condition":"full-information","relevant_dimensions":["pattern","legs"],"bee_group":{"antennae":"X","wings":"X","pattern":"S","legs":"F"},"action":"avoid","summary":"good-avoid","bonus":1.1400000000000006},{"rt":661,"stimulus":"\n                    <p><b>Action: <em>avoid</em></b></p>\n                    <p>This is the bee that you just saw.</p>\n                    <img src=\"bees-with-color/bee-B2SF.svg\" width=\"200\">\n                    <p><span class=\"greenText\">Good choice!</span>  This bee would have stung you.<br>Your bonus pay is unchanged, and remains at $0.86.</p>\n            ","response":0,"trial_type":"html-button-response","trial_index":120,"time_elapsed":412168,"internal_node_id":"0.0-4.0-1.54","subject_id":"611231e33c2e4198943389a9","study_id":"6197b3f67c2b5cd3b6d9596a","session_id":"6197b88b2ca0f0d44bdf3e6c","condition":"full-information","relevant_dimensions":["pattern","legs"],"bee_group":{"antennae":"X","wings":"X","pattern":"S","legs":"F"},"bonus":1.1400000000000006},{"rt":1373.2999999523163,"stimulus":"bees-with-color/bee-B1DF.svg","response":0,"trial_type":"image-button-response","trial_index":121,"time_elapsed":413544,"internal_node_id":"0.0-4.0-0.55","subject_id":"611231e33c2e4198943389a9","study_id":"6197b3f67c2b5cd3b6d9596a","session_id":"6197b88b2ca0f0d44bdf3e6c","condition":"full-information","relevant_dimensions":["pattern","legs"],"bee_group":{"antennae":"X","wings":"X","pattern":"S","legs":"F"},"action":"harvest","summary":"good-harvest","bonus":1.1400000000000006},{"rt":765,"stimulus":"\n                    <p><b>Action: <em>harvest</em></b></p>\n                    <p>This is the bee that you just saw.</p>\n                    <img src=\"bees-with-color/bee-B1DF.svg\" width=\"200\">\n                    <p><span class=\"greenText\"><b>Successful harvest!</b></span><br>Your pay has increased by $0.02. Your bonus pay is now $0.88.</p>\n            ","response":0,"trial_type":"html-button-response","trial_index":122,"time_elapsed":414312,"internal_node_id":"0.0-4.0-1.55","subject_id":"611231e33c2e4198943389a9","study_id":"6197b3f67c2b5cd3b6d9596a","session_id":"6197b88b2ca0f0d44bdf3e6c","condition":"full-information","relevant_dimensions":["pattern","legs"],"bee_group":{"antennae":"X","wings":"X","pattern":"S","legs":"F"},"bonus":1.1400000000000006},{"rt":1711.6000000238419,"stimulus":"bees-with-color/bee-B1DM.svg","response":1,"trial_type":"image-button-response","trial_index":123,"time_elapsed":416027,"internal_node_id":"0.0-4.0-0.56","subject_id":"611231e33c2e4198943389a9","study_id":"6197b3f67c2b5cd3b6d9596a","session_id":"6197b88b2ca0f0d44bdf3e6c","condition":"full-information","relevant_dimensions":["pattern","legs"],"bee_group":{"antennae":"X","wings":"X","pattern":"S","legs":"F"},"action":"avoid","summary":"bad-avoid","bonus":1.1400000000000006},{"rt":890.1000000238419,"stimulus":"\n                    <p><b>Action: <em>avoid</em></b></p>\n                    <p>This is the bee that you just saw.</p>\n                    <img src=\"bees-with-color/bee-B1DM.svg\" width=\"200\">\n                    <p><span class=\"redText\">Bad choice,</span> the bee was friendly.<br>Your bonus pay is unchanged, and remains at $0.88.</p>\n            ","response":0,"trial_type":"html-button-response","trial_index":124,"time_elapsed":416920,"internal_node_id":"0.0-4.0-1.56","subject_id":"611231e33c2e4198943389a9","study_id":"6197b3f67c2b5cd3b6d9596a","session_id":"6197b88b2ca0f0d44bdf3e6c","condition":"full-information","relevant_dimensions":["pattern","legs"],"bee_group":{"antennae":"X","wings":"X","pattern":"S","legs":"F"},"bonus":1.1400000000000006},{"rt":1292.5,"stimulus":"bees-with-color/bee-A2DM.svg","response":0,"trial_type":"image-button-response","trial_index":125,"time_elapsed":418216,"internal_node_id":"0.0-4.0-0.57","subject_id":"611231e33c2e4198943389a9","study_id":"6197b3f67c2b5cd3b6d9596a","session_id":"6197b88b2ca0f0d44bdf3e6c","condition":"full-information","relevant_dimensions":["pattern","legs"],"bee_group":{"antennae":"X","wings":"X","pattern":"S","legs":"F"},"action":"harvest","summary":"good-harvest","bonus":1.1400000000000006},{"rt":916.7999999523163,"stimulus":"\n                    <p><b>Action: <em>harvest</em></b></p>\n                    <p>This is the bee that you just saw.</p>\n                    <img src=\"bees-with-color/bee-A2DM.svg\" width=\"200\">\n                    <p><span class=\"greenText\"><b>Successful harvest!</b></span><br>Your pay has increased by $0.02. Your bonus pay is now $0.90.</p>\n            ","response":0,"trial_type":"html-button-response","trial_index":126,"time_elapsed":419136,"internal_node_id":"0.0-4.0-1.57","subject_id":"611231e33c2e4198943389a9","study_id":"6197b3f67c2b5cd3b6d9596a","session_id":"6197b88b2ca0f0d44bdf3e6c","condition":"full-information","relevant_dimensions":["pattern","legs"],"bee_group":{"antennae":"X","wings":"X","pattern":"S","legs":"F"},"bonus":1.1400000000000006},{"rt":1821,"stimulus":"bees-with-color/bee-A1SM.svg","response":0,"trial_type":"image-button-response","trial_index":127,"time_elapsed":420960,"internal_node_id":"0.0-4.0-0.58","subject_id":"611231e33c2e4198943389a9","study_id":"6197b3f67c2b5cd3b6d9596a","session_id":"6197b88b2ca0f0d44bdf3e6c","condition":"full-information","relevant_dimensions":["pattern","legs"],"bee_group":{"antennae":"X","wings":"X","pattern":"S","legs":"F"},"action":"harvest","summary":"good-harvest","bonus":1.1400000000000006},{"rt":732.6000000238419,"stimulus":"\n                    <p><b>Action: <em>harvest</em></b></p>\n                    <p>This is the bee that you just saw.</p>\n                    <img src=\"bees-with-color/bee-A1SM.svg\" width=\"200\">\n                    <p><span class=\"greenText\"><b>Successful harvest!</b></span><br>Your pay has increased by $0.02. Your bonus pay is now $0.92.</p>\n            ","response":0,"trial_type":"html-button-response","trial_index":128,"time_elapsed":421696,"internal_node_id":"0.0-4.0-1.58","subject_id":"611231e33c2e4198943389a9","study_id":"6197b3f67c2b5cd3b6d9596a","session_id":"6197b88b2ca0f0d44bdf3e6c","condition":"full-information","relevant_dimensions":["pattern","legs"],"bee_group":{"antennae":"X","wings":"X","pattern":"S","legs":"F"},"bonus":1.1400000000000006},{"rt":1021.0999999046326,"stimulus":"bees-with-color/bee-A1DF.svg","response":0,"trial_type":"image-button-response","trial_index":129,"time_elapsed":422720,"internal_node_id":"0.0-4.0-0.59","subject_id":"611231e33c2e4198943389a9","study_id":"6197b3f67c2b5cd3b6d9596a","session_id":"6197b88b2ca0f0d44bdf3e6c","condition":"full-information","relevant_dimensions":["pattern","legs"],"bee_group":{"antennae":"X","wings":"X","pattern":"S","legs":"F"},"action":"harvest","summary":"good-harvest","bonus":1.1400000000000006},{"rt":604.5,"stimulus":"\n                    <p><b>Action: <em>harvest</em></b></p>\n                    <p>This is the bee that you just saw.</p>\n                    <img src=\"bees-with-color/bee-A1DF.svg\" width=\"200\">\n                    <p><span class=\"greenText\"><b>Successful harvest!</b></span><br>Your pay has increased by $0.02. Your bonus pay is now $0.94.</p>\n            ","response":0,"trial_type":"html-button-response","trial_index":130,"time_elapsed":423328,"internal_node_id":"0.0-4.0-1.59","subject_id":"611231e33c2e4198943389a9","study_id":"6197b3f67c2b5cd3b6d9596a","session_id":"6197b88b2ca0f0d44bdf3e6c","condition":"full-information","relevant_dimensions":["pattern","legs"],"bee_group":{"antennae":"X","wings":"X","pattern":"S","legs":"F"},"bonus":1.1400000000000006},{"rt":1556.8000000715256,"stimulus":"bees-with-color/bee-B2SM.svg","response":0,"trial_type":"image-button-response","trial_index":131,"time_elapsed":424888,"internal_node_id":"0.0-4.0-0.60","subject_id":"611231e33c2e4198943389a9","study_id":"6197b3f67c2b5cd3b6d9596a","session_id":"6197b88b2ca0f0d44bdf3e6c","condition":"full-information","relevant_dimensions":["pattern","legs"],"bee_group":{"antennae":"X","wings":"X","pattern":"S","legs":"F"},"action":"harvest","summary":"good-harvest","bonus":1.1400000000000006},{"rt":716.5999999046326,"stimulus":"\n                    <p><b>Action: <em>harvest</em></b></p>\n                    <p>This is the bee that you just saw.</p>\n                    <img src=\"bees-with-color/bee-B2SM.svg\" width=\"200\">\n                    <p><span class=\"greenText\"><b>Successful harvest!</b></span><br>Your pay has increased by $0.02. Your bonus pay is now $0.96.</p>\n            ","response":0,"trial_type":"html-button-response","trial_index":132,"time_elapsed":425608,"internal_node_id":"0.0-4.0-1.60","subject_id":"611231e33c2e4198943389a9","study_id":"6197b3f67c2b5cd3b6d9596a","session_id":"6197b88b2ca0f0d44bdf3e6c","condition":"full-information","relevant_dimensions":["pattern","legs"],"bee_group":{"antennae":"X","wings":"X","pattern":"S","legs":"F"},"bonus":1.1400000000000006},{"rt":1428.8000000715256,"stimulus":"bees-with-color/bee-B1SF.svg","response":1,"trial_type":"image-button-response","trial_index":133,"time_elapsed":427040,"internal_node_id":"0.0-4.0-0.61","subject_id":"611231e33c2e4198943389a9","study_id":"6197b3f67c2b5cd3b6d9596a","session_id":"6197b88b2ca0f0d44bdf3e6c","condition":"full-information","relevant_dimensions":["pattern","legs"],"bee_group":{"antennae":"X","wings":"X","pattern":"S","legs":"F"},"action":"avoid","summary":"good-avoid","bonus":1.1400000000000006},{"rt":507,"stimulus":"\n                    <p><b>Action: <em>avoid</em></b></p>\n                    <p>This is the bee that you just saw.</p>\n                    <img src=\"bees-with-color/bee-B1SF.svg\" width=\"200\">\n                    <p><span class=\"greenText\">Good choice!</span>  This bee would have stung you.<br>Your bonus pay is unchanged, and remains at $0.96.</p>\n            ","response":0,"trial_type":"html-button-response","trial_index":134,"time_elapsed":427552,"internal_node_id":"0.0-4.0-1.61","subject_id":"611231e33c2e4198943389a9","study_id":"6197b3f67c2b5cd3b6d9596a","session_id":"6197b88b2ca0f0d44bdf3e6c","condition":"full-information","relevant_dimensions":["pattern","legs"],"bee_group":{"antennae":"X","wings":"X","pattern":"S","legs":"F"},"bonus":1.1400000000000006},{"rt":1293.6999999284744,"stimulus":"bees-with-color/bee-B2DM.svg","response":0,"trial_type":"image-button-response","trial_index":135,"time_elapsed":428848,"internal_node_id":"0.0-4.0-0.62","subject_id":"611231e33c2e4198943389a9","study_id":"6197b3f67c2b5cd3b6d9596a","session_id":"6197b88b2ca0f0d44bdf3e6c","condition":"full-information","relevant_dimensions":["pattern","legs"],"bee_group":{"antennae":"X","wings":"X","pattern":"S","legs":"F"},"action":"harvest","summary":"good-harvest","bonus":1.1400000000000006},{"rt":559.1000000238419,"stimulus":"\n                    <p><b>Action: <em>harvest</em></b></p>\n                    <p>This is the bee that you just saw.</p>\n                    <img src=\"bees-with-color/bee-B2DM.svg\" width=\"200\">\n                    <p><span class=\"greenText\"><b>Successful harvest!</b></span><br>Your pay has increased by $0.02. Your bonus pay is now $0.98.</p>\n            ","response":0,"trial_type":"html-button-response","trial_index":136,"time_elapsed":429410,"internal_node_id":"0.0-4.0-1.62","subject_id":"611231e33c2e4198943389a9","study_id":"6197b3f67c2b5cd3b6d9596a","session_id":"6197b88b2ca0f0d44bdf3e6c","condition":"full-information","relevant_dimensions":["pattern","legs"],"bee_group":{"antennae":"X","wings":"X","pattern":"S","legs":"F"},"bonus":1.1400000000000006},{"rt":1123.6000000238419,"stimulus":"bees-with-color/bee-A1SF.svg","response":1,"trial_type":"image-button-response","trial_index":137,"time_elapsed":430535,"internal_node_id":"0.0-4.0-0.63","subject_id":"611231e33c2e4198943389a9","study_id":"6197b3f67c2b5cd3b6d9596a","session_id":"6197b88b2ca0f0d44bdf3e6c","condition":"full-information","relevant_dimensions":["pattern","legs"],"bee_group":{"antennae":"X","wings":"X","pattern":"S","legs":"F"},"action":"avoid","summary":"good-avoid","bonus":1.1400000000000006},{"rt":533.3999999761581,"stimulus":"\n                    <p><b>Action: <em>avoid</em></b></p>\n                    <p>This is the bee that you just saw.</p>\n                    <img src=\"bees-with-color/bee-A1SF.svg\" width=\"200\">\n                    <p><span class=\"greenText\">Good choice!</span>  This bee would have stung you.<br>Your bonus pay is unchanged, and remains at $0.98.</p>\n            ","response":0,"trial_type":"html-button-response","trial_index":138,"time_elapsed":431071,"internal_node_id":"0.0-4.0-1.63","subject_id":"611231e33c2e4198943389a9","study_id":"6197b3f67c2b5cd3b6d9596a","session_id":"6197b88b2ca0f0d44bdf3e6c","condition":"full-information","relevant_dimensions":["pattern","legs"],"bee_group":{"antennae":"X","wings":"X","pattern":"S","legs":"F"},"bonus":1.1400000000000006},{"rt":6929.899999976158,"stimulus":"You have completed the first part of this experiment.<br><br>You will now begin a shorter second part, in which you will receive no feedback.<br>The same rules regarding bonus pay apply.<br><br>Press any key to begin.","response":"enter","trial_type":"html-keyboard-response","trial_index":139,"time_elapsed":438004,"internal_node_id":"0.0-5.0","subject_id":"611231e33c2e4198943389a9","study_id":"6197b3f67c2b5cd3b6d9596a","session_id":"6197b88b2ca0f0d44bdf3e6c","condition":"full-information","relevant_dimensions":["pattern","legs"],"bee_group":{"antennae":"X","wings":"X","pattern":"S","legs":"F"},"bonus":1.1400000000000006},{"rt":2772.8000000715256,"stimulus":"bees-with-color/bee-A2DF.svg","response":1,"trial_type":"image-button-response","trial_index":140,"time_elapsed":440791,"internal_node_id":"0.0-6.0-0.0","subject_id":"611231e33c2e4198943389a9","study_id":"6197b3f67c2b5cd3b6d9596a","session_id":"6197b88b2ca0f0d44bdf3e6c","condition":"full-information","relevant_dimensions":["pattern","legs"],"bee_group":{"antennae":"X","wings":"X","pattern":"S","legs":"F"},"bonus":1.1400000000000006},{"rt":4395.800000071526,"stimulus":"bees-with-color/bee-B1SF.svg","response":1,"trial_type":"image-button-response","trial_index":141,"time_elapsed":445191,"internal_node_id":"0.0-6.0-0.1","subject_id":"611231e33c2e4198943389a9","study_id":"6197b3f67c2b5cd3b6d9596a","session_id":"6197b88b2ca0f0d44bdf3e6c","condition":"full-information","relevant_dimensions":["pattern","legs"],"bee_group":{"antennae":"X","wings":"X","pattern":"S","legs":"F"},"bonus":1.1400000000000006},{"rt":1043.6000000238419,"stimulus":"bees-with-color/bee-A2SM.svg","response":0,"trial_type":"image-button-response","trial_index":142,"time_elapsed":446239,"internal_node_id":"0.0-6.0-0.2","subject_id":"611231e33c2e4198943389a9","study_id":"6197b3f67c2b5cd3b6d9596a","session_id":"6197b88b2ca0f0d44bdf3e6c","condition":"full-information","relevant_dimensions":["pattern","legs"],"bee_group":{"antennae":"X","wings":"X","pattern":"S","legs":"F"},"bonus":1.1400000000000006},{"rt":1012.3000000715256,"stimulus":"bees-with-color/bee-A2DM.svg","response":0,"trial_type":"image-button-response","trial_index":143,"time_elapsed":447255,"internal_node_id":"0.0-6.0-0.3","subject_id":"611231e33c2e4198943389a9","study_id":"6197b3f67c2b5cd3b6d9596a","session_id":"6197b88b2ca0f0d44bdf3e6c","condition":"full-information","relevant_dimensions":["pattern","legs"],"bee_group":{"antennae":"X","wings":"X","pattern":"S","legs":"F"},"bonus":1.1400000000000006},{"rt":923.8999999761581,"stimulus":"bees-with-color/bee-A1SF.svg","response":1,"trial_type":"image-button-response","trial_index":144,"time_elapsed":448183,"internal_node_id":"0.0-6.0-0.4","subject_id":"611231e33c2e4198943389a9","study_id":"6197b3f67c2b5cd3b6d9596a","session_id":"6197b88b2ca0f0d44bdf3e6c","condition":"full-information","relevant_dimensions":["pattern","legs"],"bee_group":{"antennae":"X","wings":"X","pattern":"S","legs":"F"},"bonus":1.1400000000000006},{"rt":1108.5,"stimulus":"bees-with-color/bee-B2SM.svg","response":0,"trial_type":"image-button-response","trial_index":145,"time_elapsed":449295,"internal_node_id":"0.0-6.0-0.5","subject_id":"611231e33c2e4198943389a9","study_id":"6197b3f67c2b5cd3b6d9596a","session_id":"6197b88b2ca0f0d44bdf3e6c","condition":"full-information","relevant_dimensions":["pattern","legs"],"bee_group":{"antennae":"X","wings":"X","pattern":"S","legs":"F"},"bonus":1.1400000000000006},{"rt":1164.2000000476837,"stimulus":"bees-with-color/bee-B1DM.svg","response":0,"trial_type":"image-button-response","trial_index":146,"time_elapsed":450463,"internal_node_id":"0.0-6.0-0.6","subject_id":"611231e33c2e4198943389a9","study_id":"6197b3f67c2b5cd3b6d9596a","session_id":"6197b88b2ca0f0d44bdf3e6c","condition":"full-information","relevant_dimensions":["pattern","legs"],"bee_group":{"antennae":"X","wings":"X","pattern":"S","legs":"F"},"bonus":1.1400000000000006},{"rt":1107.8999999761581,"stimulus":"bees-with-color/bee-A1DF.svg","response":1,"trial_type":"image-button-response","trial_index":147,"time_elapsed":451575,"internal_node_id":"0.0-6.0-0.7","subject_id":"611231e33c2e4198943389a9","study_id":"6197b3f67c2b5cd3b6d9596a","session_id":"6197b88b2ca0f0d44bdf3e6c","condition":"full-information","relevant_dimensions":["pattern","legs"],"bee_group":{"antennae":"X","wings":"X","pattern":"S","legs":"F"},"bonus":1.1400000000000006},{"rt":1587.8999999761581,"stimulus":"bees-with-color/bee-A1DM.svg","response":0,"trial_type":"image-button-response","trial_index":148,"time_elapsed":453167,"internal_node_id":"0.0-6.0-0.8","subject_id":"611231e33c2e4198943389a9","study_id":"6197b3f67c2b5cd3b6d9596a","session_id":"6197b88b2ca0f0d44bdf3e6c","condition":"full-information","relevant_dimensions":["pattern","legs"],"bee_group":{"antennae":"X","wings":"X","pattern":"S","legs":"F"},"bonus":1.1400000000000006},{"rt":1268.5,"stimulus":"bees-with-color/bee-B1SM.svg","response":1,"trial_type":"image-button-response","trial_index":149,"time_elapsed":454439,"internal_node_id":"0.0-6.0-0.9","subject_id":"611231e33c2e4198943389a9","study_id":"6197b3f67c2b5cd3b6d9596a","session_id":"6197b88b2ca0f0d44bdf3e6c","condition":"full-information","relevant_dimensions":["pattern","legs"],"bee_group":{"antennae":"X","wings":"X","pattern":"S","legs":"F"},"bonus":1.1400000000000006},{"rt":891.7999999523163,"stimulus":"bees-with-color/bee-B2DM.svg","response":0,"trial_type":"image-button-response","trial_index":150,"time_elapsed":455335,"internal_node_id":"0.0-6.0-0.10","subject_id":"611231e33c2e4198943389a9","study_id":"6197b3f67c2b5cd3b6d9596a","session_id":"6197b88b2ca0f0d44bdf3e6c","condition":"full-information","relevant_dimensions":["pattern","legs"],"bee_group":{"antennae":"X","wings":"X","pattern":"S","legs":"F"},"bonus":1.1400000000000006},{"rt":988.3999999761581,"stimulus":"bees-with-color/bee-A1SM.svg","response":1,"trial_type":"image-button-response","trial_index":151,"time_elapsed":456327,"internal_node_id":"0.0-6.0-0.11","subject_id":"611231e33c2e4198943389a9","study_id":"6197b3f67c2b5cd3b6d9596a","session_id":"6197b88b2ca0f0d44bdf3e6c","condition":"full-information","relevant_dimensions":["pattern","legs"],"bee_group":{"antennae":"X","wings":"X","pattern":"S","legs":"F"},"bonus":1.1400000000000006},{"rt":1084.8999999761581,"stimulus":"bees-with-color/bee-B2DF.svg","response":1,"trial_type":"image-button-response","trial_index":152,"time_elapsed":457416,"internal_node_id":"0.0-6.0-0.12","subject_id":"611231e33c2e4198943389a9","study_id":"6197b3f67c2b5cd3b6d9596a","session_id":"6197b88b2ca0f0d44bdf3e6c","condition":"full-information","relevant_dimensions":["pattern","legs"],"bee_group":{"antennae":"X","wings":"X","pattern":"S","legs":"F"},"bonus":1.1400000000000006},{"rt":691.3999999761581,"stimulus":"bees-with-color/bee-B2SF.svg","response":1,"trial_type":"image-button-response","trial_index":153,"time_elapsed":458111,"internal_node_id":"0.0-6.0-0.13","subject_id":"611231e33c2e4198943389a9","study_id":"6197b3f67c2b5cd3b6d9596a","session_id":"6197b88b2ca0f0d44bdf3e6c","condition":"full-information","relevant_dimensions":["pattern","legs"],"bee_group":{"antennae":"X","wings":"X","pattern":"S","legs":"F"},"bonus":1.1400000000000006},{"rt":724.2999999523163,"stimulus":"bees-with-color/bee-A2SF.svg","response":1,"trial_type":"image-button-response","trial_index":154,"time_elapsed":458839,"internal_node_id":"0.0-6.0-0.14","subject_id":"611231e33c2e4198943389a9","study_id":"6197b3f67c2b5cd3b6d9596a","session_id":"6197b88b2ca0f0d44bdf3e6c","condition":"full-information","relevant_dimensions":["pattern","legs"],"bee_group":{"antennae":"X","wings":"X","pattern":"S","legs":"F"},"bonus":1.1400000000000006},{"rt":1340.3999999761581,"stimulus":"bees-with-color/bee-B1DF.svg","response":0,"trial_type":"image-button-response","trial_index":155,"time_elapsed":460183,"internal_node_id":"0.0-6.0-0.15","subject_id":"611231e33c2e4198943389a9","study_id":"6197b3f67c2b5cd3b6d9596a","session_id":"6197b88b2ca0f0d44bdf3e6c","condition":"full-information","relevant_dimensions":["pattern","legs"],"bee_group":{"antennae":"X","wings":"X","pattern":"S","legs":"F"},"bonus":1.1400000000000006},{"rt":805,"stimulus":"bees-with-color/bee-B2SF.svg","response":1,"trial_type":"image-b