[{"success":true,"trial_type":"fullscreen","trial_index":0,"time_elapsed":14241,"internal_node_id":"0.0-0.0","subject_id":"5f600669b846780f0fe45709","study_id":"6197b3f67c2b5cd3b6d9596a","session_id":"619be786611723d14c203d2f","condition":"contingent","relevant_dimensions":["pattern","legs"],"bee_group":{"antennae":"X","wings":"X","pattern":"D","legs":"F"},"bonus":1.660000000000001},{"success":true,"timeout":false,"failed_images":[],"failed_audio":[],"failed_video":[],"trial_type":"preload","trial_index":1,"time_elapsed":17249,"internal_node_id":"0.0-1.0","subject_id":"5f600669b846780f0fe45709","study_id":"6197b3f67c2b5cd3b6d9596a","session_id":"619be786611723d14c203d2f","condition":"contingent","relevant_dimensions":["pattern","legs"],"bee_group":{"antennae":"X","wings":"X","pattern":"D","legs":"F"},"bonus":1.660000000000001},{"rt":1387.3999999761581,"stimulus":"Welcome! Press any key to begin.","response":" ","trial_type":"html-keyboard-response","trial_index":2,"time_elapsed":18638,"internal_node_id":"0.0-2.0","subject_id":"5f600669b846780f0fe45709","study_id":"6197b3f67c2b5cd3b6d9596a","session_id":"619be786611723d14c203d2f","condition":"contingent","relevant_dimensions":["pattern","legs"],"bee_group":{"antennae":"X","wings":"X","pattern":"D","legs":"F"},"bonus":1.660000000000001},{"view_history":[{"page_index":0,"viewing_time":3295.3000000715256},{"page_index":1,"viewing_time":14111.799999952316},{"page_index":2,"viewing_time":26175.899999976158},{"page_index":3,"viewing_time":17015.700000047684},{"page_index":4,"viewing_time":7456.100000023842},{"page_index":5,"viewing_time":9951.799999952316},{"page_index":6,"viewing_time":21592},{"page_index":7,"viewing_time":10567.799999952316},{"page_index":8,"viewing_time":7519.900000095367},{"page_index":9,"viewing_time":6064},{"page_index":10,"viewing_time":7983.899999976158},{"page_index":11,"viewing_time":13279.799999952316},{"page_index":12,"viewing_time":10744},{"page_index":13,"viewing_time":1239.8999999761581},{"page_index":14,"viewing_time":3320}],"rt":160318.30000007153,"trial_type":"instructions","trial_index":3,"time_elapsed":178957,"internal_node_id":"0.0-3.0-0.0","subject_id":"5f600669b846780f0fe45709","study_id":"6197b3f67c2b5cd3b6d9596a","session_id":"619be786611723d14c203d2f","condition":"contingent","relevant_dimensions":["pattern","legs"],"bee_group":{"antennae":"X","wings":"X","pattern":"D","legs":"F"},"bonus":1.660000000000001},{"rt":23012.400000095367,"response":{"Q0":["Two or six legs","Stripes or spots on body","Single or double wings","Antennae or no antennae"]},"question_order":[0],"trial_type":"survey-multi-select","trial_index":4,"time_elapsed":201973,"internal_node_id":"0.0-3.0-1.0","subject_id":"5f600669b846780f0fe45709","study_id":"6197b3f67c2b5cd3b6d9596a","session_id":"619be786611723d14c203d2f","condition":"contingent","relevant_dimensions":["pattern","legs"],"bee_group":{"antennae":"X","wings":"X","pattern":"D","legs":"F"},"correct":true,"bonus":1.660000000000001},{"rt":42778.300000071526,"response":{"Q1":"Yes.","Q2":"Based on the four features of the bee.","Q3":"You do not learn if it was friendly or dangerous, and do not alter your bonus."},"question_order":[0,1,2],"trial_type":"survey-multi-choice","trial_index":5,"time_elapsed":244757,"internal_node_id":"0.0-3.0-2.0","subject_id":"5f600669b846780f0fe45709","study_id":"6197b3f67c2b5cd3b6d9596a","session_id":"619be786611723d14c203d2f","condition":"contingent","relevant_dimensions":["pattern","legs"],"bee_group":{"antennae":"X","wings":"X","pattern":"D","legs":"F"},"correct":false,"bonus":1.660000000000001},{"rt":5154.899999976158,"stimulus":"<p>You did not answer all comprehension questions correctly.<br>Press <b>continue</b> to review the instructions again.</p>","response":0,"trial_type":"html-button-response","trial_index":6,"time_elapsed":249917,"internal_node_id":"0.0-3.0-3.0","subject_id":"5f600669b846780f0fe45709","study_id":"6197b3f67c2b5cd3b6d9596a","session_id":"619be786611723d14c203d2f","condition":"contingent","relevant_dimensions":["pattern","legs"],"bee_group":{"antennae":"X","wings":"X","pattern":"D","legs":"F"},"bonus":1.660000000000001},{"view_history":[{"page_index":0,"viewing_time":3286},{"page_index":1,"viewing_time":17847.800000071526},{"page_index":2,"viewing_time":15631.899999976158},{"page_index":3,"viewing_time":12144.100000023842},{"page_index":4,"viewing_time":5951.699999928474},{"page_index":5,"viewing_time":6704},{"page_index":6,"viewing_time":6543.900000095367},{"page_index":7,"viewing_time":5448},{"page_index":8,"viewing_time":4840.099999904633},{"page_index":9,"viewing_time":7951.800000071526},{"page_index":10,"viewing_time":4032.399999976158},{"page_index":11,"viewing_time":14767.399999976158},{"page_index":12,"viewing_time":2079.8000000715256},{"page_index":13,"viewing_time":1248.1999999284744},{"page_index":14,"viewing_time":952}],"rt":109429.5,"trial_type":"instructions","trial_index":7,"time_elapsed":359348,"internal_node_id":"0.0-3.0-4.0-0.0","subject_id":"5f600669b846780f0fe45709","study_id":"6197b3f67c2b5cd3b6d9596a","session_id":"619be786611723d14c203d2f","condition":"contingent","relevant_dimensions":["pattern","legs"],"bee_group":{"antennae":"X","wings":"X","pattern":"D","legs":"F"},"bonus":1.660000000000001},{"rt":10763.799999952316,"response":{"Q0":["Two or six legs","Stripes or spots on body","Single or double wings","Antennae or no antennae"]},"question_order":[0],"trial_type":"survey-multi-select","trial_index":8,"time_elapsed":370116,"internal_node_id":"0.0-3.0-4.0-1.0","subject_id":"5f600669b846780f0fe45709","study_id":"6197b3f67c2b5cd3b6d9596a","session_id":"619be786611723d14c203d2f","condition":"contingent","relevant_dimensions":["pattern","legs"],"bee_group":{"antennae":"X","wings":"X","pattern":"D","legs":"F"},"correct":true,"bonus":1.660000000000001},{"rt":15747,"response":{"Q1":"No.","Q2":"Based on the four features of the bee.","Q3":"You do not learn if it was friendly or dangerous, and do not alter your bonus."},"question_order":[0,1,2],"trial_type":"survey-multi-choice","trial_index":9,"time_elapsed":385868,"internal_node_id":"0.0-3.0-4.0-2.0","subject_id":"5f600669b846780f0fe45709","study_id":"6197b3f67c2b5cd3b6d9596a","session_id":"619be786611723d14c203d2f","condition":"contingent","relevant_dimensions":["pattern","legs"],"bee_group":{"antennae":"X","wings":"X","pattern":"D","legs":"F"},"correct":true,"bonus":1.660000000000001},{"rt":1499.6000000238419,"stimulus":"<p>Congrats, you got everything right<br>When you're ready, click the button below to continue to the experiment.</p>","response":0,"trial_type":"html-button-response","trial_index":10,"time_elapsed":387371,"internal_node_id":"0.0-3.0-4.0-3.0","subject_id":"5f600669b846780f0fe45709","study_id":"6197b3f67c2b5cd3b6d9596a","session_id":"619be786611723d14c203d2f","condition":"contingent","relevant_dimensions":["pattern","legs"],"bee_group":{"antennae":"X","wings":"X","pattern":"D","legs":"F"},"bonus":1.660000000000001},{"rt":6605.399999976158,"stimulus":"bees-with-color/bee-A2DF.svg","response":0,"trial_type":"image-button-response","trial_index":11,"time_elapsed":393980,"internal_node_id":"0.0-4.0-0.0","subject_id":"5f600669b846780f0fe45709","study_id":"6197b3f67c2b5cd3b6d9596a","session_id":"619be786611723d14c203d2f","condition":"contingent","relevant_dimensions":["pattern","legs"],"bee_group":{"antennae":"X","wings":"X","pattern":"D","legs":"F"},"action":"harvest","summary":"bad-harvest","bonus":1.660000000000001},{"rt":4732.700000047684,"stimulus":"\n                    <p><b>Action: <em>harvest</em></b></p>\n                    <p>This is the bee that you just saw.</p>\n                    <img src=\"bees-with-color/bee-A2DF.svg\" width=\"200\">\n                    <p><span class=\"redText\">Bad choice, the bee was angry.</span><br><b>You have been stung!</b><br>Your pay has been decreased by $0.10. Your bonus pay is now $0.44.</p>\n            ","response":0,"trial_type":"html-button-response","trial_index":12,"time_elapsed":398715,"internal_node_id":"0.0-4.0-1.0","subject_id":"5f600669b846780f0fe45709","study_id":"6197b3f67c2b5cd3b6d9596a","session_id":"619be786611723d14c203d2f","condition":"contingent","relevant_dimensions":["pattern","legs"],"bee_group":{"antennae":"X","wings":"X","pattern":"D","legs":"F"},"bonus":1.660000000000001},{"rt":3101.600000023842,"stimulus":"bees-with-color/bee-A1SF.svg","response":0,"trial_type":"image-button-response","trial_index":13,"time_elapsed":401819,"internal_node_id":"0.0-4.0-0.1","subject_id":"5f600669b846780f0fe45709","study_id":"6197b3f67c2b5cd3b6d9596a","session_id":"619be786611723d14c203d2f","condition":"contingent","relevant_dimensions":["pattern","legs"],"bee_group":{"antennae":"X","wings":"X","pattern":"D","legs":"F"},"action":"harvest","summary":"good-harvest","bonus":1.660000000000001},{"rt":5206.299999952316,"stimulus":"\n                    <p><b>Action: <em>harvest</em></b></p>\n                    <p>This is the bee that you just saw.</p>\n                    <img src=\"bees-with-color/bee-A1SF.svg\" width=\"200\">\n                    <p><span class=\"greenText\"><b>Successful harvest!</b></span><br>Your pay has increased by $0.02. Your bonus pay is now $0.46.</p>\n            ","response":0,"trial_type":"html-button-response","trial_index":14,"time_elapsed":407027,"internal_node_id":"0.0-4.0-1.1","subject_id":"5f600669b846780f0fe45709","study_id":"6197b3f67c2b5cd3b6d9596a","session_id":"619be786611723d14c203d2f","condition":"contingent","relevant_dimensions":["pattern","legs"],"bee_group":{"antennae":"X","wings":"X","pattern":"D","legs":"F"},"bonus":1.660000000000001},{"rt":2229.600000023842,"stimulus":"bees-with-color/bee-B1DF.svg","response":1,"trial_type":"image-button-response","trial_index":15,"time_elapsed":409259,"internal_node_id":"0.0-4.0-0.2","subject_id":"5f600669b846780f0fe45709","study_id":"6197b3f67c2b5cd3b6d9596a","session_id":"619be786611723d14c203d2f","condition":"contingent","relevant_dimensions":["pattern","legs"],"bee_group":{"antennae":"X","wings":"X","pattern":"D","legs":"F"},"action":"avoid","summary":"good-avoid","bonus":1.660000000000001},{"rt":3550.399999976158,"stimulus":"\n                    <p><b>Action: <em>avoid</em></b></p>\n                    <p>This is the bee that you just saw.</p>\n                    <img src=\"bees-with-color/bee-B1DF.svg\" width=\"200\">\n                    <p><br>Your bonus pay is unchanged, and remains at $0.46.</p>\n            ","response":0,"trial_type":"html-button-response","trial_index":16,"time_elapsed":412811,"internal_node_id":"0.0-4.0-1.2","subject_id":"5f600669b846780f0fe45709","study_id":"6197b3f67c2b5cd3b6d9596a","session_id":"619be786611723d14c203d2f","condition":"contingent","relevant_dimensions":["pattern","legs"],"bee_group":{"antennae":"X","wings":"X","pattern":"D","legs":"F"},"bonus":1.660000000000001},{"rt":2646.2999999523163,"stimulus":"bees-with-color/bee-B2DM.svg","response":1,"trial_type":"image-button-response","trial_index":17,"time_elapsed":415459,"internal_node_id":"0.0-4.0-0.3","subject_id":"5f600669b846780f0fe45709","study_id":"6197b3f67c2b5cd3b6d9596a","session_id":"619be786611723d14c203d2f","condition":"contingent","relevant_dimensions":["pattern","legs"],"bee_group":{"antennae":"X","wings":"X","pattern":"D","legs":"F"},"action":"avoid","summary":"bad-avoid","bonus":1.660000000000001},{"rt":1646.1999999284744,"stimulus":"\n                    <p><b>Action: <em>avoid</em></b></p>\n                    <p>This is the bee that you just saw.</p>\n                    <img src=\"bees-with-color/bee-B2DM.svg\" width=\"200\">\n                    <p><br>Your bonus pay is unchanged, and remains at $0.46.</p>\n            ","response":0,"trial_type":"html-button-response","trial_index":18,"time_elapsed":417107,"internal_node_id":"0.0-4.0-1.3","subject_id":"5f600669b846780f0fe45709","study_id":"6197b3f67c2b5cd3b6d9596a","session_id":"619be786611723d14c203d2f","condition":"contingent","relevant_dimensions":["pattern","legs"],"bee_group":{"antennae":"X","wings":"X","pattern":"D","legs":"F"},"bonus":1.660000000000001},{"rt":1494.1000000238419,"stimulus":"bees-with-color/bee-B2SF.svg","response":0,"trial_type":"image-button-response","trial_index":19,"time_elapsed":418603,"internal_node_id":"0.0-4.0-0.4","subject_id":"5f600669b846780f0fe45709","study_id":"6197b3f67c2b5cd3b6d9596a","session_id":"619be786611723d14c203d2f","condition":"contingent","relevant_dimensions":["pattern","legs"],"bee_group":{"antennae":"X","wings":"X","pattern":"D","legs":"F"},"action":"harvest","summary":"good-harvest","bonus":1.660000000000001},{"rt":2813.899999976158,"stimulus":"\n                    <p><b>Action: <em>harvest</em></b></p>\n                    <p>This is the bee that you just saw.</p>\n                    <img src=\"bees-with-color/bee-B2SF.svg\" width=\"200\">\n                    <p><span class=\"greenText\"><b>Successful harvest!</b></span><br>Your pay has increased by $0.02. Your bonus pay is now $0.48.</p>\n            ","response":0,"trial_type":"html-button-response","trial_index":20,"time_elapsed":421419,"internal_node_id":"0.0-4.0-1.4","subject_id":"5f600669b846780f0fe45709","study_id":"6197b3f67c2b5cd3b6d9596a","session_id":"619be786611723d14c203d2f","condition":"contingent","relevant_dimensions":["pattern","legs"],"bee_group":{"antennae":"X","wings":"X","pattern":"D","legs":"F"},"bonus":1.660000000000001},{"rt":2269.6999999284744,"stimulus":"bees-with-color/bee-B1SM.svg","response":0,"trial_type":"image-button-response","trial_index":21,"time_elapsed":423691,"internal_node_id":"0.0-4.0-0.5","subject_id":"5f600669b846780f0fe45709","study_id":"6197b3f67c2b5cd3b6d9596a","session_id":"619be786611723d14c203d2f","condition":"contingent","relevant_dimensions":["pattern","legs"],"bee_group":{"antennae":"X","wings":"X","pattern":"D","legs":"F"},"action":"harvest","summary":"good-harvest","bonus":1.660000000000001},{"rt":1678.1000000238419,"stimulus":"\n                    <p><b>Action: <em>harvest</em></b></p>\n                    <p>This is the bee that you just saw.</p>\n                    <img src=\"bees-with-color/bee-B1SM.svg\" width=\"200\">\n                    <p><span class=\"greenText\"><b>Successful harvest!</b></span><br>Your pay has increased by $0.02. Your bonus pay is now $0.50.</p>\n            ","response":0,"trial_type":"html-button-response","trial_index":22,"time_elapsed":425371,"internal_node_id":"0.0-4.0-1.5","subject_id":"5f600669b846780f0fe45709","study_id":"6197b3f67c2b5cd3b6d9596a","session_id":"619be786611723d14c203d2f","condition":"contingent","relevant_dimensions":["pattern","legs"],"bee_group":{"antennae":"X","wings":"X","pattern":"D","legs":"F"},"bonus":1.660000000000001},{"rt":1573.8999999761581,"stimulus":"bees-with-color/bee-A1DM.svg","response":1,"trial_type":"image-button-response","trial_index":23,"time_elapsed":426947,"internal_node_id":"0.0-4.0-0.6","subject_id":"5f600669b846780f0fe45709","study_id":"6197b3f67c2b5cd3b6d9596a","session_id":"619be786611723d14c203d2f","condition":"contingent","relevant_dimensions":["pattern","legs"],"bee_group":{"antennae":"X","wings":"X","pattern":"D","legs":"F"},"action":"avoid","summary":"bad-avoid","bonus":1.660000000000001},{"rt":1966,"stimulus":"\n                    <p><b>Action: <em>avoid</em></b></p>\n                    <p>This is the bee that you just saw.</p>\n                    <img src=\"bees-with-color/bee-A1DM.svg\" width=\"200\">\n                    <p><br>Your bonus pay is unchanged, and remains at $0.50.</p>\n            ","response":0,"trial_type":"html-button-response","trial_index":24,"time_elapsed":428915,"internal_node_id":"0.0-4.0-1.6","subject_id":"5f600669b846780f0fe45709","study_id":"6197b3f67c2b5cd3b6d9596a","session_id":"619be786611723d14c203d2f","condition":"contingent","relevant_dimensions":["pattern","legs"],"bee_group":{"antennae":"X","wings":"X","pattern":"D","legs":"F"},"bonus":1.660000000000001},{"rt":1582.1999999284744,"stimulus":"bees-with-color/bee-A2SF.svg","response":0,"trial_type":"image-button-response","trial_index":25,"time_elapsed":430499,"internal_node_id":"0.0-4.0-0.7","subject_id":"5f600669b846780f0fe45709","study_id":"6197b3f67c2b5cd3b6d9596a","session_id":"619be786611723d14c203d2f","condition":"contingent","relevant_dimensions":["pattern","legs"],"bee_group":{"antennae":"X","wings":"X","pattern":"D","legs":"F"},"action":"harvest","summary":"good-harvest","bonus":1.660000000000001},{"rt":1718.1999999284744,"stimulus":"\n                    <p><b>Action: <em>harvest</em></b></p>\n                    <p>This is the bee that you just saw.</p>\n                    <img src=\"bees-with-color/bee-A2SF.svg\" width=\"200\">\n                    <p><span class=\"greenText\"><b>Successful harvest!</b></span><br>Your pay has increased by $0.02. Your bonus pay is now $0.52.</p>\n            ","response":0,"trial_type":"html-button-response","trial_index":26,"time_elapsed":432219,"internal_node_id":"0.0-4.0-1.7","subject_id":"5f600669b846780f0fe45709","study_id":"6197b3f67c2b5cd3b6d9596a","session_id":"619be786611723d14c203d2f","condition":"contingent","relevant_dimensions":["pattern","legs"],"bee_group":{"antennae":"X","wings":"X","pattern":"D","legs":"F"},"bonus":1.660000000000001},{"rt":1701.8000000715256,"stimulus":"bees-with-color/bee-B1DM.svg","response":1,"trial_type":"image-button-response","trial_index":27,"time_elapsed":433923,"internal_node_id":"0.0-4.0-0.8","subject_id":"5f600669b846780f0fe45709","study_id":"6197b3f67c2b5cd3b6d9596a","session_id":"619be786611723d14c203d2f","condition":"contingent","relevant_dimensions":["pattern","legs"],"bee_group":{"antennae":"X","wings":"X","pattern":"D","legs":"F"},"action":"avoid","summary":"bad-avoid","bonus":1.660000000000001},{"rt":1318.1000000238419,"stimulus":"\n                    <p><b>Action: <em>avoid</em></b></p>\n                    <p>This is the bee that you just saw.</p>\n                    <img src=\"bees-with-color/bee-B1DM.svg\" width=\"200\">\n                    <p><br>Your bonus pay is unchanged, and remains at $0.52.</p>\n            ","response":0,"trial_type":"html-button-response","trial_index":28,"time_elapsed":435243,"internal_node_id":"0.0-4.0-1.8","subject_id":"5f600669b846780f0fe45709","study_id":"6197b3f67c2b5cd3b6d9596a","session_id":"619be786611723d14c203d2f","condition":"contingent","relevant_dimensions":["pattern","legs"],"bee_group":{"antennae":"X","wings":"X","pattern":"D","legs":"F"},"bonus":1.660000000000001},{"rt":1774.2999999523163,"stimulus":"bees-with-color/bee-A2DM.svg","response":1,"trial_type":"image-button-response","trial_index":29,"time_elapsed":437019,"internal_node_id":"0.0-4.0-0.9","subject_id":"5f600669b846780f0fe45709","study_id":"6197b3f67c2b5cd3b6d9596a","session_id":"619be786611723d14c203d2f","condition":"contingent","relevant_dimensions":["pattern","legs"],"bee_group":{"antennae":"X","wings":"X","pattern":"D","legs":"F"},"action":"avoid","summary":"bad-avoid","bonus":1.660000000000001},{"rt":782.1999999284744,"stimulus":"\n                    <p><b>Action: <em>avoid</em></b></p>\n                    <p>This is the bee that you just saw.</p>\n                    <img src=\"bees-with-color/bee-A2DM.svg\" width=\"200\">\n                    <p><br>Your bonus pay is unchanged, and remains at $0.52.</p>\n            ","response":0,"trial_type":"html-button-response","trial_index":30,"time_elapsed":437803,"internal_node_id":"0.0-4.0-1.9","subject_id":"5f600669b846780f0fe45709","study_id":"6197b3f67c2b5cd3b6d9596a","session_id":"619be786611723d14c203d2f","condition":"contingent","relevant_dimensions":["pattern","legs"],"bee_group":{"antennae":"X","wings":"X","pattern":"D","legs":"F"},"bonus":1.660000000000001},{"rt":934,"stimulus":"bees-with-color/bee-A2SM.svg","response":0,"trial_type":"image-button-response","trial_index":31,"time_elapsed":438739,"internal_node_id":"0.0-4.0-0.10","subject_id":"5f600669b846780f0fe45709","study_id":"6197b3f67c2b5cd3b6d9596a","session_id":"619be786611723d14c203d2f","condition":"contingent","relevant_dimensions":["pattern","legs"],"bee_group":{"antennae":"X","wings":"X","pattern":"D","legs":"F"},"action":"harvest","summary":"good-harvest","bonus":1.660000000000001},{"rt":1846.2999999523163,"stimulus":"\n                    <p><b>Action: <em>harvest</em></b></p>\n                    <p>This is the bee that you just saw.</p>\n                    <img src=\"bees-with-color/bee-A2SM.svg\" width=\"200\">\n                    <p><span class=\"greenText\"><b>Successful harvest!</b></span><br>Your pay has increased by $0.02. Your bonus pay is now $0.54.</p>\n            ","response":0,"trial_type":"html-button-response","trial_index":32,"time_elapsed":440587,"internal_node_id":"0.0-4.0-1.10","subject_id":"5f600669b846780f0fe45709","study_id":"6197b3f67c2b5cd3b6d9596a","session_id":"619be786611723d14c203d2f","condition":"contingent","relevant_dimensions":["pattern","legs"],"bee_group":{"antennae":"X","wings":"X","pattern":"D","legs":"F"},"bonus":1.660000000000001},{"rt":1782.4000000953674,"stimulus":"bees-with-color/bee-B2DF.svg","response":1,"trial_type":"image-button-response","trial_index":33,"time_elapsed":442371,"internal_node_id":"0.0-4.0-0.11","subject_id":"5f600669b846780f0fe45709","study_id":"6197b3f67c2b5cd3b6d9596a","session_id":"619be786611723d14c203d2f","condition":"contingent","relevant_dimensions":["pattern","legs"],"bee_group":{"antennae":"X","wings":"X","pattern":"D","legs":"F"},"action":"avoid","summary":"good-avoid","bonus":1.660000000000001},{"rt":1126.2000000476837,"stimulus":"\n                    <p><b>Action: <em>avoid</em></b></p>\n                    <p>This is the bee that you just saw.</p>\n                    <img src=\"bees-with-color/bee-B2DF.svg\" width=\"200\">\n                    <p><br>Your bonus pay is unchanged, and remains at $0.54.</p>\n            ","response":0,"trial_type":"html-button-response","trial_index":34,"time_elapsed":443499,"internal_node_id":"0.0-4.0-1.11","subject_id":"5f600669b846780f0fe45709","study_id":"6197b3f67c2b5cd3b6d9596a","session_id":"619be786611723d14c203d2f","condition":"contingent","relevant_dimensions":["pattern","legs"],"bee_group":{"antennae":"X","wings":"X","pattern":"D","legs":"F"},"bonus":1.660000000000001},{"rt":1078,"stimulus":"bees-with-color/bee-B2SM.svg","response":0,"trial_type":"image-button-response","trial_index":35,"time_elapsed":444579,"internal_node_id":"0.0-4.0-0.12","subject_id":"5f600669b846780f0fe45709","study_id":"6197b3f67c2b5cd3b6d9596a","session_id":"619be786611723d14c203d2f","condition":"contingent","relevant_dimensions":["pattern","legs"],"bee_group":{"antennae":"X","wings":"X","pattern":"D","legs":"F"},"action":"harvest","summary":"good-harvest","bonus":1.660000000000001},{"rt":1446.2999999523163,"stimulus":"\n                    <p><b>Action: <em>harvest</em></b></p>\n                    <p>This is the bee that you just saw.</p>\n                    <img src=\"bees-with-color/bee-B2SM.svg\" width=\"200\">\n                    <p><span class=\"greenText\"><b>Successful harvest!</b></span><br>Your pay has increased by $0.02. Your bonus pay is now $0.56.</p>\n            ","response":0,"trial_type":"html-button-response","trial_index":36,"time_elapsed":446027,"internal_node_id":"0.0-4.0-1.12","subject_id":"5f600669b846780f0fe45709","study_id":"6197b3f67c2b5cd3b6d9596a","session_id":"619be786611723d14c203d2f","condition":"contingent","relevant_dimensions":["pattern","legs"],"bee_group":{"antennae":"X","wings":"X","pattern":"D","legs":"F"},"bonus":1.660000000000001},{"rt":1478.2000000476837,"stimulus":"bees-with-color/bee-A1SM.svg","response":0,"trial_type":"image-button-response","trial_index":37,"time_elapsed":447507,"internal_node_id":"0.0-4.0-0.13","subject_id":"5f600669b846780f0fe45709","study_id":"6197b3f67c2b5cd3b6d9596a","session_id":"619be786611723d14c203d2f","condition":"contingent","relevant_dimensions":["pattern","legs"],"bee_group":{"antennae":"X","wings":"X","pattern":"D","legs":"F"},"action":"harvest","summary":"good-harvest","bonus":1.660000000000001},{"rt":1086.1000000238419,"stimulus":"\n                    <p><b>Action: <em>harvest</em></b></p>\n                    <p>This is the bee that you just saw.</p>\n                    <img src=\"bees-with-color/bee-A1SM.svg\" width=\"200\">\n                    <p><span class=\"greenText\"><b>Successful harvest!</b></span><br>Your pay has increased by $0.02. Your bonus pay is now $0.58.</p>\n            ","response":0,"trial_type":"html-button-response","trial_index":38,"time_elapsed":448595,"internal_node_id":"0.0-4.0-1.13","subject_id":"5f600669b846780f0fe45709","study_id":"6197b3f67c2b5cd3b6d9596a","session_id":"619be786611723d14c203d2f","condition":"contingent","relevant_dimensions":["pattern","legs"],"bee_group":{"antennae":"X","wings":"X","pattern":"D","legs":"F"},"bonus":1.660000000000001},{"rt":1438.3000000715256,"stimulus":"bees-with-color/bee-A1DF.svg","response":1,"trial_type":"image-button-response","trial_index":39,"time_elapsed":450035,"internal_node_id":"0.0-4.0-0.14","subject_id":"5f600669b846780f0fe45709","study_id":"6197b3f67c2b5cd3b6d9596a","session_id":"619be786611723d14c203d2f","condition":"contingent","relevant_dimensions":["pattern","legs"],"bee_group":{"antennae":"X","wings":"X","pattern":"D","legs":"F"},"action":"avoid","summary":"good-avoid","bonus":1.660000000000001},{"rt":1094.1999999284744,"stimulus":"\n                    <p><b>Action: <em>avoid</em></b></p>\n                    <p>This is the bee that you just saw.</p>\n                    <img src=\"bees-with-color/bee-A1DF.svg\" width=\"200\">\n                    <p><br>Your bonus pay is unchanged, and remains at $0.58.</p>\n            ","response":0,"trial_type":"html-button-response","trial_index":40,"time_elapsed":451131,"internal_node_id":"0.0-4.0-1.14","subject_id":"5f600669b846780f0fe45709","study_id":"6197b3f67c2b5cd3b6d9596a","session_id":"619be786611723d14c203d2f","condition":"contingent","relevant_dimensions":["pattern","legs"],"bee_group":{"antennae":"X","wings":"X","pattern":"D","legs":"F"},"bonus":1.660000000000001},{"rt":966,"stimulus":"bees-with-color/bee-B1SF.svg","response":0,"trial_type":"image-button-response","trial_index":41,"time_elapsed":452099,"internal_node_id":"0.0-4.0-0.15","subject_id":"5f600669b846780f0fe45709","study_id":"6197b3f67c2b5cd3b6d9596a","session_id":"619be786611723d14c203d2f","condition":"contingent","relevant_dimensions":["pattern","legs"],"bee_group":{"antennae":"X","wings":"X","pattern":"D","legs":"F"},"action":"harvest","summary":"good-harvest","bonus":1.660000000000001},{"rt":1070.1000000238419,"stimulus":"\n                    <p><b>Action: <em>harvest</em></b></p>\n                    <p>This is the bee that you just saw.</p>\n                    <img src=\"bees-with-color/bee-B1SF.svg\" width=\"200\">\n                    <p><span class=\"greenText\"><b>Successful harvest!</b></span><br>Your pay has increased by $0.02. Your bonus pay is now $0.60.</p>\n            ","response":0,"trial_type":"html-button-response","trial_index":42,"time_elapsed":453171,"internal_node_id":"0.0-4.0-1.15","subject_id":"5f600669b846780f0fe45709","study_id":"6197b3f67c2b5cd3b6d9596a","session_id":"619be786611723d14c203d2f","condition":"contingent","relevant_dimensions":["pattern","legs"],"bee_group":{"antennae":"X","wings":"X","pattern":"D","legs":"F"},"bonus":1.660000000000001},{"rt":1118.1000000238419,"stimulus":"bees-with-color/bee-A1SF.svg","response":0,"trial_type":"image-button-response","trial_index":43,"time_elapsed":454291,"internal_node_id":"0.0-4.0-0.16","subject_id":"5f600669b846780f0fe45709","study_id":"6197b3f67c2b5cd3b6d9596a","session_id":"619be786611723d14c203d2f","condition":"contingent","relevant_dimensions":["pattern","legs"],"bee_group":{"antennae":"X","wings":"X","pattern":"D","legs":"F"},"action":"harvest","summary":"good-harvest","bonus":1.660000000000001},{"rt":1021.8999999761581,"stimulus":"\n                    <p><b>Action: <em>harvest</em></b></p>\n                    <p>This is the bee that you just saw.</p>\n                    <img src=\"bees-with-color/bee-A1SF.svg\" width=\"200\">\n                    <p><span class=\"greenText\"><b>Successful harvest!</b></span><br>Your pay has increased by $0.02. Your bonus pay is now $0.62.</p>\n            ","response":0,"trial_type":"html-button-response","trial_index":44,"time_elapsed":455315,"internal_node_id":"0.0-4.0-1.16","subject_id":"5f600669b846780f0fe45709","study_id":"6197b3f67c2b5cd3b6d9596a","session_id":"619be786611723d14c203d2f","condition":"contingent","relevant_dimensions":["pattern","legs"],"bee_group":{"antennae":"X","wings":"X","pattern":"D","legs":"F"},"bonus":1.660000000000001},{"rt":1654.1000000238419,"stimulus":"bees-with-color/bee-B1DM.svg","response":1,"trial_type":"image-button-response","trial_index":45,"time_elapsed":456971,"internal_node_id":"0.0-4.0-0.17","subject_id":"5f600669b846780f0fe45709","study_id":"6197b3f67c2b5cd3b6d9596a","session_id":"619be786611723d14c203d2f","condition":"contingent","relevant_dimensions":["pattern","legs"],"bee_group":{"antennae":"X","wings":"X","pattern":"D","legs":"F"},"action":"avoid","summary":"bad-avoid","bonus":1.660000000000001},{"rt":950,"stimulus":"\n                    <p><b>Action: <em>avoid</em></b></p>\n                    <p>This is the bee that you just saw.</p>\n                    <img src=\"bees-with-color/bee-B1DM.svg\" width=\"200\">\n                    <p><br>Your bonus pay is unchanged, and remains at $0.62.</p>\n            ","response":0,"trial_type":"html-button-response","trial_index":46,"time_elapsed":457923,"internal_node_id":"0.0-4.0-1.17","subject_id":"5f600669b846780f0fe45709","study_id":"6197b3f67c2b5cd3b6d9596a","session_id":"619be786611723d14c203d2f","condition":"contingent","relevant_dimensions":["pattern","legs"],"bee_group":{"antennae":"X","wings":"X","pattern":"D","legs":"F"},"bonus":1.660000000000001},{"rt":1198.2000000476837,"stimulus":"bees-with-color/bee-A1DM.svg","response":1,"trial_type":"image-button-response","trial_index":47,"time_elapsed":459122,"internal_node_id":"0.0-4.0-0.18","subject_id":"5f600669b846780f0fe45709","study_id":"6197b3f67c2b5cd3b6d9596a","session_id":"619be786611723d14c203d2f","condition":"contingent","relevant_dimensions":["pattern","legs"],"bee_group":{"antennae":"X","wings":"X","pattern":"D","legs":"F"},"action":"avoid","summary":"bad-avoid","bonus":1.660000000000001},{"rt":662.2999999523163,"stimulus":"\n                    <p><b>Action: <em>avoid</em></b></p>\n                    <p>This is the bee that you just saw.</p>\n                    <img src=\"bees-with-color/bee-A1DM.svg\" width=\"200\">\n                    <p><br>Your bonus pay is unchanged, and remains at $0.62.</p>\n            ","response":0,"trial_type":"html-button-response","trial_index":48,"time_elapsed":459786,"internal_node_id":"0.0-4.0-1.18","subject_id":"5f600669b846780f0fe45709","study_id":"6197b3f67c2b5cd3b6d9596a","session_id":"619be786611723d14c203d2f","condition":"contingent","relevant_dimensions":["pattern","legs"],"bee_group":{"antennae":"X","wings":"X","pattern":"D","legs":"F"},"bonus":1.660000000000001},{"rt":1286.7000000476837,"stimulus":"bees-with-color/bee-B2DF.svg","response":1,"trial_type":"image-button-response","trial_index":49,"time_elapsed":461074,"internal_node_id":"0.0-4.0-0.19","subject_id":"5f600669b846780f0fe45709","study_id":"6197b3f67c2b5cd3b6d9596a","session_id":"619be786611723d14c203d2f","condition":"contingent","relevant_dimensions":["pattern","legs"],"bee_group":{"antennae":"X","wings":"X","pattern":"D","legs":"F"},"action":"avoid","summary":"good-avoid","bonus":1.660000000000001},{"rt":598.3999999761581,"stimulus":"\n                    <p><b>Action: <em>avoid</em></b></p>\n                    <p>This is the bee that you just saw.</p>\n                    <img src=\"bees-with-color/bee-B2DF.svg\" width=\"200\">\n                    <p><br>Your bonus pay is unchanged, and remains at $0.62.</p>\n            ","response":0,"trial_type":"html-button-response","trial_index":50,"time_elapsed":461675,"internal_node_id":"0.0-4.0-1.19","subject_id":"5f600669b846780f0fe45709","study_id":"6197b3f67c2b5cd3b6d9596a","session_id":"619be786611723d14c203d2f","condition":"contingent","relevant_dimensions":["pattern","legs"],"bee_group":{"antennae":"X","wings":"X","pattern":"D","legs":"F"},"bonus":1.660000000000001},{"rt":822.5,"stimulus":"bees-with-color/bee-A1SM.svg","response":0,"trial_type":"image-button-response","trial_index":51,"time_elapsed":462499,"internal_node_id":"0.0-4.0-0.20","subject_id":"5f600669b846780f0fe45709","study_id":"6197b3f67c2b5cd3b6d9596a","session_id":"619be786611723d14c203d2f","condition":"contingent","relevant_dimensions":["pattern","legs"],"bee_group":{"antennae":"X","wings":"X","pattern":"D","legs":"F"},"action":"harvest","summary":"good-harvest","bonus":1.660000000000001},{"rt":966.2999999523163,"stimulus":"\n                    <p><b>Action: <em>harvest</em></b></p>\n                    <p>This is the bee that you just saw.</p>\n                    <img src=\"bees-with-color/bee-A1SM.svg\" width=\"200\">\n                    <p><span class=\"greenText\"><b>Successful harvest!</b></span><br>Your pay has increased by $0.02. Your bonus pay is now $0.64.</p>\n            ","response":0,"trial_type":"html-button-response","trial_index":52,"time_elapsed":463467,"internal_node_id":"0.0-4.0-1.20","subject_id":"5f600669b846780f0fe45709","study_id":"6197b3f67c2b5cd3b6d9596a","session_id":"619be786611723d14c203d2f","condition":"contingent","relevant_dimensions":["pattern","legs"],"bee_group":{"antennae":"X","wings":"X","pattern":"D","legs":"F"},"bonus":1.660000000000001},{"rt":974.7000000476837,"stimulus":"bees-with-color/bee-A2SM.svg","response":0,"trial_type":"image-button-response","trial_index":53,"time_elapsed":464443,"internal_node_id":"0.0-4.0-0.21","subject_id":"5f600669b846780f0fe45709","study_id":"6197b3f67c2b5cd3b6d9596a","session_id":"619be786611723d14c203d2f","condition":"contingent","relevant_dimensions":["pattern","legs"],"bee_group":{"antennae":"X","wings":"X","pattern":"D","legs":"F"},"action":"harvest","summary":"good-harvest","bonus":1.660000000000001},{"rt":813.1000000238419,"stimulus":"\n                    <p><b>Action: <em>harvest</em></b></p>\n                    <p>This is the bee that you just saw.</p>\n                    <img src=\"bees-with-color/bee-A2SM.svg\" width=\"200\">\n                    <p><span class=\"greenText\"><b>Successful harvest!</b></span><br>Your pay has increased by $0.02. Your bonus pay is now $0.66.</p>\n            ","response":0,"trial_type":"html-button-response","trial_index":54,"time_elapsed":465259,"internal_node_id":"0.0-4.0-1.21","subject_id":"5f600669b846780f0fe45709","study_id":"6197b3f67c2b5cd3b6d9596a","session_id":"619be786611723d14c203d2f","condition":"contingent","relevant_dimensions":["pattern","legs"],"bee_group":{"antennae":"X","wings":"X","pattern":"D","legs":"F"},"bonus":1.660000000000001},{"rt":2238.7000000476837,"stimulus":"bees-with-color/bee-A2DF.svg","response":1,"trial_type":"image-button-response","trial_index":55,"time_elapsed":467499,"internal_node_id":"0.0-4.0-0.22","subject_id":"5f600669b846780f0fe45709","study_id":"6197b3f67c2b5cd3b6d9596a","session_id":"619be786611723d14c203d2f","condition":"contingent","relevant_dimensions":["pattern","legs"],"bee_group":{"antennae":"X","wings":"X","pattern":"D","legs":"F"},"action":"avoid","summary":"good-avoid","bonus":1.660000000000001},{"rt":998.3999999761581,"stimulus":"\n                    <p><b>Action: <em>avoid</em></b></p>\n                    <p>This is the bee that you just saw.</p>\n                    <img src=\"bees-with-color/bee-A2DF.svg\" width=\"200\">\n                    <p><br>Your bonus pay is unchanged, and remains at $0.66.</p>\n            ","response":0,"trial_type":"html-button-response","trial_index":56,"time_elapsed":468499,"internal_node_id":"0.0-4.0-1.22","subject_id":"5f600669b846780f0fe45709","study_id":"6197b3f67c2b5cd3b6d9596a","session_id":"619be786611723d14c203d2f","condition":"contingent","relevant_dimensions":["pattern","legs"],"bee_group":{"antennae":"X","wings":"X","pattern":"D","legs":"F"},"bonus":1.660000000000001},{"rt":750.1000000238419,"stimulus":"bees-with-color/bee-B2SF.svg","response":0,"trial_type":"image-button-response","trial_index":57,"time_elapsed":469251,"internal_node_id":"0.0-4.0-0.23","subject_id":"5f600669b846780f0fe45709","study_id":"6197b3f67c2b5cd3b6d9596a","session_id":"619be786611723d14c203d2f","condition":"contingent","relevant_dimensions":["pattern","legs"],"bee_group":{"antennae":"X","wings":"X","pattern":"D","legs":"F"},"action":"harvest","summary":"good-harvest","bonus":1.660000000000001},{"rt":942.3999999761581,"stimulus":"\n                    <p><b>Action: <em>harvest</em></b></p>\n                    <p>This is the bee that you just saw.</p>\n                    <img src=\"bees-with-color/bee-B2SF.svg\" width=\"200\">\n                    <p><span class=\"greenText\"><b>Successful harvest!</b></span><br>Your pay has increased by $0.02. Your bonus pay is now $0.68.</p>\n            ","response":0,"trial_type":"html-button-response","trial_index":58,"time_elapsed":470195,"internal_node_id":"0.0-4.0-1.23","subject_id":"5f600669b846780f0fe45709","study_id":"6197b3f67c2b5cd3b6d9596a","session_id":"619be786611723d14c203d2f","condition":"contingent","relevant_dimensions":["pattern","legs"],"bee_group":{"antennae":"X","wings":"X","pattern":"D","legs":"F"},"bonus":1.660000000000001},{"rt":1150.5,"stimulus":"bees-with-color/bee-B1DF.svg","response":1,"trial_type":"image-button-response","trial_index":59,"time_elapsed":471347,"internal_node_id":"0.0-4.0-0.24","subject_id":"5f600669b846780f0fe45709","study_id":"6197b3f67c2b5cd3b6d9596a","session_id":"619be786611723d14c203d2f","condition":"contingent","relevant_dimensions":["pattern","legs"],"bee_group":{"antennae":"X","wings":"X","pattern":"D","legs":"F"},"action":"avoid","summary":"good-avoid","bonus":1.660000000000001},{"rt":742.1000000238419,"stimulus":"\n                    <p><b>Action: <em>avoid</em></b></p>\n                    <p>This is the bee that you just saw.</p>\n                    <img src=\"bees-with-color/bee-B1DF.svg\" width=\"200\">\n                    <p><br>Your bonus pay is unchanged, and remains at $0.68.</p>\n            ","response":0,"trial_type":"html-button-response","trial_index":60,"time_elapsed":472091,"internal_node_id":"0.0-4.0-1.24","subject_id":"5f600669b846780f0fe45709","study_id":"6197b3f67c2b5cd3b6d9596a","session_id":"619be786611723d14c203d2f","condition":"contingent","relevant_dimensions":["pattern","legs"],"bee_group":{"antennae":"X","wings":"X","pattern":"D","legs":"F"},"bonus":1.660000000000001},{"rt":886.6000000238419,"stimulus":"bees-with-color/bee-B2SM.svg","response":0,"trial_type":"image-button-response","trial_index":61,"time_elapsed":472979,"internal_node_id":"0.0-4.0-0.25","subject_id":"5f600669b846780f0fe45709","study_id":"6197b3f67c2b5cd3b6d9596a","session_id":"619be786611723d14c203d2f","condition":"contingent","relevant_dimensions":["pattern","legs"],"bee_group":{"antennae":"X","wings":"X","pattern":"D","legs":"F"},"action":"harvest","summary":"good-harvest","bonus":1.660000000000001},{"rt":1062.3999999761581,"stimulus":"\n                    <p><b>Action: <em>harvest</em></b></p>\n                    <p>This is the bee that you just saw.</p>\n                    <img src=\"bees-with-color/bee-B2SM.svg\" width=\"200\">\n                    <p><span class=\"greenText\"><b>Successful harvest!</b></span><br>Your pay has increased by $0.02. Your bonus pay is now $0.70.</p>\n            ","response":0,"trial_type":"html-button-response","trial_index":62,"time_elapsed":474043,"internal_node_id":"0.0-4.0-1.25","subject_id":"5f600669b846780f0fe45709","study_id":"6197b3f67c2b5cd3b6d9596a","session_id":"619be786611723d14c203d2f","condition":"contingent","relevant_dimensions":["pattern","legs"],"bee_group":{"antennae":"X","wings":"X","pattern":"D","legs":"F"},"bonus":1.660000000000001},{"rt":926.5,"stimulus":"bees-with-color/bee-B1SM.svg","response":0,"trial_type":"image-button-response","trial_index":63,"time_elapsed":474971,"internal_node_id":"0.0-4.0-0.26","subject_id":"5f600669b846780f0fe45709","study_id":"6197b3f67c2b5cd3b6d9596a","session_id":"619be786611723d14c203d2f","condition":"contingent","relevant_dimensions":["pattern","legs"],"bee_group":{"antennae":"X","wings":"X","pattern":"D","legs":"F"},"action":"harvest","summary":"good-harvest","bonus":1.660000000000001},{"rt":1046.1000000238419,"stimulus":"\n                    <p><b>Action: <em>harvest</em></b></p>\n                    <p>This is the bee that you just saw.</p>\n                    <img src=\"bees-with-color/bee-B1SM.svg\" width=\"200\">\n                    <p><span class=\"greenText\"><b>Successful harvest!</b></span><br>Your pay has increased by $0.02. Your bonus pay is now $0.72.</p>\n            ","response":0,"trial_type":"html-button-response","trial_index":64,"time_elapsed":476019,"internal_node_id":"0.0-4.0-1.26","subject_id":"5f600669b846780f0fe45709","study_id":"6197b3f67c2b5cd3b6d9596a","session_id":"619be786611723d14c203d2f","condition":"contingent","relevant_dimensions":["pattern","legs"],"bee_group":{"antennae":"X","wings":"X","pattern":"D","legs":"F"},"bonus":1.660000000000001},{"rt":1462.6000000238419,"stimulus":"bees-with-color/bee-A1DF.svg","response":1,"trial_type":"image-button-response","trial_index":65,"time_elapsed":477483,"internal_node_id":"0.0-4.0-0.27","subject_id":"5f600669b846780f0fe45709","study_id":"6197b3f67c2b5cd3b6d9596a","session_id":"619be786611723d14c203d2f","condition":"contingent","relevant_dimensions":["pattern","legs"],"bee_group":{"antennae":"X","wings":"X","pattern":"D","legs":"F"},"action":"avoid","summary":"good-avoid","bonus":1.660000000000001},{"rt":1846.1999999284744,"stimulus":"\n                    <p><b>Action: <em>avoid</em></b></p>\n                    <p>This is the bee that you just saw.</p>\n                    <img src=\"bees-with-color/bee-A1DF.svg\" width=\"200\">\n                    <p><br>Your bonus pay is unchanged, and remains at $0.72.</p>\n            ","response":0,"trial_type":"html-button-response","trial_index":66,"time_elapsed":479331,"internal_node_id":"0.0-4.0-1.27","subject_id":"5f600669b846780f0fe45709","study_id":"6197b3f67c2b5cd3b6d9596a","session_id":"619be786611723d14c203d2f","condition":"contingent","relevant_dimensions":["pattern","legs"],"bee_group":{"antennae":"X","wings":"X","pattern":"D","legs":"F"},"bonus":1.660000000000001},{"rt":926.5,"stimulus":"bees-with-color/bee-B1SF.svg","response":0,"trial_type":"image-button-response","trial_index":67,"time_elapsed":480259,"internal_node_id":"0.0-4.0-0.28","subject_id":"5f600669b846780f0fe45709","study_id":"6197b3f67c2b5cd3b6d9596a","session_id":"619be786611723d14c203d2f","condition":"contingent","relevant_dimensions":["pattern","legs"],"bee_group":{"antennae":"X","wings":"X","pattern":"D","legs":"F"},"action":"harvest","summary":"good-harvest","bonus":1.660000000000001},{"rt":2422.100000023842,"stimulus":"\n                    <p><b>Action: <em>harvest</em></b></p>\n                    <p>This is the bee that you just saw.</p>\n                    <img src=\"bees-with-color/bee-B1SF.svg\" width=\"200\">\n                    <p><span class=\"greenText\"><b>Successful harvest!</b></span><br>Your pay has increased by $0.02. Your bonus pay is now $0.74.</p>\n            ","response":0,"trial_type":"html-button-response","trial_index":68,"time_elapsed":482683,"internal_node_id":"0.0-4.0-1.28","subject_id":"5f600669b846780f0fe45709","study_id":"6197b3f67c2b5cd3b6d9596a","session_id":"619be786611723d14c203d2f","condition":"contingent","relevant_dimensions":["pattern","legs"],"bee_group":{"antennae":"X","wings":"X","pattern":"D","legs":"F"},"bonus":1.660000000000001},{"rt":1174.0999999046326,"stimulus":"bees-with-color/bee-A2SF.svg","response":0,"trial_type":"image-button-response","trial_index":69,"time_elapsed":483859,"internal_node_id":"0.0-4.0-0.29","subject_id":"5f600669b846780f0fe45709","study_id":"6197b3f67c2b5cd3b6d9596a","session_id":"619be786611723d14c203d2f","condition":"contingent","relevant_dimensions":["pattern","legs"],"bee_group":{"antennae":"X","wings":"X","pattern":"D","legs":"F"},"action":"harvest","summary":"good-harvest","bonus":1.660000000000001},{"rt":886.2999999523163,"stimulus":"\n                    <p><b>Action: <em>harvest</em></b></p>\n                    <p>This is the bee that you just saw.</p>\n                    <img src=\"bees-with-color/bee-A2SF.svg\" width=\"200\">\n                    <p><span class=\"greenText\"><b>Successful harvest!</b></span><br>Your pay has increased by $0.02. Your bonus pay is now $0.76.</p>\n            ","response":0,"trial_type":"html-button-response","trial_index":70,"time_elapsed":484747,"internal_node_id":"0.0-4.0-1.29","subject_id":"5f600669b846780f0fe45709","study_id":"6197b3f67c2b5cd3b6d9596a","session_id":"619be786611723d14c203d2f","condition":"contingent","relevant_dimensions":["pattern","legs"],"bee_group":{"antennae":"X","wings":"X","pattern":"D","legs":"F"},"bonus":1.660000000000001},{"rt":1030.1999999284744,"stimulus":"bees-with-color/bee-B2DM.svg","response":1,"trial_type":"image-button-response","trial_index":71,"time_elapsed":485778,"internal_node_id":"0.0-4.0-0.30","subject_id":"5f600669b846780f0fe45709","study_id":"6197b3f67c2b5cd3b6d9596a","session_id":"619be786611723d14c203d2f","condition":"contingent","relevant_dimensions":["pattern","legs"],"bee_group":{"antennae":"X","wings":"X","pattern":"D","legs":"F"},"action":"avoid","summary":"bad-avoid","bonus":1.660000000000001},{"rt":1246.6000000238419,"stimulus":"\n                    <p><b>Action: <em>avoid</em></b></p>\n                    <p>This is the bee that you just saw.</p>\n                    <img src=\"bees-with-color/bee-B2DM.svg\" width=\"200\">\n                    <p><br>Your bonus pay is unchanged, and remains at $0.76.</p>\n            ","response":0,"trial_type":"html-button-response","trial_index":72,"time_elapsed":487026,"internal_node_id":"0.0-4.0-1.30","subject_id":"5f600669b846780f0fe45709","study_id":"6197b3f67c2b5cd3b6d9596a","session_id":"619be786611723d14c203d2f","condition":"contingent","relevant_dimensions":["pattern","legs"],"bee_group":{"antennae":"X","wings":"X","pattern":"D","legs":"F"},"bonus":1.660000000000001},{"rt":918.5,"stimulus":"bees-with-color/bee-A2DM.svg","response":1,"trial_type":"image-button-response","trial_index":73,"time_elapsed":487947,"internal_node_id":"0.0-4.0-0.31","subject_id":"5f600669b846780f0fe45709","study_id":"6197b3f67c2b5cd3b6d9596a","session_id":"619be786611723d14c203d2f","condition":"contingent","relevant_dimensions":["pattern","legs"],"bee_group":{"antennae":"X","wings":"X","pattern":"D","legs":"F"},"action":"avoid","summary":"bad-avoid","bonus":1.660000000000001},{"rt":1414,"stimulus":"\n                    <p><b>Action: <em>avoid</em></b></p>\n                    <p>This is the bee that you just saw.</p>\n                    <img src=\"bees-with-color/bee-A2DM.svg\" width=\"200\">\n                    <p><br>Your bonus pay is unchanged, and remains at $0.76.</p>\n            ","response":0,"trial_type":"html-button-response","trial_index":74,"time_elapsed":489363,"internal_node_id":"0.0-4.0-1.31","subject_id":"5f600669b846780f0fe45709","study_id":"6197b3f67c2b5cd3b6d9596a","session_id":"619be786611723d14c203d2f","condition":"contingent","relevant_dimensions":["pattern","legs"],"bee_group":{"antennae":"X","wings":"X","pattern":"D","legs":"F"},"bonus":1.660000000000001},{"rt":1542.1999999284744,"stimulus":"bees-with-color/bee-A2DM.svg","response":1,"trial_type":"image-button-response","trial_index":75,"time_elapsed":490907,"internal_node_id":"0.0-4.0-0.32","subject_id":"5f600669b846780f0fe45709","study_id":"6197b3f67c2b5cd3b6d9596a","session_id":"619be786611723d14c203d2f","condition":"contingent","relevant_dimensions":["pattern","legs"],"bee_group":{"antennae":"X","wings":"X","pattern":"D","legs":"F"},"action":"avoid","summary":"bad-avoid","bonus":1.660000000000001},{"rt":942,"stimulus":"\n                    <p><b>Action: <em>avoid</em></b></p>\n                    <p>This is the bee that you just saw.</p>\n                    <img src=\"bees-with-color/bee-A2DM.svg\" width=\"200\">\n                    <p><br>Your bonus pay is unchanged, and remains at $0.76.</p>\n            ","response":0,"trial_type":"html-button-response","trial_index":76,"time_elapsed":491850,"internal_node_id":"0.0-4.0-1.32","subject_id":"5f600669b846780f0fe45709","study_id":"6197b3f67c2b5cd3b6d9596a","session_id":"619be786611723d14c203d2f","condition":"contingent","relevant_dimensions":["pattern","legs"],"bee_group":{"antennae":"X","wings":"X","pattern":"D","legs":"F"},"bonus":1.660000000000001},{"rt":1022.2999999523163,"stimulus":"bees-with-color/bee-A2SM.svg","response":0,"trial_type":"image-button-response","trial_index":77,"time_elapsed":492875,"internal_node_id":"0.0-4.0-0.33","subject_id":"5f600669b846780f0fe45709","study_id":"6197b3f67c2b5cd3b6d9596a","session_id":"619be786611723d14c203d2f","condition":"contingent","relevant_dimensions":["pattern","legs"],"bee_group":{"antennae":"X","wings":"X","pattern":"D","legs":"F"},"action":"harvest","summary":"good-harvest","bonus":1.660000000000001},{"rt":1230.1999999284744,"stimulus":"\n                    <p><b>Action: <em>harvest</em></b></p>\n                    <p>This is the bee that you just saw.</p>\n                    <img src=\"bees-with-color/bee-A2SM.svg\" width=\"200\">\n                    <p><span class=\"greenText\"><b>Successful harvest!</b></span><br>Your pay has increased by $0.02. Your bonus pay is now $0.78.</p>\n            ","response":0,"trial_type":"html-button-response","trial_index":78,"time_elapsed":494107,"internal_node_id":"0.0-4.0-1.33","subject_id":"5f600669b846780f0fe45709","study_id":"6197b3f67c2b5cd3b6d9596a","session_id":"619be786611723d14c203d2f","condition":"contingent","relevant_dimensions":["pattern","legs"],"bee_group":{"antennae":"X","wings":"X","pattern":"D","legs":"F"},"bonus":1.660000000000001},{"rt":1854.3000000715256,"stimulus":"bees-with-color/bee-A1SM.svg","response":0,"trial_type":"image-button-response","trial_index":79,"time_elapsed":495963,"internal_node_id":"0.0-4.0-0.34","subject_id":"5f600669b846780f0fe45709","study_id":"6197b3f67c2b5cd3b6d9596a","session_id":"619be786611723d14c203d2f","condition":"contingent","relevant_dimensions":["pattern","legs"],"bee_group":{"antennae":"X","wings":"X","pattern":"D","legs":"F"},"action":"harvest","summary":"good-harvest","bonus":1.660000000000001},{"rt":1277.8999999761581,"stimulus":"\n                    <p><b>Action: <em>harvest</em></b></p>\n                    <p>This is the bee that you just saw.</p>\n                    <img src=\"bees-with-color/bee-A1SM.svg\" width=\"200\">\n                    <p><span class=\"greenText\"><b>Successful harvest!</b></span><br>Your pay has increased by $0.02. Your bonus pay is now $0.80.</p>\n            ","response":0,"trial_type":"html-button-response","trial_index":80,"time_elapsed":497243,"internal_node_id":"0.0-4.0-1.34","subject_id":"5f600669b846780f0fe45709","study_id":"6197b3f67c2b5cd3b6d9596a","session_id":"619be786611723d14c203d2f","condition":"contingent","relevant_dimensions":["pattern","legs"],"bee_group":{"antennae":"X","wings":"X","pattern":"D","legs":"F"},"bonus":1.660000000000001},{"rt":1077.8999999761581,"stimulus":"bees-with-color/bee-A2SF.svg","response":0,"trial_type":"image-button-response","trial_index":81,"time_elapsed":498323,"internal_node_id":"0.0-4.0-0.35","subject_id":"5f600669b846780f0fe45709","study_id":"6197b3f67c2b5cd3b6d9596a","session_id":"619be786611723d14c203d2f","condition":"contingent","relevant_dimensions":["pattern","legs"],"bee_group":{"antennae":"X","wings":"X","pattern":"D","legs":"F"},"action":"harvest","summary":"good-harvest","bonus":1.660000000000001},{"rt":1998.1999999284744,"stimulus":"\n                    <p><b>Action: <em>harvest</em></b></p>\n                    <p>This is the bee that you just saw.</p>\n                    <img src=\"bees-with-color/bee-A2SF.svg\" width=\"200\">\n                    <p><span class=\"greenText\"><b>Successful harvest!</b></span><br>Your pay has increased by $0.02. Your bonus pay is now $0.82.</p>\n            ","response":0,"trial_type":"html-button-response","trial_index":82,"time_elapsed":500323,"internal_node_id":"0.0-4.0-1.35","subject_id":"5f600669b846780f0fe45709","study_id":"6197b3f67c2b5cd3b6d9596a","session_id":"619be786611723d14c203d2f","condition":"contingent","relevant_dimensions":["pattern","legs"],"bee_group":{"antennae":"X","wings":"X","pattern":"D","legs":"F"},"bonus":1.660000000000001},{"rt":918.0999999046326,"stimulus":"bees-with-color/bee-B2SF.svg","response":0,"trial_type":"image-button-response","trial_index":83,"time_elapsed":501243,"internal_node_id":"0.0-4.0-0.36","subject_id":"5f600669b846780f0fe45709","study_id":"6197b3f67c2b5cd3b6d9596a","session_id":"619be786611723d14c203d2f","condition":"contingent","relevant_dimensions":["pattern","legs"],"bee_group":{"antennae":"X","wings":"X","pattern":"D","legs":"F"},"action":"harvest","summary":"good-harvest","bonus":1.660000000000001},{"rt":829.8000000715256,"stimulus":"\n                    <p><b>Action: <em>harvest</em></b></p>\n                    <p>This is the bee that you just saw.</p>\n                    <img src=\"bees-with-color/bee-B2SF.svg\" width=\"200\">\n                    <p><span class=\"greenText\"><b>Successful harvest!</b></span><br>Your pay has increased by $0.02. Your bonus pay is now $0.84.</p>\n            ","response":0,"trial_type":"html-button-response","trial_index":84,"time_elapsed":502075,"internal_node_id":"0.0-4.0-1.36","subject_id":"5f600669b846780f0fe45709","study_id":"6197b3f67c2b5cd3b6d9596a","session_id":"619be786611723d14c203d2f","condition":"contingent","relevant_dimensions":["pattern","legs"],"bee_group":{"antennae":"X","wings":"X","pattern":"D","legs":"F"},"bonus":1.660000000000001},{"rt":918,"stimulus":"bees-with-color/bee-B2DF.svg","response":1,"trial_type":"image-button-response","trial_index":85,"time_elapsed":502994,"internal_node_id":"0.0-4.0-0.37","subject_id":"5f600669b846780f0fe45709","study_id":"6197b3f67c2b5cd3b6d9596a","session_id":"619be786611723d14c203d2f","condition":"contingent","relevant_dimensions":["pattern","legs"],"bee_group":{"antennae":"X","wings":"X","pattern":"D","legs":"F"},"action":"avoid","summary":"good-avoid","bonus":1.660000000000001},{"rt":710.5,"stimulus":"\n                    <p><b>Action: <em>avoid</em></b></p>\n                    <p>This is the bee that you just saw.</p>\n                    <img src=\"bees-with-color/bee-B2DF.svg\" width=\"200\">\n                    <p><br>Your bonus pay is unchanged, and remains at $0.84.</p>\n            ","response":0,"trial_type":"html-button-response","trial_index":86,"time_elapsed":503706,"internal_node_id":"0.0-4.0-1.37","subject_id":"5f600669b846780f0fe45709","study_id":"6197b3f67c2b5cd3b6d9596a","session_id":"619be786611723d14c203d2f","condition":"contingent","relevant_dimensions":["pattern","legs"],"bee_group":{"antennae":"X","wings":"X","pattern":"D","legs":"F"},"bonus":1.660000000000001},{"rt":1374.7000000476837,"stimulus":"bees-with-color/bee-A1DF.svg","response":1,"trial_type":"image-button-response","trial_index":87,"time_elapsed":505082,"internal_node_id":"0.0-4.0-0.38","subject_id":"5f600669b846780f0fe45709","study_id":"6197b3f67c2b5cd3b6d9596a","session_id":"619be786611723d14c203d2f","condition":"contingent","relevant_dimensions":["pattern","legs"],"bee_group":{"antennae":"X","wings":"X","pattern":"D","legs":"F"},"action":"avoid","summary":"good-avoid","bonus":1.660000000000001},{"rt":678.3999999761581,"stimulus":"\n                    <p><b>Action: <em>avoid</em></b></p>\n                    <p>This is the bee that you just saw.</p>\n                    <img src=\"bees-with-color/bee-A1DF.svg\" width=\"200\">\n                    <p><br>Your bonus pay is unchanged, and remains at $0.84.</p>\n            ","response":0,"trial_type":"html-button-response","trial_index":88,"time_elapsed":505762,"internal_node_id":"0.0-4.0-1.38","subject_id":"5f600669b846780f0fe45709","study_id":"6197b3f67c2b5cd3b6d9596a","session_id":"619be786611723d14c203d2f","condition":"contingent","relevant_dimensions":["pattern","legs"],"bee_group":{"antennae":"X","wings":"X","pattern":"D","legs":"F"},"bonus":1.660000000000001},{"rt":774.6999999284744,"stimulus":"bees-with-color/bee-B2SM.svg","response":0,"trial_type":"image-button-response","trial_index":89,"time_elapsed":506538,"internal_node_id":"0.0-4.0-0.39","subject_id":"5f600669b846780f0fe45709","study_id":"6197b3f67c2b5cd3b6d9596a","session_id":"619be786611723d14c203d2f","condition":"contingent","relevant_dimensions":["pattern","legs"],"bee_group":{"antennae":"X","wings":"X","pattern":"D","legs":"F"},"action":"harvest","summary":"good-harvest","bonus":1.660000000000001},{"rt":742.3999999761581,"stimulus":"\n                    <p><b>Action: <em>harvest</em></b></p>\n                    <p>This is the bee that you just saw.</p>\n                    <img src=\"bees-with-color/bee-B2SM.svg\" width=\"200\">\n                    <p><span class=\"greenText\"><b>Successful harvest!</b></span><br>Your pay has increased by $0.02. Your bonus pay is now $0.86.</p>\n            ","response":0,"trial_type":"html-button-response","trial_index":90,"time_elapsed":507282,"internal_node_id":"0.0-4.0-1.39","subject_id":"5f600669b846780f0fe45709","study_id":"6197b3f67c2b5cd3b6d9596a","session_id":"619be786611723d14c203d2f","condition":"contingent","relevant_dimensions":["pattern","legs"],"bee_group":{"antennae":"X","wings":"X","pattern":"D","legs":"F"},"bonus":1.660000000000001},{"rt":870.6000000238419,"stimulus":"bees-with-color/bee-A1SF.svg","response":0,"trial_type":"image-button-response","trial_index":91,"time_elapsed":508154,"internal_node_id":"0.0-4.0-0.40","subject_id":"5f600669b846780f0fe45709","study_id":"6197b3f67c2b5cd3b6d9596a","session_id":"619be786611723d14c203d2f","condition":"contingent","relevant_dimensions":["pattern","legs"],"bee_group":{"antennae":"X","wings":"X","pattern":"D","legs":"F"},"action":"harvest","summary":"good-harvest","bonus":1.660000000000001},{"rt":814.5,"stimulus":"\n                    <p><b>Action: <em>harvest</em></b></p>\n                    <p>This is the bee that you just saw.</p>\n                    <img src=\"bees-with-color/bee-A1SF.svg\" width=\"200\">\n                    <p><span class=\"greenText\"><b>Successful harvest!</b></span><br>Your pay has increased by $0.02. Your bonus pay is now $0.88.</p>\n            ","response":0,"trial_type":"html-button-response","trial_index":92,"time_elapsed":508971,"internal_node_id":"0.0-4.0-1.40","subject_id":"5f600669b846780f0fe45709","study_id":"6197b3f67c2b5cd3b6d9596a","session_id":"619be786611723d14c203d2f","condition":"contingent","relevant_dimensions":["pattern","legs"],"bee_group":{"antennae":"X","wings":"X","pattern":"D","legs":"F"},"bonus":1.660000000000001},{"rt":1310.2000000476837,"stimulus":"bees-with-color/bee-B1DF.svg","response":1,"trial_type":"image-button-response","trial_index":93,"time_elapsed":510282,"internal_node_id":"0.0-4.0-0.41","subject_id":"5f600669b846780f0fe45709","study_id":"6197b3f67c2b5cd3b6d9596a","session_id":"619be786611723d14c203d2f","condition":"contingent","relevant_dimensions":["pattern","legs"],"bee_group":{"antennae":"X","wings":"X","pattern":"D","legs":"F"},"action":"avoid","summary":"good-avoid","bonus":1.660000000000001},{"rt":758.8999999761581,"stimulus":"\n                    <p><b>Action: <em>avoid</em></b></p>\n                    <p>This is the bee that you just saw.</p>\n                    <img src=\"bees-with-color/bee-B1DF.svg\" width=\"200\">\n                    <p><br>Your bonus pay is unchanged, and remains at $0.88.</p>\n            ","response":0,"trial_type":"html-button-response","trial_index":94,"time_elapsed":511043,"internal_node_id":"0.0-4.0-1.41","subject_id":"5f600669b846780f0fe45709","study_id":"6197b3f67c2b5cd3b6d9596a","session_id":"619be786611723d14c203d2f","condition":"contingent","relevant_dimensions":["pattern","legs"],"bee_group":{"antennae":"X","wings":"X","pattern":"D","legs":"F"},"bonus":1.660000000000001},{"rt":3942.2999999523163,"stimulus":"bees-with-color/bee-A1DM.svg","response":1,"trial_type":"image-button-response","trial_index":95,"time_elapsed":514987,"internal_node_id":"0.0-4.0-0.42","subject_id":"5f600669b846780f0fe45709","study_id":"6197b3f67c2b5cd3b6d9596a","session_id":"619be786611723d14c203d2f","condition":"contingent","relevant_dimensions":["pattern","legs"],"bee_group":{"antennae":"X","wings":"X","pattern":"D","legs":"F"},"action":"avoid","summary":"bad-avoid","bonus":1.660000000000001},{"rt":638.6000000238419,"stimulus":"\n                    <p><b>Action: <em>avoid</em></b></p>\n                    <p>This is the bee that you just saw.</p>\n                    <img src=\"bees-with-color/bee-A1DM.svg\" width=\"200\">\n                    <p><br>Your bonus pay is unchanged, and remains at $0.88.</p>\n            ","response":0,"trial_type":"html-button-response","trial_index":96,"time_elapsed":515627,"internal_node_id":"0.0-4.0-1.42","subject_id":"5f600669b846780f0fe45709","study_id":"6197b3f67c2b5cd3b6d9596a","session_id":"619be786611723d14c203d2f","condition":"contingent","relevant_dimensions":["pattern","legs"],"bee_group":{"antennae":"X","wings":"X","pattern":"D","legs":"F"},"bonus":1.660000000000001},{"rt":925.9000000953674,"stimulus":"bees-with-color/bee-B1SM.svg","response":0,"trial_type":"image-button-response","trial_index":97,"time_elapsed":516554,"internal_node_id":"0.0-4.0-0.43","subject_id":"5f600669b846780f0fe45709","study_id":"6197b3f67c2b5cd3b6d9596a","session_id":"619be786611723d14c203d2f","condition":"contingent","relevant_dimensions":["pattern","legs"],"bee_group":{"antennae":"X","wings":"X","pattern":"D","legs":"F"},"action":"harvest","summary":"good-harvest","bonus":1.660000000000001},{"rt":694.6000000238419,"stimulus":"\n                    <p><b>Action: <em>harvest</em></b></p>\n                    <p>This is the bee that you just saw.</p>\n                    <img src=\"bees-with-color/bee-B1SM.svg\" width=\"200\">\n                    <p><span class=\"greenText\"><b>Successful harvest!</b></span><br>Your pay has increased by $0.02. Your bonus pay is now $0.90.</p>\n            ","response":0,"trial_type":"html-button-response","trial_index":98,"time_elapsed":517250,"internal_node_id":"0.0-4.0-1.43","subject_id":"5f600669b846780f0fe45709","study_id":"6197b3f67c2b5cd3b6d9596a","session_id":"619be786611723d14c203d2f","condition":"contingent","relevant_dimensions":["pattern","legs"],"bee_group":{"antennae":"X","wings":"X","pattern":"D","legs":"F"},"bonus":1.660000000000001},{"rt":1414.6000000238419,"stimulus":"bees-with-color/bee-B1DM.svg","response":1,"trial_type":"image-button-response","trial_index":99,"time_elapsed":518667,"internal_node_id":"0.0-4.0-0.44","subject_id":"5f600669b846780f0fe45709","study_id":"6197b3f67c2b5cd3b6d9596a","session_id":"619be786611723d14c203d2f","condition":"contingent","relevant_dimensions":["pattern","legs"],"bee_group":{"antennae":"X","wings":"X","pattern":"D","legs":"F"},"action":"avoid","summary":"bad-avoid","bonus":1.660000000000001},{"rt":590.1999999284744,"stimulus":"\n                    <p><b>Action: <em>avoid</em></b></p>\n                    <p>This is the bee that you just saw.</p>\n                    <img src=\"bees-with-color/bee-B1DM.svg\" width=\"200\">\n                    <p><br>Your bonus pay is unchanged, and remains at $0.90.</p>\n            ","response":0,"trial_type":"html-button-response","trial_index":100,"time_elapsed":519259,"internal_node_id":"0.0-4.0-1.44","subject_id":"5f600669b846780f0fe45709","study_id":"6197b3f67c2b5cd3b6d9596a","session_id":"619be786611723d14c203d2f","condition":"contingent","relevant_dimensions":["pattern","legs"],"bee_group":{"antennae":"X","wings":"X","pattern":"D","legs":"F"},"bonus":1.660000000000001},{"rt":974.1000000238419,"stimulus":"bees-with-color/bee-B1SF.svg","response":0,"trial_type":"image-button-response","trial_index":101,"time_elapsed":520234,"internal_node_id":"0.0-4.0-0.45","subject_id":"5f600669b846780f0fe45709","study_id":"6197b3f67c2b5cd3b6d9596a","session_id":"619be786611723d14c203d2f","condition":"contingent","relevant_dimensions":["pattern","legs"],"bee_group":{"antennae":"X","wings":"X","pattern":"D","legs":"F"},"action":"harvest","summary":"good-harvest","bonus":1.660000000000001},{"rt":1094.2999999523163,"stimulus":"\n                    <p><b>Action: <em>harvest</em></b></p>\n                    <p>This is the bee that you just saw.</p>\n                    <img src=\"bees-with-color/bee-B1SF.svg\" width=\"200\">\n                    <p><span class=\"greenText\"><b>Successful harvest!</b></span><br>Your pay has increased by $0.02. Your bonus pay is now $0.92.</p>\n            ","response":0,"trial_type":"html-button-response","trial_index":102,"time_elapsed":521330,"internal_node_id":"0.0-4.0-1.45","subject_id":"5f600669b846780f0fe45709","study_id":"6197b3f67c2b5cd3b6d9596a","session_id":"619be786611723d14c203d2f","condition":"contingent","relevant_dimensions":["pattern","legs"],"bee_group":{"antennae":"X","wings":"X","pattern":"D","legs":"F"},"bonus":1.660000000000001},{"rt":2262.399999976158,"stimulus":"bees-with-color/bee-A2DF.svg","response":1,"trial_type":"image-button-response","trial_index":103,"time_elapsed":523594,"internal_node_id":"0.0-4.0-0.46","subject_id":"5f600669b846780f0fe45709","study_id":"6197b3f67c2b5cd3b6d9596a","session_id":"619be786611723d14c203d2f","condition":"contingent","relevant_dimensions":["pattern","legs"],"bee_group":{"antennae":"X","wings":"X","pattern":"D","legs":"F"},"action":"avoid","summary":"good-avoid","bonus":1.660000000000001},{"rt":638,"stimulus":"\n                    <p><b>Action: <em>avoid</em></b></p>\n                    <p>This is the bee that you just saw.</p>\n                    <img src=\"bees-with-color/bee-A2DF.svg\" width=\"200\">\n                    <p><br>Your bonus pay is unchanged, and remains at $0.92.</p>\n            ","response":0,"trial_type":"html-button-response","trial_index":104,"time_elapsed":524234,"internal_node_id":"0.0-4.0-1.46","subject_id":"5f600669b846780f0fe45709","study_id":"6197b3f67c2b5cd3b6d9596a","session_id":"619be786611723d14c203d2f","condition":"contingent","relevant_dimensions":["pattern","legs"],"bee_group":{"antennae":"X","wings":"X","pattern":"D","legs":"F"},"bonus":1.660000000000001},{"rt":1206.2000000476837,"stimulus":"bees-with-color/bee-B2DM.svg","response":0,"trial_type":"image-button-response","trial_index":105,"time_elapsed":525442,"internal_node_id":"0.0-4.0-0.47","subject_id":"5f600669b846780f0fe45709","study_id":"6197b3f67c2b5cd3b6d9596a","session_id":"619be786611723d14c203d2f","condition":"contingent","relevant_dimensions":["pattern","legs"],"bee_group":{"antennae":"X","wings":"X","pattern":"D","legs":"F"},"action":"harvest","summary":"good-harvest","bonus":1.660000000000001},{"rt":1518.3000000715256,"stimulus":"\n                    <p><b>Action: <em>harvest</em></b></p>\n                    <p>This is the bee that you just saw.</p>\n                    <img src=\"bees-with-color/bee-B2DM.svg\" width=\"200\">\n                    <p><span class=\"greenText\"><b>Successful harvest!</b></span><br>Your pay has increased by $0.02. Your bonus pay is now $0.94.</p>\n            ","response":0,"trial_type":"html-button-response","trial_index":106,"time_elapsed":526962,"internal_node_id":"0.0-4.0-1.47","subject_id":"5f600669b846780f0fe45709","study_id":"6197b3f67c2b5cd3b6d9596a","session_id":"619be786611723d14c203d2f","condition":"contingent","relevant_dimensions":["pattern","legs"],"bee_group":{"antennae":"X","wings":"X","pattern":"D","legs":"F"},"bonus":1.660000000000001},{"rt":2950.399999976158,"stimulus":"bees-with-color/bee-A1DM.svg","response":0,"trial_type":"image-button-response","trial_index":107,"time_elapsed":529914,"internal_node_id":"0.0-4.0-0.48","subject_id":"5f600669b846780f0fe45709","study_id":"6197b3f67c2b5cd3b6d9596a","session_id":"619be786611723d14c203d2f","condition":"contingent","relevant_dimensions":["pattern","legs"],"bee_group":{"antennae":"X","wings":"X","pattern":"D","legs":"F"},"action":"harvest","summary":"good-harvest","bonus":1.660000000000001},{"rt":798.1999999284744,"stimulus":"\n                    <p><b>Action: <em>harvest</em></b></p>\n                    <p>This is the bee that you just saw.</p>\n                    <img src=\"bees-with-color/bee-A1DM.svg\" width=\"200\">\n                    <p><span class=\"greenText\"><b>Successful harvest!</b></span><br>Your pay has increased by $0.02. Your bonus pay is now $0.96.</p>\n            ","response":0,"trial_type":"html-button-response","trial_index":108,"time_elapsed":530714,"internal_node_id":"0.0-4.0-1.48","subject_id":"5f600669b846780f0fe45709","study_id":"6197b3f67c2b5cd3b6d9596a","session_id":"619be786611723d14c203d2f","condition":"contingent","relevant_dimensions":["pattern","legs"],"bee_group":{"antennae":"X","wings":"X","pattern":"D","legs":"F"},"bonus":1.660000000000001},{"rt":934.1000000238419,"stimulus":"bees-with-color/bee-A2SM.svg","response":0,"trial_type":"image-button-response","trial_index":109,"time_elapsed":531650,"internal_node_id":"0.0-4.0-0.49","subject_id":"5f600669b846780f0fe45709","study_id":"6197b3f67c2b5cd3b6d9596a","session_id":"619be786611723d14c203d2f","condition":"contingent","relevant_dimensions":["pattern","legs"],"bee_group":{"antennae":"X","wings":"X","pattern":"D","legs":"F"},"action":"harvest","summary":"good-harvest","bonus":1.660000000000001},{"rt":646.1999999284744,"stimulus":"\n                    <p><b>Action: <em>harvest</em></b></p>\n                    <p>This is the bee that you just saw.</p>\n                    <img src=\"bees-with-color/bee-A2SM.svg\" width=\"200\">\n                    <p><span class=\"greenText\"><b>Successful harvest!</b></span><br>Your pay has increased by $0.02. Your bonus pay is now $0.98.</p>\n            ","response":0,"trial_type":"html-button-response","trial_index":110,"time_elapsed":532298,"internal_node_id":"0.0-4.0-1.49","subject_id":"5f600669b846780f0fe45709","study_id":"6197b3f67c2b5cd3b6d9596a","session_id":"619be786611723d14c203d2f","condition":"contingent","relevant_dimensions":["pattern","legs"],"bee_group":{"antennae":"X","wings":"X","pattern":"D","legs":"F"},"bonus":1.660000000000001},{"rt":838.2999999523163,"stimulus":"bees-with-color/bee-A1SF.svg","response":0,"trial_type":"image-button-response","trial_index":111,"time_elapsed":533138,"internal_node_id":"0.0-4.0-0.50","subject_id":"5f600669b846780f0fe45709","study_id":"6197b3f67c2b5cd3b6d9596a","session_id":"619be786611723d14c203d2f","condition":"contingent","relevant_dimensions":["pattern","legs"],"bee_group":{"antennae":"X","wings":"X","pattern":"D","legs":"F"},"action":"harvest","summary":"good-harvest","bonus":1.660000000000001},{"rt":694.2000000476837,"stimulus":"\n                    <p><b>Action: <em>harvest</em></b></p>\n                    <p>This is the bee that you just saw.</p>\n                    <img src=\"bees-with-color/bee-A1SF.svg\" width=\"200\">\n                    <p><span class=\"greenText\"><b>Successful harvest!</b></span><br>Your pay has increased by $0.02. Your bonus pay is now $1.00.</p>\n            ","response":0,"trial_type":"html-button-response","trial_index":112,"time_elapsed":533834,"internal_node_id":"0.0-4.0-1.50","subject_id":"5f600669b846780f0fe45709","study_id":"6197b3f67c2b5cd3b6d9596a","session_id":"619be786611723d14c203d2f","condition":"contingent","relevant_dimensions":["pattern","legs"],"bee_group":{"antennae":"X","wings":"X","pattern":"D","legs":"F"},"bonus":1.660000000000001},{"rt":909.8000000715256,"stimulus":"bees-with-color/bee-B1SM.svg","response":0,"trial_type":"image-button-response","trial_index":113,"time_elapsed":534746,"internal_node_id":"0.0-4.0-0.51","subject_id":"5f600669b846780f0fe45709","study_id":"6197b3f67c2b5cd3b6d9596a","session_id":"619be786611723d14c203d2f","condition":"contingent","relevant_dimensions":["pattern","legs"],"bee_group":{"antennae":"X","wings":"X","pattern":"D","legs":"F"},"action":"harvest","summary":"good-harvest","bonus":1.660000000000001},{"rt":613.8999999761581,"stimulus":"\n                    <p><b>Action: <em>harvest</em></b></p>\n                    <p>This is the bee that you just saw.</p>\n                    <img src=\"bees-with-color/bee-B1SM.svg\" width=\"200\">\n                    <p><span class=\"greenText\"><b>Successful harvest!</b></span><br>Your pay has increased by $0.02. Your bonus pay is now $1.02.</p>\n            ","response":0,"trial_type":"html-button-response","trial_index":114,"time_elapsed":535362,"internal_node_id":"0.0-4.0-1.51","subject_id":"5f600669b846780f0fe45709","study_id":"6197b3f67c2b5cd3b6d9596a","session_id":"619be786611723d14c203d2f","condition":"contingent","relevant_dimensions":["pattern","legs"],"bee_group":{"antennae":"X","wings":"X","pattern":"D","legs":"F"},"bonus":1.660000000000001},{"rt":1382.1999999284744,"stimulus":"bees-with-color/bee-B1DF.svg","response":1,"trial_type":"image-button-response","trial_index":115,"time_elapsed":536746,"internal_node_id":"0.0-4.0-0.52","subject_id":"5f600669b846780f0fe45709","study_id":"6197b3f67c2b5cd3b6d9596a","session_id":"619be786611723d14c203d2f","condition":"contingent","relevant_dimensions":["pattern","legs"],"bee_group":{"antennae":"X","wings":"X","pattern":"D","legs":"F"},"action":"avoid","summary":"good-avoid","bonus":1.660000000000001},{"rt":622,"stimulus":"\n                    <p><b>Action: <em>avoid</em></b></p>\n                    <p>This is the bee that you just saw.</p>\n                    <img src=\"bees-with-color/bee-B1DF.svg\" width=\"200\">\n                    <p><br>Your bonus pay is unchanged, and remains at $1.02.</p>\n            ","response":0,"trial_type":"html-button-response","trial_index":116,"time_elapsed":537370,"internal_node_id":"0.0-4.0-1.52","subject_id":"5f600669b846780f0fe45709","study_id":"6197b3f67c2b5cd3b6d9596a","session_id":"619be786611723d14c203d2f","condition":"contingent","relevant_dimensions":["pattern","legs"],"bee_group":{"antennae":"X","wings":"X","pattern":"D","legs":"F"},"bonus":1.660000000000001},{"rt":1174.2999999523163,"stimulus":"bees-with-color/bee-A2SF.svg","response":0,"trial_type":"image-button-response","trial_index":117,"time_elapsed":538546,"internal_node_id":"0.0-4.0-0.53","subject_id":"5f600669b846780f0fe45709","study_id":"6197b3f67c2b5cd3b6d9596a","session_id":"619be786611723d14c203d2f","condition":"contingent","relevant_dimensions":["pattern","legs"],"bee_group":{"antennae":"X","wings":"X","pattern":"D","legs":"F"},"action":"harvest","summary":"good-harvest","bonus":1.660000000000001},{"rt":1118,"stimulus":"\n                    <p><b>Action: <em>harvest</em></b></p>\n                    <p>This is the bee that you just saw.</p>\n                    <img src=\"bees-with-color/bee-A2SF.svg\" width=\"200\">\n                    <p><span class=\"greenText\"><b>Successful harvest!</b></span><br>Your pay has increased by $0.02. Your bonus pay is now $1.04.</p>\n            ","response":0,"trial_type":"html-button-response","trial_index":118,"time_elapsed":539666,"internal_node_id":"0.0-4.0-1.53","subject_id":"5f600669b846780f0fe45709","study_id":"6197b3f67c2b5cd3b6d9596a","session_id":"619be786611723d14c203d2f","condition":"contingent","relevant_dimensions":["pattern","legs"],"bee_group":{"antennae":"X","wings":"X","pattern":"D","legs":"F"},"bonus":1.660000000000001},{"rt":1181.5999999046326,"stimulus":"bees-with-color/bee-B2DF.svg","response":1,"trial_type":"image-button-response","trial_index":119,"time_elapsed":540850,"internal_node_id":"0.0-4.0-0.54","subject_id":"5f600669b846780f0fe45709","study_id":"6197b3f67c2b5cd3b6d9596a","session_id":"619be786611723d14c203d2f","condition":"contingent","relevant_dimensions":["pattern","legs"],"bee_group":{"antennae":"X","wings":"X","pattern":"D","legs":"F"},"action":"avoid","summary":"good-avoid","bonus":1.660000000000001},{"rt":606.1000000238419,"stimulus":"\n                    <p><b>Action: <em>avoid</em></b></p>\n                    <p>This is the bee that you just saw.</p>\n                    <img src=\"bees-with-color/bee-B2DF.svg\" width=\"200\">\n                    <p><br>Your bonus pay is unchanged, and remains at $1.04.</p>\n            ","response":0,"trial_type":"html-button-response","trial_index":120,"time_elapsed":541458,"internal_node_id":"0.0-4.0-1.54","subject_id":"5f600669b846780f0fe45709","study_id":"6197b3f67c2b5cd3b6d9596a","session_id":"619be786611723d14c203d2f","condition":"contingent","relevant_dimensions":["pattern","legs"],"bee_group":{"antennae":"X","wings":"X","pattern":"D","legs":"F"},"bonus":1.660000000000001},{"rt":1158.1000000238419,"stimulus":"bees-with-color/bee-B2DM.svg","response":0,"trial_type":"image-button-response","trial_index":121,"time_elapsed":542618,"internal_node_id":"0.0-4.0-0.55","subject_id":"5f600669b846780f0fe45709","study_id":"6197b3f67c2b5cd3b6d9596a","session_id":"619be786611723d14c203d2f","condition":"contingent","relevant_dimensions":["pattern","legs"],"bee_group":{"antennae":"X","wings":"X","pattern":"D","legs":"F"},"action":"harvest","summary":"good-harvest","bonus":1.660000000000001},{"rt":685.9000000953674,"stimulus":"\n                    <p><b>Action: <em>harvest</em></b></p>\n                    <p>This is the bee that you just saw.</p>\n                    <img src=\"bees-with-color/bee-B2DM.svg\" width=\"200\">\n                    <p><span class=\"greenText\"><b>Successful harvest!</b></span><br>Your pay has increased by $0.02. Your bonus pay is now $1.06.</p>\n            ","response":0,"trial_type":"html-button-response","trial_index":122,"time_elapsed":543306,"internal_node_id":"0.0-4.0-1.55","subject_id":"5f600669b846780f0fe45709","study_id":"6197b3f67c2b5cd3b6d9596a","session_id":"619be786611723d14c203d2f","condition":"contingent","relevant_dimensions":["pattern","legs"],"bee_group":{"antennae":"X","wings":"X","pattern":"D","legs":"F"},"bonus":1.660000000000001},{"rt":1398.2999999523163,"stimulus":"bees-with-color/bee-A1DF.svg","response":1,"trial_type":"image-button-response","trial_index":123,"time_elapsed":544706,"internal_node_id":"0.0-4.0-0.56","subject_id":"5f600669b846780f0fe45709","study_id":"6197b3f67c2b5cd3b6d9596a","session_id":"619be786611723d14c203d2f","condition":"contingent","relevant_dimensions":["pattern","legs"],"bee_group":{"antennae":"X","wings":"X","pattern":"D","legs":"F"},"action":"avoid","summary":"good-avoid","bonus":1.660000000000001},{"rt":678.3999999761581,"stimulus":"\n                    <p><b>Action: <em>avoid</em></b></p>\n                    <p>This is the bee that you just saw.</p>\n                    <img src=\"bees-with-color/bee-A1DF.svg\" width=\"200\">\n                    <p><br>Your bonus pay is unchanged, and remains at $1.06.</p>\n            ","response":0,"trial_type":"html-button-response","trial_index":124,"time_elapsed":545386,"internal_node_id":"0.0-4.0-1.56","subject_id":"5f600669b846780f0fe45709","study_id":"6197b3f67c2b5cd3b6d9596a","session_id":"619be786611723d14c203d2f","condition":"contingent","relevant_dimensions":["pattern","legs"],"bee_group":{"antennae":"X","wings":"X","pattern":"D","legs":"F"},"bonus":1.660000000000001},{"rt":1222.4000000953674,"stimulus":"bees-with-color/bee-A2DF.svg","response":1,"trial_type":"image-button-response","trial_index":125,"time_elapsed":546610,"internal_node_id":"0.0-4.0-0.57","subject_id":"5f600669b846780f0fe45709","study_id":"6197b3f67c2b5cd3b6d9596a","session_id":"619be786611723d14c203d2f","condition":"contingent","relevant_dimensions":["pattern","legs"],"bee_group":{"antennae":"X","wings":"X","pattern":"D","legs":"F"},"action":"avoid","summary":"good-avoid","bonus":1.660000000000001},{"rt":486.5,"stimulus":"\n                    <p><b>Action: <em>avoid</em></b></p>\n                    <p>This is the bee that you just saw.</p>\n                    <img src=\"bees-with-color/bee-A2DF.svg\" width=\"200\">\n                    <p><br>Your bonus pay is unchanged, and remains at $1.06.</p>\n            ","response":0,"trial_type":"html-button-response","trial_index":126,"time_elapsed":547098,"internal_node_id":"0.0-4.0-1.57","subject_id":"5f600669b846780f0fe45709","study_id":"6197b3f67c2b5cd3b6d9596a","session_id":"619be786611723d14c203d2f","condition":"contingent","relevant_dimensions":["pattern","legs"],"bee_group":{"antennae":"X","wings":"X","pattern":"D","legs":"F"},"bonus":1.660000000000001},{"rt":1766.5,"stimulus":"bees-with-color/bee-B1DM.svg","response":0,"trial_type":"image-button-response","trial_index":127,"time_elapsed":548866,"internal_node_id":"0.0-4.0-0.58","subject_id":"5f600669b846780f0fe45709","study_id":"6197b3f67c2b5cd3b6d9596a","session_id":"619be786611723d14c203d2f","condition":"contingent","relevant_dimensions":["pattern","legs"],"bee_group":{"antennae":"X","wings":"X","pattern":"D","legs":"F"},"action":"harvest","summary":"good-harvest","bonus":1.660000000000001},{"rt":686.7000000476837,"stimulus":"\n                    <p><b>Action: <em>harvest</em></b></p>\n                    <p>This is the bee that you just saw.</p>\n                    <img src=\"bees-with-color/bee-B1DM.svg\" width=\"200\">\n                    <p><span class=\"greenText\"><b>Successful harvest!</b></span><br>Your pay has increased by $0.02. Your bonus pay is now $1.08.</p>\n            ","response":0,"trial_type":"html-button-response","trial_index":128,"time_elapsed":549554,"internal_node_id":"0.0-4.0-1.58","subject_id":"5f600669b846780f0fe45709","study_id":"6197b3f67c2b5cd3b6d9596a","session_id":"619be786611723d14c203d2f","condition":"contingent","relevant_dimensions":["pattern","legs"],"bee_group":{"antennae":"X","wings":"X","pattern":"D","legs":"F"},"bonus":1.660000000000001},{"rt":918.2999999523163,"stimulus":"bees-with-color/bee-B2SF.svg","response":0,"trial_type":"image-button-response","trial_index":129,"time_elapsed":550474,"internal_node_id":"0.0-4.0-0.59","subject_id":"5f600669b846780f0fe45709","study_id":"6197b3f67c2b5cd3b6d9596a","session_id":"619be786611723d14c203d2f","condition":"contingent","relevant_dimensions":["pattern","legs"],"bee_group":{"antennae":"X","wings":"X","pattern":"D","legs":"F"},"action":"harvest","summary":"good-harvest","bonus":1.660000000000001},{"rt":622.5,"stimulus":"\n                    <p><b>Action: <em>harvest</em></b></p>\n                    <p>This is the bee that you just saw.</p>\n                    <img src=\"bees-with-color/bee-B2SF.svg\" width=\"200\">\n                    <p><span class=\"greenText\"><b>Successful harvest!</b></span><br>Your pay has increased by $0.02. Your bonus pay is now $1.10.</p>\n            ","response":0,"trial_type":"html-button-response","trial_index":130,"time_elapsed":551098,"internal_node_id":"0.0-4.0-1.59","subject_id":"5f600669b846780f0fe45709","study_id":"6197b3f67c2b5cd3b6d9596a","session_id":"619be786611723d14c203d2f","condition":"contingent","relevant_dimensions":["pattern","legs"],"bee_group":{"antennae":"X","wings":"X","pattern":"D","legs":"F"},"bonus":1.660000000000001},{"rt":886.4000000953674,"stimulus":"bees-with-color/bee-B2SM.svg","response":0,"trial_type":"image-button-response","trial_index":131,"time_elapsed":551986,"internal_node_id":"0.0-4.0-0.60","subject_id":"5f600669b846780f0fe45709","study_id":"6197b3f67c2b5cd3b6d9596a","session_id":"619be786611723d14c203d2f","condition":"contingent","relevant_dimensions":["pattern","legs"],"bee_group":{"antennae":"X","wings":"X","pattern":"D","legs":"F"},"action":"harvest","summary":"good-harvest","bonus":1.660000000000001},{"rt":718.2000000476837,"stimulus":"\n                    <p><b>Action: <em>harvest</em></b></p>\n                    <p>This is the bee that you just saw.</p>\n                    <img src=\"bees-with-color/bee-B2SM.svg\" width=\"200\">\n                    <p><span class=\"greenText\"><b>Successful harvest!</b></span><br>Your pay has increased by $0.02. Your bonus pay is now $1.12.</p>\n            ","response":0,"trial_type":"html-button-response","trial_index":132,"time_elapsed":552706,"internal_node_id":"0.0-4.0-1.60","subject_id":"5f600669b846780f0fe45709","study_id":"6197b3f67c2b5cd3b6d9596a","session_id":"619be786611723d14c203d2f","condition":"contingent","relevant_dimensions":["pattern","legs"],"bee_group":{"antennae":"X","wings":"X","pattern":"D","legs":"F"},"bonus":1.660000000000001},{"rt":1262.8000000715256,"stimulus":"bees-with-color/bee-B1SF.svg","response":0,"trial_type":"image-button-response","trial_index":133,"time_elapsed":553970,"internal_node_id":"0.0-4.0-0.61","subject_id":"5f600669b846780f0fe45709","study_id":"6197b3f67c2b5cd3b6d9596a","session_id":"619be786611723d14c203d2f","condition":"contingent","relevant_dimensions":["pattern","legs"],"bee_group":{"antennae":"X","wings":"X","pattern":"D","legs":"F"},"action":"harvest","summary":"good-harvest","bonus":1.660000000000001},{"rt":558.4000000953674,"stimulus":"\n                    <p><b>Action: <em>harvest</em></b></p>\n                    <p>This is the bee that you just saw.</p>\n                    <img src=\"bees-with-color/bee-B1SF.svg\" width=\"200\">\n                    <p><span class=\"greenText\"><b>Successful harvest!</b></span><br>Your pay has increased by $0.02. Your bonus pay is now $1.14.</p>\n            ","response":0,"trial_type":"html-button-response","trial_index":134,"time_elapsed":554530,"internal_node_id":"0.0-4.0-1.61","subject_id":"5f600669b846780f0fe45709","study_id":"6197b3f67c2b5cd3b6d9596a","session_id":"619be786611723d14c203d2f","condition":"contingent","relevant_dimensions":["pattern","legs"],"bee_group":{"antennae":"X","wings":"X","pattern":"D","legs":"F"},"bonus":1.660000000000001},{"rt":1630.6999999284744,"stimulus":"bees-with-color/bee-A2DM.svg","response":0,"trial_type":"image-button-response","trial_index":135,"time_elapsed":556162,"internal_node_id":"0.0-4.0-0.62","subject_id":"5f600669b846780f0fe45709","study_id":"6197b3f67c2b5cd3b6d9596a","session_id":"619be786611723d14c203d2f","condition":"contingent","relevant_dimensions":["pattern","legs"],"bee_group":{"antennae":"X","wings":"X","pattern":"D","legs":"F"},"action":"harvest","summary":"good-harvest","bonus":1.660000000000001},{"rt":758.3000000715256,"stimulus":"\n                    <p><b>Action: <em>harvest</em></b></p>\n                    <p>This is the bee that you just saw.</p>\n                    <img src=\"bees-with-color/bee-A2DM.svg\" width=\"200\">\n                    <p><span class=\"greenText\"><b>Successful harvest!</b></span><br>Your pay has increased by $0.02. Your bonus pay is now $1.16.</p>\n            ","response":0,"trial_type":"html-button-response","trial_index":136,"time_elapsed":556922,"internal_node_id":"0.0-4.0-1.62","subject_id":"5f600669b846780f0fe45709","study_id":"6197b3f67c2b5cd3b6d9596a","session_id":"619be786611723d14c203d2f","condition":"contingent","relevant_dimensions":["pattern","legs"],"bee_group":{"antennae":"X","wings":"X","pattern":"D","legs":"F"},"bonus":1.660000000000001},{"rt":966.5,"stimulus":"bees-with-color/bee-A1SM.svg","response":0,"trial_type":"image-button-response","trial_index":137,"time_elapsed":557890,"internal_node_id":"0.0-4.0-0.63","subject_id":"5f600669b846780f0fe45709","study_id":"6197b3f67c2b5cd3b6d9596a","session_id":"619be786611723d14c203d2f","condition":"contingent","relevant_dimensions":["pattern","legs"],"bee_group":{"antennae":"X","wings":"X","pattern":"D","legs":"F"},"action":"harvest","summary":"good-harvest","bonus":1.660000000000001},{"rt":622.3999999761581,"stimulus":"\n                    <p><b>Action: <em>harvest</em></b></p>\n                    <p>This is the bee that you just saw.</p>\n                    <img src=\"bees-with-color/bee-A1SM.svg\" width=\"200\">\n                    <p><span class=\"greenText\"><b>Successful harvest!</b></span><br>Your pay has increased by $0.02. Your bonus pay is now $1.18.</p>\n            ","response":0,"trial_type":"html-button-response","trial_index":138,"time_elapsed":558514,"internal_node_id":"0.0-4.0-1.63","subject_id":"5f600669b846780f0fe45709","study_id":"6197b3f67c2b5cd3b6d9596a","session_id":"619be786611723d14c203d2f","condition":"contingent","relevant_dimensions":["pattern","legs"],"bee_group":{"antennae":"X","wings":"X","pattern":"D","legs":"F"},"bonus":1.660000000000001},{"rt":5500.899999976158,"stimulus":"You have completed the first part of this experiment.<br><br>You will now begin a shorter second part, in which you will receive no feedback.<br>The same rules regarding bonus pay apply.<br><br>Press any key to begin.","response":" ","trial_type":"html-keyboard-response","trial_index":139,"time_elapsed":564017,"internal_node_id":"0.0-5.0","subject_id":"5f600669b846780f0fe45709","study_id":"6197b3f67c2b5cd3b6d9596a","session_id":"619be786611723d14c203d2f","condition":"contingent","relevant_dimensions":["pattern","legs"],"bee_group":{"antennae":"X","wings":"X","pattern":"D","legs":"F"},"bonus":1.660000000000001},{"rt":2464.5,"stimulus":"bees-with-color/bee-A2SM.svg","response":0,"trial_type":"image-button-response","trial_index":140,"time_elapsed":566490,"internal_node_id":"0.0-6.0-0.0","subject_id":"5f600669b846780f0fe45709","study_id":"6197b3f67c2b5cd3b6d9596a","session_id":"619be786611723d14c203d2f","condition":"contingent","relevant_dimensions":["pattern","legs"],"bee_group":{"antennae":"X","wings":"X","pattern":"D","legs":"F"},"bonus":1.660000000000001},{"rt":2205.5,"stimulus":"bees-with-color/bee-B2DM.svg","response":0,"trial_type":"image-button-response","trial_index":141,"time_elapsed":568698,"internal_node_id":"0.0-6.0-0.1","subject_id":"5f600669b846780f0fe45709","study_id":"6197b3f67c2b5cd3b6d9596a","session_id":"619be786611723d14c203d2f","condition":"contingent","relevant_dimensions":["pattern","legs"],"bee_group":{"antennae":"X","wings":"X","pattern":"D","legs":"F"},"bonus":1.660000000000001},{"rt":4421.199999928474,"stimulus":"bees-with-color/bee-A1DF.svg","response":1,"trial_type":"image-button-response","trial_index":142,"time_elapsed":573122,"internal_node_id":"0.0-6.0-0.2","subject_id":"5f600669b846780f0fe45709","study_id":"6197b3f67c2b5cd3b6d9596a","session_id":"619be786611723d14c203d2f","condition":"contingent","relevant_dimensions":["pattern","legs"],"bee_group":{"antennae":"X","wings":"X","pattern":"D","legs":"F"},"bonus":1.660000000000001},{"rt":1013.6000000238419,"stimulus":"bees-with-color/bee-A2DM.svg","response":0,"trial_type":"image-button-response","trial_index":143,"time_elapsed":574138,"internal_node_id":"0.0-6.0-0.3","subject_id":"5f600669b846780f0fe45709","study_id":"6197b3f67c2b5cd3b6d9596a","session_id":"619be786611723d14c203d2f","condition":"contingent","relevant_dimensions":["pattern","legs"],"bee_group":{"antennae":"X","wings":"X","pattern":"D","legs":"F"},"bonus":1.660000000000001},{"rt":765.5,"stimulus":"bees-with-color/bee-A1SM.svg","response":0,"trial_type":"image-button-response","trial_index":144,"time_elapsed":574906,"internal_node_id":"0.0-6.0-0.4","subject_id":"5f600669b846780f0fe45709","study_id":"6197b3f67c2b5cd3b6d9596a","session_id":"619be786611723d14c203d2f","condition":"contingent","relevant_dimensions":["pattern","legs"],"bee_group":{"antennae":"X","wings":"X","pattern":"D","legs":"F"},"bonus":1.660000000000001},{"rt":4269.600000023842,"stimulus":"bees-with-color/bee-B2DF.svg","response":1,"trial_type":"image-button-response","trial_index":145,"time_elapsed":579178,"internal_node_id":"0.0-6.0-0.5","subject_id":"5f600669b846780f0fe45709","study_id":"6197b3f67c2b5cd3b6d9596a","session_id":"619be786611723d14c203d2f","condition":"contingent","relevant_dimensions":["pattern","legs"],"bee_group":{"antennae":"X","wings":"X","pattern":"D","legs":"F"},"bonus":1.660000000000001},{"rt":621.3999999761581,"stimulus":"bees-with-color/bee-B1SF.svg","response":0,"trial_type":"image-button-response","trial_index":146,"time_elapsed":579802,"internal_node_id":"0.0-6.0-0.6","subject_id":"5f600669b846780f0fe45709","study_id":"6197b3f67c2b5cd3b6d9596a","session_id":"619be786611723d14c203d2f","condition":"contingent","relevant_dimensions":["pattern","legs"],"bee_group":{"antennae":"X","wings":"X","pattern":"D","legs":"F"},"bonus":1.660000000000001},{"rt":1253.6000000238419,"stimulus":"bees-with-color/bee-B1DM.svg","response":0,"trial_type":"image-button-response","trial_index":147,"time_elapsed":581058,"internal_node_id":"0.0-6.0-0.7","subject_id":"5f600669b846780f0fe45709","study_id":"6197b3f67c2b5cd3b6d9596a","session_id":"619be786611723d14c203d2f","condition":"contingent","relevant_dimensions":["pattern","legs"],"bee_group":{"antennae":"X","wings":"X","pattern":"D","legs":"F"},"bonus":1.660000000000001},{"rt":725.5,"stimulus":"bees-with-color/bee-B1SM.svg","response":0,"trial_type":"image-button-response","trial_index":148,"time_elapsed":581786,"internal_node_id":"0.0-6.0-0.8","subject_id":"5f600669b846780f0fe45709","study_id":"6197b3f67c2b5cd3b6d9596a","session_id":"619be786611723d14c203d2f","condition":"contingent","relevant_dimensions":["pattern","legs"],"bee_group":{"antennae":"X","wings":"X","pattern":"D","legs":"F"},"bonus":1.660000000000001},{"rt":845.3999999761581,"stimulus":"bees-with-color/bee-A1DM.svg","response":0,"trial_type":"image-button-response","trial_index":149,"time_elapsed":582634,"internal_node_id":"0.0-6.0-0.9","subject_id":"5f600669b846780f0fe45709","study_id":"6197b3f67c2b5cd3b6d9596a","session_id":"619be786611723d14c203d2f","condition":"contingent","relevant_dimensions":["pattern","legs"],"bee_group":{"antennae":"X","wings":"X","pattern":"D","legs":"F"},"bonus":1.660000000000001},{"rt":1173.6000000238419,"stimulus":"bees-with-color/bee-A2SF.svg","response":0,"trial_type":"image-button-response","trial_index":150,"time_elapsed":583810,"internal_node_id":"0.0-6.0-0.10","subject_id":"5f600669b846780f0fe45709","study_id":"6197b3f67c2b5cd3b6d9596a","session_id":"619be786611723d14c203d2f","condition":"contingent","relevant_dimensions":["pattern","legs"],"bee_group":{"antennae":"X","wings":"X","pattern":"D","legs":"F"},"bonus":1.660000000000001},{"rt":573.5,"stimulus":"bees-with-color/bee-A1SF.svg","response":0,"trial_type":"image-button-response","trial_index":151,"time_elapsed":584386,"internal_node_id":"0.0-6.0-0.11","subject_id":"5f600669b846780f0fe45709","study_id":"6197b3f67c2b5cd3b6d9596a","session_id":"619be786611723d14c203d2f","condition":"contingent","relevant_dimensions":["pattern","legs"],"bee_group":{"antennae":"X","wings":"X","pattern":"D","legs":"F"},"bonus":1.660000000000001},{"rt":1325.1000000238419,"stimulus":"bees-with-color/bee-A2DF.svg","response":1,"trial_type":"image-button-response","trial_index":152,"time_elapsed":585714,"internal_node_id":"0.0-6.0-0.12","subject_id":"5f600669b846780f0fe45709","study_id":"6197b3f67c2b5cd3b6d9596a","session_id":"619be786611723d14c203d2f","condition":"contingent","relevant_dimensions":["pattern","legs"],"bee_group":{"antennae":"X","wings":"X","pattern":"D","legs":"F"},"bonus":1.660000000000001},{"rt":1349.2999999523163,"stimulus":"bees-with-color/bee-B1DF.svg","response":1,"trial_type":"image-button-response","trial_index":153,"time_elapsed":587066,"internal_node_id":"0.0-6.0-0.13","subject_id":"5f600669b846780f0fe45709","study_id":"6197b3f67c2b5cd3b6d9596a","session_id":"619be786611723d14c203d2f","condition":"contingent","relevant_dimensions":["pattern","legs"],"bee_group":{"antennae":"X","wings":"X","pattern":"D","legs":"F"},"bonus":1.660000000000001},{"rt":661.1999999284744,"stimulus":"bees-with-color/bee-B2SM.svg","response":0,"trial_type":"image-button-response","trial_index":154,"time_elapsed":587730,"internal_node_id":"0.0-6.0-0.14","subject_id":"5f600669b846780f0fe45709","study_id":"6197b3f67c2b5cd3b6d9596a","session_id":"619be786611723d14c203d2f","condition":"contingent","relevant_dimensions":["pattern","legs"],"bee_group":{"antennae":"X","wings":"X","pattern":"D","legs":"F"},"bonus":1.660000000000001},{"rt":781.2999999523163,"stimulus":"bees-with-color/bee-B2SF.svg","response":0,"trial_type":"image-button-response","trial_index":155,"time_elapsed":588514,"internal_node_id":"0.0-6.0-0.15","subject_id":"5f600669b846780f0fe45709","study_id":"6197b3f67c2b5cd3b6d9596a","session_id":"619be786611723d14c203d2f","condition":"contingent","relevant_dimensions":["pattern","legs"],"bee_group":{"antennae":"X","wings":"X","pattern":"D","legs":"F"},"bonus":1.660000000000001},{"rt":1309.8999999761581,"stimulus":"bees-with-color/bee-B1DF.svg","response":1,"trial_type":"image-button-response","trial_index":156,"time_elapsed":589826,"internal_node_id":"0.0-6.0-0.16","subject_id":"5f600669b846780f0fe45709","study_id":"6197b3f67c2b5cd3b6d9596a","session_id":"619be786611723d14c203d2f","condition":"contingent","relevant_dimensions":["pattern","legs"],"bee_group":{"antennae":"X","wings":"X","pattern":"D","legs":"F"},"bonus":1.660000000000001},{"rt":725.2999999523163,"stimulus":"bees-with-color/bee-A1SF.svg","response":0,"trial_type":"image-button-response","trial_index":157,"time_elapsed":590554,"internal_node_id":"0.0-6.0-0.17","subject_id":"5f600669b846780f0fe45709","study_id":"6197b3f67c2b5cd3b6d9596a","session_id":"619be786611723d14c203d2f","condition":"contingent","relevant_dimensions":["pattern","legs"],"bee_group":{"antennae":"X","wings":"X","pattern":"D","legs":"F"},"bonus":1.660000000000001},{"rt":901.7999999523163,"stimulus":"bees-with-color/bee-A1SM.svg","response":0,"trial_type":"image-button-response","trial_index":158,"time_elapsed":591458,"internal_node_id":"0.0-6.0-0.18","subject_id":"5f600669b846780f0fe45709","study_id":"6197b3f67c2b5cd3b6d9596a","session_id":"619be786611723d14c203d2f","condition":"contingent","relevant_dimensions":["pattern","legs"],"bee_group":{"antennae":"X","wings":"X","pattern":"D","legs":"F"},"bonus":1.660000000000001},{"rt":1013.8999999761581,"stimulus":"bees-with-color/bee-B2SF.svg","response":0,"trial_type":"image-button-response","trial_index":159,"time_elapsed":592474,"internal_node_id":"0.0-6.0-0.19","subject_id":"5f600669b846780f0fe45709","study_id":"6197b3f67c2b5cd3b6d9596a","session_id":"619be786611723d14c203d2f","condition":"contingent","relevant_dimensions":["pattern","legs"],"bee_group":{"antennae":"X","wings":"X","pattern":"D","legs":"F"},"bonus":1.660000000000001},{"rt":933.7999999523163,"stimulus":"bees-with-color/bee-A2DF.svg","response":1,"trial_type":"image-button-response","trial_index":160,"time_elapsed":593410,"internal_node_id":"0.0-6.0-0.20","subject_id":"5f600669b846780f0fe45709","study_id":"6197b3f67c2b5cd3b6d9596a","session_id":"619be786611723d14c203d2f","condition":"contingent","relevant_dimensions":["pattern","legs"],"bee_group":{"antennae":"X","wings":"X","pattern":"D","legs":"F"},"bonus":1.660000000000001},{"rt":1085.7999999523163,"stimulus":"bees-with-color/bee-A2DM.svg","response":0,"trial_type":"image-button-response","trial_index":161,"time_elapsed":594498,"internal_node_id":"0.0-6.0-0.21","subject_id":"5f600669b846780f0fe45709","study_id":"6197b3f67c2b5cd3b6d9596a","session_id":"619be786611723d14c203d2f","condition":"contingent","relevant_dimensions":["pattern","legs"],"bee_group":{"antennae":"X","wings":"X","pattern":"D","legs":"F"},"bonus":1.660000000000001},{"rt":901.5,"stimulus":"bees-with-color/bee-B1SM.svg","response":0,"trial_type":"image-button-response","trial_index":162,"time_ela