[{"success":true,"trial_type":"fullscreen","trial_index":0,"time_elapsed":5738,"internal_node_id":"0.0-0.0","subject_id":"613bf63329e4dd6f7368d23a","study_id":"6197b3f67c2b5cd3b6d9596a","session_id":"6197b564282779582d874fe8","condition":"full-information","relevant_dimensions":["pattern","legs"],"bee_group":{"antennae":"X","wings":"X","pattern":"D","legs":"M"},"bonus":1.6800000000000013},{"success":true,"timeout":false,"failed_images":[],"failed_audio":[],"failed_video":[],"trial_type":"preload","trial_index":1,"time_elapsed":6366,"internal_node_id":"0.0-1.0","subject_id":"613bf63329e4dd6f7368d23a","study_id":"6197b3f67c2b5cd3b6d9596a","session_id":"6197b564282779582d874fe8","condition":"full-information","relevant_dimensions":["pattern","legs"],"bee_group":{"antennae":"X","wings":"X","pattern":"D","legs":"M"},"bonus":1.6800000000000013},{"rt":1987.6000000238419,"stimulus":"Welcome! Press any key to begin.","response":" ","trial_type":"html-keyboard-response","trial_index":2,"time_elapsed":8354,"internal_node_id":"0.0-2.0","subject_id":"613bf63329e4dd6f7368d23a","study_id":"6197b3f67c2b5cd3b6d9596a","session_id":"6197b564282779582d874fe8","condition":"full-information","relevant_dimensions":["pattern","legs"],"bee_group":{"antennae":"X","wings":"X","pattern":"D","legs":"M"},"bonus":1.6800000000000013},{"view_history":[{"page_index":0,"viewing_time":5226.399999976158},{"page_index":1,"viewing_time":13622.900000035763},{"page_index":2,"viewing_time":10689.699999988079},{"page_index":3,"viewing_time":13377.800000011921},{"page_index":4,"viewing_time":12732.599999964237},{"page_index":5,"viewing_time":6220.300000011921},{"page_index":6,"viewing_time":11417.100000023842},{"page_index":7,"viewing_time":15192.799999952316},{"page_index":8,"viewing_time":6550.200000047684},{"page_index":9,"viewing_time":8359.199999988079},{"page_index":10,"viewing_time":6700.300000011921},{"page_index":11,"viewing_time":12227.799999952316},{"page_index":12,"viewing_time":17552.600000023842},{"page_index":13,"viewing_time":1579.800000011921},{"page_index":14,"viewing_time":3998.300000011921}],"rt":145449,"trial_type":"instructions","trial_index":3,"time_elapsed":153804,"internal_node_id":"0.0-3.0-0.0","subject_id":"613bf63329e4dd6f7368d23a","study_id":"6197b3f67c2b5cd3b6d9596a","session_id":"6197b564282779582d874fe8","condition":"full-information","relevant_dimensions":["pattern","legs"],"bee_group":{"antennae":"X","wings":"X","pattern":"D","legs":"M"},"bonus":1.6800000000000013},{"rt":32214.399999976158,"response":{"Q0":["Two or six legs","Stripes or spots on body","Single or double wings","Antennae or no antennae"]},"question_order":[0],"trial_type":"survey-multi-select","trial_index":4,"time_elapsed":186029,"internal_node_id":"0.0-3.0-1.0","subject_id":"613bf63329e4dd6f7368d23a","study_id":"6197b3f67c2b5cd3b6d9596a","session_id":"6197b564282779582d874fe8","condition":"full-information","relevant_dimensions":["pattern","legs"],"bee_group":{"antennae":"X","wings":"X","pattern":"D","legs":"M"},"correct":true,"bonus":1.6800000000000013},{"rt":35615.19999998808,"response":{"Q1":"No.","Q2":"Based on the four features of the bee.","Q3":"You learn if it was friendly or dangerous, but do not alter your bonus."},"question_order":[0,1,2],"trial_type":"survey-multi-choice","trial_index":5,"time_elapsed":221651,"internal_node_id":"0.0-3.0-2.0","subject_id":"613bf63329e4dd6f7368d23a","study_id":"6197b3f67c2b5cd3b6d9596a","session_id":"6197b564282779582d874fe8","condition":"full-information","relevant_dimensions":["pattern","legs"],"bee_group":{"antennae":"X","wings":"X","pattern":"D","legs":"M"},"correct":true,"bonus":1.6800000000000013},{"rt":4253.400000035763,"stimulus":"<p>Congrats, you got everything right<br>When you're ready, click the button below to continue to the experiment.</p>","response":0,"trial_type":"html-button-response","trial_index":6,"time_elapsed":225911,"internal_node_id":"0.0-3.0-3.0","subject_id":"613bf63329e4dd6f7368d23a","study_id":"6197b3f67c2b5cd3b6d9596a","session_id":"6197b564282779582d874fe8","condition":"full-information","relevant_dimensions":["pattern","legs"],"bee_group":{"antennae":"X","wings":"X","pattern":"D","legs":"M"},"bonus":1.6800000000000013},{"rt":7186.600000023842,"stimulus":"bees-with-color/bee-A1SF.svg","response":0,"trial_type":"image-button-response","trial_index":7,"time_elapsed":233105,"internal_node_id":"0.0-4.0-0.0","subject_id":"613bf63329e4dd6f7368d23a","study_id":"6197b3f67c2b5cd3b6d9596a","session_id":"6197b564282779582d874fe8","condition":"full-information","relevant_dimensions":["pattern","legs"],"bee_group":{"antennae":"X","wings":"X","pattern":"D","legs":"M"},"action":"harvest","summary":"good-harvest","bonus":1.6800000000000013},{"rt":5289.199999988079,"stimulus":"\n                    <p><b>Action: <em>harvest</em></b></p>\n                    <p>This is the bee that you just saw.</p>\n                    <img src=\"bees-with-color/bee-A1SF.svg\" width=\"200\">\n                    <p><span class=\"greenText\"><b>Successful harvest!</b></span><br>Your pay has increased by $0.02. Your bonus pay is now $0.56.</p>\n            ","response":0,"trial_type":"html-button-response","trial_index":8,"time_elapsed":238400,"internal_node_id":"0.0-4.0-1.0","subject_id":"613bf63329e4dd6f7368d23a","study_id":"6197b3f67c2b5cd3b6d9596a","session_id":"6197b564282779582d874fe8","condition":"full-information","relevant_dimensions":["pattern","legs"],"bee_group":{"antennae":"X","wings":"X","pattern":"D","legs":"M"},"bonus":1.6800000000000013},{"rt":3881.699999988079,"stimulus":"bees-with-color/bee-A2DM.svg","response":1,"trial_type":"image-button-response","trial_index":9,"time_elapsed":242286,"internal_node_id":"0.0-4.0-0.1","subject_id":"613bf63329e4dd6f7368d23a","study_id":"6197b3f67c2b5cd3b6d9596a","session_id":"6197b564282779582d874fe8","condition":"full-information","relevant_dimensions":["pattern","legs"],"bee_group":{"antennae":"X","wings":"X","pattern":"D","legs":"M"},"action":"avoid","summary":"good-avoid","bonus":1.6800000000000013},{"rt":21493.5,"stimulus":"\n                    <p><b>Action: <em>avoid</em></b></p>\n                    <p>This is the bee that you just saw.</p>\n                    <img src=\"bees-with-color/bee-A2DM.svg\" width=\"200\">\n                    <p><span class=\"greenText\">Good choice!</span>  This bee would have stung you.<br>Your bonus pay is unchanged, and remains at $0.56.</p>\n            ","response":0,"trial_type":"html-button-response","trial_index":10,"time_elapsed":263784,"internal_node_id":"0.0-4.0-1.1","subject_id":"613bf63329e4dd6f7368d23a","study_id":"6197b3f67c2b5cd3b6d9596a","session_id":"6197b564282779582d874fe8","condition":"full-information","relevant_dimensions":["pattern","legs"],"bee_group":{"antennae":"X","wings":"X","pattern":"D","legs":"M"},"bonus":1.6800000000000013},{"rt":5866.5,"stimulus":"bees-with-color/bee-B2SM.svg","response":1,"trial_type":"image-button-response","trial_index":11,"time_elapsed":269656,"internal_node_id":"0.0-4.0-0.2","subject_id":"613bf63329e4dd6f7368d23a","study_id":"6197b3f67c2b5cd3b6d9596a","session_id":"6197b564282779582d874fe8","condition":"full-information","relevant_dimensions":["pattern","legs"],"bee_group":{"antennae":"X","wings":"X","pattern":"D","legs":"M"},"action":"avoid","summary":"bad-avoid","bonus":1.6800000000000013},{"rt":9030.899999976158,"stimulus":"\n                    <p><b>Action: <em>avoid</em></b></p>\n                    <p>This is the bee that you just saw.</p>\n                    <img src=\"bees-with-color/bee-B2SM.svg\" width=\"200\">\n                    <p><span class=\"redText\">Bad choice,</span> the bee was friendly.<br>Your bonus pay is unchanged, and remains at $0.56.</p>\n            ","response":0,"trial_type":"html-button-response","trial_index":12,"time_elapsed":278690,"internal_node_id":"0.0-4.0-1.2","subject_id":"613bf63329e4dd6f7368d23a","study_id":"6197b3f67c2b5cd3b6d9596a","session_id":"6197b564282779582d874fe8","condition":"full-information","relevant_dimensions":["pattern","legs"],"bee_group":{"antennae":"X","wings":"X","pattern":"D","legs":"M"},"bonus":1.6800000000000013},{"rt":3518.199999988079,"stimulus":"bees-with-color/bee-B1DF.svg","response":1,"trial_type":"image-button-response","trial_index":13,"time_elapsed":282214,"internal_node_id":"0.0-4.0-0.3","subject_id":"613bf63329e4dd6f7368d23a","study_id":"6197b3f67c2b5cd3b6d9596a","session_id":"6197b564282779582d874fe8","condition":"full-information","relevant_dimensions":["pattern","legs"],"bee_group":{"antennae":"X","wings":"X","pattern":"D","legs":"M"},"action":"avoid","summary":"bad-avoid","bonus":1.6800000000000013},{"rt":5268.300000011921,"stimulus":"\n                    <p><b>Action: <em>avoid</em></b></p>\n                    <p>This is the bee that you just saw.</p>\n                    <img src=\"bees-with-color/bee-B1DF.svg\" width=\"200\">\n                    <p><span class=\"redText\">Bad choice,</span> the bee was friendly.<br>Your bonus pay is unchanged, and remains at $0.56.</p>\n            ","response":0,"trial_type":"html-button-response","trial_index":14,"time_elapsed":287485,"internal_node_id":"0.0-4.0-1.3","subject_id":"613bf63329e4dd6f7368d23a","study_id":"6197b3f67c2b5cd3b6d9596a","session_id":"6197b564282779582d874fe8","condition":"full-information","relevant_dimensions":["pattern","legs"],"bee_group":{"antennae":"X","wings":"X","pattern":"D","legs":"M"},"bonus":1.6800000000000013},{"rt":2337.399999976158,"stimulus":"bees-with-color/bee-A2DF.svg","response":1,"trial_type":"image-button-response","trial_index":15,"time_elapsed":289825,"internal_node_id":"0.0-4.0-0.4","subject_id":"613bf63329e4dd6f7368d23a","study_id":"6197b3f67c2b5cd3b6d9596a","session_id":"6197b564282779582d874fe8","condition":"full-information","relevant_dimensions":["pattern","legs"],"bee_group":{"antennae":"X","wings":"X","pattern":"D","legs":"M"},"action":"avoid","summary":"bad-avoid","bonus":1.6800000000000013},{"rt":3357.599999964237,"stimulus":"\n                    <p><b>Action: <em>avoid</em></b></p>\n                    <p>This is the bee that you just saw.</p>\n                    <img src=\"bees-with-color/bee-A2DF.svg\" width=\"200\">\n                    <p><span class=\"redText\">Bad choice,</span> the bee was friendly.<br>Your bonus pay is unchanged, and remains at $0.56.</p>\n            ","response":0,"trial_type":"html-button-response","trial_index":16,"time_elapsed":293186,"internal_node_id":"0.0-4.0-1.4","subject_id":"613bf63329e4dd6f7368d23a","study_id":"6197b3f67c2b5cd3b6d9596a","session_id":"6197b564282779582d874fe8","condition":"full-information","relevant_dimensions":["pattern","legs"],"bee_group":{"antennae":"X","wings":"X","pattern":"D","legs":"M"},"bonus":1.6800000000000013},{"rt":16532.5,"stimulus":"bees-with-color/bee-A2SM.svg","response":1,"trial_type":"image-button-response","trial_index":17,"time_elapsed":309722,"internal_node_id":"0.0-4.0-0.5","subject_id":"613bf63329e4dd6f7368d23a","study_id":"6197b3f67c2b5cd3b6d9596a","session_id":"6197b564282779582d874fe8","condition":"full-information","relevant_dimensions":["pattern","legs"],"bee_group":{"antennae":"X","wings":"X","pattern":"D","legs":"M"},"action":"avoid","summary":"bad-avoid","bonus":1.6800000000000013},{"rt":2179.199999988079,"stimulus":"\n                    <p><b>Action: <em>avoid</em></b></p>\n                    <p>This is the bee that you just saw.</p>\n                    <img src=\"bees-with-color/bee-A2SM.svg\" width=\"200\">\n                    <p><span class=\"redText\">Bad choice,</span> the bee was friendly.<br>Your bonus pay is unchanged, and remains at $0.56.</p>\n            ","response":0,"trial_type":"html-button-response","trial_index":18,"time_elapsed":311908,"internal_node_id":"0.0-4.0-1.5","subject_id":"613bf63329e4dd6f7368d23a","study_id":"6197b3f67c2b5cd3b6d9596a","session_id":"6197b564282779582d874fe8","condition":"full-information","relevant_dimensions":["pattern","legs"],"bee_group":{"antennae":"X","wings":"X","pattern":"D","legs":"M"},"bonus":1.6800000000000013},{"rt":1687.0999999642372,"stimulus":"bees-with-color/bee-B1DM.svg","response":0,"trial_type":"image-button-response","trial_index":19,"time_elapsed":313599,"internal_node_id":"0.0-4.0-0.6","subject_id":"613bf63329e4dd6f7368d23a","study_id":"6197b3f67c2b5cd3b6d9596a","session_id":"6197b564282779582d874fe8","condition":"full-information","relevant_dimensions":["pattern","legs"],"bee_group":{"antennae":"X","wings":"X","pattern":"D","legs":"M"},"action":"harvest","summary":"bad-harvest","bonus":1.6800000000000013},{"rt":5684.400000035763,"stimulus":"\n                    <p><b>Action: <em>harvest</em></b></p>\n                    <p>This is the bee that you just saw.</p>\n                    <img src=\"bees-with-color/bee-B1DM.svg\" width=\"200\">\n                    <p><span class=\"redText\">Bad choice, the bee was angry.</span><br><b>You have been stung!</b><br>Your pay has been decreased by $0.10. Your bonus pay is now $0.46.</p>\n            ","response":0,"trial_type":"html-button-response","trial_index":20,"time_elapsed":319285,"internal_node_id":"0.0-4.0-1.6","subject_id":"613bf63329e4dd6f7368d23a","study_id":"6197b3f67c2b5cd3b6d9596a","session_id":"6197b564282779582d874fe8","condition":"full-information","relevant_dimensions":["pattern","legs"],"bee_group":{"antennae":"X","wings":"X","pattern":"D","legs":"M"},"bonus":1.6800000000000013},{"rt":2223.199999988079,"stimulus":"bees-with-color/bee-A1DF.svg","response":0,"trial_type":"image-button-response","trial_index":21,"time_elapsed":321512,"internal_node_id":"0.0-4.0-0.7","subject_id":"613bf63329e4dd6f7368d23a","study_id":"6197b3f67c2b5cd3b6d9596a","session_id":"6197b564282779582d874fe8","condition":"full-information","relevant_dimensions":["pattern","legs"],"bee_group":{"antennae":"X","wings":"X","pattern":"D","legs":"M"},"action":"harvest","summary":"good-harvest","bonus":1.6800000000000013},{"rt":1908.9000000357628,"stimulus":"\n                    <p><b>Action: <em>harvest</em></b></p>\n                    <p>This is the bee that you just saw.</p>\n                    <img src=\"bees-with-color/bee-A1DF.svg\" width=\"200\">\n                    <p><span class=\"greenText\"><b>Successful harvest!</b></span><br>Your pay has increased by $0.02. Your bonus pay is now $0.48.</p>\n            ","response":0,"trial_type":"html-button-response","trial_index":22,"time_elapsed":323426,"internal_node_id":"0.0-4.0-1.7","subject_id":"613bf63329e4dd6f7368d23a","study_id":"6197b3f67c2b5cd3b6d9596a","session_id":"6197b564282779582d874fe8","condition":"full-information","relevant_dimensions":["pattern","legs"],"bee_group":{"antennae":"X","wings":"X","pattern":"D","legs":"M"},"bonus":1.6800000000000013},{"rt":3879.199999988079,"stimulus":"bees-with-color/bee-A1SM.svg","response":0,"trial_type":"image-button-response","trial_index":23,"time_elapsed":327312,"internal_node_id":"0.0-4.0-0.8","subject_id":"613bf63329e4dd6f7368d23a","study_id":"6197b3f67c2b5cd3b6d9596a","session_id":"6197b564282779582d874fe8","condition":"full-information","relevant_dimensions":["pattern","legs"],"bee_group":{"antennae":"X","wings":"X","pattern":"D","legs":"M"},"action":"harvest","summary":"good-harvest","bonus":1.6800000000000013},{"rt":1548.8999999761581,"stimulus":"\n                    <p><b>Action: <em>harvest</em></b></p>\n                    <p>This is the bee that you just saw.</p>\n                    <img src=\"bees-with-color/bee-A1SM.svg\" width=\"200\">\n                    <p><span class=\"greenText\"><b>Successful harvest!</b></span><br>Your pay has increased by $0.02. Your bonus pay is now $0.50.</p>\n            ","response":0,"trial_type":"html-button-response","trial_index":24,"time_elapsed":328869,"internal_node_id":"0.0-4.0-1.8","subject_id":"613bf63329e4dd6f7368d23a","study_id":"6197b3f67c2b5cd3b6d9596a","session_id":"6197b564282779582d874fe8","condition":"full-information","relevant_dimensions":["pattern","legs"],"bee_group":{"antennae":"X","wings":"X","pattern":"D","legs":"M"},"bonus":1.6800000000000013},{"rt":3700.2999999523163,"stimulus":"bees-with-color/bee-A1DM.svg","response":1,"trial_type":"image-button-response","trial_index":25,"time_elapsed":332572,"internal_node_id":"0.0-4.0-0.9","subject_id":"613bf63329e4dd6f7368d23a","study_id":"6197b3f67c2b5cd3b6d9596a","session_id":"6197b564282779582d874fe8","condition":"full-information","relevant_dimensions":["pattern","legs"],"bee_group":{"antennae":"X","wings":"X","pattern":"D","legs":"M"},"action":"avoid","summary":"good-avoid","bonus":1.6800000000000013},{"rt":2341.600000023842,"stimulus":"\n                    <p><b>Action: <em>avoid</em></b></p>\n                    <p>This is the bee that you just saw.</p>\n                    <img src=\"bees-with-color/bee-A1DM.svg\" width=\"200\">\n                    <p><span class=\"greenText\">Good choice!</span>  This bee would have stung you.<br>Your bonus pay is unchanged, and remains at $0.50.</p>\n            ","response":0,"trial_type":"html-button-response","trial_index":26,"time_elapsed":334920,"internal_node_id":"0.0-4.0-1.9","subject_id":"613bf63329e4dd6f7368d23a","study_id":"6197b3f67c2b5cd3b6d9596a","session_id":"6197b564282779582d874fe8","condition":"full-information","relevant_dimensions":["pattern","legs"],"bee_group":{"antennae":"X","wings":"X","pattern":"D","legs":"M"},"bonus":1.6800000000000013},{"rt":2074.300000011921,"stimulus":"bees-with-color/bee-B1SM.svg","response":0,"trial_type":"image-button-response","trial_index":27,"time_elapsed":336997,"internal_node_id":"0.0-4.0-0.10","subject_id":"613bf63329e4dd6f7368d23a","study_id":"6197b3f67c2b5cd3b6d9596a","session_id":"6197b564282779582d874fe8","condition":"full-information","relevant_dimensions":["pattern","legs"],"bee_group":{"antennae":"X","wings":"X","pattern":"D","legs":"M"},"action":"harvest","summary":"good-harvest","bonus":1.6800000000000013},{"rt":1261.699999988079,"stimulus":"\n                    <p><b>Action: <em>harvest</em></b></p>\n                    <p>This is the bee that you just saw.</p>\n                    <img src=\"bees-with-color/bee-B1SM.svg\" width=\"200\">\n                    <p><span class=\"greenText\"><b>Successful harvest!</b></span><br>Your pay has increased by $0.02. Your bonus pay is now $0.52.</p>\n            ","response":0,"trial_type":"html-button-response","trial_index":28,"time_elapsed":338262,"internal_node_id":"0.0-4.0-1.10","subject_id":"613bf63329e4dd6f7368d23a","study_id":"6197b3f67c2b5cd3b6d9596a","session_id":"6197b564282779582d874fe8","condition":"full-information","relevant_dimensions":["pattern","legs"],"bee_group":{"antennae":"X","wings":"X","pattern":"D","legs":"M"},"bonus":1.6800000000000013},{"rt":1805,"stimulus":"bees-with-color/bee-B2SF.svg","response":0,"trial_type":"image-button-response","trial_index":29,"time_elapsed":340072,"internal_node_id":"0.0-4.0-0.11","subject_id":"613bf63329e4dd6f7368d23a","study_id":"6197b3f67c2b5cd3b6d9596a","session_id":"6197b564282779582d874fe8","condition":"full-information","relevant_dimensions":["pattern","legs"],"bee_group":{"antennae":"X","wings":"X","pattern":"D","legs":"M"},"action":"harvest","summary":"good-harvest","bonus":1.6800000000000013},{"rt":1403.2000000476837,"stimulus":"\n                    <p><b>Action: <em>harvest</em></b></p>\n                    <p>This is the bee that you just saw.</p>\n                    <img src=\"bees-with-color/bee-B2SF.svg\" width=\"200\">\n                    <p><span class=\"greenText\"><b>Successful harvest!</b></span><br>Your pay has increased by $0.02. Your bonus pay is now $0.54.</p>\n            ","response":0,"trial_type":"html-button-response","trial_index":30,"time_elapsed":341479,"internal_node_id":"0.0-4.0-1.11","subject_id":"613bf63329e4dd6f7368d23a","study_id":"6197b3f67c2b5cd3b6d9596a","session_id":"6197b564282779582d874fe8","condition":"full-information","relevant_dimensions":["pattern","legs"],"bee_group":{"antennae":"X","wings":"X","pattern":"D","legs":"M"},"bonus":1.6800000000000013},{"rt":1523.800000011921,"stimulus":"bees-with-color/bee-B2DF.svg","response":0,"trial_type":"image-button-response","trial_index":31,"time_elapsed":343005,"internal_node_id":"0.0-4.0-0.12","subject_id":"613bf63329e4dd6f7368d23a","study_id":"6197b3f67c2b5cd3b6d9596a","session_id":"6197b564282779582d874fe8","condition":"full-information","relevant_dimensions":["pattern","legs"],"bee_group":{"antennae":"X","wings":"X","pattern":"D","legs":"M"},"action":"harvest","summary":"good-harvest","bonus":1.6800000000000013},{"rt":1354.3999999761581,"stimulus":"\n                    <p><b>Action: <em>harvest</em></b></p>\n                    <p>This is the bee that you just saw.</p>\n                    <img src=\"bees-with-color/bee-B2DF.svg\" width=\"200\">\n                    <p><span class=\"greenText\"><b>Successful harvest!</b></span><br>Your pay has increased by $0.02. Your bonus pay is now $0.56.</p>\n            ","response":0,"trial_type":"html-button-response","trial_index":32,"time_elapsed":344362,"internal_node_id":"0.0-4.0-1.12","subject_id":"613bf63329e4dd6f7368d23a","study_id":"6197b3f67c2b5cd3b6d9596a","session_id":"6197b564282779582d874fe8","condition":"full-information","relevant_dimensions":["pattern","legs"],"bee_group":{"antennae":"X","wings":"X","pattern":"D","legs":"M"},"bonus":1.6800000000000013},{"rt":3458.600000023842,"stimulus":"bees-with-color/bee-A2SF.svg","response":0,"trial_type":"image-button-response","trial_index":33,"time_elapsed":347825,"internal_node_id":"0.0-4.0-0.13","subject_id":"613bf63329e4dd6f7368d23a","study_id":"6197b3f67c2b5cd3b6d9596a","session_id":"6197b564282779582d874fe8","condition":"full-information","relevant_dimensions":["pattern","legs"],"bee_group":{"antennae":"X","wings":"X","pattern":"D","legs":"M"},"action":"harvest","summary":"good-harvest","bonus":1.6800000000000013},{"rt":1138.2999999523163,"stimulus":"\n                    <p><b>Action: <em>harvest</em></b></p>\n                    <p>This is the bee that you just saw.</p>\n                    <img src=\"bees-with-color/bee-A2SF.svg\" width=\"200\">\n                    <p><span class=\"greenText\"><b>Successful harvest!</b></span><br>Your pay has increased by $0.02. Your bonus pay is now $0.58.</p>\n            ","response":0,"trial_type":"html-button-response","trial_index":34,"time_elapsed":348967,"internal_node_id":"0.0-4.0-1.13","subject_id":"613bf63329e4dd6f7368d23a","study_id":"6197b3f67c2b5cd3b6d9596a","session_id":"6197b564282779582d874fe8","condition":"full-information","relevant_dimensions":["pattern","legs"],"bee_group":{"antennae":"X","wings":"X","pattern":"D","legs":"M"},"bonus":1.6800000000000013},{"rt":1688.1000000238419,"stimulus":"bees-with-color/bee-B2DM.svg","response":1,"trial_type":"image-button-response","trial_index":35,"time_elapsed":350658,"internal_node_id":"0.0-4.0-0.14","subject_id":"613bf63329e4dd6f7368d23a","study_id":"6197b3f67c2b5cd3b6d9596a","session_id":"6197b564282779582d874fe8","condition":"full-information","relevant_dimensions":["pattern","legs"],"bee_group":{"antennae":"X","wings":"X","pattern":"D","legs":"M"},"action":"avoid","summary":"good-avoid","bonus":1.6800000000000013},{"rt":1554.6000000238419,"stimulus":"\n                    <p><b>Action: <em>avoid</em></b></p>\n                    <p>This is the bee that you just saw.</p>\n                    <img src=\"bees-with-color/bee-B2DM.svg\" width=\"200\">\n                    <p><span class=\"greenText\">Good choice!</span>  This bee would have stung you.<br>Your bonus pay is unchanged, and remains at $0.58.</p>\n            ","response":0,"trial_type":"html-button-response","trial_index":36,"time_elapsed":352217,"internal_node_id":"0.0-4.0-1.14","subject_id":"613bf63329e4dd6f7368d23a","study_id":"6197b3f67c2b5cd3b6d9596a","session_id":"6197b564282779582d874fe8","condition":"full-information","relevant_dimensions":["pattern","legs"],"bee_group":{"antennae":"X","wings":"X","pattern":"D","legs":"M"},"bonus":1.6800000000000013},{"rt":2829.899999976158,"stimulus":"bees-with-color/bee-B1SF.svg","response":0,"trial_type":"image-button-response","trial_index":37,"time_elapsed":355050,"internal_node_id":"0.0-4.0-0.15","subject_id":"613bf63329e4dd6f7368d23a","study_id":"6197b3f67c2b5cd3b6d9596a","session_id":"6197b564282779582d874fe8","condition":"full-information","relevant_dimensions":["pattern","legs"],"bee_group":{"antennae":"X","wings":"X","pattern":"D","legs":"M"},"action":"harvest","summary":"good-harvest","bonus":1.6800000000000013},{"rt":1312,"stimulus":"\n                    <p><b>Action: <em>harvest</em></b></p>\n                    <p>This is the bee that you just saw.</p>\n                    <img src=\"bees-with-color/bee-B1SF.svg\" width=\"200\">\n                    <p><span class=\"greenText\"><b>Successful harvest!</b></span><br>Your pay has increased by $0.02. Your bonus pay is now $0.60.</p>\n            ","response":0,"trial_type":"html-button-response","trial_index":38,"time_elapsed":356365,"internal_node_id":"0.0-4.0-1.15","subject_id":"613bf63329e4dd6f7368d23a","study_id":"6197b3f67c2b5cd3b6d9596a","session_id":"6197b564282779582d874fe8","condition":"full-information","relevant_dimensions":["pattern","legs"],"bee_group":{"antennae":"X","wings":"X","pattern":"D","legs":"M"},"bonus":1.6800000000000013},{"rt":2456.900000035763,"stimulus":"bees-with-color/bee-B2SM.svg","response":0,"trial_type":"image-button-response","trial_index":39,"time_elapsed":358826,"internal_node_id":"0.0-4.0-0.16","subject_id":"613bf63329e4dd6f7368d23a","study_id":"6197b3f67c2b5cd3b6d9596a","session_id":"6197b564282779582d874fe8","condition":"full-information","relevant_dimensions":["pattern","legs"],"bee_group":{"antennae":"X","wings":"X","pattern":"D","legs":"M"},"action":"harvest","summary":"good-harvest","bonus":1.6800000000000013},{"rt":1165.800000011921,"stimulus":"\n                    <p><b>Action: <em>harvest</em></b></p>\n                    <p>This is the bee that you just saw.</p>\n                    <img src=\"bees-with-color/bee-B2SM.svg\" width=\"200\">\n                    <p><span class=\"greenText\"><b>Successful harvest!</b></span><br>Your pay has increased by $0.02. Your bonus pay is now $0.62.</p>\n            ","response":0,"trial_type":"html-button-response","trial_index":40,"time_elapsed":359999,"internal_node_id":"0.0-4.0-1.16","subject_id":"613bf63329e4dd6f7368d23a","study_id":"6197b3f67c2b5cd3b6d9596a","session_id":"6197b564282779582d874fe8","condition":"full-information","relevant_dimensions":["pattern","legs"],"bee_group":{"antennae":"X","wings":"X","pattern":"D","legs":"M"},"bonus":1.6800000000000013},{"rt":1565.5999999642372,"stimulus":"bees-with-color/bee-A2DM.svg","response":1,"trial_type":"image-button-response","trial_index":41,"time_elapsed":361567,"internal_node_id":"0.0-4.0-0.17","subject_id":"613bf63329e4dd6f7368d23a","study_id":"6197b3f67c2b5cd3b6d9596a","session_id":"6197b564282779582d874fe8","condition":"full-information","relevant_dimensions":["pattern","legs"],"bee_group":{"antennae":"X","wings":"X","pattern":"D","legs":"M"},"action":"avoid","summary":"good-avoid","bonus":1.6800000000000013},{"rt":1362.300000011921,"stimulus":"\n                    <p><b>Action: <em>avoid</em></b></p>\n                    <p>This is the bee that you just saw.</p>\n                    <img src=\"bees-with-color/bee-A2DM.svg\" width=\"200\">\n                    <p><span class=\"greenText\">Good choice!</span>  This bee would have stung you.<br>Your bonus pay is unchanged, and remains at $0.62.</p>\n            ","response":0,"trial_type":"html-button-response","trial_index":42,"time_elapsed":362934,"internal_node_id":"0.0-4.0-1.17","subject_id":"613bf63329e4dd6f7368d23a","study_id":"6197b3f67c2b5cd3b6d9596a","session_id":"6197b564282779582d874fe8","condition":"full-information","relevant_dimensions":["pattern","legs"],"bee_group":{"antennae":"X","wings":"X","pattern":"D","legs":"M"},"bonus":1.6800000000000013},{"rt":1916,"stimulus":"bees-with-color/bee-B1DM.svg","response":0,"trial_type":"image-button-response","trial_index":43,"time_elapsed":364856,"internal_node_id":"0.0-4.0-0.18","subject_id":"613bf63329e4dd6f7368d23a","study_id":"6197b3f67c2b5cd3b6d9596a","session_id":"6197b564282779582d874fe8","condition":"full-information","relevant_dimensions":["pattern","legs"],"bee_group":{"antennae":"X","wings":"X","pattern":"D","legs":"M"},"action":"harvest","summary":"bad-harvest","bonus":1.6800000000000013},{"rt":11937.399999976158,"stimulus":"\n                    <p><b>Action: <em>harvest</em></b></p>\n                    <p>This is the bee that you just saw.</p>\n                    <img src=\"bees-with-color/bee-B1DM.svg\" width=\"200\">\n                    <p><span class=\"redText\">Bad choice, the bee was angry.</span><br><b>You have been stung!</b><br>Your pay has been decreased by $0.10. Your bonus pay is now $0.52.</p>\n            ","response":0,"trial_type":"html-button-response","trial_index":44,"time_elapsed":376799,"internal_node_id":"0.0-4.0-1.18","subject_id":"613bf63329e4dd6f7368d23a","study_id":"6197b3f67c2b5cd3b6d9596a","session_id":"6197b564282779582d874fe8","condition":"full-information","relevant_dimensions":["pattern","legs"],"bee_group":{"antennae":"X","wings":"X","pattern":"D","legs":"M"},"bonus":1.6800000000000013},{"rt":6733.300000011921,"stimulus":"bees-with-color/bee-A1DF.svg","response":0,"trial_type":"image-button-response","trial_index":45,"time_elapsed":383539,"internal_node_id":"0.0-4.0-0.19","subject_id":"613bf63329e4dd6f7368d23a","study_id":"6197b3f67c2b5cd3b6d9596a","session_id":"6197b564282779582d874fe8","condition":"full-information","relevant_dimensions":["pattern","legs"],"bee_group":{"antennae":"X","wings":"X","pattern":"D","legs":"M"},"action":"harvest","summary":"good-harvest","bonus":1.6800000000000013},{"rt":1402,"stimulus":"\n                    <p><b>Action: <em>harvest</em></b></p>\n                    <p>This is the bee that you just saw.</p>\n                    <img src=\"bees-with-color/bee-A1DF.svg\" width=\"200\">\n                    <p><span class=\"greenText\"><b>Successful harvest!</b></span><br>Your pay has increased by $0.02. Your bonus pay is now $0.54.</p>\n            ","response":0,"trial_type":"html-button-response","trial_index":46,"time_elapsed":384944,"internal_node_id":"0.0-4.0-1.19","subject_id":"613bf63329e4dd6f7368d23a","study_id":"6197b3f67c2b5cd3b6d9596a","session_id":"6197b564282779582d874fe8","condition":"full-information","relevant_dimensions":["pattern","legs"],"bee_group":{"antennae":"X","wings":"X","pattern":"D","legs":"M"},"bonus":1.6800000000000013},{"rt":3499.7000000476837,"stimulus":"bees-with-color/bee-B1DF.svg","response":0,"trial_type":"image-button-response","trial_index":47,"time_elapsed":388447,"internal_node_id":"0.0-4.0-0.20","subject_id":"613bf63329e4dd6f7368d23a","study_id":"6197b3f67c2b5cd3b6d9596a","session_id":"6197b564282779582d874fe8","condition":"full-information","relevant_dimensions":["pattern","legs"],"bee_group":{"antennae":"X","wings":"X","pattern":"D","legs":"M"},"action":"harvest","summary":"good-harvest","bonus":1.6800000000000013},{"rt":1189.7000000476837,"stimulus":"\n                    <p><b>Action: <em>harvest</em></b></p>\n                    <p>This is the bee that you just saw.</p>\n                    <img src=\"bees-with-color/bee-B1DF.svg\" width=\"200\">\n                    <p><span class=\"greenText\"><b>Successful harvest!</b></span><br>Your pay has increased by $0.02. Your bonus pay is now $0.56.</p>\n            ","response":0,"trial_type":"html-button-response","trial_index":48,"time_elapsed":389640,"internal_node_id":"0.0-4.0-1.20","subject_id":"613bf63329e4dd6f7368d23a","study_id":"6197b3f67c2b5cd3b6d9596a","session_id":"6197b564282779582d874fe8","condition":"full-information","relevant_dimensions":["pattern","legs"],"bee_group":{"antennae":"X","wings":"X","pattern":"D","legs":"M"},"bonus":1.6800000000000013},{"rt":5325.600000023842,"stimulus":"bees-with-color/bee-B2DF.svg","response":0,"trial_type":"image-button-response","trial_index":49,"time_elapsed":394974,"internal_node_id":"0.0-4.0-0.21","subject_id":"613bf63329e4dd6f7368d23a","study_id":"6197b3f67c2b5cd3b6d9596a","session_id":"6197b564282779582d874fe8","condition":"full-information","relevant_dimensions":["pattern","legs"],"bee_group":{"antennae":"X","wings":"X","pattern":"D","legs":"M"},"action":"harvest","summary":"good-harvest","bonus":1.6800000000000013},{"rt":1443.5,"stimulus":"\n                    <p><b>Action: <em>harvest</em></b></p>\n                    <p>This is the bee that you just saw.</p>\n                    <img src=\"bees-with-color/bee-B2DF.svg\" width=\"200\">\n                    <p><span class=\"greenText\"><b>Successful harvest!</b></span><br>Your pay has increased by $0.02. Your bonus pay is now $0.58.</p>\n            ","response":0,"trial_type":"html-button-response","trial_index":50,"time_elapsed":396422,"internal_node_id":"0.0-4.0-1.21","subject_id":"613bf63329e4dd6f7368d23a","study_id":"6197b3f67c2b5cd3b6d9596a","session_id":"6197b564282779582d874fe8","condition":"full-information","relevant_dimensions":["pattern","legs"],"bee_group":{"antennae":"X","wings":"X","pattern":"D","legs":"M"},"bonus":1.6800000000000013},{"rt":2147.800000011921,"stimulus":"bees-with-color/bee-A1SM.svg","response":0,"trial_type":"image-button-response","trial_index":51,"time_elapsed":398575,"internal_node_id":"0.0-4.0-0.22","subject_id":"613bf63329e4dd6f7368d23a","study_id":"6197b3f67c2b5cd3b6d9596a","session_id":"6197b564282779582d874fe8","condition":"full-information","relevant_dimensions":["pattern","legs"],"bee_group":{"antennae":"X","wings":"X","pattern":"D","legs":"M"},"action":"harvest","summary":"good-harvest","bonus":1.6800000000000013},{"rt":960.7999999523163,"stimulus":"\n                    <p><b>Action: <em>harvest</em></b></p>\n                    <p>This is the bee that you just saw.</p>\n                    <img src=\"bees-with-color/bee-A1SM.svg\" width=\"200\">\n                    <p><span class=\"greenText\"><b>Successful harvest!</b></span><br>Your pay has increased by $0.02. Your bonus pay is now $0.60.</p>\n            ","response":0,"trial_type":"html-button-response","trial_index":52,"time_elapsed":399539,"internal_node_id":"0.0-4.0-1.22","subject_id":"613bf63329e4dd6f7368d23a","study_id":"6197b3f67c2b5cd3b6d9596a","session_id":"6197b564282779582d874fe8","condition":"full-information","relevant_dimensions":["pattern","legs"],"bee_group":{"antennae":"X","wings":"X","pattern":"D","legs":"M"},"bonus":1.6800000000000013},{"rt":1654.199999988079,"stimulus":"bees-with-color/bee-B1SF.svg","response":0,"trial_type":"image-button-response","trial_index":53,"time_elapsed":401197,"internal_node_id":"0.0-4.0-0.23","subject_id":"613bf63329e4dd6f7368d23a","study_id":"6197b3f67c2b5cd3b6d9596a","session_id":"6197b564282779582d874fe8","condition":"full-information","relevant_dimensions":["pattern","legs"],"bee_group":{"antennae":"X","wings":"X","pattern":"D","legs":"M"},"action":"harvest","summary":"good-harvest","bonus":1.6800000000000013},{"rt":1008.8000000119209,"stimulus":"\n                    <p><b>Action: <em>harvest</em></b></p>\n                    <p>This is the bee that you just saw.</p>\n                    <img src=\"bees-with-color/bee-B1SF.svg\" width=\"200\">\n                    <p><span class=\"greenText\"><b>Successful harvest!</b></span><br>Your pay has increased by $0.02. Your bonus pay is now $0.62.</p>\n            ","response":0,"trial_type":"html-button-response","trial_index":54,"time_elapsed":402209,"internal_node_id":"0.0-4.0-1.23","subject_id":"613bf63329e4dd6f7368d23a","study_id":"6197b3f67c2b5cd3b6d9596a","session_id":"6197b564282779582d874fe8","condition":"full-information","relevant_dimensions":["pattern","legs"],"bee_group":{"antennae":"X","wings":"X","pattern":"D","legs":"M"},"bonus":1.6800000000000013},{"rt":8223.099999964237,"stimulus":"bees-with-color/bee-B2DM.svg","response":1,"trial_type":"image-button-response","trial_index":55,"time_elapsed":410436,"internal_node_id":"0.0-4.0-0.24","subject_id":"613bf63329e4dd6f7368d23a","study_id":"6197b3f67c2b5cd3b6d9596a","session_id":"6197b564282779582d874fe8","condition":"full-information","relevant_dimensions":["pattern","legs"],"bee_group":{"antennae":"X","wings":"X","pattern":"D","legs":"M"},"action":"avoid","summary":"good-avoid","bonus":1.6800000000000013},{"rt":1897.2000000476837,"stimulus":"\n                    <p><b>Action: <em>avoid</em></b></p>\n                    <p>This is the bee that you just saw.</p>\n                    <img src=\"bees-with-color/bee-B2DM.svg\" width=\"200\">\n                    <p><span class=\"greenText\">Good choice!</span>  This bee would have stung you.<br>Your bonus pay is unchanged, and remains at $0.62.</p>\n            ","response":0,"trial_type":"html-button-response","trial_index":56,"time_elapsed":412337,"internal_node_id":"0.0-4.0-1.24","subject_id":"613bf63329e4dd6f7368d23a","study_id":"6197b3f67c2b5cd3b6d9596a","session_id":"6197b564282779582d874fe8","condition":"full-information","relevant_dimensions":["pattern","legs"],"bee_group":{"antennae":"X","wings":"X","pattern":"D","legs":"M"},"bonus":1.6800000000000013},{"rt":2134.399999976158,"stimulus":"bees-with-color/bee-B2SF.svg","response":0,"trial_type":"image-button-response","trial_index":57,"time_elapsed":414476,"internal_node_id":"0.0-4.0-0.25","subject_id":"613bf63329e4dd6f7368d23a","study_id":"6197b3f67c2b5cd3b6d9596a","session_id":"6197b564282779582d874fe8","condition":"full-information","relevant_dimensions":["pattern","legs"],"bee_group":{"antennae":"X","wings":"X","pattern":"D","legs":"M"},"action":"harvest","summary":"good-harvest","bonus":1.6800000000000013},{"rt":1064.199999988079,"stimulus":"\n                    <p><b>Action: <em>harvest</em></b></p>\n                    <p>This is the bee that you just saw.</p>\n                    <img src=\"bees-with-color/bee-B2SF.svg\" width=\"200\">\n                    <p><span class=\"greenText\"><b>Successful harvest!</b></span><br>Your pay has increased by $0.02. Your bonus pay is now $0.64.</p>\n            ","response":0,"trial_type":"html-button-response","trial_index":58,"time_elapsed":415545,"internal_node_id":"0.0-4.0-1.25","subject_id":"613bf63329e4dd6f7368d23a","study_id":"6197b3f67c2b5cd3b6d9596a","session_id":"6197b564282779582d874fe8","condition":"full-information","relevant_dimensions":["pattern","legs"],"bee_group":{"antennae":"X","wings":"X","pattern":"D","legs":"M"},"bonus":1.6800000000000013},{"rt":2134.399999976158,"stimulus":"bees-with-color/bee-B1SM.svg","response":0,"trial_type":"image-button-response","trial_index":59,"time_elapsed":417681,"internal_node_id":"0.0-4.0-0.26","subject_id":"613bf63329e4dd6f7368d23a","study_id":"6197b3f67c2b5cd3b6d9596a","session_id":"6197b564282779582d874fe8","condition":"full-information","relevant_dimensions":["pattern","legs"],"bee_group":{"antennae":"X","wings":"X","pattern":"D","legs":"M"},"action":"harvest","summary":"good-harvest","bonus":1.6800000000000013},{"rt":1139,"stimulus":"\n                    <p><b>Action: <em>harvest</em></b></p>\n                    <p>This is the bee that you just saw.</p>\n                    <img src=\"bees-with-color/bee-B1SM.svg\" width=\"200\">\n                    <p><span class=\"greenText\"><b>Successful harvest!</b></span><br>Your pay has increased by $0.02. Your bonus pay is now $0.66.</p>\n            ","response":0,"trial_type":"html-button-response","trial_index":60,"time_elapsed":418825,"internal_node_id":"0.0-4.0-1.26","subject_id":"613bf63329e4dd6f7368d23a","study_id":"6197b3f67c2b5cd3b6d9596a","session_id":"6197b564282779582d874fe8","condition":"full-information","relevant_dimensions":["pattern","legs"],"bee_group":{"antennae":"X","wings":"X","pattern":"D","legs":"M"},"bonus":1.6800000000000013},{"rt":3558.399999976158,"stimulus":"bees-with-color/bee-A1SF.svg","response":0,"trial_type":"image-button-response","trial_index":61,"time_elapsed":422386,"internal_node_id":"0.0-4.0-0.27","subject_id":"613bf63329e4dd6f7368d23a","study_id":"6197b3f67c2b5cd3b6d9596a","session_id":"6197b564282779582d874fe8","condition":"full-information","relevant_dimensions":["pattern","legs"],"bee_group":{"antennae":"X","wings":"X","pattern":"D","legs":"M"},"action":"harvest","summary":"good-harvest","bonus":1.6800000000000013},{"rt":1193.1000000238419,"stimulus":"\n                    <p><b>Action: <em>harvest</em></b></p>\n                    <p>This is the bee that you just saw.</p>\n                    <img src=\"bees-with-color/bee-A1SF.svg\" width=\"200\">\n                    <p><span class=\"greenText\"><b>Successful harvest!</b></span><br>Your pay has increased by $0.02. Your bonus pay is now $0.68.</p>\n            ","response":0,"trial_type":"html-button-response","trial_index":62,"time_elapsed":423581,"internal_node_id":"0.0-4.0-1.27","subject_id":"613bf63329e4dd6f7368d23a","study_id":"6197b3f67c2b5cd3b6d9596a","session_id":"6197b564282779582d874fe8","condition":"full-information","relevant_dimensions":["pattern","legs"],"bee_group":{"antennae":"X","wings":"X","pattern":"D","legs":"M"},"bonus":1.6800000000000013},{"rt":6916.599999964237,"stimulus":"bees-with-color/bee-A2SM.svg","response":0,"trial_type":"image-button-response","trial_index":63,"time_elapsed":430504,"internal_node_id":"0.0-4.0-0.28","subject_id":"613bf63329e4dd6f7368d23a","study_id":"6197b3f67c2b5cd3b6d9596a","session_id":"6197b564282779582d874fe8","condition":"full-information","relevant_dimensions":["pattern","legs"],"bee_group":{"antennae":"X","wings":"X","pattern":"D","legs":"M"},"action":"harvest","summary":"good-harvest","bonus":1.6800000000000013},{"rt":1226.6000000238419,"stimulus":"\n                    <p><b>Action: <em>harvest</em></b></p>\n                    <p>This is the bee that you just saw.</p>\n                    <img src=\"bees-with-color/bee-A2SM.svg\" width=\"200\">\n                    <p><span class=\"greenText\"><b>Successful harvest!</b></span><br>Your pay has increased by $0.02. Your bonus pay is now $0.70.</p>\n            ","response":0,"trial_type":"html-button-response","trial_index":64,"time_elapsed":431738,"internal_node_id":"0.0-4.0-1.28","subject_id":"613bf63329e4dd6f7368d23a","study_id":"6197b3f67c2b5cd3b6d9596a","session_id":"6197b564282779582d874fe8","condition":"full-information","relevant_dimensions":["pattern","legs"],"bee_group":{"antennae":"X","wings":"X","pattern":"D","legs":"M"},"bonus":1.6800000000000013},{"rt":2051.399999976158,"stimulus":"bees-with-color/bee-A2SF.svg","response":0,"trial_type":"image-button-response","trial_index":65,"time_elapsed":433792,"internal_node_id":"0.0-4.0-0.29","subject_id":"613bf63329e4dd6f7368d23a","study_id":"6197b3f67c2b5cd3b6d9596a","session_id":"6197b564282779582d874fe8","condition":"full-information","relevant_dimensions":["pattern","legs"],"bee_group":{"antennae":"X","wings":"X","pattern":"D","legs":"M"},"action":"harvest","summary":"good-harvest","bonus":1.6800000000000013},{"rt":1563.3999999761581,"stimulus":"\n                    <p><b>Action: <em>harvest</em></b></p>\n                    <p>This is the bee that you just saw.</p>\n                    <img src=\"bees-with-color/bee-A2SF.svg\" width=\"200\">\n                    <p><span class=\"greenText\"><b>Successful harvest!</b></span><br>Your pay has increased by $0.02. Your bonus pay is now $0.72.</p>\n            ","response":0,"trial_type":"html-button-response","trial_index":66,"time_elapsed":435360,"internal_node_id":"0.0-4.0-1.29","subject_id":"613bf63329e4dd6f7368d23a","study_id":"6197b3f67c2b5cd3b6d9596a","session_id":"6197b564282779582d874fe8","condition":"full-information","relevant_dimensions":["pattern","legs"],"bee_group":{"antennae":"X","wings":"X","pattern":"D","legs":"M"},"bonus":1.6800000000000013},{"rt":1776.0999999642372,"stimulus":"bees-with-color/bee-A1DM.svg","response":1,"trial_type":"image-button-response","trial_index":67,"time_elapsed":437141,"internal_node_id":"0.0-4.0-0.30","subject_id":"613bf63329e4dd6f7368d23a","study_id":"6197b3f67c2b5cd3b6d9596a","session_id":"6197b564282779582d874fe8","condition":"full-information","relevant_dimensions":["pattern","legs"],"bee_group":{"antennae":"X","wings":"X","pattern":"D","legs":"M"},"action":"avoid","summary":"good-avoid","bonus":1.6800000000000013},{"rt":1310.0999999642372,"stimulus":"\n                    <p><b>Action: <em>avoid</em></b></p>\n                    <p>This is the bee that you just saw.</p>\n                    <img src=\"bees-with-color/bee-A1DM.svg\" width=\"200\">\n                    <p><span class=\"greenText\">Good choice!</span>  This bee would have stung you.<br>Your bonus pay is unchanged, and remains at $0.72.</p>\n            ","response":0,"trial_type":"html-button-response","trial_index":68,"time_elapsed":438457,"internal_node_id":"0.0-4.0-1.30","subject_id":"613bf63329e4dd6f7368d23a","study_id":"6197b3f67c2b5cd3b6d9596a","session_id":"6197b564282779582d874fe8","condition":"full-information","relevant_dimensions":["pattern","legs"],"bee_group":{"antennae":"X","wings":"X","pattern":"D","legs":"M"},"bonus":1.6800000000000013},{"rt":3125.400000035763,"stimulus":"bees-with-color/bee-A2DF.svg","response":1,"trial_type":"image-button-response","trial_index":69,"time_elapsed":441587,"internal_node_id":"0.0-4.0-0.31","subject_id":"613bf63329e4dd6f7368d23a","study_id":"6197b3f67c2b5cd3b6d9596a","session_id":"6197b564282779582d874fe8","condition":"full-information","relevant_dimensions":["pattern","legs"],"bee_group":{"antennae":"X","wings":"X","pattern":"D","legs":"M"},"action":"avoid","summary":"bad-avoid","bonus":1.6800000000000013},{"rt":1115.9000000357628,"stimulus":"\n                    <p><b>Action: <em>avoid</em></b></p>\n                    <p>This is the bee that you just saw.</p>\n                    <img src=\"bees-with-color/bee-A2DF.svg\" width=\"200\">\n                    <p><span class=\"redText\">Bad choice,</span> the bee was friendly.<br>Your bonus pay is unchanged, and remains at $0.72.</p>\n            ","response":0,"trial_type":"html-button-response","trial_index":70,"time_elapsed":442707,"internal_node_id":"0.0-4.0-1.31","subject_id":"613bf63329e4dd6f7368d23a","study_id":"6197b3f67c2b5cd3b6d9596a","session_id":"6197b564282779582d874fe8","condition":"full-information","relevant_dimensions":["pattern","legs"],"bee_group":{"antennae":"X","wings":"X","pattern":"D","legs":"M"},"bonus":1.6800000000000013},{"rt":2135,"stimulus":"bees-with-color/bee-A1DM.svg","response":1,"trial_type":"image-button-response","trial_index":71,"time_elapsed":444848,"internal_node_id":"0.0-4.0-0.32","subject_id":"613bf63329e4dd6f7368d23a","study_id":"6197b3f67c2b5cd3b6d9596a","session_id":"6197b564282779582d874fe8","condition":"full-information","relevant_dimensions":["pattern","legs"],"bee_group":{"antennae":"X","wings":"X","pattern":"D","legs":"M"},"action":"avoid","summary":"good-avoid","bonus":1.6800000000000013},{"rt":1014.9000000357628,"stimulus":"\n                    <p><b>Action: <em>avoid</em></b></p>\n                    <p>This is the bee that you just saw.</p>\n                    <img src=\"bees-with-color/bee-A1DM.svg\" width=\"200\">\n                    <p><span class=\"greenText\">Good choice!</span>  This bee would have stung you.<br>Your bonus pay is unchanged, and remains at $0.72.</p>\n            ","response":0,"trial_type":"html-button-response","trial_index":72,"time_elapsed":445867,"internal_node_id":"0.0-4.0-1.32","subject_id":"613bf63329e4dd6f7368d23a","study_id":"6197b3f67c2b5cd3b6d9596a","session_id":"6197b564282779582d874fe8","condition":"full-information","relevant_dimensions":["pattern","legs"],"bee_group":{"antennae":"X","wings":"X","pattern":"D","legs":"M"},"bonus":1.6800000000000013},{"rt":1672.800000011921,"stimulus":"bees-with-color/bee-B2DF.svg","response":0,"trial_type":"image-button-response","trial_index":73,"time_elapsed":447545,"internal_node_id":"0.0-4.0-0.33","subject_id":"613bf63329e4dd6f7368d23a","study_id":"6197b3f67c2b5cd3b6d9596a","session_id":"6197b564282779582d874fe8","condition":"full-information","relevant_dimensions":["pattern","legs"],"bee_group":{"antennae":"X","wings":"X","pattern":"D","legs":"M"},"action":"harvest","summary":"good-harvest","bonus":1.6800000000000013},{"rt":1116.0999999642372,"stimulus":"\n                    <p><b>Action: <em>harvest</em></b></p>\n                    <p>This is the bee that you just saw.</p>\n                    <img src=\"bees-with-color/bee-B2DF.svg\" width=\"200\">\n                    <p><span class=\"greenText\"><b>Successful harvest!</b></span><br>Your pay has increased by $0.02. Your bonus pay is now $0.74.</p>\n            ","response":0,"trial_type":"html-button-response","trial_index":74,"time_elapsed":448666,"internal_node_id":"0.0-4.0-1.33","subject_id":"613bf63329e4dd6f7368d23a","study_id":"6197b3f67c2b5cd3b6d9596a","session_id":"6197b564282779582d874fe8","condition":"full-information","relevant_dimensions":["pattern","legs"],"bee_group":{"antennae":"X","wings":"X","pattern":"D","legs":"M"},"bonus":1.6800000000000013},{"rt":1470.8999999761581,"stimulus":"bees-with-color/bee-A2SF.svg","response":0,"trial_type":"image-button-response","trial_index":75,"time_elapsed":450145,"internal_node_id":"0.0-4.0-0.34","subject_id":"613bf63329e4dd6f7368d23a","study_id":"6197b3f67c2b5cd3b6d9596a","session_id":"6197b564282779582d874fe8","condition":"full-information","relevant_dimensions":["pattern","legs"],"bee_group":{"antennae":"X","wings":"X","pattern":"D","legs":"M"},"action":"harvest","summary":"good-harvest","bonus":1.6800000000000013},{"rt":1014.6999999880791,"stimulus":"\n                    <p><b>Action: <em>harvest</em></b></p>\n                    <p>This is the bee that you just saw.</p>\n                    <img src=\"bees-with-color/bee-A2SF.svg\" width=\"200\">\n                    <p><span class=\"greenText\"><b>Successful harvest!</b></span><br>Your pay has increased by $0.02. Your bonus pay is now $0.76.</p>\n            ","response":0,"trial_type":"html-button-response","trial_index":76,"time_elapsed":451166,"internal_node_id":"0.0-4.0-1.34","subject_id":"613bf63329e4dd6f7368d23a","study_id":"6197b3f67c2b5cd3b6d9596a","session_id":"6197b564282779582d874fe8","condition":"full-information","relevant_dimensions":["pattern","legs"],"bee_group":{"antennae":"X","wings":"X","pattern":"D","legs":"M"},"bonus":1.6800000000000013},{"rt":1624.800000011921,"stimulus":"bees-with-color/bee-A1SM.svg","response":0,"trial_type":"image-button-response","trial_index":77,"time_elapsed":452795,"internal_node_id":"0.0-4.0-0.35","subject_id":"613bf63329e4dd6f7368d23a","study_id":"6197b3f67c2b5cd3b6d9596a","session_id":"6197b564282779582d874fe8","condition":"full-information","relevant_dimensions":["pattern","legs"],"bee_group":{"antennae":"X","wings":"X","pattern":"D","legs":"M"},"action":"harvest","summary":"good-harvest","bonus":1.6800000000000013},{"rt":1240,"stimulus":"\n                    <p><b>Action: <em>harvest</em></b></p>\n                    <p>This is the bee that you just saw.</p>\n                    <img src=\"bees-with-color/bee-A1SM.svg\" width=\"200\">\n                    <p><span class=\"greenText\"><b>Successful harvest!</b></span><br>Your pay has increased by $0.02. Your bonus pay is now $0.78.</p>\n            ","response":0,"trial_type":"html-button-response","trial_index":78,"time_elapsed":454039,"internal_node_id":"0.0-4.0-1.35","subject_id":"613bf63329e4dd6f7368d23a","study_id":"6197b3f67c2b5cd3b6d9596a","session_id":"6197b564282779582d874fe8","condition":"full-information","relevant_dimensions":["pattern","legs"],"bee_group":{"antennae":"X","wings":"X","pattern":"D","legs":"M"},"bonus":1.6800000000000013},{"rt":1274.0999999642372,"stimulus":"bees-with-color/bee-B2SF.svg","response":0,"trial_type":"image-button-response","trial_index":79,"time_elapsed":455315,"internal_node_id":"0.0-4.0-0.36","subject_id":"613bf63329e4dd6f7368d23a","study_id":"6197b3f67c2b5cd3b6d9596a","session_id":"6197b564282779582d874fe8","condition":"full-information","relevant_dimensions":["pattern","legs"],"bee_group":{"antennae":"X","wings":"X","pattern":"D","legs":"M"},"action":"harvest","summary":"good-harvest","bonus":1.6800000000000013},{"rt":937.1999999880791,"stimulus":"\n                    <p><b>Action: <em>harvest</em></b></p>\n                    <p>This is the bee that you just saw.</p>\n                    <img src=\"bees-with-color/bee-B2SF.svg\" width=\"200\">\n                    <p><span class=\"greenText\"><b>Successful harvest!</b></span><br>Your pay has increased by $0.02. Your bonus pay is now $0.80.</p>\n            ","response":0,"trial_type":"html-button-response","trial_index":80,"time_elapsed":456254,"internal_node_id":"0.0-4.0-1.36","subject_id":"613bf63329e4dd6f7368d23a","study_id":"6197b3f67c2b5cd3b6d9596a","session_id":"6197b564282779582d874fe8","condition":"full-information","relevant_dimensions":["pattern","legs"],"bee_group":{"antennae":"X","wings":"X","pattern":"D","legs":"M"},"bonus":1.6800000000000013},{"rt":1293.199999988079,"stimulus":"bees-with-color/bee-B2DM.svg","response":1,"trial_type":"image-button-response","trial_index":81,"time_elapsed":457550,"internal_node_id":"0.0-4.0-0.37","subject_id":"613bf63329e4dd6f7368d23a","study_id":"6197b3f67c2b5cd3b6d9596a","session_id":"6197b564282779582d874fe8","condition":"full-information","relevant_dimensions":["pattern","legs"],"bee_group":{"antennae":"X","wings":"X","pattern":"D","legs":"M"},"action":"avoid","summary":"good-avoid","bonus":1.6800000000000013},{"rt":1607.199999988079,"stimulus":"\n                    <p><b>Action: <em>avoid</em></b></p>\n                    <p>This is the bee that you just saw.</p>\n                    <img src=\"bees-with-color/bee-B2DM.svg\" width=\"200\">\n                    <p><span class=\"greenText\">Good choice!</span>  This bee would have stung you.<br>Your bonus pay is unchanged, and remains at $0.80.</p>\n            ","response":0,"trial_type":"html-button-response","trial_index":82,"time_elapsed":459159,"internal_node_id":"0.0-4.0-1.37","subject_id":"613bf63329e4dd6f7368d23a","study_id":"6197b3f67c2b5cd3b6d9596a","session_id":"6197b564282779582d874fe8","condition":"full-information","relevant_dimensions":["pattern","legs"],"bee_group":{"antennae":"X","wings":"X","pattern":"D","legs":"M"},"bonus":1.6800000000000013},{"rt":3033.300000011921,"stimulus":"bees-with-color/bee-A1SF.svg","response":0,"trial_type":"image-button-response","trial_index":83,"time_elapsed":462196,"internal_node_id":"0.0-4.0-0.38","subject_id":"613bf63329e4dd6f7368d23a","study_id":"6197b3f67c2b5cd3b6d9596a","session_id":"6197b564282779582d874fe8","condition":"full-information","relevant_dimensions":["pattern","legs"],"bee_group":{"antennae":"X","wings":"X","pattern":"D","legs":"M"},"action":"harvest","summary":"good-harvest","bonus":1.6800000000000013},{"rt":1298.2999999523163,"stimulus":"\n                    <p><b>Action: <em>harvest</em></b></p>\n                    <p>This is the bee that you just saw.</p>\n                    <img src=\"bees-with-color/bee-A1SF.svg\" width=\"200\">\n                    <p><span class=\"greenText\"><b>Successful harvest!</b></span><br>Your pay has increased by $0.02. Your bonus pay is now $0.82.</p>\n            ","response":0,"trial_type":"html-button-response","trial_index":84,"time_elapsed":463499,"internal_node_id":"0.0-4.0-1.38","subject_id":"613bf63329e4dd6f7368d23a","study_id":"6197b3f67c2b5cd3b6d9596a","session_id":"6197b564282779582d874fe8","condition":"full-information","relevant_dimensions":["pattern","legs"],"bee_group":{"antennae":"X","wings":"X","pattern":"D","legs":"M"},"bonus":1.6800000000000013},{"rt":1180.5,"stimulus":"bees-with-color/bee-B1SF.svg","response":0,"trial_type":"image-button-response","trial_index":85,"time_elapsed":464686,"internal_node_id":"0.0-4.0-0.39","subject_id":"613bf63329e4dd6f7368d23a","study_id":"6197b3f67c2b5cd3b6d9596a","session_id":"6197b564282779582d874fe8","condition":"full-information","relevant_dimensions":["pattern","legs"],"bee_group":{"antennae":"X","wings":"X","pattern":"D","legs":"M"},"action":"harvest","summary":"good-harvest","bonus":1.6800000000000013},{"rt":1097.8999999761581,"stimulus":"\n                    <p><b>Action: <em>harvest</em></b></p>\n                    <p>This is the bee that you just saw.</p>\n                    <img src=\"bees-with-color/bee-B1SF.svg\" width=\"200\">\n                    <p><span class=\"greenText\"><b>Successful harvest!</b></span><br>Your pay has increased by $0.02. Your bonus pay is now $0.84.</p>\n            ","response":0,"trial_type":"html-button-response","trial_index":86,"time_elapsed":465787,"internal_node_id":"0.0-4.0-1.39","subject_id":"613bf63329e4dd6f7368d23a","study_id":"6197b3f67c2b5cd3b6d9596a","session_id":"6197b564282779582d874fe8","condition":"full-information","relevant_dimensions":["pattern","legs"],"bee_group":{"antennae":"X","wings":"X","pattern":"D","legs":"M"},"bonus":1.6800000000000013},{"rt":1140,"stimulus":"bees-with-color/bee-A2SM.svg","response":0,"trial_type":"image-button-response","trial_index":87,"time_elapsed":466930,"internal_node_id":"0.0-4.0-0.40","subject_id":"613bf63329e4dd6f7368d23a","study_id":"6197b3f67c2b5cd3b6d9596a","session_id":"6197b564282779582d874fe8","condition":"full-information","relevant_dimensions":["pattern","legs"],"bee_group":{"antennae":"X","wings":"X","pattern":"D","legs":"M"},"action":"harvest","summary":"good-harvest","bonus":1.6800000000000013},{"rt":930.3999999761581,"stimulus":"\n                    <p><b>Action: <em>harvest</em></b></p>\n                    <p>This is the bee that you just saw.</p>\n                    <img src=\"bees-with-color/bee-A2SM.svg\" width=\"200\">\n                    <p><span class=\"greenText\"><b>Successful harvest!</b></span><br>Your pay has increased by $0.02. Your bonus pay is now $0.86.</p>\n            ","response":0,"trial_type":"html-button-response","trial_index":88,"time_elapsed":467864,"internal_node_id":"0.0-4.0-1.40","subject_id":"613bf63329e4dd6f7368d23a","study_id":"6197b3f67c2b5cd3b6d9596a","session_id":"6197b564282779582d874fe8","condition":"full-information","relevant_dimensions":["pattern","legs"],"bee_group":{"antennae":"X","wings":"X","pattern":"D","legs":"M"},"bonus":1.6800000000000013},{"rt":1328.3999999761581,"stimulus":"bees-with-color/bee-A2DM.svg","response":1,"trial_type":"image-button-response","trial_index":89,"time_elapsed":469196,"internal_node_id":"0.0-4.0-0.41","subject_id":"613bf63329e4dd6f7368d23a","study_id":"6197b3f67c2b5cd3b6d9596a","session_id":"6197b564282779582d874fe8","condition":"full-information","relevant_dimensions":["pattern","legs"],"bee_group":{"antennae":"X","wings":"X","pattern":"D","legs":"M"},"action":"avoid","summary":"good-avoid","bonus":1.6800000000000013},{"rt":949.0999999642372,"stimulus":"\n                    <p><b>Action: <em>avoid</em></b></p>\n                    <p>This is the bee that you just saw.</p>\n                    <img src=\"bees-with-color/bee-A2DM.svg\" width=\"200\">\n                    <p><span class=\"greenText\">Good choice!</span>  This bee would have stung you.<br>Your bonus pay is unchanged, and remains at $0.86.</p>\n            ","response":0,"trial_type":"html-button-response","trial_index":90,"time_elapsed":470148,"internal_node_id":"0.0-4.0-1.41","subject_id":"613bf63329e4dd6f7368d23a","study_id":"6197b3f67c2b5cd3b6d9596a","session_id":"6197b564282779582d874fe8","condition":"full-information","relevant_dimensions":["pattern","legs"],"bee_group":{"antennae":"X","wings":"X","pattern":"D","legs":"M"},"bonus":1.6800000000000013},{"rt":1308,"stimulus":"bees-with-color/bee-B2SM.svg","response":0,"trial_type":"image-button-response","trial_index":91,"time_elapsed":471464,"internal_node_id":"0.0-4.0-0.42","subject_id":"613bf63329e4dd6f7368d23a","study_id":"6197b3f67c2b5cd3b6d9596a","session_id":"6197b564282779582d874fe8","condition":"full-information","relevant_dimensions":["pattern","legs"],"bee_group":{"antennae":"X","wings":"X","pattern":"D","legs":"M"},"action":"harvest","summary":"good-harvest","bonus":1.6800000000000013},{"rt":967.5,"stimulus":"\n                    <p><b>Action: <em>harvest</em></b></p>\n                    <p>This is the bee that you just saw.</p>\n                    <img src=\"bees-with-color/bee-B2SM.svg\" width=\"200\">\n                    <p><span class=\"greenText\"><b>Successful harvest!</b></span><br>Your pay has increased by $0.02. Your bonus pay is now $0.88.</p>\n            ","response":0,"trial_type":"html-button-response","trial_index":92,"time_elapsed":472435,"internal_node_id":"0.0-4.0-1.42","subject_id":"613bf63329e4dd6f7368d23a","study_id":"6197b3f67c2b5cd3b6d9596a","session_id":"6197b564282779582d874fe8","condition":"full-information","relevant_dimensions":["pattern","legs"],"bee_group":{"antennae":"X","wings":"X","pattern":"D","legs":"M"},"bonus":1.6800000000000013},{"rt":1918.800000011921,"stimulus":"bees-with-color/bee-B1DF.svg","response":0,"trial_type":"image-button-response","trial_index":93,"time_elapsed":474357,"internal_node_id":"0.0-4.0-0.43","subject_id":"613bf63329e4dd6f7368d23a","study_id":"6197b3f67c2b5cd3b6d9596a","session_id":"6197b564282779582d874fe8","condition":"full-information","relevant_dimensions":["pattern","legs"],"bee_group":{"antennae":"X","wings":"X","pattern":"D","legs":"M"},"action":"harvest","summary":"good-harvest","bonus":1.6800000000000013},{"rt":856.3000000119209,"stimulus":"\n                    <p><b>Action: <em>harvest</em></b></p>\n                    <p>This is the bee that you just saw.</p>\n                    <img src=\"bees-with-color/bee-B1DF.svg\" width=\"200\">\n                    <p><span class=\"greenText\"><b>Successful harvest!</b></span><br>Your pay has increased by $0.02. Your bonus pay is now $0.90.</p>\n            ","response":0,"trial_type":"html-button-response","trial_index":94,"time_elapsed":475216,"internal_node_id":"0.0-4.0-1.43","subject_id":"613bf63329e4dd6f7368d23a","study_id":"6197b3f67c2b5cd3b6d9596a","session_id":"6197b564282779582d874fe8","condition":"full-information","relevant_dimensions":["pattern","legs"],"bee_group":{"antennae":"X","wings":"X","pattern":"D","legs":"M"},"bonus":1.6800000000000013},{"rt":1058.5,"stimulus":"bees-with-color/bee-A1DF.svg","response":0,"trial_type":"image-button-response","trial_index":95,"time_elapsed":476278,"internal_node_id":"0.0-4.0-0.44","subject_id":"613bf63329e4dd6f7368d23a","study_id":"6197b3f67c2b5cd3b6d9596a","session_id":"6197b564282779582d874fe8","condition":"full-information","relevant_dimensions":["pattern","legs"],"bee_group":{"antennae":"X","wings":"X","pattern":"D","legs":"M"},"action":"harvest","summary":"good-harvest","bonus":1.6800000000000013},{"rt":1231.199999988079,"stimulus":"\n                    <p><b>Action: <em>harvest</em></b></p>\n                    <p>This is the bee that you just saw.</p>\n                    <img src=\"bees-with-color/bee-A1DF.svg\" width=\"200\">\n                    <p><span class=\"greenText\"><b>Successful harvest!</b></span><br>Your pay has increased by $0.02. Your bonus pay is now $0.92.</p>\n            ","response":0,"trial_type":"html-button-response","trial_index":96,"time_elapsed":477514,"internal_node_id":"0.0-4.0-1.44","subject_id":"613bf63329e4dd6f7368d23a","study_id":"6197b3f67c2b5cd3b6d9596a","session_id":"6197b564282779582d874fe8","condition":"full-information","relevant_dimensions":["pattern","legs"],"bee_group":{"antennae":"X","wings":"X","pattern":"D","legs":"M"},"bonus":1.6800000000000013},{"rt":1858.2000000476837,"stimulus":"bees-with-color/bee-B1SM.svg","response":0,"trial_type":"image-button-response","trial_index":97,"time_elapsed":479374,"internal_node_id":"0.0-4.0-0.45","subject_id":"613bf63329e4dd6f7368d23a","study_id":"6197b3f67c2b5cd3b6d9596a","session_id":"6197b564282779582d874fe8","condition":"full-information","relevant_dimensions":["pattern","legs"],"bee_group":{"antennae":"X","wings":"X","pattern":"D","legs":"M"},"action":"harvest","summary":"good-harvest","bonus":1.6800000000000013},{"rt":979.1000000238419,"stimulus":"\n                    <p><b>Action: <em>harvest</em></b></p>\n                    <p>This is the bee that you just saw.</p>\n                    <img src=\"bees-with-color/bee-B1SM.svg\" width=\"200\">\n                    <p><span class=\"greenText\"><b>Successful harvest!</b></span><br>Your pay has increased by $0.02. Your bonus pay is now $0.94.</p>\n            ","response":0,"trial_type":"html-button-response","trial_index":98,"time_elapsed":480357,"internal_node_id":"0.0-4.0-1.45","subject_id":"613bf63329e4dd6f7368d23a","study_id":"6197b3f67c2b5cd3b6d9596a","session_id":"6197b564282779582d874fe8","condition":"full-information","relevant_dimensions":["pattern","legs"],"bee_group":{"antennae":"X","wings":"X","pattern":"D","legs":"M"},"bonus":1.6800000000000013},{"rt":1030.0999999642372,"stimulus":"bees-with-color/bee-B1DM.svg","response":1,"trial_type":"image-button-response","trial_index":99,"time_elapsed":481389,"internal_node_id":"0.0-4.0-0.46","subject_id":"613bf63329e4dd6f7368d23a","study_id":"6197b3f67c2b5cd3b6d9596a","session_id":"6197b564282779582d874fe8","condition":"full-information","relevant_dimensions":["pattern","legs"],"bee_group":{"antennae":"X","wings":"X","pattern":"D","legs":"M"},"action":"avoid","summary":"good-avoid","bonus":1.6800000000000013},{"rt":989.3000000119209,"stimulus":"\n                    <p><b>Action: <em>avoid</em></b></p>\n                    <p>This is the bee that you just saw.</p>\n                    <img src=\"bees-with-color/bee-B1DM.svg\" width=\"200\">\n                    <p><span class=\"greenText\">Good choice!</span>  This bee would have stung you.<br>Your bonus pay is unchanged, and remains at $0.94.</p>\n            ","response":0,"trial_type":"html-button-response","trial_index":100,"time_elapsed":482380,"internal_node_id":"0.0-4.0-1.46","subject_id":"613bf63329e4dd6f7368d23a","study_id":"6197b3f67c2b5cd3b6d9596a","session_id":"6197b564282779582d874fe8","condition":"full-information","relevant_dimensions":["pattern","legs"],"bee_group":{"antennae":"X","wings":"X","pattern":"D","legs":"M"},"bonus":1.6800000000000013},{"rt":1375.5,"stimulus":"bees-with-color/bee-A2DF.svg","response":0,"trial_type":"image-button-response","trial_index":101,"time_elapsed":483758,"internal_node_id":"0.0-4.0-0.47","subject_id":"613bf63329e4dd6f7368d23a","study_id":"6197b3f67c2b5cd3b6d9596a","session_id":"6197b564282779582d874fe8","condition":"full-information","relevant_dimensions":["pattern","legs"],"bee_group":{"antennae":"X","wings":"X","pattern":"D","legs":"M"},"action":"harvest","summary":"good-harvest","bonus":1.6800000000000013},{"rt":1015.8000000119209,"stimulus":"\n                    <p><b>Action: <em>harvest</em></b></p>\n                    <p>This is the bee that you just saw.</p>\n                    <img src=\"bees-with-color/bee-A2DF.svg\" width=\"200\">\n                    <p><span class=\"greenText\"><b>Successful harvest!</b></span><br>Your pay has increased by $0.02. Your bonus pay is now $0.96.</p>\n            ","response":0,"trial_type":"html-button-response","trial_index":102,"time_elapsed":484777,"internal_node_id":"0.0-4.0-1.47","subject_id":"613bf63329e4dd6f7368d23a","study_id":"6197b3f67c2b5cd3b6d9596a","session_id":"6197b564282779582d874fe8","condition":"full-information","relevant_dimensions":["pattern","legs"],"bee_group":{"antennae":"X","wings":"X","pattern":"D","legs":"M"},"bonus":1.6800000000000013},{"rt":2527.699999988079,"stimulus":"bees-with-color/bee-A2SM.svg","response":0,"trial_type":"image-button-response","trial_index":103,"time_elapsed":487308,"internal_node_id":"0.0-4.0-0.48","subject_id":"613bf63329e4dd6f7368d23a","study_id":"6197b3f67c2b5cd3b6d9596a","session_id":"6197b564282779582d874fe8","condition":"full-information","relevant_dimensions":["pattern","legs"],"bee_group":{"antennae":"X","wings":"X","pattern":"D","legs":"M"},"action":"harvest","summary":"good-harvest","bonus":1.6800000000000013},{"rt":915.6999999880791,"stimulus":"\n                    <p><b>Action: <em>harvest</em></b></p>\n                    <p>This is the bee that you just saw.</p>\n                    <img src=\"bees-with-color/bee-A2SM.svg\" width=\"200\">\n                    <p><span class=\"greenText\"><b>Successful harvest!</b></span><br>Your pay has increased by $0.02. Your bonus pay is now $0.98.</p>\n            ","response":0,"trial_type":"html-button-response","trial_index":104,"time_elapsed":488227,"internal_node_id":"0.0-4.0-1.48","subject_id":"613bf63329e4dd6f7368d23a","study_id":"6197b3f67c2b5cd3b6d9596a","session_id":"6197b564282779582d874fe8","condition":"full-information","relevant_dimensions":["pattern","legs"],"bee_group":{"antennae":"X","wings":"X","pattern":"D","legs":"M"},"bonus":1.6800000000000013},{"rt":1769.5,"stimulus":"bees-with-color/bee-B2SF.svg","response":0,"trial_type":"image-button-response","trial_index":105,"time_elapsed":489999,"internal_node_id":"0.0-4.0-0.49","subject_id":"613bf63329e4dd6f7368d23a","study_id":"6197b3f67c2b5cd3b6d9596a","session_id":"6197b564282779582d874fe8","condition":"full-information","relevant_dimensions":["pattern","legs"],"bee_group":{"antennae":"X","wings":"X","pattern":"D","legs":"M"},"action":"harvest","summary":"good-harvest","bonus":1.6800000000000013},{"rt":898.1000000238419,"stimulus":"\n                    <p><b>Action: <em>harvest</em></b></p>\n                    <p>This is the bee that you just saw.</p>\n                    <img src=\"bees-with-color/bee-B2SF.svg\" width=\"200\">\n                    <p><span class=\"greenText\"><b>Successful harvest!</b></span><br>Your pay has increased by $0.02. Your bonus pay is now $1.00.</p>\n            ","response":0,"trial_type":"html-button-response","trial_index":106,"time_elapsed":490900,"internal_node_id":"0.0-4.0-1.49","subject_id":"613bf63329e4dd6f7368d23a","study_id":"6197b3f67c2b5cd3b6d9596a","session_id":"6197b564282779582d874fe8","condition":"full-information","relevant_dimensions":["pattern","legs"],"bee_group":{"antennae":"X","wings":"X","pattern":"D","legs":"M"},"bonus":1.6800000000000013},{"rt":979,"stimulus":"bees-with-color/bee-A2SF.svg","response":0,"trial_type":"image-button-response","trial_index":107,"time_elapsed":491882,"internal_node_id":"0.0-4.0-0.50","subject_id":"613bf63329e4dd6f7368d23a","study_id":"6197b3f67c2b5cd3b6d9596a","session_id":"6197b564282779582d874fe8","condition":"full-information","relevant_dimensions":["pattern","legs"],"bee_group":{"antennae":"X","wings":"X","pattern":"D","legs":"M"},"action":"harvest","summary":"good-harvest","bonus":1.6800000000000013},{"rt":956.8999999761581,"stimulus":"\n                    <p><b>Action: <em>harvest</em></b></p>\n                    <p>This is the bee that you just saw.</p>\n                    <img src=\"bees-with-color/bee-A2SF.svg\" width=\"200\">\n                    <p><span class=\"greenText\"><b>Successful harvest!</b></span><br>Your pay has increased by $0.02. Your bonus pay is now $1.02.</p>\n            ","response":0,"trial_type":"html-button-response","trial_index":108,"time_elapsed":492845,"internal_node_id":"0.0-4.0-1.50","subject_id":"613bf63329e4dd6f7368d23a","study_id":"6197b3f67c2b5cd3b6d9596a","session_id":"6197b564282779582d874fe8","condition":"full-information","relevant_dimensions":["pattern","legs"],"bee_group":{"antennae":"X","wings":"X","pattern":"D","legs":"M"},"bonus":1.6800000000000013},{"rt":975.6999999880791,"stimulus":"bees-with-color/bee-A1SF.svg","response":0,"trial_type":"image-button-response","trial_index":109,"time_elapsed":493826,"internal_node_id":"0.0-4.0-0.51","subject_id":"613bf63329e4dd6f7368d23a","study_id":"6197b3f67c2b5cd3b6d9596a","session_id":"6197b564282779582d874fe8","condition":"full-information","relevant_dimensions":["pattern","legs"],"bee_group":{"antennae":"X","wings":"X","pattern":"D","legs":"M"},"action":"harvest","summary":"good-harvest","bonus":1.6800000000000013},{"rt":956.5,"stimulus":"\n                    <p><b>Action: <em>harvest</em></b></p>\n                    <p>This is the bee that you just saw.</p>\n                    <img src=\"bees-with-color/bee-A1SF.svg\" width=\"200\">\n                    <p><span class=\"greenText\"><b>Successful harvest!</b></span><br>Your pay has increased by $0.02. Your bonus pay is now $1.04.</p>\n            ","response":0,"trial_type":"html-button-response","trial_index":110,"time_elapsed":494787,"internal_node_id":"0.0-4.0-1.51","subject_id":"613bf63329e4dd6f7368d23a","study_id":"6197b3f67c2b5cd3b6d9596a","session_id":"6197b564282779582d874fe8","condition":"full-information","relevant_dimensions":["pattern","legs"],"bee_group":{"antennae":"X","wings":"X","pattern":"D","legs":"M"},"bonus":1.6800000000000013},{"rt":1304.8999999761581,"stimulus":"bees-with-color/bee-B1DM.svg","response":1,"trial_type":"image-button-response","trial_index":111,"time_elapsed":496095,"internal_node_id":"0.0-4.0-0.52","subject_id":"613bf63329e4dd6f7368d23a","study_id":"6197b3f67c2b5cd3b6d9596a","session_id":"6197b564282779582d874fe8","condition":"full-information","relevant_dimensions":["pattern","legs"],"bee_group":{"antennae":"X","wings":"X","pattern":"D","legs":"M"},"action":"avoid","summary":"good-avoid","bonus":1.6800000000000013},{"rt":1258.1000000238419,"stimulus":"\n                    <p><b>Action: <em>avoid</em></b></p>\n                    <p>This is the bee that you just saw.</p>\n                    <img src=\"bees-with-color/bee-B1DM.svg\" width=\"200\">\n                    <p><span class=\"greenText\">Good choice!</span>  This bee would have stung you.<br>Your bonus pay is unchanged, and remains at $1.04.</p>\n            ","response":0,"trial_type":"html-button-response","trial_index":112,"time_elapsed":497358,"internal_node_id":"0.0-4.0-1.52","subject_id":"613bf63329e4dd6f7368d23a","study_id":"6197b3f67c2b5cd3b6d9596a","session_id":"6197b564282779582d874fe8","condition":"full-information","relevant_dimensions":["pattern","legs"],"bee_group":{"antennae":"X","wings":"X","pattern":"D","legs":"M"},"bonus":1.6800000000000013},{"rt":2364.7000000476837,"stimulus":"bees-with-color/bee-B2SM.svg","response":0,"trial_type":"image-button-response","trial_index":113,"time_elapsed":499726,"internal_node_id":"0.0-4.0-0.53","subject_id":"613bf63329e4dd6f7368d23a","study_id":"6197b3f67c2b5cd3b6d9596a","session_id":"6197b564282779582d874fe8","condition":"full-information","relevant_dimensions":["pattern","legs"],"bee_group":{"antennae":"X","wings":"X","pattern":"D","legs":"M"},"action":"harvest","summary":"good-harvest","bonus":1.6800000000000013},{"rt":876,"stimulus":"\n                    <p><b>Action: <em>harvest</em></b></p>\n                    <p>This is the bee that you just saw.</p>\n                    <img src=\"bees-with-color/bee-B2SM.svg\" width=\"200\">\n                    <p><span class=\"greenText\"><b>Successful harvest!</b></span><br>Your pay has increased by $0.02. Your bonus pay is now $1.06.</p>\n            ","response":0,"trial_type":"html-button-response","trial_index":114,"time_elapsed":500606,"internal_node_id":"0.0-4.0-1.53","subject_id":"613bf63329e4dd6f7368d23a","study_id":"6197b3f67c2b5cd3b6d9596a","session_id":"6197b564282779582d874fe8","condition":"full-information","relevant_dimensions":["pattern","legs"],"bee_group":{"antennae":"X","wings":"X","pattern":"D","legs":"M"},"bonus":1.6800000000000013},{"rt":1394,"stimulus":"bees-with-color/bee-B2DM.svg","response":1,"trial_type":"image-button-response","trial_index":115,"time_elapsed":502005,"internal_node_id":"0.0-4.0-0.54","subject_id":"613bf63329e4dd6f7368d23a","study_id":"6197b3f67c2b5cd3b6d9596a","session_id":"6197b564282779582d874fe8","condition":"full-information","relevant_dimensions":["pattern","legs"],"bee_group":{"antennae":"X","wings":"X","pattern":"D","legs":"M"},"action":"avoid","summary":"good-avoid","bonus":1.6800000000000013},{"rt":1066,"stimulus":"\n                    <p><b>Action: <em>avoid</em></b></p>\n                    <p>This is the bee that you just saw.</p>\n                    <img src=\"bees-with-color/bee-B2DM.svg\" width=\"200\">\n                    <p><span class=\"greenText\">Good choice!</span>  This bee would have stung you.<br>Your bonus pay is unchanged, and remains at $1.06.</p>\n            ","response":0,"trial_type":"html-button-response","trial_index":116,"time_elapsed":503075,"internal_node_id":"0.0-4.0-1.54","subject_id":"613bf63329e4dd6f7368d23a","study_id":"6197b3f67c2b5cd3b6d9596a","session_id":"6197b564282779582d874fe8","condition":"full-information","relevant_dimensions":["pattern","legs"],"bee_group":{"antennae":"X","wings":"X","pattern":"D","legs":"M"},"bonus":1.6800000000000013},{"rt":1294.9000000357628,"stimulus":"bees-with-color/bee-B1SM.svg","response":0,"trial_type":"image-button-response","trial_index":117,"time_elapsed":504372,"internal_node_id":"0.0-4.0-0.55","subject_id":"613bf63329e4dd6f7368d23a","study_id":"6197b3f67c2b5cd3b6d9596a","session_id":"6197b564282779582d874fe8","condition":"full-information","relevant_dimensions":["pattern","legs"],"bee_group":{"antennae":"X","wings":"X","pattern":"D","legs":"M"},"action":"harvest","summary":"good-harvest","bonus":1.6800000000000013},{"rt":1049,"stimulus":"\n                    <p><b>Action: <em>harvest</em></b></p>\n                    <p>This is the bee that you just saw.</p>\n                    <img src=\"bees-with-color/bee-B1SM.svg\" width=\"200\">\n                    <p><span class=\"greenText\"><b>Successful harvest!</b></span><br>Your pay has increased by $0.02. Your bonus pay is now $1.08.</p>\n            ","response":0,"trial_type":"html-button-response","trial_index":118,"time_elapsed":505426,"internal_node_id":"0.0-4.0-1.55","subject_id":"613bf63329e4dd6f7368d23a","study_id":"6197b3f67c2b5cd3b6d9596a","session_id":"6197b564282779582d874fe8","condition":"full-information","relevant_dimensions":["pattern","legs"],"bee_group":{"antennae":"X","wings":"X","pattern":"D","legs":"M"},"bonus":1.6800000000000013},{"rt":2363.399999976158,"stimulus":"bees-with-color/bee-B1SF.svg","response":0,"trial_type":"image-button-response","trial_index":119,"time_elapsed":507792,"internal_node_id":"0.0-4.0-0.56","subject_id":"613bf63329e4dd6f7368d23a","study_id":"6197b3f67c2b5cd3b6d9596a","session_id":"6197b564282779582d874fe8","condition":"full-information","relevant_dimensions":["pattern","legs"],"bee_group":{"antennae":"X","wings":"X","pattern":"D","legs":"M"},"action":"harvest","summary":"good-harvest","bonus":1.6800000000000013},{"rt":849.3000000119209,"stimulus":"\n                    <p><b>Action: <em>harvest</em></b></p>\n                    <p>This is the bee that you just saw.</p>\n                    <img src=\"bees-with-color/bee-B1SF.svg\" width=\"200\">\n                    <p><span class=\"greenText\"><b>Successful harvest!</b></span><br>Your pay has increased by $0.02. Your bonus pay is now $1.10.</p>\n            ","response":0,"trial_type":"html-button-response","trial_index":120,"time_elapsed":508645,"internal_node_id":"0.0-4.0-1.56","subject_id":"613bf63329e4dd6f7368d23a","study_id":"6197b3f67c2b5cd3b6d9596a","session_id":"6197b564282779582d874fe8","condition":"full-information","relevant_dimensions":["pattern","legs"],"bee_group":{"antennae":"X","wings":"X","pattern":"D","legs":"M"},"bonus":1.6800000000000013},{"rt":1926.699999988079,"stimulus":"bees-with-color/bee-B1DF.svg","response":0,"trial_type":"image-button-response","trial_index":121,"time_elapsed":510575,"internal_node_id":"0.0-4.0-0.57","subject_id":"613bf63329e4dd6f7368d23a","study_id":"6197b3f67c2b5cd3b6d9596a","session_id":"6197b564282779582d874fe8","condition":"full-information","relevant_dimensions":["pattern","legs"],"bee_group":{"antennae":"X","wings":"X","pattern":"D","legs":"M"},"action":"harvest","summary":"good-harvest","bonus":1.6800000000000013},{"rt":1021.5,"stimulus":"\n                    <p><b>Action: <em>harvest</em></b></p>\n                    <p>This is the bee that you just saw.</p>\n                    <img src=\"bees-with-color/bee-B1DF.svg\" width=\"200\">\n                    <p><span class=\"greenText\"><b>Successful harvest!</b></span><br>Your pay has increased by $0.02. Your bonus pay is now $1.12.</p>\n            ","response":0,"trial_type":"html-button-response","trial_index":122,"time_elapsed":511599,"internal_node_id":"0.0-4.0-1.57","subject_id":"613bf63329e4dd6f7368d23a","study_id":"6197b3f67c2b5cd3b6d9596a","session_id":"6197b564282779582d874fe8","condition":"full-information","relevant_dimensions":["pattern","legs"],"bee_group":{"antennae":"X","wings":"X","pattern":"D","legs":"M"},"bonus":1.6800000000000013},{"rt":2336.300000011921,"stimulus":"bees-with-color/bee-A1DF.svg","response":0,"trial_type":"image-button-response","trial_index":123,"time_elapsed":513938,"internal_node_id":"0.0-4.0-0.58","subject_id":"613bf63329e4dd6f7368d23a","study_id":"6197b3f67c2b5cd3b6d9596a","session_id":"6197b564282779582d874fe8","condition":"full-information","relevant_dimensions":["pattern","legs"],"bee_group":{"antennae":"X","wings":"X","pattern":"D","legs":"M"},"action":"harvest","summary":"good-harvest","bonus":1.6800000000000013},{"rt":1108.300000011921,"stimulus":"\n                    <p><b>Action: <em>harvest</em></b></p>\n                    <p>This is the bee that you just saw.</p>\n                    <img src=\"bees-with-color/bee-A1DF.svg\" width=\"200\">\n                    <p><span class=\"greenText\"><b>Successful harvest!</b></span><br>Your pay has increased by $0.02. Your bonus pay is now $1.14.</p>\n            ","response":0,"trial_type":"html-button-response","trial_index":124,"time_elapsed":515051,"internal_node_id":"0.0-4.0-1.58","subject_id":"613bf63329e4dd6f7368d23a","study_id":"6197b3f67c2b5cd3b6d9596a","session_id":"6197b564282779582d874fe8","condition":"full-information","relevant_dimensions":["pattern","legs"],"bee_group":{"antennae":"X","wings":"X","pattern":"D","legs":"M"},"bonus":1.6800000000000013},{"rt":1338.0999999642372,"stimulus":"bees-with-color/bee-A2DF.svg","response":0,"trial_type":"image-button-response","trial_index":125,"time_elapsed":516397,"internal_node_id":"0.0-4.0-0.59","subject_id":"613bf63329e4dd6f7368d23a","study_id":"6197b3f67c2b5cd3b6d9596a","session_id":"6197b564282779582d874fe8","condition":"full-information","relevant_dimensions":["pattern","legs"],"bee_group":{"antennae":"X","wings":"X","pattern":"D","legs":"M"},"action":"harvest","summary":"good-harvest","bonus":1.6800000000000013},{"rt":929.1999999880791,"stimulus":"\n                    <p><b>Action: <em>harvest</em></b></p>\n                    <p>This is the bee that you just saw.</p>\n                    <img src=\"bees-with-color/bee-A2DF.svg\" width=\"200\">\n                    <p><span class=\"greenText\"><b>Successful harvest!</b></span><br>Your pay has increased by $0.02. Your bonus pay is now $1.16.</p>\n            ","response":0,"trial_type":"html-button-response","trial_index":126,"time_elapsed":517329,"internal_node_id":"0.0-4.0-1.59","subject_id":"613bf63329e4dd6f7368d23a","study_id":"6197b3f67c2b5cd3b6d9596a","session_id":"6197b564282779582d874fe8","condition":"full-information","relevant_dimensions":["pattern","legs"],"bee_group":{"antennae":"X","wings":"X","pattern":"D","legs":"M"},"bonus":1.6800000000000013},{"rt":1981.8999999761581,"stimulus":"bees-with-color/bee-B2DF.svg","response":0,"trial_type":"image-button-response","trial_index":127,"time_elapsed":519315,"internal_node_id":"0.0-4.0-0.60","subject_id":"613bf63329e4dd6f7368d23a","study_id":"6197b3f67c2b5cd3b6d9596a","session_id":"6197b564282779582d874fe8","condition":"full-information","relevant_dimensions":["pattern","legs"],"bee_group":{"antennae":"X","wings":"X","pattern":"D","legs":"M"},"action":"harvest","summary":"good-harvest","bonus":1.6800000000000013},{"rt":1310.3999999761581,"stimulus":"\n                    <p><b>Action: <em>harvest</em></b></p>\n                    <p>This is the bee that you just saw.</p>\n                    <img src=\"bees-with-color/bee-B2DF.svg\" width=\"200\">\n                    <p><span class=\"greenText\"><b>Successful harvest!</b></span><br>Your pay has increased by $0.02. Your bonus pay is now $1.18.</p>\n            ","response":0,"trial_type":"html-button-response","trial_index":128,"time_elapsed":520629,"internal_node_id":"0.0-4.0-1.60","subject_id":"613bf63329e4dd6f7368d23a","study_id":"6197b3f67c2b5cd3b6d9596a","session_id":"6197b564282779582d874fe8","condition":"full-information","relevant_dimensions":["pattern","legs"],"bee_group":{"antennae":"X","wings":"X","pattern":"D","legs":"M"},"bonus":1.6800000000000013},{"rt":1213.8999999761581,"stimulus":"bees-with-color/bee-A2DM.svg","response":1,"trial_type":"image-button-response","trial_index":129,"time_elapsed":521845,"internal_node_id":"0.0-4.0-0.61","subject_id":"613bf63329e4dd6f7368d23a","study_id":"6197b3f67c2b5cd3b6d9596a","session_id":"6197b564282779582d874fe8","condition":"full-information","relevant_dimensions":["pattern","legs"],"bee_group":{"antennae":"X","wings":"X","pattern":"D","legs":"M"},"action":"avoid","summary":"good-avoid","bonus":1.6800000000000013},{"rt":1230.1000000238419,"stimulus":"\n                    <p><b>Action: <em>avoid</em></b></p>\n                    <p>This is the bee that you just saw.</p>\n                    <img src=\"bees-with-color/bee-A2DM.svg\" width=\"200\">\n                    <p><span class=\"greenText\">Good choice!</span>  This bee would have stung you.<br>Your bonus pay is unchanged, and remains at $1.18.</p>\n            ","response":0,"trial_type":"html-button-response","trial_index":130,"time_elapsed":523078,"internal_node_id":"0.0-4.0-1.61","subject_id":"613bf63329e4dd6f7368d23a","study_id":"6197b3f67c2b5cd3b6d9596a","session_id":"6197b564282779582d874fe8","condition":"full-information","relevant_dimensions":["pattern","legs"],"bee_group":{"antennae":"X","wings":"X","pattern":"D","legs":"M"},"bonus":1.6800000000000013},{"rt":1233.7000000476837,"stimulus":"bees-with-color/bee-A1SM.svg","response":0,"trial_type":"image-button-response","trial_index":131,"time_elapsed":524315,"internal_node_id":"0.0-4.0-0.62","subject_id":"613bf63329e4dd6f7368d23a","study_id":"6197b3f67c2b5cd3b6d9596a","session_id":"6197b564282779582d874fe8","condition":"full-information","relevant_dimensions":["pattern","legs"],"bee_group":{"antennae":"X","wings":"X","pattern":"D","legs":"M"},"action":"harvest","summary":"good-harvest","bonus":1.6800000000000013},{"rt":1280.0999999642372,"stimulus":"\n                    <p><b>Action: <em>harvest</em></b></p>\n                    <p>This is the bee that you just saw.</p>\n                    <img src=\"bees-with-color/bee-A1SM.svg\" width=\"200\">\n                    <p><span class=\"greenText\"><b>Successful harvest!</b></span><br>Your pay has increased by $0.02. Your bonus pay is now $1.20.</p>\n            ","response":0,"trial_type":"html-button-response","trial_index":132,"time_elapsed":525598,"internal_node_id":"0.0-4.0-1.62","subject_id":"613bf63329e4dd6f7368d23a","study_id":"6197b3f67c2b5cd3b6d9596a","session_id":"6197b564282779582d874fe8","condition":"full-information","relevant_dimensions":["pattern","legs"],"bee_group":{"antennae":"X","wings":"X","pattern":"D","legs":"M"},"bonus":1.6800000000000013},{"rt":1214.4000000357628,"stimulus":"bees-with-color/bee-A1DM.svg","response":1,"trial_type":"image-button-response","trial_index":133,"time_elapsed":526815,"internal_node_id":"0.0-4.0-0.63","subject_id":"613bf63329e4dd6f7368d23a","study_id":"6197b3f67c2b5cd3b6d9596a","session_id":"6197b564282779582d874fe8","condition":"full-information","relevant_dimensions":["pattern","legs"],"bee_group":{"antennae":"X","wings":"X","pattern":"D","legs":"M"},"action":"avoid","summary":"good-avoid","bonus":1.6800000000000013},{"rt":1319.699999988079,"stimulus":"\n                    <p><b>Action: <em>avoid</em></b></p>\n                    <p>This is the bee that you just saw.</p>\n                    <img src=\"bees-with-color/bee-A1DM.svg\" width=\"200\">\n                    <p><span class=\"greenText\">Good choice!</span>  This bee would have stung you.<br>Your bonus pay is unchanged, and remains at $1.20.</p>\n            ","response":0,"trial_type":"html-button-response","trial_index":134,"time_elapsed":528139,"internal_node_id":"0.0-4.0-1.63","subject_id":"613bf63329e4dd6f7368d23a","study_id":"6197b3f67c2b5cd3b6d9596a","session_id":"6197b564282779582d874fe8","condition":"full-information","relevant_dimensions":["pattern","legs"],"bee_group":{"antennae":"X","wings":"X","pattern":"D","legs":"M"},"bonus":1.6800000000000013},{"rt":9534.400000035763,"stimulus":"You have completed the first part of this experiment.<br><br>You will now begin a shorter second part, in which you will receive no feedback.<br>The same rules regarding bonus pay apply.<br><br>Press any key to begin.","response":" ","trial_type":"html-keyboard-response","trial_index":135,"time_elapsed":537675,"internal_node_id":"0.0-5.0","subject_id":"613bf63329e4dd6f7368d23a","study_id":"6197b3f67c2b5cd3b6d9596a","session_id":"6197b564282779582d874fe8","condition":"full-information","relevant_dimensions":["pattern","legs"],"bee_group":{"antennae":"X","wings":"X","pattern":"D","legs":"M"},"bonus":1.6800000000000013},{"rt":2111.199999988079,"stimulus":"bees-with-color/bee-B1DF.svg","response":0,"trial_type":"image-button-response","trial_index":136,"time_elapsed":539800,"internal_node_id":"0.0-6.0-0.0","subject_id":"613bf63329e4dd6f7368d23a","study_id":"6197b3f67c2b5cd3b6d9596a","session_id":"6197b564282779582d874fe8","condition":"full-information","relevant_dimensions":["pattern","legs"],"bee_group":{"antennae":"X","wings":"X","pattern":"D","legs":"M"},"bonus":1.6800000000000013},{"rt":1358.800000011921,"stimulus":"bees-with-color/bee-A1DF.svg","response":0,"trial_type":"image-button-response","trial_index":137,"time_elapsed":541166,"internal_node_id":"0.0-6.0-0.1","subject_id":"613bf63329e4dd6f7368d23a","study_id":"6197b3f67c2b5cd3b6d9596a","session_id":"6197b564282779582d874fe8","condition":"full-information","relevant_dimensions":["pattern","legs"],"bee_group":{"antennae":"X","wings":"X","pattern":"D","legs":"M"},"bonus":1.6800000000000013},{"rt":2779.600000023842,"stimulus":"bees-with-color/bee-A1SF.svg","response":0,"trial_type":"image-button-response","trial_index":138,"time_elapsed":543951,"internal_node_id":"0.0-6.0-0.2","subject_id":"613bf63329e4dd6f7368d23a","study_id":"6197b3f67c2b5cd3b6d9596a","session_id":"6197b564282779582d874fe8","condition":"full-information","relevant_dimensions":["pattern","legs"],"bee_group":{"antennae":"X","wings":"X","pattern":"D","legs":"M"},"bonus":1.6800000000000013},{"rt":1796.800000011921,"stimulus":"bees-with-color/bee-B2SM.svg","response":0,"trial_type":"image-button-response","trial_index":139,"time_elapsed":545755,"internal_node_id":"0.0-6.0-0.3","subject_id":"613bf63329e4dd6f7368d23a","study_id":"6197b3f67c2b5cd3b6d9596a","session_id":"6197b564282779582d874fe8","condition":"full-information","relevant_dimensions":["pattern","legs"],"bee_group":{"antennae":"X","wings":"X","pattern":"D","legs":"M"},"bonus":1.6800000000000013},{"rt":1735.699999988079,"stimulus":"bees-with-color/bee-B1SF.svg","response":0,"trial_type":"image-button-response","trial_index":140,"time_elapsed":547495,"internal_node_id":"0.0-6.0-0.4","subject_id":"613bf63329e4dd6f7368d23a","study_id":"6197b3f67c2b5cd3b6d9596a","session_id":"6197b564282779582d874fe8","condition":"full-information","relevant_dimensions":["pattern","legs"],"bee_group":{"antennae":"X","wings":"X","pattern":"D","legs":"M"},"bonus":1.6800000000000013},{"rt":1107,"stimulus":"bees-with-color/bee-A1DM.svg","response":1,"trial_type":"image-button-response","trial_index":141,"time_elapsed":548607,"internal_node_id":"0.0-6.0-0.5","subject_id":"613bf63329e4dd6f7368d23a","study_id":"6197b3f67c2b5cd3b6d9596a","session_id":"6197b564282779582d874fe8","condition":"full-information","relevant_dimensions":["pattern","legs"],"bee_group":{"antennae":"X","wings":"X","pattern":"D","legs":"M"},"bonus":1.6800000000000013},{"rt":1058.5999999642372,"stimulus":"bees-with-color/bee-A2SM.svg","response":0,"trial_type":"image-button-response","trial_index":142,"time_elapsed":549670,"internal_node_id":"0.0-6.0-0.6","subject_id":"613bf63329e4dd6f7368d23a","study_id":"6197b3f67c2b5cd3b6d9596a","session_id":"6197b564282779582d874fe8","condition":"full-information","relevant_dimensions":["pattern","legs"],"bee_group":{"antennae":"X","wings":"X","pattern":"D","legs":"M"},"bonus":1.6800000000000013},{"rt":1045.5999999642372,"stimulus":"bees-with-color/bee-B1DM.svg","response":1,"trial_type":"image-button-response","trial_index":143,"time_elapsed":550722,"internal_node_id":"0.0-6.0-0.7","subject_id":"613bf63329e4dd6f7368d23a","study_id":"6197b3f67c2b5cd3b6d9596a","session_id":"6197b564282779582d874fe8","condition":"full-information","relevant_dimensions":["pattern","legs"],"bee_group":{"antennae":"X","wings":"X","pattern":"D","legs":"M"},"bonus":1.6800000000000013},{"rt":1269.800000011921,"stimulus":"bees-with-color/bee-B1SM.svg","response":0,"trial_type":"image-button-response","trial_index":144,"time_elapsed":551998,"internal_node_id":"0.0-6.0-0.8","subject_id":"613bf63329e4dd6f7368d23a","study_id":"6197b3f67c2b5cd3b6d9596a","session_id":"6197b564282779582d874fe8","condition":"full-information","relevant_dimensions":["pattern","legs"],"bee_group":{"antennae":"X","wings":"X","pattern":"D","legs":"M"},"bonus":1.6800000000000013},{"rt":1843.6000000238419,"stimulus":"bees-with-color/bee-A2DF.svg","response":0,"trial_type":"image-button-response","trial_index":145,"time_elapsed":553850,"internal_node_id":"0.0-6.0-0.9","subject_id":"613bf63329e4dd6f7368d23a","study_id":"6197b3f67c2b5cd3b6d9596a","session_id":"6197b564282779582d874fe8","condition":"full-information","relevant_dimensions":["pattern","legs"],"bee_group":{"antennae":"X","wings":"X","pattern":"D","legs":"M"},"bonus":1.6800000000000013},{"rt":1136.8999999761581,"stimulus":"bees-with-color/bee-B2DM.svg","response":1,"trial_type":"image-button-response","trial_index":146,"time_elapsed":554995,"internal_node_id":"0.0-6.0-0.10","subject_id":"613bf63329e4dd6f7368d23a","study_id":"6197b3f67c2b5cd3b6d9596a","session_id":"6197b564282779582d874fe8","condition":"full-information","relevant_dimensions":["pattern","legs"],"bee_group":{"antennae":"X","wings":"X","pattern":"D","legs":"M"},"bonus":1.6800000000000013},{"rt":1097.7000000476837,"stimulus":"bees-with-color/bee-B2SF.svg","response":0,"trial_type":"image-button-response","trial_index":147,"time_elapsed":556097,"internal_node_id":"0.0-6.0-0.11","subject_id":"613bf63329e4dd6f7368d23a","study_id":"6197b3f67c2b5cd3b6d9596a","session_id":"6197b564282779582d874fe8","condition":"full-information","relevant_dimensions":["pattern","legs"],"bee_group":{"antennae":"X","wings":"X","pattern":"D","legs":"M"},"bonus":1.6800000000000013},{"rt":1322.8999999761581,"stimulus":"bees-with-color/bee-A2SF.svg","response":0,"trial_type":"image-button-response","trial_index":148,"time_elapsed":557425,"internal_node_id":"0.0-6.0-0.12","subject_id":"613bf63329e4dd6f7368d23a","study_id":"6197b3f67c2b5cd3b6d9596a","session_id":"6197b564282779582d874fe8","condition":"full-information","relevant_dimensions":["pattern","legs"],"bee_group":{"antennae":"X","wings":"X","pattern":"D","legs":"M"},"bonus":1.6800000000000013},{"rt":1456.3999999761581,"stimulus":"bees-with-color/bee-B2DF.svg","response":0,"trial_type":"image-button-response","trial_index":149,"time_elapsed":558887,"internal_node_id":"0.0-6.0-0.13","subject_id":"613bf63329e4dd6f7368d23a","study_id":"6197b3f67c2b5cd3b6d9596a","session_id":"6197b564282779582d874fe8","condition":"full-information","relevant_dimensions":["pattern","legs"],"bee_group":{"antennae":"X","wings":"X","pattern":"D","legs":"M"},"bonus":1.6800000000000013},{"rt":1185.0999999642372,"stimulus":"bees-with-color/bee-A2DM.svg","response":1,"trial_type":"image-button-response","trial_index":150,"time_elapsed":560075,"internal_node_id":"0.0-6.0-0.14","subject_id":"613bf63329e4dd6f7368d23a","study_id":"6197b3f67c2b5cd3b6d9596a","session_id":"6197b564282779582d874fe8","condition":"full-information","relevant_dimensions":["pattern","legs"],"bee_group":{"antennae":"X","wings":"X","pattern":"D","legs":"M"},"bonus":1.6800000000000013},{"rt":1847.699999988079,"stimulus":"bees-with-color/bee-A1SM.svg","response":0,"trial_type":"image-button-response","trial_index":151,"time_elapsed":561927,"internal_node_id":"0.0-6.0-0.15","subject_id":"613bf63329e4dd6f7368d23a","study_id":"6197b3f67c2b5cd3b6d9596a","session_id":"6197b564282779582d874fe8","condition":"full-information","relevant_dimensions":["pattern","legs"],"bee_group":{"antennae":"X","wings":"X","pattern":"D","legs":"M"},"bonus":1.6800000000000013},{"rt":2628.5,"stimulus":"bees-with-color/bee-A2SM.svg","response":0,"trial_type":"image-button-response","trial_index":152,"time_elapsed":564558,"internal_node_id":"0.0-6.0-0.16","subject_id":"613bf63329e4dd6f7368d23a","study_id":"6197b3f67c2b5cd3b6d9596a","session_id":"6197b564282779582d874fe8","condition":"full-information","relevant_dimensions":["pattern","legs"],"bee_group":{"antennae":"X","wings":"X","pattern":"D","legs":"M"},"bonus":1.6800000000000013},{"rt":583.5,"stimulus":"bees-with-color/bee-A1SF.svg","response":0,"trial_type":"image-button-response","trial_index":153,"time_elapsed":565145,"internal_node_id":"0.0-6.0-0.17","subject_id":"613bf63329e4dd6f7368d23a","study_id":"6197b3f67c2b5cd3b6d9596a","session_id":"6197b564282779582d874fe8","condition":"full-information","relevant_dimensions":["pattern","legs"],"bee_group":{"antennae":"X","wings":"X","pattern":"D","legs":"M"},"bonus":1.6800000000000013},{"rt":1278.199999988079,"stimulus":"bees-with-color/bee-B2DM.svg","response":1,"trial_type":"image-button-response","trial_index":154,"time_elapsed":566431,"internal_node_id":"0.0-6.0-0.18","subject_id":"613bf63329e4dd6f7368d23a","study_id":"6197b3f67c2b5cd3b6d9596a","session_id":"6197b564282779582d874fe8","condition":"full-information","relevant_dimensions":["pattern","legs"],"bee_group":{"antennae":"X","wings":"X","pattern":"D","legs":"M"},"bonus":1.6800000000000013},{"rt":915.8000000119209,"stimulus":"bees-with-color/bee-A2SF.svg","response":0,"trial_type":"image-button-response","trial_index":155,"time_elapsed":567352,"internal_node_id":"0.0-6.0-0.19","subject_id":"613bf63329e4dd6f7368d23a","study_id":"6197b3f67c2b5cd3b6d9596a","session_id":"6197b564282779582d874fe8","condition":"full-information","relevant_dimensions":["pattern","legs"],"bee_group":{"antennae":"X","wings":"X","pattern":"D","legs":"M"},"bonus":1.6800000000000013},{"rt":1280.800000011921,"stimulus":"bees-with-color/bee-B1DM.svg","response":1,"trial_type":"image-button-response","trial_index":156,"time_elapsed":568637,"internal_node_id":"0.0-6.0-0.20","subject_id":"613bf63329e4dd6f7368d23a","study_id":"6197b3f67c2b5cd3b6d9596a","session_id":"6197b564282779582d874fe8","condition":"full-information","relevant_dimensions":["pattern","legs"],"bee_group":{"antennae":"X","wings":"X","pattern":"D","legs":"M"},"bonus":1.6800000000000013},{"rt":989.1999999880791,"stimulus":"bees-with-color/bee-A1SM.svg","response":0,"trial_type":"image-button-response","trial_index":157,"time_elapsed":569629,"internal_node_id":"0.0-6.0-0.21","subject_id":"613bf63329e4dd6f7368d23a","study_id":"6197b3f67c2b5cd3b6d9596a","session_id":"6197b564282779582d874fe8","condition":"full-information","relevant_dimensions":["p