[{"success":true,"trial_type":"fullscreen","trial_index":0,"time_elapsed":62200,"internal_node_id":"0.0-0.0","subject_id":"613d2ba9d8ab3385611ef690","study_id":"60edd13110225f80f9f3709b","session_id":"6196c4a2f8c397e55d59b279","condition":"full-information","relevant_dimensions":["antennae","wings"],"bee_group":{"antennae":"B","wings":"2","pattern":"X","legs":"X"},"bonus":0.3600000000000009},{"success":true,"timeout":false,"failed_images":[],"failed_audio":[],"failed_video":[],"trial_type":"preload","trial_index":1,"time_elapsed":66494,"internal_node_id":"0.0-1.0","subject_id":"613d2ba9d8ab3385611ef690","study_id":"60edd13110225f80f9f3709b","session_id":"6196c4a2f8c397e55d59b279","condition":"full-information","relevant_dimensions":["antennae","wings"],"bee_group":{"antennae":"B","wings":"2","pattern":"X","legs":"X"},"bonus":0.3600000000000009},{"rt":1295.1000001430511,"stimulus":"Welcome! Press any key to begin.","response":" ","trial_type":"html-keyboard-response","trial_index":2,"time_elapsed":67792,"internal_node_id":"0.0-2.0","subject_id":"613d2ba9d8ab3385611ef690","study_id":"60edd13110225f80f9f3709b","session_id":"6196c4a2f8c397e55d59b279","condition":"full-information","relevant_dimensions":["antennae","wings"],"bee_group":{"antennae":"B","wings":"2","pattern":"X","legs":"X"},"bonus":0.3600000000000009},{"view_history":[{"page_index":0,"viewing_time":4180},{"page_index":1,"viewing_time":11583.100000143051},{"page_index":2,"viewing_time":8216.5},{"page_index":3,"viewing_time":13449.399999856949},{"page_index":4,"viewing_time":4960.200000047684},{"page_index":5,"viewing_time":5511.299999952316},{"page_index":6,"viewing_time":11124.100000143051},{"page_index":7,"viewing_time":5860.5},{"page_index":8,"viewing_time":3387},{"page_index":9,"viewing_time":1843.2999999523163},{"page_index":10,"viewing_time":1702.4000000953674},{"page_index":11,"viewing_time":7885.399999856949},{"page_index":10,"viewing_time":922.4000000953674},{"page_index":9,"viewing_time":196.79999995231628},{"page_index":8,"viewing_time":562.5999999046326},{"page_index":7,"viewing_time":26920.800000190735},{"page_index":8,"viewing_time":2375.399999856949},{"page_index":9,"viewing_time":2061.600000143051},{"page_index":10,"viewing_time":4074.899999856949},{"page_index":11,"viewing_time":833.5},{"page_index":12,"viewing_time":13399.5},{"page_index":13,"viewing_time":1083.2999999523163},{"page_index":14,"viewing_time":3197.600000143051}],"rt":135332.5,"trial_type":"instructions","trial_index":3,"time_elapsed":203125,"internal_node_id":"0.0-3.0-0.0","subject_id":"613d2ba9d8ab3385611ef690","study_id":"60edd13110225f80f9f3709b","session_id":"6196c4a2f8c397e55d59b279","condition":"full-information","relevant_dimensions":["antennae","wings"],"bee_group":{"antennae":"B","wings":"2","pattern":"X","legs":"X"},"bonus":0.3600000000000009},{"rt":9500.600000143051,"response":{"Q0":["Two or six legs","Stripes or spots on body","Single or double wings","Antennae or no antennae"]},"question_order":[0],"trial_type":"survey-multi-select","trial_index":4,"time_elapsed":212642,"internal_node_id":"0.0-3.0-1.0","subject_id":"613d2ba9d8ab3385611ef690","study_id":"60edd13110225f80f9f3709b","session_id":"6196c4a2f8c397e55d59b279","condition":"full-information","relevant_dimensions":["antennae","wings"],"bee_group":{"antennae":"B","wings":"2","pattern":"X","legs":"X"},"correct":true,"bonus":0.3600000000000009},{"rt":15714.099999904633,"response":{"Q1":"No.","Q2":"Based on the four features of the bee.","Q3":"You learn if it was friendly or dangerous, but do not alter your bonus."},"question_order":[0,1,2],"trial_type":"survey-multi-choice","trial_index":5,"time_elapsed":228361,"internal_node_id":"0.0-3.0-2.0","subject_id":"613d2ba9d8ab3385611ef690","study_id":"60edd13110225f80f9f3709b","session_id":"6196c4a2f8c397e55d59b279","condition":"full-information","relevant_dimensions":["antennae","wings"],"bee_group":{"antennae":"B","wings":"2","pattern":"X","legs":"X"},"correct":true,"bonus":0.3600000000000009},{"rt":76470.79999995232,"stimulus":"<p>Congrats, you got everything right<br>When you're ready, click the button below to continue to the experiment.</p>","response":0,"trial_type":"html-button-response","trial_index":6,"time_elapsed":304835,"internal_node_id":"0.0-3.0-3.0","subject_id":"613d2ba9d8ab3385611ef690","study_id":"60edd13110225f80f9f3709b","session_id":"6196c4a2f8c397e55d59b279","condition":"full-information","relevant_dimensions":["antennae","wings"],"bee_group":{"antennae":"B","wings":"2","pattern":"X","legs":"X"},"bonus":0.3600000000000009},{"rt":4458.800000190735,"stimulus":"bees-with-color/bee-B2DM.svg","response":1,"trial_type":"image-button-response","trial_index":7,"time_elapsed":309305,"internal_node_id":"0.0-4.0-0.0","subject_id":"613d2ba9d8ab3385611ef690","study_id":"60edd13110225f80f9f3709b","session_id":"6196c4a2f8c397e55d59b279","condition":"full-information","relevant_dimensions":["antennae","wings"],"bee_group":{"antennae":"B","wings":"2","pattern":"X","legs":"X"},"action":"avoid","summary":"good-avoid","bonus":0.3600000000000009},{"rt":5411,"stimulus":"\n                    <p><b>Action: <em>avoid</em></b></p>\n                    <p>This is the bee that you just saw.</p>\n                    <img src=\"bees-with-color/bee-B2DM.svg\" width=\"200\">\n                    <p><span class=\"greenText\">Good choice!</span>  This bee would have stung you.<br>Your bonus pay is unchanged, and remains at $0.54.</p>\n            ","response":0,"trial_type":"html-button-response","trial_index":8,"time_elapsed":314730,"internal_node_id":"0.0-4.0-1.0","subject_id":"613d2ba9d8ab3385611ef690","study_id":"60edd13110225f80f9f3709b","session_id":"6196c4a2f8c397e55d59b279","condition":"full-information","relevant_dimensions":["antennae","wings"],"bee_group":{"antennae":"B","wings":"2","pattern":"X","legs":"X"},"bonus":0.3600000000000009},{"rt":2987.800000190735,"stimulus":"bees-with-color/bee-A2DF.svg","response":1,"trial_type":"image-button-response","trial_index":9,"time_elapsed":317723,"internal_node_id":"0.0-4.0-0.1","subject_id":"613d2ba9d8ab3385611ef690","study_id":"60edd13110225f80f9f3709b","session_id":"6196c4a2f8c397e55d59b279","condition":"full-information","relevant_dimensions":["antennae","wings"],"bee_group":{"antennae":"B","wings":"2","pattern":"X","legs":"X"},"action":"avoid","summary":"bad-avoid","bonus":0.3600000000000009},{"rt":5628.599999904633,"stimulus":"\n                    <p><b>Action: <em>avoid</em></b></p>\n                    <p>This is the bee that you just saw.</p>\n                    <img src=\"bees-with-color/bee-A2DF.svg\" width=\"200\">\n                    <p><span class=\"redText\">Bad choice,</span> the bee was friendly.<br>Your bonus pay is unchanged, and remains at $0.54.</p>\n            ","response":0,"trial_type":"html-button-response","trial_index":10,"time_elapsed":323355,"internal_node_id":"0.0-4.0-1.1","subject_id":"613d2ba9d8ab3385611ef690","study_id":"60edd13110225f80f9f3709b","session_id":"6196c4a2f8c397e55d59b279","condition":"full-information","relevant_dimensions":["antennae","wings"],"bee_group":{"antennae":"B","wings":"2","pattern":"X","legs":"X"},"bonus":0.3600000000000009},{"rt":1733.4000000953674,"stimulus":"bees-with-color/bee-B2SM.svg","response":0,"trial_type":"image-button-response","trial_index":11,"time_elapsed":325095,"internal_node_id":"0.0-4.0-0.2","subject_id":"613d2ba9d8ab3385611ef690","study_id":"60edd13110225f80f9f3709b","session_id":"6196c4a2f8c397e55d59b279","condition":"full-information","relevant_dimensions":["antennae","wings"],"bee_group":{"antennae":"B","wings":"2","pattern":"X","legs":"X"},"action":"harvest","summary":"bad-harvest","bonus":0.3600000000000009},{"rt":2847.7999999523163,"stimulus":"\n                    <p><b>Action: <em>harvest</em></b></p>\n                    <p>This is the bee that you just saw.</p>\n                    <img src=\"bees-with-color/bee-B2SM.svg\" width=\"200\">\n                    <p><span class=\"redText\">Bad choice, the bee was angry.</span><br><b>You have been stung!</b><br>Your pay has been decreased by $0.10. Your bonus pay is now $0.44.</p>\n            ","response":0,"trial_type":"html-button-response","trial_index":12,"time_elapsed":327947,"internal_node_id":"0.0-4.0-1.2","subject_id":"613d2ba9d8ab3385611ef690","study_id":"60edd13110225f80f9f3709b","session_id":"6196c4a2f8c397e55d59b279","condition":"full-information","relevant_dimensions":["antennae","wings"],"bee_group":{"antennae":"B","wings":"2","pattern":"X","legs":"X"},"bonus":0.3600000000000009},{"rt":988.5,"stimulus":"bees-with-color/bee-A2SM.svg","response":0,"trial_type":"image-button-response","trial_index":13,"time_elapsed":328938,"internal_node_id":"0.0-4.0-0.3","subject_id":"613d2ba9d8ab3385611ef690","study_id":"60edd13110225f80f9f3709b","session_id":"6196c4a2f8c397e55d59b279","condition":"full-information","relevant_dimensions":["antennae","wings"],"bee_group":{"antennae":"B","wings":"2","pattern":"X","legs":"X"},"action":"harvest","summary":"good-harvest","bonus":0.3600000000000009},{"rt":2134.300000190735,"stimulus":"\n                    <p><b>Action: <em>harvest</em></b></p>\n                    <p>This is the bee that you just saw.</p>\n                    <img src=\"bees-with-color/bee-A2SM.svg\" width=\"200\">\n                    <p><span class=\"greenText\"><b>Successful harvest!</b></span><br>Your pay has increased by $0.02. Your bonus pay is now $0.46.</p>\n            ","response":0,"trial_type":"html-button-response","trial_index":14,"time_elapsed":331076,"internal_node_id":"0.0-4.0-1.3","subject_id":"613d2ba9d8ab3385611ef690","study_id":"60edd13110225f80f9f3709b","session_id":"6196c4a2f8c397e55d59b279","condition":"full-information","relevant_dimensions":["antennae","wings"],"bee_group":{"antennae":"B","wings":"2","pattern":"X","legs":"X"},"bonus":0.3600000000000009},{"rt":1570.8999998569489,"stimulus":"bees-with-color/bee-A1SF.svg","response":0,"trial_type":"image-button-response","trial_index":15,"time_elapsed":332651,"internal_node_id":"0.0-4.0-0.4","subject_id":"613d2ba9d8ab3385611ef690","study_id":"60edd13110225f80f9f3709b","session_id":"6196c4a2f8c397e55d59b279","condition":"full-information","relevant_dimensions":["antennae","wings"],"bee_group":{"antennae":"B","wings":"2","pattern":"X","legs":"X"},"action":"harvest","summary":"good-harvest","bonus":0.3600000000000009},{"rt":2102.0999999046326,"stimulus":"\n                    <p><b>Action: <em>harvest</em></b></p>\n                    <p>This is the bee that you just saw.</p>\n                    <img src=\"bees-with-color/bee-A1SF.svg\" width=\"200\">\n                    <p><span class=\"greenText\"><b>Successful harvest!</b></span><br>Your pay has increased by $0.02. Your bonus pay is now $0.48.</p>\n            ","response":0,"trial_type":"html-button-response","trial_index":16,"time_elapsed":334757,"internal_node_id":"0.0-4.0-1.4","subject_id":"613d2ba9d8ab3385611ef690","study_id":"60edd13110225f80f9f3709b","session_id":"6196c4a2f8c397e55d59b279","condition":"full-information","relevant_dimensions":["antennae","wings"],"bee_group":{"antennae":"B","wings":"2","pattern":"X","legs":"X"},"bonus":0.3600000000000009},{"rt":1152.3999998569489,"stimulus":"bees-with-color/bee-B1DF.svg","response":1,"trial_type":"image-button-response","trial_index":17,"time_elapsed":335914,"internal_node_id":"0.0-4.0-0.5","subject_id":"613d2ba9d8ab3385611ef690","study_id":"60edd13110225f80f9f3709b","session_id":"6196c4a2f8c397e55d59b279","condition":"full-information","relevant_dimensions":["antennae","wings"],"bee_group":{"antennae":"B","wings":"2","pattern":"X","legs":"X"},"action":"avoid","summary":"bad-avoid","bonus":0.3600000000000009},{"rt":1394.5,"stimulus":"\n                    <p><b>Action: <em>avoid</em></b></p>\n                    <p>This is the bee that you just saw.</p>\n                    <img src=\"bees-with-color/bee-B1DF.svg\" width=\"200\">\n                    <p><span class=\"redText\">Bad choice,</span> the bee was friendly.<br>Your bonus pay is unchanged, and remains at $0.48.</p>\n            ","response":0,"trial_type":"html-button-response","trial_index":18,"time_elapsed":337311,"internal_node_id":"0.0-4.0-1.5","subject_id":"613d2ba9d8ab3385611ef690","study_id":"60edd13110225f80f9f3709b","session_id":"6196c4a2f8c397e55d59b279","condition":"full-information","relevant_dimensions":["antennae","wings"],"bee_group":{"antennae":"B","wings":"2","pattern":"X","legs":"X"},"bonus":0.3600000000000009},{"rt":825.1000001430511,"stimulus":"bees-with-color/bee-B1SF.svg","response":1,"trial_type":"image-button-response","trial_index":19,"time_elapsed":338138,"internal_node_id":"0.0-4.0-0.6","subject_id":"613d2ba9d8ab3385611ef690","study_id":"60edd13110225f80f9f3709b","session_id":"6196c4a2f8c397e55d59b279","condition":"full-information","relevant_dimensions":["antennae","wings"],"bee_group":{"antennae":"B","wings":"2","pattern":"X","legs":"X"},"action":"avoid","summary":"bad-avoid","bonus":0.3600000000000009},{"rt":1025.5,"stimulus":"\n                    <p><b>Action: <em>avoid</em></b></p>\n                    <p>This is the bee that you just saw.</p>\n                    <img src=\"bees-with-color/bee-B1SF.svg\" width=\"200\">\n                    <p><span class=\"redText\">Bad choice,</span> the bee was friendly.<br>Your bonus pay is unchanged, and remains at $0.48.</p>\n            ","response":0,"trial_type":"html-button-response","trial_index":20,"time_elapsed":339166,"internal_node_id":"0.0-4.0-1.6","subject_id":"613d2ba9d8ab3385611ef690","study_id":"60edd13110225f80f9f3709b","session_id":"6196c4a2f8c397e55d59b279","condition":"full-information","relevant_dimensions":["antennae","wings"],"bee_group":{"antennae":"B","wings":"2","pattern":"X","legs":"X"},"bonus":0.3600000000000009},{"rt":989.5,"stimulus":"bees-with-color/bee-A2DM.svg","response":1,"trial_type":"image-button-response","trial_index":21,"time_elapsed":340157,"internal_node_id":"0.0-4.0-0.7","subject_id":"613d2ba9d8ab3385611ef690","study_id":"60edd13110225f80f9f3709b","session_id":"6196c4a2f8c397e55d59b279","condition":"full-information","relevant_dimensions":["antennae","wings"],"bee_group":{"antennae":"B","wings":"2","pattern":"X","legs":"X"},"action":"avoid","summary":"bad-avoid","bonus":0.3600000000000009},{"rt":2004.4000000953674,"stimulus":"\n                    <p><b>Action: <em>avoid</em></b></p>\n                    <p>This is the bee that you just saw.</p>\n                    <img src=\"bees-with-color/bee-A2DM.svg\" width=\"200\">\n                    <p><span class=\"redText\">Bad choice,</span> the bee was friendly.<br>Your bonus pay is unchanged, and remains at $0.48.</p>\n            ","response":0,"trial_type":"html-button-response","trial_index":22,"time_elapsed":342164,"internal_node_id":"0.0-4.0-1.7","subject_id":"613d2ba9d8ab3385611ef690","study_id":"60edd13110225f80f9f3709b","session_id":"6196c4a2f8c397e55d59b279","condition":"full-information","relevant_dimensions":["antennae","wings"],"bee_group":{"antennae":"B","wings":"2","pattern":"X","legs":"X"},"bonus":0.3600000000000009},{"rt":2023.2999999523163,"stimulus":"bees-with-color/bee-A2SF.svg","response":0,"trial_type":"image-button-response","trial_index":23,"time_elapsed":344190,"internal_node_id":"0.0-4.0-0.8","subject_id":"613d2ba9d8ab3385611ef690","study_id":"60edd13110225f80f9f3709b","session_id":"6196c4a2f8c397e55d59b279","condition":"full-information","relevant_dimensions":["antennae","wings"],"bee_group":{"antennae":"B","wings":"2","pattern":"X","legs":"X"},"action":"harvest","summary":"good-harvest","bonus":0.3600000000000009},{"rt":1147.4000000953674,"stimulus":"\n                    <p><b>Action: <em>harvest</em></b></p>\n                    <p>This is the bee that you just saw.</p>\n                    <img src=\"bees-with-color/bee-A2SF.svg\" width=\"200\">\n                    <p><span class=\"greenText\"><b>Successful harvest!</b></span><br>Your pay has increased by $0.02. Your bonus pay is now $0.50.</p>\n            ","response":0,"trial_type":"html-button-response","trial_index":24,"time_elapsed":345340,"internal_node_id":"0.0-4.0-1.8","subject_id":"613d2ba9d8ab3385611ef690","study_id":"60edd13110225f80f9f3709b","session_id":"6196c4a2f8c397e55d59b279","condition":"full-information","relevant_dimensions":["antennae","wings"],"bee_group":{"antennae":"B","wings":"2","pattern":"X","legs":"X"},"bonus":0.3600000000000009},{"rt":1614.3000001907349,"stimulus":"bees-with-color/bee-B1SM.svg","response":1,"trial_type":"image-button-response","trial_index":25,"time_elapsed":346956,"internal_node_id":"0.0-4.0-0.9","subject_id":"613d2ba9d8ab3385611ef690","study_id":"60edd13110225f80f9f3709b","session_id":"6196c4a2f8c397e55d59b279","condition":"full-information","relevant_dimensions":["antennae","wings"],"bee_group":{"antennae":"B","wings":"2","pattern":"X","legs":"X"},"action":"avoid","summary":"bad-avoid","bonus":0.3600000000000009},{"rt":773.2999999523163,"stimulus":"\n                    <p><b>Action: <em>avoid</em></b></p>\n                    <p>This is the bee that you just saw.</p>\n                    <img src=\"bees-with-color/bee-B1SM.svg\" width=\"200\">\n                    <p><span class=\"redText\">Bad choice,</span> the bee was friendly.<br>Your bonus pay is unchanged, and remains at $0.50.</p>\n            ","response":0,"trial_type":"html-button-response","trial_index":26,"time_elapsed":347732,"internal_node_id":"0.0-4.0-1.9","subject_id":"613d2ba9d8ab3385611ef690","study_id":"60edd13110225f80f9f3709b","session_id":"6196c4a2f8c397e55d59b279","condition":"full-information","relevant_dimensions":["antennae","wings"],"bee_group":{"antennae":"B","wings":"2","pattern":"X","legs":"X"},"bonus":0.3600000000000009},{"rt":942.8000001907349,"stimulus":"bees-with-color/bee-B2DF.svg","response":1,"trial_type":"image-button-response","trial_index":27,"time_elapsed":348678,"internal_node_id":"0.0-4.0-0.10","subject_id":"613d2ba9d8ab3385611ef690","study_id":"60edd13110225f80f9f3709b","session_id":"6196c4a2f8c397e55d59b279","condition":"full-information","relevant_dimensions":["antennae","wings"],"bee_group":{"antennae":"B","wings":"2","pattern":"X","legs":"X"},"action":"avoid","summary":"good-avoid","bonus":0.3600000000000009},{"rt":1904.5,"stimulus":"\n                    <p><b>Action: <em>avoid</em></b></p>\n                    <p>This is the bee that you just saw.</p>\n                    <img src=\"bees-with-color/bee-B2DF.svg\" width=\"200\">\n                    <p><span class=\"greenText\">Good choice!</span>  This bee would have stung you.<br>Your bonus pay is unchanged, and remains at $0.50.</p>\n            ","response":0,"trial_type":"html-button-response","trial_index":28,"time_elapsed":350586,"internal_node_id":"0.0-4.0-1.10","subject_id":"613d2ba9d8ab3385611ef690","study_id":"60edd13110225f80f9f3709b","session_id":"6196c4a2f8c397e55d59b279","condition":"full-information","relevant_dimensions":["antennae","wings"],"bee_group":{"antennae":"B","wings":"2","pattern":"X","legs":"X"},"bonus":0.3600000000000009},{"rt":797.7000000476837,"stimulus":"bees-with-color/bee-A1SM.svg","response":0,"trial_type":"image-button-response","trial_index":29,"time_elapsed":351387,"internal_node_id":"0.0-4.0-0.11","subject_id":"613d2ba9d8ab3385611ef690","study_id":"60edd13110225f80f9f3709b","session_id":"6196c4a2f8c397e55d59b279","condition":"full-information","relevant_dimensions":["antennae","wings"],"bee_group":{"antennae":"B","wings":"2","pattern":"X","legs":"X"},"action":"harvest","summary":"good-harvest","bonus":0.3600000000000009},{"rt":856.2000000476837,"stimulus":"\n                    <p><b>Action: <em>harvest</em></b></p>\n                    <p>This is the bee that you just saw.</p>\n                    <img src=\"bees-with-color/bee-A1SM.svg\" width=\"200\">\n                    <p><span class=\"greenText\"><b>Successful harvest!</b></span><br>Your pay has increased by $0.02. Your bonus pay is now $0.52.</p>\n            ","response":0,"trial_type":"html-button-response","trial_index":30,"time_elapsed":352246,"internal_node_id":"0.0-4.0-1.11","subject_id":"613d2ba9d8ab3385611ef690","study_id":"60edd13110225f80f9f3709b","session_id":"6196c4a2f8c397e55d59b279","condition":"full-information","relevant_dimensions":["antennae","wings"],"bee_group":{"antennae":"B","wings":"2","pattern":"X","legs":"X"},"bonus":0.3600000000000009},{"rt":863.7000000476837,"stimulus":"bees-with-color/bee-A1DF.svg","response":1,"trial_type":"image-button-response","trial_index":31,"time_elapsed":353112,"internal_node_id":"0.0-4.0-0.12","subject_id":"613d2ba9d8ab3385611ef690","study_id":"60edd13110225f80f9f3709b","session_id":"6196c4a2f8c397e55d59b279","condition":"full-information","relevant_dimensions":["antennae","wings"],"bee_group":{"antennae":"B","wings":"2","pattern":"X","legs":"X"},"action":"avoid","summary":"bad-avoid","bonus":0.3600000000000009},{"rt":647.2999999523163,"stimulus":"\n                    <p><b>Action: <em>avoid</em></b></p>\n                    <p>This is the bee that you just saw.</p>\n                    <img src=\"bees-with-color/bee-A1DF.svg\" width=\"200\">\n                    <p><span class=\"redText\">Bad choice,</span> the bee was friendly.<br>Your bonus pay is unchanged, and remains at $0.52.</p>\n            ","response":0,"trial_type":"html-button-response","trial_index":32,"time_elapsed":353763,"internal_node_id":"0.0-4.0-1.12","subject_id":"613d2ba9d8ab3385611ef690","study_id":"60edd13110225f80f9f3709b","session_id":"6196c4a2f8c397e55d59b279","condition":"full-information","relevant_dimensions":["antennae","wings"],"bee_group":{"antennae":"B","wings":"2","pattern":"X","legs":"X"},"bonus":0.3600000000000009},{"rt":867.9000000953674,"stimulus":"bees-with-color/bee-B1DM.svg","response":1,"trial_type":"image-button-response","trial_index":33,"time_elapsed":354633,"internal_node_id":"0.0-4.0-0.13","subject_id":"613d2ba9d8ab3385611ef690","study_id":"60edd13110225f80f9f3709b","session_id":"6196c4a2f8c397e55d59b279","condition":"full-information","relevant_dimensions":["antennae","wings"],"bee_group":{"antennae":"B","wings":"2","pattern":"X","legs":"X"},"action":"avoid","summary":"bad-avoid","bonus":0.3600000000000009},{"rt":727.4000000953674,"stimulus":"\n                    <p><b>Action: <em>avoid</em></b></p>\n                    <p>This is the bee that you just saw.</p>\n                    <img src=\"bees-with-color/bee-B1DM.svg\" width=\"200\">\n                    <p><span class=\"redText\">Bad choice,</span> the bee was friendly.<br>Your bonus pay is unchanged, and remains at $0.52.</p>\n            ","response":0,"trial_type":"html-button-response","trial_index":34,"time_elapsed":355364,"internal_node_id":"0.0-4.0-1.13","subject_id":"613d2ba9d8ab3385611ef690","study_id":"60edd13110225f80f9f3709b","session_id":"6196c4a2f8c397e55d59b279","condition":"full-information","relevant_dimensions":["antennae","wings"],"bee_group":{"antennae":"B","wings":"2","pattern":"X","legs":"X"},"bonus":0.3600000000000009},{"rt":832.3000001907349,"stimulus":"bees-with-color/bee-A1DM.svg","response":1,"trial_type":"image-button-response","trial_index":35,"time_elapsed":356199,"internal_node_id":"0.0-4.0-0.14","subject_id":"613d2ba9d8ab3385611ef690","study_id":"60edd13110225f80f9f3709b","session_id":"6196c4a2f8c397e55d59b279","condition":"full-information","relevant_dimensions":["antennae","wings"],"bee_group":{"antennae":"B","wings":"2","pattern":"X","legs":"X"},"action":"avoid","summary":"bad-avoid","bonus":0.3600000000000009},{"rt":623.4000000953674,"stimulus":"\n                    <p><b>Action: <em>avoid</em></b></p>\n                    <p>This is the bee that you just saw.</p>\n                    <img src=\"bees-with-color/bee-A1DM.svg\" width=\"200\">\n                    <p><span class=\"redText\">Bad choice,</span> the bee was friendly.<br>Your bonus pay is unchanged, and remains at $0.52.</p>\n            ","response":0,"trial_type":"html-button-response","trial_index":36,"time_elapsed":356825,"internal_node_id":"0.0-4.0-1.14","subject_id":"613d2ba9d8ab3385611ef690","study_id":"60edd13110225f80f9f3709b","session_id":"6196c4a2f8c397e55d59b279","condition":"full-information","relevant_dimensions":["antennae","wings"],"bee_group":{"antennae":"B","wings":"2","pattern":"X","legs":"X"},"bonus":0.3600000000000009},{"rt":1527,"stimulus":"bees-with-color/bee-B2SF.svg","response":0,"trial_type":"image-button-response","trial_index":37,"time_elapsed":358355,"internal_node_id":"0.0-4.0-0.15","subject_id":"613d2ba9d8ab3385611ef690","study_id":"60edd13110225f80f9f3709b","session_id":"6196c4a2f8c397e55d59b279","condition":"full-information","relevant_dimensions":["antennae","wings"],"bee_group":{"antennae":"B","wings":"2","pattern":"X","legs":"X"},"action":"harvest","summary":"bad-harvest","bonus":0.3600000000000009},{"rt":1055.8999998569489,"stimulus":"\n                    <p><b>Action: <em>harvest</em></b></p>\n                    <p>This is the bee that you just saw.</p>\n                    <img src=\"bees-with-color/bee-B2SF.svg\" width=\"200\">\n                    <p><span class=\"redText\">Bad choice, the bee was angry.</span><br><b>You have been stung!</b><br>Your pay has been decreased by $0.10. Your bonus pay is now $0.42.</p>\n            ","response":0,"trial_type":"html-button-response","trial_index":38,"time_elapsed":359414,"internal_node_id":"0.0-4.0-1.15","subject_id":"613d2ba9d8ab3385611ef690","study_id":"60edd13110225f80f9f3709b","session_id":"6196c4a2f8c397e55d59b279","condition":"full-information","relevant_dimensions":["antennae","wings"],"bee_group":{"antennae":"B","wings":"2","pattern":"X","legs":"X"},"bonus":0.3600000000000009},{"rt":1374,"stimulus":"bees-with-color/bee-A2SF.svg","response":0,"trial_type":"image-button-response","trial_index":39,"time_elapsed":360791,"internal_node_id":"0.0-4.0-0.16","subject_id":"613d2ba9d8ab3385611ef690","study_id":"60edd13110225f80f9f3709b","session_id":"6196c4a2f8c397e55d59b279","condition":"full-information","relevant_dimensions":["antennae","wings"],"bee_group":{"antennae":"B","wings":"2","pattern":"X","legs":"X"},"action":"harvest","summary":"good-harvest","bonus":0.3600000000000009},{"rt":1128.6999998092651,"stimulus":"\n                    <p><b>Action: <em>harvest</em></b></p>\n                    <p>This is the bee that you just saw.</p>\n                    <img src=\"bees-with-color/bee-A2SF.svg\" width=\"200\">\n                    <p><span class=\"greenText\"><b>Successful harvest!</b></span><br>Your pay has increased by $0.02. Your bonus pay is now $0.44.</p>\n            ","response":0,"trial_type":"html-button-response","trial_index":40,"time_elapsed":361923,"internal_node_id":"0.0-4.0-1.16","subject_id":"613d2ba9d8ab3385611ef690","study_id":"60edd13110225f80f9f3709b","session_id":"6196c4a2f8c397e55d59b279","condition":"full-information","relevant_dimensions":["antennae","wings"],"bee_group":{"antennae":"B","wings":"2","pattern":"X","legs":"X"},"bonus":0.3600000000000009},{"rt":1192.4000000953674,"stimulus":"bees-with-color/bee-A1SF.svg","response":0,"trial_type":"image-button-response","trial_index":41,"time_elapsed":363118,"internal_node_id":"0.0-4.0-0.17","subject_id":"613d2ba9d8ab3385611ef690","study_id":"60edd13110225f80f9f3709b","session_id":"6196c4a2f8c397e55d59b279","condition":"full-information","relevant_dimensions":["antennae","wings"],"bee_group":{"antennae":"B","wings":"2","pattern":"X","legs":"X"},"action":"harvest","summary":"good-harvest","bonus":0.3600000000000009},{"rt":2800.2999999523163,"stimulus":"\n                    <p><b>Action: <em>harvest</em></b></p>\n                    <p>This is the bee that you just saw.</p>\n                    <img src=\"bees-with-color/bee-A1SF.svg\" width=\"200\">\n                    <p><span class=\"greenText\"><b>Successful harvest!</b></span><br>Your pay has increased by $0.02. Your bonus pay is now $0.46.</p>\n            ","response":0,"trial_type":"html-button-response","trial_index":42,"time_elapsed":365922,"internal_node_id":"0.0-4.0-1.17","subject_id":"613d2ba9d8ab3385611ef690","study_id":"60edd13110225f80f9f3709b","session_id":"6196c4a2f8c397e55d59b279","condition":"full-information","relevant_dimensions":["antennae","wings"],"bee_group":{"antennae":"B","wings":"2","pattern":"X","legs":"X"},"bonus":0.3600000000000009},{"rt":3330.5999999046326,"stimulus":"bees-with-color/bee-A1DM.svg","response":1,"trial_type":"image-button-response","trial_index":43,"time_elapsed":369257,"internal_node_id":"0.0-4.0-0.18","subject_id":"613d2ba9d8ab3385611ef690","study_id":"60edd13110225f80f9f3709b","session_id":"6196c4a2f8c397e55d59b279","condition":"full-information","relevant_dimensions":["antennae","wings"],"bee_group":{"antennae":"B","wings":"2","pattern":"X","legs":"X"},"action":"avoid","summary":"bad-avoid","bonus":0.3600000000000009},{"rt":881.2000000476837,"stimulus":"\n                    <p><b>Action: <em>avoid</em></b></p>\n                    <p>This is the bee that you just saw.</p>\n                    <img src=\"bees-with-color/bee-A1DM.svg\" width=\"200\">\n                    <p><span class=\"redText\">Bad choice,</span> the bee was friendly.<br>Your bonus pay is unchanged, and remains at $0.46.</p>\n            ","response":0,"trial_type":"html-button-response","trial_index":44,"time_elapsed":370143,"internal_node_id":"0.0-4.0-1.18","subject_id":"613d2ba9d8ab3385611ef690","study_id":"60edd13110225f80f9f3709b","session_id":"6196c4a2f8c397e55d59b279","condition":"full-information","relevant_dimensions":["antennae","wings"],"bee_group":{"antennae":"B","wings":"2","pattern":"X","legs":"X"},"bonus":0.3600000000000009},{"rt":967.9000000953674,"stimulus":"bees-with-color/bee-B2SF.svg","response":0,"trial_type":"image-button-response","trial_index":45,"time_elapsed":371115,"internal_node_id":"0.0-4.0-0.19","subject_id":"613d2ba9d8ab3385611ef690","study_id":"60edd13110225f80f9f3709b","session_id":"6196c4a2f8c397e55d59b279","condition":"full-information","relevant_dimensions":["antennae","wings"],"bee_group":{"antennae":"B","wings":"2","pattern":"X","legs":"X"},"action":"harvest","summary":"bad-harvest","bonus":0.3600000000000009},{"rt":1722.2999999523163,"stimulus":"\n                    <p><b>Action: <em>harvest</em></b></p>\n                    <p>This is the bee that you just saw.</p>\n                    <img src=\"bees-with-color/bee-B2SF.svg\" width=\"200\">\n                    <p><span class=\"redText\">Bad choice, the bee was angry.</span><br><b>You have been stung!</b><br>Your pay has been decreased by $0.10. Your bonus pay is now $0.36.</p>\n            ","response":0,"trial_type":"html-button-response","trial_index":46,"time_elapsed":372840,"internal_node_id":"0.0-4.0-1.19","subject_id":"613d2ba9d8ab3385611ef690","study_id":"60edd13110225f80f9f3709b","session_id":"6196c4a2f8c397e55d59b279","condition":"full-information","relevant_dimensions":["antennae","wings"],"bee_group":{"antennae":"B","wings":"2","pattern":"X","legs":"X"},"bonus":0.3600000000000009},{"rt":856.8999998569489,"stimulus":"bees-with-color/bee-B1SF.svg","response":0,"trial_type":"image-button-response","trial_index":47,"time_elapsed":373699,"internal_node_id":"0.0-4.0-0.20","subject_id":"613d2ba9d8ab3385611ef690","study_id":"60edd13110225f80f9f3709b","session_id":"6196c4a2f8c397e55d59b279","condition":"full-information","relevant_dimensions":["antennae","wings"],"bee_group":{"antennae":"B","wings":"2","pattern":"X","legs":"X"},"action":"harvest","summary":"good-harvest","bonus":0.3600000000000009},{"rt":1588.6000001430511,"stimulus":"\n                    <p><b>Action: <em>harvest</em></b></p>\n                    <p>This is the bee that you just saw.</p>\n                    <img src=\"bees-with-color/bee-B1SF.svg\" width=\"200\">\n                    <p><span class=\"greenText\"><b>Successful harvest!</b></span><br>Your pay has increased by $0.02. Your bonus pay is now $0.38.</p>\n            ","response":0,"trial_type":"html-button-response","trial_index":48,"time_elapsed":375290,"internal_node_id":"0.0-4.0-1.20","subject_id":"613d2ba9d8ab3385611ef690","study_id":"60edd13110225f80f9f3709b","session_id":"6196c4a2f8c397e55d59b279","condition":"full-information","relevant_dimensions":["antennae","wings"],"bee_group":{"antennae":"B","wings":"2","pattern":"X","legs":"X"},"bonus":0.3600000000000009},{"rt":866.4000000953674,"stimulus":"bees-with-color/bee-A2DM.svg","response":1,"trial_type":"image-button-response","trial_index":49,"time_elapsed":376159,"internal_node_id":"0.0-4.0-0.21","subject_id":"613d2ba9d8ab3385611ef690","study_id":"60edd13110225f80f9f3709b","session_id":"6196c4a2f8c397e55d59b279","condition":"full-information","relevant_dimensions":["antennae","wings"],"bee_group":{"antennae":"B","wings":"2","pattern":"X","legs":"X"},"action":"avoid","summary":"bad-avoid","bonus":0.3600000000000009},{"rt":815.1999998092651,"stimulus":"\n                    <p><b>Action: <em>avoid</em></b></p>\n                    <p>This is the bee that you just saw.</p>\n                    <img src=\"bees-with-color/bee-A2DM.svg\" width=\"200\">\n                    <p><span class=\"redText\">Bad choice,</span> the bee was friendly.<br>Your bonus pay is unchanged, and remains at $0.38.</p>\n            ","response":0,"trial_type":"html-button-response","trial_index":50,"time_elapsed":376976,"internal_node_id":"0.0-4.0-1.21","subject_id":"613d2ba9d8ab3385611ef690","study_id":"60edd13110225f80f9f3709b","session_id":"6196c4a2f8c397e55d59b279","condition":"full-information","relevant_dimensions":["antennae","wings"],"bee_group":{"antennae":"B","wings":"2","pattern":"X","legs":"X"},"bonus":0.3600000000000009},{"rt":1146.2000000476837,"stimulus":"bees-with-color/bee-B2DM.svg","response":1,"trial_type":"image-button-response","trial_index":51,"time_elapsed":378124,"internal_node_id":"0.0-4.0-0.22","subject_id":"613d2ba9d8ab3385611ef690","study_id":"60edd13110225f80f9f3709b","session_id":"6196c4a2f8c397e55d59b279","condition":"full-information","relevant_dimensions":["antennae","wings"],"bee_group":{"antennae":"B","wings":"2","pattern":"X","legs":"X"},"action":"avoid","summary":"good-avoid","bonus":0.3600000000000009},{"rt":786.3999998569489,"stimulus":"\n                    <p><b>Action: <em>avoid</em></b></p>\n                    <p>This is the bee that you just saw.</p>\n                    <img src=\"bees-with-color/bee-B2DM.svg\" width=\"200\">\n                    <p><span class=\"greenText\">Good choice!</span>  This bee would have stung you.<br>Your bonus pay is unchanged, and remains at $0.38.</p>\n            ","response":0,"trial_type":"html-button-response","trial_index":52,"time_elapsed":378912,"internal_node_id":"0.0-4.0-1.22","subject_id":"613d2ba9d8ab3385611ef690","study_id":"60edd13110225f80f9f3709b","session_id":"6196c4a2f8c397e55d59b279","condition":"full-information","relevant_dimensions":["antennae","wings"],"bee_group":{"antennae":"B","wings":"2","pattern":"X","legs":"X"},"bonus":0.3600000000000009},{"rt":1033.3000001907349,"stimulus":"bees-with-color/bee-A2DF.svg","response":1,"trial_type":"image-button-response","trial_index":53,"time_elapsed":379948,"internal_node_id":"0.0-4.0-0.23","subject_id":"613d2ba9d8ab3385611ef690","study_id":"60edd13110225f80f9f3709b","session_id":"6196c4a2f8c397e55d59b279","condition":"full-information","relevant_dimensions":["antennae","wings"],"bee_group":{"antennae":"B","wings":"2","pattern":"X","legs":"X"},"action":"avoid","summary":"bad-avoid","bonus":0.3600000000000009},{"rt":591.2999999523163,"stimulus":"\n                    <p><b>Action: <em>avoid</em></b></p>\n                    <p>This is the bee that you just saw.</p>\n                    <img src=\"bees-with-color/bee-A2DF.svg\" width=\"200\">\n                    <p><span class=\"redText\">Bad choice,</span> the bee was friendly.<br>Your bonus pay is unchanged, and remains at $0.38.</p>\n            ","response":0,"trial_type":"html-button-response","trial_index":54,"time_elapsed":380541,"internal_node_id":"0.0-4.0-1.23","subject_id":"613d2ba9d8ab3385611ef690","study_id":"60edd13110225f80f9f3709b","session_id":"6196c4a2f8c397e55d59b279","condition":"full-information","relevant_dimensions":["antennae","wings"],"bee_group":{"antennae":"B","wings":"2","pattern":"X","legs":"X"},"bonus":0.3600000000000009},{"rt":937.5,"stimulus":"bees-with-color/bee-A1DF.svg","response":1,"trial_type":"image-button-response","trial_index":55,"time_elapsed":381481,"internal_node_id":"0.0-4.0-0.24","subject_id":"613d2ba9d8ab3385611ef690","study_id":"60edd13110225f80f9f3709b","session_id":"6196c4a2f8c397e55d59b279","condition":"full-information","relevant_dimensions":["antennae","wings"],"bee_group":{"antennae":"B","wings":"2","pattern":"X","legs":"X"},"action":"avoid","summary":"bad-avoid","bonus":0.3600000000000009},{"rt":535,"stimulus":"\n                    <p><b>Action: <em>avoid</em></b></p>\n                    <p>This is the bee that you just saw.</p>\n                    <img src=\"bees-with-color/bee-A1DF.svg\" width=\"200\">\n                    <p><span class=\"redText\">Bad choice,</span> the bee was friendly.<br>Your bonus pay is unchanged, and remains at $0.38.</p>\n            ","response":0,"trial_type":"html-button-response","trial_index":56,"time_elapsed":382019,"internal_node_id":"0.0-4.0-1.24","subject_id":"613d2ba9d8ab3385611ef690","study_id":"60edd13110225f80f9f3709b","session_id":"6196c4a2f8c397e55d59b279","condition":"full-information","relevant_dimensions":["antennae","wings"],"bee_group":{"antennae":"B","wings":"2","pattern":"X","legs":"X"},"bonus":0.3600000000000009},{"rt":934.5,"stimulus":"bees-with-color/bee-B2DF.svg","response":1,"trial_type":"image-button-response","trial_index":57,"time_elapsed":382955,"internal_node_id":"0.0-4.0-0.25","subject_id":"613d2ba9d8ab3385611ef690","study_id":"60edd13110225f80f9f3709b","session_id":"6196c4a2f8c397e55d59b279","condition":"full-information","relevant_dimensions":["antennae","wings"],"bee_group":{"antennae":"B","wings":"2","pattern":"X","legs":"X"},"action":"avoid","summary":"good-avoid","bonus":0.3600000000000009},{"rt":1176.6999998092651,"stimulus":"\n                    <p><b>Action: <em>avoid</em></b></p>\n                    <p>This is the bee that you just saw.</p>\n                    <img src=\"bees-with-color/bee-B2DF.svg\" width=\"200\">\n                    <p><span class=\"greenText\">Good choice!</span>  This bee would have stung you.<br>Your bonus pay is unchanged, and remains at $0.38.</p>\n            ","response":0,"trial_type":"html-button-response","trial_index":58,"time_elapsed":384135,"internal_node_id":"0.0-4.0-1.25","subject_id":"613d2ba9d8ab3385611ef690","study_id":"60edd13110225f80f9f3709b","session_id":"6196c4a2f8c397e55d59b279","condition":"full-information","relevant_dimensions":["antennae","wings"],"bee_group":{"antennae":"B","wings":"2","pattern":"X","legs":"X"},"bonus":0.3600000000000009},{"rt":1771.5999999046326,"stimulus":"bees-with-color/bee-B1DM.svg","response":0,"trial_type":"image-button-response","trial_index":59,"time_elapsed":385909,"internal_node_id":"0.0-4.0-0.26","subject_id":"613d2ba9d8ab3385611ef690","study_id":"60edd13110225f80f9f3709b","session_id":"6196c4a2f8c397e55d59b279","condition":"full-information","relevant_dimensions":["antennae","wings"],"bee_group":{"antennae":"B","wings":"2","pattern":"X","legs":"X"},"action":"harvest","summary":"good-harvest","bonus":0.3600000000000009},{"rt":1843.4000000953674,"stimulus":"\n                    <p><b>Action: <em>harvest</em></b></p>\n                    <p>This is the bee that you just saw.</p>\n                    <img src=\"bees-with-color/bee-B1DM.svg\" width=\"200\">\n                    <p><span class=\"greenText\"><b>Successful harvest!</b></span><br>Your pay has increased by $0.02. Your bonus pay is now $0.40.</p>\n            ","response":0,"trial_type":"html-button-response","trial_index":60,"time_elapsed":387755,"internal_node_id":"0.0-4.0-1.26","subject_id":"613d2ba9d8ab3385611ef690","study_id":"60edd13110225f80f9f3709b","session_id":"6196c4a2f8c397e55d59b279","condition":"full-information","relevant_dimensions":["antennae","wings"],"bee_group":{"antennae":"B","wings":"2","pattern":"X","legs":"X"},"bonus":0.3600000000000009},{"rt":34350.200000047684,"stimulus":"bees-with-color/bee-A2SM.svg","response":0,"trial_type":"image-button-response","trial_index":61,"time_elapsed":422109,"internal_node_id":"0.0-4.0-0.27","subject_id":"613d2ba9d8ab3385611ef690","study_id":"60edd13110225f80f9f3709b","session_id":"6196c4a2f8c397e55d59b279","condition":"full-information","relevant_dimensions":["antennae","wings"],"bee_group":{"antennae":"B","wings":"2","pattern":"X","legs":"X"},"action":"harvest","summary":"good-harvest","bonus":0.3600000000000009},{"rt":1603.5,"stimulus":"\n                    <p><b>Action: <em>harvest</em></b></p>\n                    <p>This is the bee that you just saw.</p>\n                    <img src=\"bees-with-color/bee-A2SM.svg\" width=\"200\">\n                    <p><span class=\"greenText\"><b>Successful harvest!</b></span><br>Your pay has increased by $0.02. Your bonus pay is now $0.42.</p>\n            ","response":0,"trial_type":"html-button-response","trial_index":62,"time_elapsed":423715,"internal_node_id":"0.0-4.0-1.27","subject_id":"613d2ba9d8ab3385611ef690","study_id":"60edd13110225f80f9f3709b","session_id":"6196c4a2f8c397e55d59b279","condition":"full-information","relevant_dimensions":["antennae","wings"],"bee_group":{"antennae":"B","wings":"2","pattern":"X","legs":"X"},"bonus":0.3600000000000009},{"rt":1024.5,"stimulus":"bees-with-color/bee-B1SM.svg","response":0,"trial_type":"image-button-response","trial_index":63,"time_elapsed":424746,"internal_node_id":"0.0-4.0-0.28","subject_id":"613d2ba9d8ab3385611ef690","study_id":"60edd13110225f80f9f3709b","session_id":"6196c4a2f8c397e55d59b279","condition":"full-information","relevant_dimensions":["antennae","wings"],"bee_group":{"antennae":"B","wings":"2","pattern":"X","legs":"X"},"action":"harvest","summary":"good-harvest","bonus":0.3600000000000009},{"rt":2688.2999999523163,"stimulus":"\n                    <p><b>Action: <em>harvest</em></b></p>\n                    <p>This is the bee that you just saw.</p>\n                    <img src=\"bees-with-color/bee-B1SM.svg\" width=\"200\">\n                    <p><span class=\"greenText\"><b>Successful harvest!</b></span><br>Your pay has increased by $0.02. Your bonus pay is now $0.44.</p>\n            ","response":0,"trial_type":"html-button-response","trial_index":64,"time_elapsed":427437,"internal_node_id":"0.0-4.0-1.28","subject_id":"613d2ba9d8ab3385611ef690","study_id":"60edd13110225f80f9f3709b","session_id":"6196c4a2f8c397e55d59b279","condition":"full-information","relevant_dimensions":["antennae","wings"],"bee_group":{"antennae":"B","wings":"2","pattern":"X","legs":"X"},"bonus":0.3600000000000009},{"rt":1027.8999998569489,"stimulus":"bees-with-color/bee-B2SM.svg","response":0,"trial_type":"image-button-response","trial_index":65,"time_elapsed":428467,"internal_node_id":"0.0-4.0-0.29","subject_id":"613d2ba9d8ab3385611ef690","study_id":"60edd13110225f80f9f3709b","session_id":"6196c4a2f8c397e55d59b279","condition":"full-information","relevant_dimensions":["antennae","wings"],"bee_group":{"antennae":"B","wings":"2","pattern":"X","legs":"X"},"action":"harvest","summary":"bad-harvest","bonus":0.3600000000000009},{"rt":964.8000001907349,"stimulus":"\n                    <p><b>Action: <em>harvest</em></b></p>\n                    <p>This is the bee that you just saw.</p>\n                    <img src=\"bees-with-color/bee-B2SM.svg\" width=\"200\">\n                    <p><span class=\"redText\">Bad choice, the bee was angry.</span><br><b>You have been stung!</b><br>Your pay has been decreased by $0.10. Your bonus pay is now $0.34.</p>\n            ","response":0,"trial_type":"html-button-response","trial_index":66,"time_elapsed":429434,"internal_node_id":"0.0-4.0-1.29","subject_id":"613d2ba9d8ab3385611ef690","study_id":"60edd13110225f80f9f3709b","session_id":"6196c4a2f8c397e55d59b279","condition":"full-information","relevant_dimensions":["antennae","wings"],"bee_group":{"antennae":"B","wings":"2","pattern":"X","legs":"X"},"bonus":0.3600000000000009},{"rt":1069,"stimulus":"bees-with-color/bee-A1SM.svg","response":0,"trial_type":"image-button-response","trial_index":67,"time_elapsed":430506,"internal_node_id":"0.0-4.0-0.30","subject_id":"613d2ba9d8ab3385611ef690","study_id":"60edd13110225f80f9f3709b","session_id":"6196c4a2f8c397e55d59b279","condition":"full-information","relevant_dimensions":["antennae","wings"],"bee_group":{"antennae":"B","wings":"2","pattern":"X","legs":"X"},"action":"harvest","summary":"good-harvest","bonus":0.3600000000000009},{"rt":1086.2999999523163,"stimulus":"\n                    <p><b>Action: <em>harvest</em></b></p>\n                    <p>This is the bee that you just saw.</p>\n                    <img src=\"bees-with-color/bee-A1SM.svg\" width=\"200\">\n                    <p><span class=\"greenText\"><b>Successful harvest!</b></span><br>Your pay has increased by $0.02. Your bonus pay is now $0.36.</p>\n            ","response":0,"trial_type":"html-button-response","trial_index":68,"time_elapsed":431598,"internal_node_id":"0.0-4.0-1.30","subject_id":"613d2ba9d8ab3385611ef690","study_id":"60edd13110225f80f9f3709b","session_id":"6196c4a2f8c397e55d59b279","condition":"full-information","relevant_dimensions":["antennae","wings"],"bee_group":{"antennae":"B","wings":"2","pattern":"X","legs":"X"},"bonus":0.3600000000000009},{"rt":971.9000000953674,"stimulus":"bees-with-color/bee-B1DF.svg","response":1,"trial_type":"image-button-response","trial_index":69,"time_elapsed":432573,"internal_node_id":"0.0-4.0-0.31","subject_id":"613d2ba9d8ab3385611ef690","study_id":"60edd13110225f80f9f3709b","session_id":"6196c4a2f8c397e55d59b279","condition":"full-information","relevant_dimensions":["antennae","wings"],"bee_group":{"antennae":"B","wings":"2","pattern":"X","legs":"X"},"action":"avoid","summary":"bad-avoid","bonus":0.3600000000000009},{"rt":740.7999999523163,"stimulus":"\n                    <p><b>Action: <em>avoid</em></b></p>\n                    <p>This is the bee that you just saw.</p>\n                    <img src=\"bees-with-color/bee-B1DF.svg\" width=\"200\">\n                    <p><span class=\"redText\">Bad choice,</span> the bee was friendly.<br>Your bonus pay is unchanged, and remains at $0.36.</p>\n            ","response":0,"trial_type":"html-button-response","trial_index":70,"time_elapsed":433317,"internal_node_id":"0.0-4.0-1.31","subject_id":"613d2ba9d8ab3385611ef690","study_id":"60edd13110225f80f9f3709b","session_id":"6196c4a2f8c397e55d59b279","condition":"full-information","relevant_dimensions":["antennae","wings"],"bee_group":{"antennae":"B","wings":"2","pattern":"X","legs":"X"},"bonus":0.3600000000000009},{"rt":1019,"stimulus":"bees-with-color/bee-B2SF.svg","response":1,"trial_type":"image-button-response","trial_index":71,"time_elapsed":434339,"internal_node_id":"0.0-4.0-0.32","subject_id":"613d2ba9d8ab3385611ef690","study_id":"60edd13110225f80f9f3709b","session_id":"6196c4a2f8c397e55d59b279","condition":"full-information","relevant_dimensions":["antennae","wings"],"bee_group":{"antennae":"B","wings":"2","pattern":"X","legs":"X"},"action":"avoid","summary":"good-avoid","bonus":0.3600000000000009},{"rt":790.7000000476837,"stimulus":"\n                    <p><b>Action: <em>avoid</em></b></p>\n                    <p>This is the bee that you just saw.</p>\n                    <img src=\"bees-with-color/bee-B2SF.svg\" width=\"200\">\n                    <p><span class=\"greenText\">Good choice!</span>  This bee would have stung you.<br>Your bonus pay is unchanged, and remains at $0.36.</p>\n            ","response":0,"trial_type":"html-button-response","trial_index":72,"time_elapsed":435132,"internal_node_id":"0.0-4.0-1.32","subject_id":"613d2ba9d8ab3385611ef690","study_id":"60edd13110225f80f9f3709b","session_id":"6196c4a2f8c397e55d59b279","condition":"full-information","relevant_dimensions":["antennae","wings"],"bee_group":{"antennae":"B","wings":"2","pattern":"X","legs":"X"},"bonus":0.3600000000000009},{"rt":1054.4000000953674,"stimulus":"bees-with-color/bee-A2DM.svg","response":1,"trial_type":"image-button-response","trial_index":73,"time_elapsed":436189,"internal_node_id":"0.0-4.0-0.33","subject_id":"613d2ba9d8ab3385611ef690","study_id":"60edd13110225f80f9f3709b","session_id":"6196c4a2f8c397e55d59b279","condition":"full-information","relevant_dimensions":["antennae","wings"],"bee_group":{"antennae":"B","wings":"2","pattern":"X","legs":"X"},"action":"avoid","summary":"bad-avoid","bonus":0.3600000000000009},{"rt":574.8999998569489,"stimulus":"\n                    <p><b>Action: <em>avoid</em></b></p>\n                    <p>This is the bee that you just saw.</p>\n                    <img src=\"bees-with-color/bee-A2DM.svg\" width=\"200\">\n                    <p><span class=\"redText\">Bad choice,</span> the bee was friendly.<br>Your bonus pay is unchanged, and remains at $0.36.</p>\n            ","response":0,"trial_type":"html-button-response","trial_index":74,"time_elapsed":436767,"internal_node_id":"0.0-4.0-1.33","subject_id":"613d2ba9d8ab3385611ef690","study_id":"60edd13110225f80f9f3709b","session_id":"6196c4a2f8c397e55d59b279","condition":"full-information","relevant_dimensions":["antennae","wings"],"bee_group":{"antennae":"B","wings":"2","pattern":"X","legs":"X"},"bonus":0.3600000000000009},{"rt":920.3000001907349,"stimulus":"bees-with-color/bee-B1DF.svg","response":0,"trial_type":"image-button-response","trial_index":75,"time_elapsed":437691,"internal_node_id":"0.0-4.0-0.34","subject_id":"613d2ba9d8ab3385611ef690","study_id":"60edd13110225f80f9f3709b","session_id":"6196c4a2f8c397e55d59b279","condition":"full-information","relevant_dimensions":["antennae","wings"],"bee_group":{"antennae":"B","wings":"2","pattern":"X","legs":"X"},"action":"harvest","summary":"good-harvest","bonus":0.3600000000000009},{"rt":1724.7000000476837,"stimulus":"\n                    <p><b>Action: <em>harvest</em></b></p>\n                    <p>This is the bee that you just saw.</p>\n                    <img src=\"bees-with-color/bee-B1DF.svg\" width=\"200\">\n                    <p><span class=\"greenText\"><b>Successful harvest!</b></span><br>Your pay has increased by $0.02. Your bonus pay is now $0.38.</p>\n            ","response":0,"trial_type":"html-button-response","trial_index":76,"time_elapsed":439419,"internal_node_id":"0.0-4.0-1.34","subject_id":"613d2ba9d8ab3385611ef690","study_id":"60edd13110225f80f9f3709b","session_id":"6196c4a2f8c397e55d59b279","condition":"full-information","relevant_dimensions":["antennae","wings"],"bee_group":{"antennae":"B","wings":"2","pattern":"X","legs":"X"},"bonus":0.3600000000000009},{"rt":1715.2999999523163,"stimulus":"bees-with-color/bee-A1SF.svg","response":0,"trial_type":"image-button-response","trial_index":77,"time_elapsed":441137,"internal_node_id":"0.0-4.0-0.35","subject_id":"613d2ba9d8ab3385611ef690","study_id":"60edd13110225f80f9f3709b","session_id":"6196c4a2f8c397e55d59b279","condition":"full-information","relevant_dimensions":["antennae","wings"],"bee_group":{"antennae":"B","wings":"2","pattern":"X","legs":"X"},"action":"harvest","summary":"good-harvest","bonus":0.3600000000000009},{"rt":977,"stimulus":"\n                    <p><b>Action: <em>harvest</em></b></p>\n                    <p>This is the bee that you just saw.</p>\n                    <img src=\"bees-with-color/bee-A1SF.svg\" width=\"200\">\n                    <p><span class=\"greenText\"><b>Successful harvest!</b></span><br>Your pay has increased by $0.02. Your bonus pay is now $0.40.</p>\n            ","response":0,"trial_type":"html-button-response","trial_index":78,"time_elapsed":442117,"internal_node_id":"0.0-4.0-1.35","subject_id":"613d2ba9d8ab3385611ef690","study_id":"60edd13110225f80f9f3709b","session_id":"6196c4a2f8c397e55d59b279","condition":"full-information","relevant_dimensions":["antennae","wings"],"bee_group":{"antennae":"B","wings":"2","pattern":"X","legs":"X"},"bonus":0.3600000000000009},{"rt":1184.7999999523163,"stimulus":"bees-with-color/bee-A2DF.svg","response":1,"trial_type":"image-button-response","trial_index":79,"time_elapsed":443306,"internal_node_id":"0.0-4.0-0.36","subject_id":"613d2ba9d8ab3385611ef690","study_id":"60edd13110225f80f9f3709b","session_id":"6196c4a2f8c397e55d59b279","condition":"full-information","relevant_dimensions":["antennae","wings"],"bee_group":{"antennae":"B","wings":"2","pattern":"X","legs":"X"},"action":"avoid","summary":"bad-avoid","bonus":0.3600000000000009},{"rt":616.5999999046326,"stimulus":"\n                    <p><b>Action: <em>avoid</em></b></p>\n                    <p>This is the bee that you just saw.</p>\n                    <img src=\"bees-with-color/bee-A2DF.svg\" width=\"200\">\n                    <p><span class=\"redText\">Bad choice,</span> the bee was friendly.<br>Your bonus pay is unchanged, and remains at $0.40.</p>\n            ","response":0,"trial_type":"html-button-response","trial_index":80,"time_elapsed":443926,"internal_node_id":"0.0-4.0-1.36","subject_id":"613d2ba9d8ab3385611ef690","study_id":"60edd13110225f80f9f3709b","session_id":"6196c4a2f8c397e55d59b279","condition":"full-information","relevant_dimensions":["antennae","wings"],"bee_group":{"antennae":"B","wings":"2","pattern":"X","legs":"X"},"bonus":0.3600000000000009},{"rt":1186.0999999046326,"stimulus":"bees-with-color/bee-A2SF.svg","response":1,"trial_type":"image-button-response","trial_index":81,"time_elapsed":445116,"internal_node_id":"0.0-4.0-0.37","subject_id":"613d2ba9d8ab3385611ef690","study_id":"60edd13110225f80f9f3709b","session_id":"6196c4a2f8c397e55d59b279","condition":"full-information","relevant_dimensions":["antennae","wings"],"bee_group":{"antennae":"B","wings":"2","pattern":"X","legs":"X"},"action":"avoid","summary":"bad-avoid","bonus":0.3600000000000009},{"rt":543.5,"stimulus":"\n                    <p><b>Action: <em>avoid</em></b></p>\n                    <p>This is the bee that you just saw.</p>\n                    <img src=\"bees-with-color/bee-A2SF.svg\" width=\"200\">\n                    <p><span class=\"redText\">Bad choice,</span> the bee was friendly.<br>Your bonus pay is unchanged, and remains at $0.40.</p>\n            ","response":0,"trial_type":"html-button-response","trial_index":82,"time_elapsed":445662,"internal_node_id":"0.0-4.0-1.37","subject_id":"613d2ba9d8ab3385611ef690","study_id":"60edd13110225f80f9f3709b","session_id":"6196c4a2f8c397e55d59b279","condition":"full-information","relevant_dimensions":["antennae","wings"],"bee_group":{"antennae":"B","wings":"2","pattern":"X","legs":"X"},"bonus":0.3600000000000009},{"rt":953.6000001430511,"stimulus":"bees-with-color/bee-B1SF.svg","response":0,"trial_type":"image-button-response","trial_index":83,"time_elapsed":446617,"internal_node_id":"0.0-4.0-0.38","subject_id":"613d2ba9d8ab3385611ef690","study_id":"60edd13110225f80f9f3709b","session_id":"6196c4a2f8c397e55d59b279","condition":"full-information","relevant_dimensions":["antennae","wings"],"bee_group":{"antennae":"B","wings":"2","pattern":"X","legs":"X"},"action":"harvest","summary":"good-harvest","bonus":0.3600000000000009},{"rt":799.7000000476837,"stimulus":"\n                    <p><b>Action: <em>harvest</em></b></p>\n                    <p>This is the bee that you just saw.</p>\n                    <img src=\"bees-with-color/bee-B1SF.svg\" width=\"200\">\n                    <p><span class=\"greenText\"><b>Successful harvest!</b></span><br>Your pay has increased by $0.02. Your bonus pay is now $0.42.</p>\n            ","response":0,"trial_type":"html-button-response","trial_index":84,"time_elapsed":447419,"internal_node_id":"0.0-4.0-1.38","subject_id":"613d2ba9d8ab3385611ef690","study_id":"60edd13110225f80f9f3709b","session_id":"6196c4a2f8c397e55d59b279","condition":"full-information","relevant_dimensions":["antennae","wings"],"bee_group":{"antennae":"B","wings":"2","pattern":"X","legs":"X"},"bonus":0.3600000000000009},{"rt":1115,"stimulus":"bees-with-color/bee-B2SM.svg","response":1,"trial_type":"image-button-response","trial_index":85,"time_elapsed":448537,"internal_node_id":"0.0-4.0-0.39","subject_id":"613d2ba9d8ab3385611ef690","study_id":"60edd13110225f80f9f3709b","session_id":"6196c4a2f8c397e55d59b279","condition":"full-information","relevant_dimensions":["antennae","wings"],"bee_group":{"antennae":"B","wings":"2","pattern":"X","legs":"X"},"action":"avoid","summary":"good-avoid","bonus":0.3600000000000009},{"rt":646.5,"stimulus":"\n                    <p><b>Action: <em>avoid</em></b></p>\n                    <p>This is the bee that you just saw.</p>\n                    <img src=\"bees-with-color/bee-B2SM.svg\" width=\"200\">\n                    <p><span class=\"greenText\">Good choice!</span>  This bee would have stung you.<br>Your bonus pay is unchanged, and remains at $0.42.</p>\n            ","response":0,"trial_type":"html-button-response","trial_index":86,"time_elapsed":449185,"internal_node_id":"0.0-4.0-1.39","subject_id":"613d2ba9d8ab3385611ef690","study_id":"60edd13110225f80f9f3709b","session_id":"6196c4a2f8c397e55d59b279","condition":"full-information","relevant_dimensions":["antennae","wings"],"bee_group":{"antennae":"B","wings":"2","pattern":"X","legs":"X"},"bonus":0.3600000000000009},{"rt":637,"stimulus":"bees-with-color/bee-B1SM.svg","response":0,"trial_type":"image-button-response","trial_index":87,"time_elapsed":449825,"internal_node_id":"0.0-4.0-0.40","subject_id":"613d2ba9d8ab3385611ef690","study_id":"60edd13110225f80f9f3709b","session_id":"6196c4a2f8c397e55d59b279","condition":"full-information","relevant_dimensions":["antennae","wings"],"bee_group":{"antennae":"B","wings":"2","pattern":"X","legs":"X"},"action":"harvest","summary":"good-harvest","bonus":0.3600000000000009},{"rt":686.7999999523163,"stimulus":"\n                    <p><b>Action: <em>harvest</em></b></p>\n                    <p>This is the bee that you just saw.</p>\n                    <img src=\"bees-with-color/bee-B1SM.svg\" width=\"200\">\n                    <p><span class=\"greenText\"><b>Successful harvest!</b></span><br>Your pay has increased by $0.02. Your bonus pay is now $0.44.</p>\n            ","response":0,"trial_type":"html-button-response","trial_index":88,"time_elapsed":450515,"internal_node_id":"0.0-4.0-1.40","subject_id":"613d2ba9d8ab3385611ef690","study_id":"60edd13110225f80f9f3709b","session_id":"6196c4a2f8c397e55d59b279","condition":"full-information","relevant_dimensions":["antennae","wings"],"bee_group":{"antennae":"B","wings":"2","pattern":"X","legs":"X"},"bonus":0.3600000000000009},{"rt":938,"stimulus":"bees-with-color/bee-A2SM.svg","response":0,"trial_type":"image-button-response","trial_index":89,"time_elapsed":451455,"internal_node_id":"0.0-4.0-0.41","subject_id":"613d2ba9d8ab3385611ef690","study_id":"60edd13110225f80f9f3709b","session_id":"6196c4a2f8c397e55d59b279","condition":"full-information","relevant_dimensions":["antennae","wings"],"bee_group":{"antennae":"B","wings":"2","pattern":"X","legs":"X"},"action":"harvest","summary":"good-harvest","bonus":0.3600000000000009},{"rt":719.7999999523163,"stimulus":"\n                    <p><b>Action: <em>harvest</em></b></p>\n                    <p>This is the bee that you just saw.</p>\n                    <img src=\"bees-with-color/bee-A2SM.svg\" width=\"200\">\n                    <p><span class=\"greenText\"><b>Successful harvest!</b></span><br>Your pay has increased by $0.02. Your bonus pay is now $0.46.</p>\n            ","response":0,"trial_type":"html-button-response","trial_index":90,"time_elapsed":452177,"internal_node_id":"0.0-4.0-1.41","subject_id":"613d2ba9d8ab3385611ef690","study_id":"60edd13110225f80f9f3709b","session_id":"6196c4a2f8c397e55d59b279","condition":"full-information","relevant_dimensions":["antennae","wings"],"bee_group":{"antennae":"B","wings":"2","pattern":"X","legs":"X"},"bonus":0.3600000000000009},{"rt":3806.7000000476837,"stimulus":"bees-with-color/bee-A1SM.svg","response":0,"trial_type":"image-button-response","trial_index":91,"time_elapsed":455987,"internal_node_id":"0.0-4.0-0.42","subject_id":"613d2ba9d8ab3385611ef690","study_id":"60edd13110225f80f9f3709b","session_id":"6196c4a2f8c397e55d59b279","condition":"full-information","relevant_dimensions":["antennae","wings"],"bee_group":{"antennae":"B","wings":"2","pattern":"X","legs":"X"},"action":"harvest","summary":"good-harvest","bonus":0.3600000000000009},{"rt":646.5,"stimulus":"\n                    <p><b>Action: <em>harvest</em></b></p>\n                    <p>This is the bee that you just saw.</p>\n                    <img src=\"bees-with-color/bee-A1SM.svg\" width=\"200\">\n                    <p><span class=\"greenText\"><b>Successful harvest!</b></span><br>Your pay has increased by $0.02. Your bonus pay is now $0.48.</p>\n            ","response":0,"trial_type":"html-button-response","trial_index":92,"time_elapsed":456635,"internal_node_id":"0.0-4.0-1.42","subject_id":"613d2ba9d8ab3385611ef690","study_id":"60edd13110225f80f9f3709b","session_id":"6196c4a2f8c397e55d59b279","condition":"full-information","relevant_dimensions":["antennae","wings"],"bee_group":{"antennae":"B","wings":"2","pattern":"X","legs":"X"},"bonus":0.3600000000000009},{"rt":979,"stimulus":"bees-with-color/bee-A1DF.svg","response":1,"trial_type":"image-button-response","trial_index":93,"time_elapsed":457617,"internal_node_id":"0.0-4.0-0.43","subject_id":"613d2ba9d8ab3385611ef690","study_id":"60edd13110225f80f9f3709b","session_id":"6196c4a2f8c397e55d59b279","condition":"full-information","relevant_dimensions":["antennae","wings"],"bee_group":{"antennae":"B","wings":"2","pattern":"X","legs":"X"},"action":"avoid","summary":"bad-avoid","bonus":0.3600000000000009},{"rt":739.7999999523163,"stimulus":"\n                    <p><b>Action: <em>avoid</em></b></p>\n                    <p>This is the bee that you just saw.</p>\n                    <img src=\"bees-with-color/bee-A1DF.svg\" width=\"200\">\n                    <p><span class=\"redText\">Bad choice,</span> the bee was friendly.<br>Your bonus pay is unchanged, and remains at $0.48.</p>\n            ","response":0,"trial_type":"html-button-response","trial_index":94,"time_elapsed":458359,"internal_node_id":"0.0-4.0-1.43","subject_id":"613d2ba9d8ab3385611ef690","study_id":"60edd13110225f80f9f3709b","session_id":"6196c4a2f8c397e55d59b279","condition":"full-information","relevant_dimensions":["antennae","wings"],"bee_group":{"antennae":"B","wings":"2","pattern":"X","legs":"X"},"bonus":0.3600000000000009},{"rt":743.8999998569489,"stimulus":"bees-with-color/bee-B2DF.svg","response":1,"trial_type":"image-button-response","trial_index":95,"time_elapsed":459106,"internal_node_id":"0.0-4.0-0.44","subject_id":"613d2ba9d8ab3385611ef690","study_id":"60edd13110225f80f9f3709b","session_id":"6196c4a2f8c397e55d59b279","condition":"full-information","relevant_dimensions":["antennae","wings"],"bee_group":{"antennae":"B","wings":"2","pattern":"X","legs":"X"},"action":"avoid","summary":"good-avoid","bonus":0.3600000000000009},{"rt":599.5,"stimulus":"\n                    <p><b>Action: <em>avoid</em></b></p>\n                    <p>This is the bee that you just saw.</p>\n                    <img src=\"bees-with-color/bee-B2DF.svg\" width=\"200\">\n                    <p><span class=\"greenText\">Good choice!</span>  This bee would have stung you.<br>Your bonus pay is unchanged, and remains at $0.48.</p>\n            ","response":0,"trial_type":"html-button-response","trial_index":96,"time_elapsed":459708,"internal_node_id":"0.0-4.0-1.44","subject_id":"613d2ba9d8ab3385611ef690","study_id":"60edd13110225f80f9f3709b","session_id":"6196c4a2f8c397e55d59b279","condition":"full-information","relevant_dimensions":["antennae","wings"],"bee_group":{"antennae":"B","wings":"2","pattern":"X","legs":"X"},"bonus":0.3600000000000009},{"rt":1169.8000001907349,"stimulus":"bees-with-color/bee-B1DM.svg","response":1,"trial_type":"image-button-response","trial_index":97,"time_elapsed":460880,"internal_node_id":"0.0-4.0-0.45","subject_id":"613d2ba9d8ab3385611ef690","study_id":"60edd13110225f80f9f3709b","session_id":"6196c4a2f8c397e55d59b279","condition":"full-information","relevant_dimensions":["antennae","wings"],"bee_group":{"antennae":"B","wings":"2","pattern":"X","legs":"X"},"action":"avoid","summary":"bad-avoid","bonus":0.3600000000000009},{"rt":469.60000014305115,"stimulus":"\n                    <p><b>Action: <em>avoid</em></b></p>\n                    <p>This is the bee that you just saw.</p>\n                    <img src=\"bees-with-color/bee-B1DM.svg\" width=\"200\">\n                    <p><span class=\"redText\">Bad choice,</span> the bee was friendly.<br>Your bonus pay is unchanged, and remains at $0.48.</p>\n            ","response":0,"trial_type":"html-button-response","trial_index":98,"time_elapsed":461353,"internal_node_id":"0.0-4.0-1.45","subject_id":"613d2ba9d8ab3385611ef690","study_id":"60edd13110225f80f9f3709b","session_id":"6196c4a2f8c397e55d59b279","condition":"full-information","relevant_dimensions":["antennae","wings"],"bee_group":{"antennae":"B","wings":"2","pattern":"X","legs":"X"},"bonus":0.3600000000000009},{"rt":885.4000000953674,"stimulus":"bees-with-color/bee-B2DM.svg","response":1,"trial_type":"image-button-response","trial_index":99,"time_elapsed":462245,"internal_node_id":"0.0-4.0-0.46","subject_id":"613d2ba9d8ab3385611ef690","study_id":"60edd13110225f80f9f3709b","session_id":"6196c4a2f8c397e55d59b279","condition":"full-information","relevant_dimensions":["antennae","wings"],"bee_group":{"antennae":"B","wings":"2","pattern":"X","legs":"X"},"action":"avoid","summary":"good-avoid","bonus":0.3600000000000009},{"rt":510.7999999523163,"stimulus":"\n                    <p><b>Action: <em>avoid</em></b></p>\n                    <p>This is the bee that you just saw.</p>\n                    <img src=\"bees-with-color/bee-B2DM.svg\" width=\"200\">\n                    <p><span class=\"greenText\">Good choice!</span>  This bee would have stung you.<br>Your bonus pay is unchanged, and remains at $0.48.</p>\n            ","response":0,"trial_type":"html-button-response","trial_index":100,"time_elapsed":462758,"internal_node_id":"0.0-4.0-1.46","subject_id":"613d2ba9d8ab3385611ef690","study_id":"60edd13110225f80f9f3709b","session_id":"6196c4a2f8c397e55d59b279","condition":"full-information","relevant_dimensions":["antennae","wings"],"bee_group":{"antennae":"B","wings":"2","pattern":"X","legs":"X"},"bonus":0.3600000000000009},{"rt":908.7000000476837,"stimulus":"bees-with-color/bee-A1DM.svg","response":1,"trial_type":"image-button-response","trial_index":101,"time_elapsed":463670,"internal_node_id":"0.0-4.0-0.47","subject_id":"613d2ba9d8ab3385611ef690","study_id":"60edd13110225f80f9f3709b","session_id":"6196c4a2f8c397e55d59b279","condition":"full-information","relevant_dimensions":["antennae","wings"],"bee_group":{"antennae":"B","wings":"2","pattern":"X","legs":"X"},"action":"avoid","summary":"bad-avoid","bonus":0.3600000000000009},{"rt":438.5,"stimulus":"\n                    <p><b>Action: <em>avoid</em></b></p>\n                    <p>This is the bee that you just saw.</p>\n                    <img src=\"bees-with-color/bee-A1DM.svg\" width=\"200\">\n                    <p><span class=\"redText\">Bad choice,</span> the bee was friendly.<br>Your bonus pay is unchanged, and remains at $0.48.</p>\n            ","response":0,"trial_type":"html-button-response","trial_index":102,"time_elapsed":464111,"internal_node_id":"0.0-4.0-1.47","subject_id":"613d2ba9d8ab3385611ef690","study_id":"60edd13110225f80f9f3709b","session_id":"6196c4a2f8c397e55d59b279","condition":"full-information","relevant_dimensions":["antennae","wings"],"bee_group":{"antennae":"B","wings":"2","pattern":"X","legs":"X"},"bonus":0.3600000000000009},{"rt":677.6000001430511,"stimulus":"bees-with-color/bee-B2SF.svg","response":0,"trial_type":"image-button-response","trial_index":103,"time_elapsed":464794,"internal_node_id":"0.0-4.0-0.48","subject_id":"613d2ba9d8ab3385611ef690","study_id":"60edd13110225f80f9f3709b","session_id":"6196c4a2f8c397e55d59b279","condition":"full-information","relevant_dimensions":["antennae","wings"],"bee_group":{"antennae":"B","wings":"2","pattern":"X","legs":"X"},"action":"harvest","summary":"bad-harvest","bonus":0.3600000000000009},{"rt":711,"stimulus":"\n                    <p><b>Action: <em>harvest</em></b></p>\n                    <p>This is the bee that you just saw.</p>\n                    <img src=\"bees-with-color/bee-B2SF.svg\" width=\"200\">\n                    <p><span class=\"redText\">Bad choice, the bee was angry.</span><br><b>You have been stung!</b><br>Your pay has been decreased by $0.10. Your bonus pay is now $0.38.</p>\n            ","response":0,"trial_type":"html-button-response","trial_index":104,"time_elapsed":465508,"internal_node_id":"0.0-4.0-1.48","subject_id":"613d2ba9d8ab3385611ef690","study_id":"60edd13110225f80f9f3709b","session_id":"6196c4a2f8c397e55d59b279","condition":"full-information","relevant_dimensions":["antennae","wings"],"bee_group":{"antennae":"B","wings":"2","pattern":"X","legs":"X"},"bonus":0.3600000000000009},{"rt":993.4000000953674,"stimulus":"bees-with-color/bee-A2DF.svg","response":0,"trial_type":"image-button-response","trial_index":105,"time_elapsed":466504,"internal_node_id":"0.0-4.0-0.49","subject_id":"613d2ba9d8ab3385611ef690","study_id":"60edd13110225f80f9f3709b","session_id":"6196c4a2f8c397e55d59b279","condition":"full-information","relevant_dimensions":["antennae","wings"],"bee_group":{"antennae":"B","wings":"2","pattern":"X","legs":"X"},"action":"harvest","summary":"good-harvest","bonus":0.3600000000000009},{"rt":1514.7000000476837,"stimulus":"\n                    <p><b>Action: <em>harvest</em></b></p>\n                    <p>This is the bee that you just saw.</p>\n                    <img src=\"bees-with-color/bee-A2DF.svg\" width=\"200\">\n                    <p><span class=\"greenText\"><b>Successful harvest!</b></span><br>Your pay has increased by $0.02. Your bonus pay is now $0.40.</p>\n            ","response":0,"trial_type":"html-button-response","trial_index":106,"time_elapsed":468022,"internal_node_id":"0.0-4.0-1.49","subject_id":"613d2ba9d8ab3385611ef690","study_id":"60edd13110225f80f9f3709b","session_id":"6196c4a2f8c397e55d59b279","condition":"full-information","relevant_dimensions":["antennae","wings"],"bee_group":{"antennae":"B","wings":"2","pattern":"X","legs":"X"},"bonus":0.3600000000000009},{"rt":2288.2000000476837,"stimulus":"bees-with-color/bee-B1SF.svg","response":0,"trial_type":"image-button-response","trial_index":107,"time_elapsed":470313,"internal_node_id":"0.0-4.0-0.50","subject_id":"613d2ba9d8ab3385611ef690","study_id":"60edd13110225f80f9f3709b","session_id":"6196c4a2f8c397e55d59b279","condition":"full-information","relevant_dimensions":["antennae","wings"],"bee_group":{"antennae":"B","wings":"2","pattern":"X","legs":"X"},"action":"harvest","summary":"good-harvest","bonus":0.3600000000000009},{"rt":591.5,"stimulus":"\n                    <p><b>Action: <em>harvest</em></b></p>\n                    <p>This is the bee that you just saw.</p>\n                    <img src=\"bees-with-color/bee-B1SF.svg\" width=\"200\">\n                    <p><span class=\"greenText\"><b>Successful harvest!</b></span><br>Your pay has increased by $0.02. Your bonus pay is now $0.42.</p>\n            ","response":0,"trial_type":"html-button-response","trial_index":108,"time_elapsed":470908,"internal_node_id":"0.0-4.0-1.50","subject_id":"613d2ba9d8ab3385611ef690","study_id":"60edd13110225f80f9f3709b","session_id":"6196c4a2f8c397e55d59b279","condition":"full-information","relevant_dimensions":["antennae","wings"],"bee_group":{"antennae":"B","wings":"2","pattern":"X","legs":"X"},"bonus":0.3600000000000009},{"rt":1634.7999999523163,"stimulus":"bees-with-color/bee-A1SM.svg","response":0,"trial_type":"image-button-response","trial_index":109,"time_elapsed":472546,"internal_node_id":"0.0-4.0-0.51","subject_id":"613d2ba9d8ab3385611ef690","study_id":"60edd13110225f80f9f3709b","session_id":"6196c4a2f8c397e55d59b279","condition":"full-information","relevant_dimensions":["antennae","wings"],"bee_group":{"antennae":"B","wings":"2","pattern":"X","legs":"X"},"action":"harvest","summary":"good-harvest","bonus":0.3600000000000009},{"rt":582.2999999523163,"stimulus":"\n                    <p><b>Action: <em>harvest</em></b></p>\n                    <p>This is the bee that you just saw.</p>\n                    <img src=\"bees-with-color/bee-A1SM.svg\" width=\"200\">\n                    <p><span class=\"greenText\"><b>Successful harvest!</b></span><br>Your pay has increased by $0.02. Your bonus pay is now $0.44.</p>\n            ","response":0,"trial_type":"html-button-response","trial_index":110,"time_elapsed":473132,"internal_node_id":"0.0-4.0-1.51","subject_id":"613d2ba9d8ab3385611ef690","study_id":"60edd13110225f80f9f3709b","session_id":"6196c4a2f8c397e55d59b279","condition":"full-information","relevant_dimensions":["antennae","wings"],"bee_group":{"antennae":"B","wings":"2","pattern":"X","legs":"X"},"bonus":0.3600000000000009},{"rt":897.2000000476837,"stimulus":"bees-with-color/bee-A2SF.svg","response":0,"trial_type":"image-button-response","trial_index":111,"time_elapsed":474031,"internal_node_id":"0.0-4.0-0.52","subject_id":"613d2ba9d8ab3385611ef690","study_id":"60edd13110225f80f9f3709b","session_id":"6196c4a2f8c397e55d59b279","condition":"full-information","relevant_dimensions":["antennae","wings"],"bee_group":{"antennae":"B","wings":"2","pattern":"X","legs":"X"},"action":"harvest","summary":"good-harvest","bonus":0.3600000000000009},{"rt":574.9000000953674,"stimulus":"\n                    <p><b>Action: <em>harvest</em></b></p>\n                    <p>This is the bee that you just saw.</p>\n                    <img src=\"bees-with-color/bee-A2SF.svg\" width=\"200\">\n                    <p><span class=\"greenText\"><b>Successful harvest!</b></span><br>Your pay has increased by $0.02. Your bonus pay is now $0.46.</p>\n            ","response":0,"trial_type":"html-button-response","trial_index":112,"time_elapsed":474609,"internal_node_id":"0.0-4.0-1.52","subject_id":"613d2ba9d8ab3385611ef690","study_id":"60edd13110225f80f9f3709b","session_id":"6196c4a2f8c397e55d59b279","condition":"full-information","relevant_dimensions":["antennae","wings"],"bee_group":{"antennae":"B","wings":"2","pattern":"X","legs":"X"},"bonus":0.3600000000000009},{"rt":1516.2000000476837,"stimulus":"bees-with-color/bee-A1DM.svg","response":1,"trial_type":"image-button-response","trial_index":113,"time_elapsed":476127,"internal_node_id":"0.0-4.0-0.53","subject_id":"613d2ba9d8ab3385611ef690","study_id":"60edd13110225f80f9f3709b","session_id":"6196c4a2f8c397e55d59b279","condition":"full-information","relevant_dimensions":["antennae","wings"],"bee_group":{"antennae":"B","wings":"2","pattern":"X","legs":"X"},"action":"avoid","summary":"bad-avoid","bonus":0.3600000000000009},{"rt":1089.1999998092651,"stimulus":"\n                    <p><b>Action: <em>avoid</em></b></p>\n                    <p>This is the bee that you just saw.</p>\n                    <img src=\"bees-with-color/bee-A1DM.svg\" width=\"200\">\n                    <p><span class=\"redText\">Bad choice,</span> the bee was friendly.<br>Your bonus pay is unchanged, and remains at $0.46.</p>\n            ","response":0,"trial_type":"html-button-response","trial_index":114,"time_elapsed":477219,"internal_node_id":"0.0-4.0-1.53","subject_id":"613d2ba9d8ab3385611ef690","study_id":"60edd13110225f80f9f3709b","session_id":"6196c4a2f8c397e55d59b279","condition":"full-information","relevant_dimensions":["antennae","wings"],"bee_group":{"antennae":"B","wings":"2","pattern":"X","legs":"X"},"bonus":0.3600000000000009},{"rt":1017.1000001430511,"stimulus":"bees-with-color/bee-B1SM.svg","response":0,"trial_type":"image-button-response","trial_index":115,"time_elapsed":478238,"internal_node_id":"0.0-4.0-0.54","subject_id":"613d2ba9d8ab3385611ef690","study_id":"60edd13110225f80f9f3709b","session_id":"6196c4a2f8c397e55d59b279","condition":"full-information","relevant_dimensions":["antennae","wings"],"bee_group":{"antennae":"B","wings":"2","pattern":"X","legs":"X"},"action":"harvest","summary":"good-harvest","bonus":0.3600000000000009},{"rt":543.8999998569489,"stimulus":"\n                    <p><b>Action: <em>harvest</em></b></p>\n                    <p>This is the bee that you just saw.</p>\n                    <img src=\"bees-with-color/bee-B1SM.svg\" width=\"200\">\n                    <p><span class=\"greenText\"><b>Successful harvest!</b></span><br>Your pay has increased by $0.02. Your bonus pay is now $0.48.</p>\n            ","response":0,"trial_type":"html-button-response","trial_index":116,"time_elapsed":478784,"internal_node_id":"0.0-4.0-1.54","subject_id":"613d2ba9d8ab3385611ef690","study_id":"60edd13110225f80f9f3709b","session_id":"6196c4a2f8c397e55d59b279","condition":"full-information","relevant_dimensions":["antennae","wings"],"bee_group":{"antennae":"B","wings":"2","pattern":"X","legs":"X"},"bonus":0.3600000000000009},{"rt":978,"stimulus":"bees-with-color/bee-B2DF.svg","response":1,"trial_type":"image-button-response","trial_index":117,"time_elapsed":479764,"internal_node_id":"0.0-4.0-0.55","subject_id":"613d2ba9d8ab3385611ef690","study_id":"60edd13110225f80f9f3709b","session_id":"6196c4a2f8c397e55d59b279","condition":"full-information","relevant_dimensions":["antennae","wings"],"bee_group":{"antennae":"B","wings":"2","pattern":"X","legs":"X"},"action":"avoid","summary":"good-avoid","bonus":0.3600000000000009},{"rt":695.7000000476837,"stimulus":"\n                    <p><b>Action: <em>avoid</em></b></p>\n                    <p>This is the bee that you just saw.</p>\n                    <img src=\"bees-with-color/bee-B2DF.svg\" width=\"200\">\n                    <p><span class=\"greenText\">Good choice!</span>  This bee would have stung you.<br>Your bonus pay is unchanged, and remains at $0.48.</p>\n            ","response":0,"trial_type":"html-button-response","trial_index":118,"time_elapsed":480462,"internal_node_id":"0.0-4.0-1.55","subject_id":"613d2ba9d8ab3385611ef690","study_id":"60edd13110225f80f9f3709b","session_id":"6196c4a2f8c397e55d59b279","condition":"full-information","relevant_dimensions":["antennae","wings"],"bee_group":{"antennae":"B","wings":"2","pattern":"X","legs":"X"},"bonus":0.3600000000000009},{"rt":885.2999999523163,"stimulus":"bees-with-color/bee-B1DM.svg","response":0,"trial_type":"image-button-response","trial_index":119,"time_elapsed":481349,"internal_node_id":"0.0-4.0-0.56","subject_id":"613d2ba9d8ab3385611ef690","study_id":"60edd13110225f80f9f3709b","session_id":"6196c4a2f8c397e55d59b279","condition":"full-information","relevant_dimensions":["antennae","wings"],"bee_group":{"antennae":"B","wings":"2","pattern":"X","legs":"X"},"action":"harvest","summary":"good-harvest","bonus":0.3600000000000009},{"rt":639.4000000953674,"stimulus":"\n                    <p><b>Action: <em>harvest</em></b></p>\n                    <p>This is the bee that you just saw.</p>\n                    <img src=\"bees-with-color/bee-B1DM.svg\" width=\"200\">\n                    <p><span class=\"greenText\"><b>Successful harvest!</b></span><br>Your pay has increased by $0.02. Your bonus pay is now $0.50.</p>\n            ","response":0,"trial_type":"html-button-response","trial_index":120,"time_elapsed":481991,"internal_node_id":"0.0-4.0-1.56","subject_id":"613d2ba9d8ab3385611ef690","study_id":"60edd13110225f80f9f3709b","session_id":"6196c4a2f8c397e55d59b279","condition":"full-information","relevant_dimensions":["antennae","wings"],"bee_group":{"antennae":"B","wings":"2","pattern":"X","legs":"X"},"bonus":0.3600000000000009},{"rt":1684.5,"stimulus":"bees-with-color/bee-A2DM.svg","response":1,"trial_type":"image-button-response","trial_index":121,"time_elapsed":483678,"internal_node_id":"0.0-4.0-0.57","subject_id":"613d2ba9d8ab3385611ef690","study_id":"60edd13110225f80f9f3709b","session_id":"6196c4a2f8c397e55d59b279","condition":"full-information","relevant_dimensions":["antennae","wings"],"bee_group":{"antennae":"B","wings":"2","pattern":"X","legs":"X"},"action":"avoid","summary":"bad-avoid","bonus":0.3600000000000009},{"rt":485.7999999523163,"stimulus":"\n                    <p><b>Action: <em>avoid</em></b></p>\n                    <p>This is the bee that you just saw.</p>\n                    <img src=\"bees-with-color/bee-A2DM.svg\" width=\"200\">\n                    <p><span class=\"redText\">Bad choice,</span> the bee was friendly.<br>Your bonus pay is unchanged, and remains at $0.50.</p>\n            ","response":0,"trial_type":"html-button-response","trial_index":122,"time_elapsed":484167,"internal_node_id":"0.0-4.0-1.57","subject_id":"613d2ba9d8ab3385611ef690","study_id":"60edd13110225f80f9f3709b","session_id":"6196c4a2f8c397e55d59b279","condition":"full-information","relevant_dimensions":["antennae","wings"],"bee_group":{"antennae":"B","wings":"2","pattern":"X","legs":"X"},"bonus":0.3600000000000009},{"rt":897,"stimulus":"bees-with-color/bee-B1DF.svg","response":1,"trial_type":"image-button-response","trial_index":123,"time_elapsed":485067,"internal_node_id":"0.0-4.0-0.58","subject_id":"613d2ba9d8ab3385611ef690","study_id":"60edd13110225f80f9f3709b","session_id":"6196c4a2f8c397e55d59b279","condition":"full-information","relevant_dimensions":["antennae","wings"],"bee_group":{"antennae":"B","wings":"2","pattern":"X","legs":"X"},"action":"avoid","summary":"bad-avoid","bonus":0.3600000000000009},{"rt":600.3000001907349,"stimulus":"\n                    <p><b>Action: <em>avoid</em></b></p>\n                    <p>This is the bee that you just saw.</p>\n                    <img src=\"bees-with-color/bee-B1DF.svg\" width=\"200\">\n                    <p><span class=\"redText\">Bad choice,</span> the bee was friendly.<br>Your bonus pay is unchanged, and remains at $0.50.</p>\n            ","response":0,"trial_type":"html-button-response","trial_index":124,"time_elapsed":485669,"internal_node_id":"0.0-4.0-1.58","subject_id":"613d2ba9d8ab3385611ef690","study_id":"60edd13110225f80f9f3709b","session_id":"6196c4a2f8c397e55d59b279","condition":"full-information","relevant_dimensions":["antennae","wings"],"bee_group":{"antennae":"B","wings":"2","pattern":"X","legs":"X"},"bonus":0.3600000000000009},{"rt":2005.2999999523163,"stimulus":"bees-with-color/bee-A1DF.svg","response":0,"trial_type":"image-button-response","trial_index":125,"time_elapsed":487677,"internal_node_id":"0.0-4.0-0.59","subject_id":"613d2ba9d8ab3385611ef690","study_id":"60edd13110225f80f9f3709b","session_id":"6196c4a2f8c397e55d59b279","condition":"full-information","relevant_dimensions":["antennae","wings"],"bee_group":{"antennae":"B","wings":"2","pattern":"X","legs":"X"},"action":"harvest","summary":"good-harvest","bonus":0.3600000000000009},{"rt":735.2999999523163,"stimulus":"\n                    <p><b>Action: <em>harvest</em></b></p>\n                    <p>This is the bee that you just saw.</p>\n                    <img src=\"bees-with-color/bee-A1DF.svg\" width=\"200\">\n                    <p><span class=\"greenText\"><b>Successful harvest!</b></span><br>Your pay has increased by $0.02. Your bonus pay is now $0.52.</p>\n            ","response":0,"trial_type":"html-button-response","trial_index":126,"time_elapsed":488415,"internal_node_id":"0.0-4.0-1.59","subject_id":"613d2ba9d8ab3385611ef690","study_id":"60edd13110225f80f9f3709b","session_id":"6196c4a2f8c397e55d59b279","condition":"full-information","relevant_dimensions":["antennae","wings"],"bee_group":{"antennae":"B","wings":"2","pattern":"X","legs":"X"},"bonus":0.3600000000000009},{"rt":1642.7000000476837,"stimulus":"bees-with-color/bee-B2DM.svg","response":1,"trial_type":"image-button-response","trial_index":127,"time_elapsed":490061,"internal_node_id":"0.0-4.0-0.60","subject_id":"613d2ba9d8ab3385611ef690","study_id":"60edd13110225f80f9f3709b","session_id":"6196c4a2f8c397e55d59b279","condition":"full-information","relevant_dimensions":["antennae","wings"],"bee_group":{"antennae":"B","wings":"2","pattern":"X","legs":"X"},"action":"avoid","summary":"good-avoid","bonus":0.3600000000000009},{"rt":575.5999999046326,"stimulus":"\n                    <p><b>Action: <em>avoid</em></b></p>\n                    <p>This is the bee that you just saw.</p>\n                    <img src=\"bees-with-color/bee-B2DM.svg\" width=\"200\">\n                    <p><span class=\"greenText\">Good choice!</span>  This bee would have stung you.<br>Your bonus pay is unchanged, and remains at $0.52.</p>\n            ","response":0,"trial_type":"html-button-response","trial_index":128,"time_elapsed":490640,"internal_node_id":"0.0-4.0-1.60","subject_id":"613d2ba9d8ab3385611ef690","study_id":"60edd13110225f80f9f3709b","session_id":"6196c4a2f8c397e55d59b279","condition":"full-information","relevant_dimensions":["antennae","wings"],"bee_group":{"antennae":"B","wings":"2","pattern":"X","legs":"X"},"bonus":0.3600000000000009},{"rt":668,"stimulus":"bees-with-color/bee-A2SM.svg","response":0,"trial_type":"image-button-response","trial_index":129,"time_elapsed":491310,"internal_node_id":"0.0-4.0-0.61","subject_id":"613d2ba9d8ab3385611ef690","study_id":"60edd13110225f80f9f3709b","session_id":"6196c4a2f8c397e55d59b279","condition":"full-information","relevant_dimensions":["antennae","wings"],"bee_group":{"antennae":"B","wings":"2","pattern":"X","legs":"X"},"action":"harvest","summary":"good-harvest","bonus":0.3600000000000009},{"rt":623.7999999523163,"stimulus":"\n                    <p><b>Action: <em>harvest</em></b></p>\n                    <p>This is the bee that you just saw.</p>\n                    <img src=\"bees-with-color/bee-A2SM.svg\" width=\"200\">\n                    <p><span class=\"greenText\"><b>Successful harvest!</b></span><br>Your pay has increased by $0.02. Your bonus pay is now $0.54.</p>\n            ","response":0,"trial_type":"html-button-response","trial_index":130,"time_elapsed":491937,"internal_node_id":"0.0-4.0-1.61","subject_id":"613d2ba9d8ab3385611ef690","study_id":"60edd13110225f80f9f3709b","session_id":"6196c4a2f8c397e55d59b279","condition":"full-information","relevant_dimensions":["antennae","wings"],"bee_group":{"antennae":"B","wings":"2","pattern":"X","legs":"X"},"bonus":0.3600000000000009},{"rt":848,"stimulus":"bees-with-color/bee-A1SF.svg","response":0,"trial_type":"image-button-response","trial_index":131,"time_elapsed":492787,"internal_node_id":"0.0-4.0-0.62","subject_id":"613d2ba9d8ab3385611ef690","study_id":"60edd13110225f80f9f3709b","session_id":"6196c4a2f8c397e55d59b279","condition":"full-information","relevant_dimensions":["antennae","wings"],"bee_group":{"antennae":"B","wings":"2","pattern":"X","legs":"X"},"action":"harvest","summary":"good-harvest","bonus":0.3600000000000009},{"rt":719.7999999523163,"stimulus":"\n                    <p><b>Action: <em>harvest</em></b></p>\n                    <p>This is the bee that you just saw.</p>\n                    <img src=\"bees-with-color/bee-A1SF.svg\" width=\"200\">\n                    <p><span class=\"greenText\"><b>Successful harvest!</b></span><br>Your pay has increased by $0.02. Your bonus pay is now $0.56.</p>\n            ","response":0,"trial_type":"html-button-response","trial_index":132,"time_elapsed":493510,"internal_node_id":"0.0-4.0-1.62","subject_id":"613d2ba9d8ab3385611ef690","study_id":"60edd13110225f80f9f3709b","session_id":"6196c4a2f8c397e55d59b279","condition":"full-information","relevant_dimensions":["antennae","wings"],"bee_group":{"antennae":"B","wings":"2","pattern":"X","legs":"X"},"bonus":0.3600000000000009},{"rt":1273.7999999523163,"stimulus":"bees-with-color/bee-B2SM.svg","response":1,"trial_type":"image-button-response","trial_index":133,"time_elapsed":494786,"internal_node_id":"0.0-4.0-0.63","subject_id":"613d2ba9d8ab3385611ef690","study_id":"60edd13110225f80f9f3709b","session_id":"6196c4a2f8c397e55d59b279","condition":"full-information","relevant_dimensions":["antennae","wings"],"bee_group":{"antennae":"B","wings":"2","pattern":"X","legs":"X"},"action":"avoid","summary":"good-avoid","bonus":0.3600000000000009},{"rt":503.2000000476837,"stimulus":"\n                    <p><b>Action: <em>avoid</em></b></p>\n                    <p>This is the bee that you just saw.</p>\n                    <img src=\"bees-with-color/bee-B2SM.svg\" width=\"200\">\n                    <p><span class=\"greenText\">Good choice!</span>  This bee would have stung you.<br>Your bonus pay is unchanged, and remains at $0.56.</p>\n            ","response":0,"trial_type":"html-button-response","trial_index":134,"time_elapsed":495292,"internal_node_id":"0.0-4.0-1.63","subject_id":"613d2ba9d8ab3385611ef690","study_id":"60edd13110225f80f9f3709b","session_id":"6196c4a2f8c397e55d59b279","condition":"full-information","relevant_dimensions":["antennae","wings"],"bee_group":{"antennae":"B","wings":"2","pattern":"X","legs":"X"},"bonus":0.3600000000000009},{"rt":52890.5,"stimulus":"You have completed the first part of this experiment.<br><br>You will now begin a shorter second part, in which you will receive no feedback.<br>The same rules regarding bonus pay apply.<br><br>Press any key to begin.","response":" ","trial_type":"html-keyboard-response","trial_index":135,"time_elapsed":548186,"internal_node_id":"0.0-5.0","subject_id":"613d2ba9d8ab3385611ef690","study_id":"60edd13110225f80f9f3709b","session_id":"6196c4a2f8c397e55d59b279","condition":"full-information","relevant_dimensions":["antennae","wings"],"bee_group":{"antennae":"B","wings":"2","pattern":"X","legs":"X"},"bonus":0.3600000000000009},{"rt":2169.100000143051,"stimulus":"bees-with-color/bee-B2DM.svg","response":1,"trial_type":"image-button-response","trial_index":136,"time_elapsed":550377,"internal_node_id":"0.0-6.0-0.0","subject_id":"613d2ba9d8ab3385611ef690","study_id":"60edd13110225f80f9f3709b","session_id":"6196c4a2f8c397e55d59b279","condition":"full-information","relevant_dimensions":["antennae","wings"],"bee_group":{"antennae":"B","wings":"2","pattern":"X","legs":"X"},"bonus":0.3600000000000009},{"rt":1983.7000000476837,"stimulus":"bees-with-color/bee-A1SM.svg","response":0,"trial_type":"image-button-response","trial_index":137,"time_elapsed":552368,"internal_node_id":"0.0-6.0-0.1","subject_id":"613d2ba9d8ab3385611ef690","study_id":"60edd13110225f80f9f3709b","session_id":"6196c4a2f8c397e55d59b279","condition":"full-information","relevant_dimensions":["antennae","wings"],"bee_group":{"antennae":"B","wings":"2","pattern":"X","legs":"X"},"bonus":0.3600000000000009},{"rt":677.2000000476837,"stimulus":"bees-with-color/bee-B1SM.svg","response":0,"trial_type":"image-button-response","trial_index":138,"time_elapsed":553049,"internal_node_id":"0.0-6.0-0.2","subject_id":"613d2ba9d8ab3385611ef690","study_id":"60edd13110225f80f9f3709b","session_id":"6196c4a2f8c397e55d59b279","condition":"full-information","relevant_dimensions":["antennae","wings"],"bee_group":{"antennae":"B","wings":"2","pattern":"X","legs":"X"},"bonus":0.3600000000000009},{"rt":993.1000001430511,"stimulus":"bees-with-color/bee-A1DM.svg","response":1,"trial_type":"image-button-response","trial_index":139,"time_elapsed":554046,"internal_node_id":"0.0-6.0-0.3","subject_id":"613d2ba9d8ab3385611ef690","study_id":"60edd13110225f80f9f3709b","session_id":"6196c4a2f8c397e55d59b279","condition":"full-information","relevant_dimensions":["antennae","wings"],"bee_group":{"antennae":"B","wings":"2","pattern":"X","legs":"X"},"bonus":0.3600000000000009},{"rt":1832.5,"stimulus":"bees-with-color/bee-B2DF.svg","response":0,"trial_type":"image-button-response","trial_index":140,"time_elapsed":555885,"internal_node_id":"0.0-6.0-0.4","subject_id":"613d2ba9d8ab3385611ef690","study_id":"60edd13110225f80f9f3709b","session_id":"6196c4a2f8c397e55d59b279","condition":"full-information","relevant_dimensions":["antennae","wings"],"bee_group":{"antennae":"B","wings":"2","pattern":"X","legs":"X"},"bonus":0.3600000000000009},{"rt":1102.8999998569489,"stimulus":"bees-with-color/bee-A2SM.svg","response":1,"trial_type":"image-button-response","trial_index":141,"time_elapsed":556993,"internal_node_id":"0.0-6.0-0.5","subject_id":"613d2ba9d8ab3385611ef690","study_id":"60edd13110225f80f9f3709b","session_id":"6196c4a2f8c397e55d59b279","condition":"full-information","relevant_dimensions":["antennae","wings"],"bee_group":{"antennae":"B","wings":"2","pattern":"X","legs":"X"},"bonus":0.3600000000000009},{"rt":685.1999998092651,"stimulus":"bees-with-color/bee-A1DF.svg","response":1,"trial_type":"image-button-response","trial_index":142,"time_elapsed":557683,"internal_node_id":"0.0-6.0-0.6","subject_id":"613d2ba9d8ab3385611ef690","study_id":"60edd13110225f80f9f3709b","session_id":"6196c4a2f8c397e55d59b279","condition":"full-information","relevant_dimensions":["antennae","wings"],"bee_group":{"antennae":"B","wings":"2","pattern":"X","legs":"X"},"bonus":0.3600000000000009},{"rt":572.9000000953674,"stimulus":"bees-with-color/bee-B1SF.svg","response":0,"trial_type":"image-button-response","trial_index":143,"time_elapsed":558261,"internal_node_id":"0.0-6.0-0.7","subject_id":"613d2ba9d8ab3385611ef690","study_id":"60edd13110225f80f9f3709b","session_id":"6196c4a2f8c397e55d59b279","condition":"full-information","relevant_dimensions":["antennae","wings"],"bee_group":{"antennae":"B","wings":"2","pattern":"X","legs":"X"},"bonus":0.3600000000000009},{"rt":772.5999999046326,"stimulus":"bees-with-color/bee-B1DM.svg","response":1,"trial_type":"image-button-response","trial_index":144,"time_elapsed":559039,"internal_node_id":"0.0-6.0-0.8","subject_id":"613d2ba9d8ab3385611ef690","study_id":"60edd13110225f80f9f3709b","session_id":"6196c4a2f8c397e55d59b279","condition":"full-information","relevant_dimensions":["antennae","wings"],"bee_group":{"antennae":"B","wings":"2","pattern":"X","legs":"X"},"bonus":0.3600000000000009},{"rt":558.4000000953674,"stimulus":"bees-with-color/bee-A2DF.svg","response":1,"trial_type":"image-button-response","trial_index":145,"time_elapsed":559601,"internal_node_id":"0.0-6.0-0.9","subject_id":"613d2ba9d8ab3385611ef690","study_id":"60edd13110225f80f9f3709b","session_id":"6196c4a2f8c397e55d59b279","condition":"full-information","relevant_dimensions":["antennae","wings"],"bee_group":{"antennae":"B","wings":"2","pattern":"X","legs":"X"},"bonus":0.3600000000000009},{"rt":1200.1999998092651,"stimulus":"bees-with-color/bee-A2DM.svg","response":1,"trial_type":"image-button-response","trial_index":146,"time_elapsed":560805,"internal_node_id":"0.0-6.0-0.10","subject_id":"613d2ba9d8ab3385611ef690","study_id":"60edd13110225f80f9f3709b","session_id":"6196c4a2f8c397e55d59b279","condition":"full-information","relevant_dimensions":["antennae","wings"],"bee_group":{"antennae":"B","wings":"2","pattern":"X","legs":"X"},"bonus":0.3600000000000009},{"rt":550.5,"stimulus":"bees-with-color/bee-A1SF.svg","response":0,"trial_type":"image-button-response","trial_index":147,"time_elapsed":561358,"internal_node_id":"0.0-6.0-0.11","subject_id":"613d2ba9d8ab3385611ef690","study_id":"60edd13110225f80f9f3709b","session_id":"6196c4a2f8c397e55d59b279","condition":"full-information","relevant_dimensions":["antennae","wings"],"bee_group":{"antennae":"B","wings":"2","pattern":"X","legs":"X"},"bonus":0.3600000000000009},{"rt":585.9000000953674,"stimulus":"bees-with-color/bee-B2SF.svg","response":0,"trial_type":"image-button-response","trial_index":148,"time_elapsed":561946,"internal_node_id":"0.0-6.0-0.12","subject_id":"613d2ba9d8ab3385611ef690","study_id":"60edd13110225f80f9f3709b","session_id":"6196c4a2f8c397e55d59b279","condition":"full-information","relevant_dimensions":["antennae","wings"],"bee_group":{"antennae":"B","wings":"2","pattern":"X","legs":"X"},"bonus":0.3600000000000009},{"rt":976.0999999046326,"stimulus":"bees-with-color/bee-B1DF.svg","response":1,"trial_type":"image-button-response","trial_index":149,"time_elapsed":562925,"internal_node_id":"0.0-6.0-0.13","subject_id":"613d2ba9d8ab3385611ef690","study_id":"60edd13110225f80f9f3709b","session_id":"6196c4a2f8c397e55d59b279","condition":"full-information","relevant_dimensions":["antennae","wings"],"bee_group":{"antennae":"B","wings":"2","pattern":"X","legs":"X"},"bonus":0.3600000000000009},{"rt":783.5999999046326,"stimulus":"bees-with-color/bee-A2SF.svg","response":0,"trial_type":"image-button-response","trial_index":150,"time_elapsed":563712,"internal_node_id":"0.0-6.0-0.14","subject_id":"613d2ba9d8ab3385611ef690","study_id":"60edd13110225f80f9f3709b","session_id":"6196c4a2f8c397e55d59b279","condition":"full-information","relevant_dimensions":["antennae","wings"],"bee_group":{"antennae":"B","wings":"2","pattern":"X","legs":"X"},"bonus":0.3600000000000009},{"rt":1361.7999999523163,"stimulus":"bees-with-color/bee-B2SM.svg","response":1,"trial_type":"image-button-response","trial_index":151,"time_elapsed":565078,"internal_node_id":"0.0-6.0-0.15","subject_id":"613d2ba9d8ab3385611ef690","study_id":"60edd13110225f80f9f3709b","session_id":"6196c4a2f8c397e55d59b279","condition":"full-information","relevant_dimensions":["antennae","wings"],"bee_group":{"antennae":"B","wings":"2","pattern":"X","legs":"X"},"bonus":0.3600000000000009},{"rt":615,"stimulus":"bees-with-color/bee-A1SF.svg","response":0,"trial_type":"image-button-response","trial_index":152,"time_elapsed":565696,"internal_node_id":"0.0-6.0-0.16","subject_id":"613d2ba9d8ab3385611ef690","study_id":"60edd13110225f80f9f3709b","session_id":"6196c4a2f8c397e55d59b279","condition":"full-information","relevant_dimensions":["antennae","wings"],"bee_group":{"antennae":"B","wings":"2","pattern":"X","legs":"X"},"bonus":0.3600000000000009},{"rt":631.5,"stimulus":"bees-with-color/bee-A2DM.svg","response":1,"trial_type":"image-button-response","trial_index":153,"time_elapsed":566330,"internal_node_id":"0.0-6.0-0.17","subject_id":"613d2ba9d8ab3385611ef690","study_id":"60edd13110225f80f9f3709b","session_id":"6196c4a2f8c397e55d59b279","condition":"full-information","relevant_dimensions":["antennae","wings"],"bee_group":{"antennae":"B","wings":"2","pattern":"X","legs":"X"},"bonus":0.3600000000000009},{"rt":1546,"stimulus":"bees-with-color/bee-A1SM.svg","response":1,"trial_type":"image-button-response","trial_index":154,"time_elapsed":567880,"internal_node_id":"0.0-6.0-0.18","subject_id":"613d2ba9d8ab3385611ef690","study_id":"60edd13110225f80f9f3709b","session_id":"6196c4a2f8c397e55d59b279","condition":"full-information","relevant_dimensions":["antennae","wings"],"bee_group":{"antennae":"B","wings":"2","pattern":"X","legs":"X"},"bonus":0.3600000000000009},{"rt":766.7000000476837,"stimulus":"bees-with-color/bee-B2DM.svg","response":1,"trial_type":"image-button-response","trial_index":155,"time_elapsed":568649,"internal_node_id":"0.0-6.0-0.19","subject_id":"613d2ba9d8ab3385611ef690","study_id":"60edd13110225f80f9f3709b","session_id":"6196c4a2f8c397e55d59b279","condition":"full-information","relevant_dimensions":["antennae","wings"],"bee_group":{"antennae":"B","wings":"2","pattern":"X","legs":"X"},"bonus":0.3600000000000009},{"rt":916.8000001907349,"stimulus":"bees-with-color/bee-A2DF.svg","response":1,"trial_type":"image-button-response","trial_index":156,"time_elapsed":569569,"internal_node_id":"0.0-6.0-0.20","subject_id":"613d2ba9d8ab3385611ef690","study_id":"60edd13110225f80f9f3709b","session_id":"6196c4a2f8c397e55d59b279","condition":"full-information","relevant_dimensions":["antennae","wings"],"bee_group":{"antennae":"B","wings":"2","pattern":"X","legs"