[{"success":true,"trial_type":"fullscreen","trial_index":0,"time_elapsed":3073,"internal_node_id":"0.0-0.0","subject_id":"5875778b5c17910001ea4f35","study_id":"60edd13110225f80f9f3709b","session_id":"6196c704b8cec23ee24c47fd","condition":"contingent","relevant_dimensions":["wings","pattern"],"bee_group":{"antennae":"X","wings":"2","pattern":"D","legs":"X"},"bonus":1.7400000000000013},{"success":true,"timeout":false,"failed_images":[],"failed_audio":[],"failed_video":[],"trial_type":"preload","trial_index":1,"time_elapsed":5011,"internal_node_id":"0.0-1.0","subject_id":"5875778b5c17910001ea4f35","study_id":"60edd13110225f80f9f3709b","session_id":"6196c704b8cec23ee24c47fd","condition":"contingent","relevant_dimensions":["wings","pattern"],"bee_group":{"antennae":"X","wings":"2","pattern":"D","legs":"X"},"bonus":1.7400000000000013},{"rt":1287.6999999999534,"stimulus":"Welcome! Press any key to begin.","response":" ","trial_type":"html-keyboard-response","trial_index":2,"time_elapsed":6300,"internal_node_id":"0.0-2.0","subject_id":"5875778b5c17910001ea4f35","study_id":"60edd13110225f80f9f3709b","session_id":"6196c704b8cec23ee24c47fd","condition":"contingent","relevant_dimensions":["wings","pattern"],"bee_group":{"antennae":"X","wings":"2","pattern":"D","legs":"X"},"bonus":1.7400000000000013},{"view_history":[{"page_index":0,"viewing_time":4008.899999999907},{"page_index":1,"viewing_time":10555.199999999953},{"page_index":2,"viewing_time":9085.700000000186},{"page_index":3,"viewing_time":9826.299999999814},{"page_index":4,"viewing_time":4426.800000000047},{"page_index":5,"viewing_time":7976.40000000014},{"page_index":6,"viewing_time":8849.199999999953},{"page_index":7,"viewing_time":6604.199999999953},{"page_index":8,"viewing_time":5926.399999999907},{"page_index":9,"viewing_time":7141.700000000186},{"page_index":10,"viewing_time":2697.399999999907},{"page_index":11,"viewing_time":8652.100000000093},{"page_index":12,"viewing_time":8321.799999999814},{"page_index":13,"viewing_time":1417.8000000000466},{"page_index":14,"viewing_time":34978.10000000009}],"rt":130468.30000000005,"trial_type":"instructions","trial_index":3,"time_elapsed":136772,"internal_node_id":"0.0-3.0-0.0","subject_id":"5875778b5c17910001ea4f35","study_id":"60edd13110225f80f9f3709b","session_id":"6196c704b8cec23ee24c47fd","condition":"contingent","relevant_dimensions":["wings","pattern"],"bee_group":{"antennae":"X","wings":"2","pattern":"D","legs":"X"},"bonus":1.7400000000000013},{"rt":9932.899999999907,"response":{"Q0":["Two or six legs","Stripes or spots on body","Single or double wings","Antennae or no antennae"]},"question_order":[0],"trial_type":"survey-multi-select","trial_index":4,"time_elapsed":146713,"internal_node_id":"0.0-3.0-1.0","subject_id":"5875778b5c17910001ea4f35","study_id":"60edd13110225f80f9f3709b","session_id":"6196c704b8cec23ee24c47fd","condition":"contingent","relevant_dimensions":["wings","pattern"],"bee_group":{"antennae":"X","wings":"2","pattern":"D","legs":"X"},"correct":true,"bonus":1.7400000000000013},{"rt":17212.799999999814,"response":{"Q1":"No.","Q2":"Based on the four features of the bee.","Q3":"You do not learn if it was friendly or dangerous, and do not alter your bonus."},"question_order":[0,1,2],"trial_type":"survey-multi-choice","trial_index":5,"time_elapsed":163931,"internal_node_id":"0.0-3.0-2.0","subject_id":"5875778b5c17910001ea4f35","study_id":"60edd13110225f80f9f3709b","session_id":"6196c704b8cec23ee24c47fd","condition":"contingent","relevant_dimensions":["wings","pattern"],"bee_group":{"antennae":"X","wings":"2","pattern":"D","legs":"X"},"correct":true,"bonus":1.7400000000000013},{"rt":2695.8000000000466,"stimulus":"<p>Congrats, you got everything right<br>When you're ready, click the button below to continue to the experiment.</p>","response":0,"trial_type":"html-button-response","trial_index":6,"time_elapsed":166629,"internal_node_id":"0.0-3.0-3.0","subject_id":"5875778b5c17910001ea4f35","study_id":"60edd13110225f80f9f3709b","session_id":"6196c704b8cec23ee24c47fd","condition":"contingent","relevant_dimensions":["wings","pattern"],"bee_group":{"antennae":"X","wings":"2","pattern":"D","legs":"X"},"bonus":1.7400000000000013},{"rt":17086.09999999986,"stimulus":"bees-with-color/bee-B1SM.svg","response":0,"trial_type":"image-button-response","trial_index":7,"time_elapsed":183720,"internal_node_id":"0.0-4.0-0.0","subject_id":"5875778b5c17910001ea4f35","study_id":"60edd13110225f80f9f3709b","session_id":"6196c704b8cec23ee24c47fd","condition":"contingent","relevant_dimensions":["wings","pattern"],"bee_group":{"antennae":"X","wings":"2","pattern":"D","legs":"X"},"action":"harvest","summary":"good-harvest","bonus":1.7400000000000013},{"rt":5929.699999999953,"stimulus":"\n                    <p><b>Action: <em>harvest</em></b></p>\n                    <p>This is the bee that you just saw.</p>\n                    <img src=\"bees-with-color/bee-B1SM.svg\" width=\"200\">\n                    <p><span class=\"greenText\"><b>Successful harvest!</b></span><br>Your pay has increased by $0.02. Your bonus pay is now $0.56.</p>\n            ","response":0,"trial_type":"html-button-response","trial_index":8,"time_elapsed":189652,"internal_node_id":"0.0-4.0-1.0","subject_id":"5875778b5c17910001ea4f35","study_id":"60edd13110225f80f9f3709b","session_id":"6196c704b8cec23ee24c47fd","condition":"contingent","relevant_dimensions":["wings","pattern"],"bee_group":{"antennae":"X","wings":"2","pattern":"D","legs":"X"},"bonus":1.7400000000000013},{"rt":3894.5999999998603,"stimulus":"bees-with-color/bee-A2SM.svg","response":0,"trial_type":"image-button-response","trial_index":9,"time_elapsed":193550,"internal_node_id":"0.0-4.0-0.1","subject_id":"5875778b5c17910001ea4f35","study_id":"60edd13110225f80f9f3709b","session_id":"6196c704b8cec23ee24c47fd","condition":"contingent","relevant_dimensions":["wings","pattern"],"bee_group":{"antennae":"X","wings":"2","pattern":"D","legs":"X"},"action":"harvest","summary":"good-harvest","bonus":1.7400000000000013},{"rt":4683.799999999814,"stimulus":"\n                    <p><b>Action: <em>harvest</em></b></p>\n                    <p>This is the bee that you just saw.</p>\n                    <img src=\"bees-with-color/bee-A2SM.svg\" width=\"200\">\n                    <p><span class=\"greenText\"><b>Successful harvest!</b></span><br>Your pay has increased by $0.02. Your bonus pay is now $0.58.</p>\n            ","response":0,"trial_type":"html-button-response","trial_index":10,"time_elapsed":198236,"internal_node_id":"0.0-4.0-1.1","subject_id":"5875778b5c17910001ea4f35","study_id":"60edd13110225f80f9f3709b","session_id":"6196c704b8cec23ee24c47fd","condition":"contingent","relevant_dimensions":["wings","pattern"],"bee_group":{"antennae":"X","wings":"2","pattern":"D","legs":"X"},"bonus":1.7400000000000013},{"rt":1993.7999999998137,"stimulus":"bees-with-color/bee-B2DM.svg","response":0,"trial_type":"image-button-response","trial_index":11,"time_elapsed":200231,"internal_node_id":"0.0-4.0-0.2","subject_id":"5875778b5c17910001ea4f35","study_id":"60edd13110225f80f9f3709b","session_id":"6196c704b8cec23ee24c47fd","condition":"contingent","relevant_dimensions":["wings","pattern"],"bee_group":{"antennae":"X","wings":"2","pattern":"D","legs":"X"},"action":"harvest","summary":"bad-harvest","bonus":1.7400000000000013},{"rt":17619.799999999814,"stimulus":"\n                    <p><b>Action: <em>harvest</em></b></p>\n                    <p>This is the bee that you just saw.</p>\n                    <img src=\"bees-with-color/bee-B2DM.svg\" width=\"200\">\n                    <p><span class=\"redText\">Bad choice, the bee was angry.</span><br><b>You have been stung!</b><br>Your pay has been decreased by $0.10. Your bonus pay is now $0.48.</p>\n            ","response":0,"trial_type":"html-button-response","trial_index":12,"time_elapsed":217854,"internal_node_id":"0.0-4.0-1.2","subject_id":"5875778b5c17910001ea4f35","study_id":"60edd13110225f80f9f3709b","session_id":"6196c704b8cec23ee24c47fd","condition":"contingent","relevant_dimensions":["wings","pattern"],"bee_group":{"antennae":"X","wings":"2","pattern":"D","legs":"X"},"bonus":1.7400000000000013},{"rt":2219,"stimulus":"bees-with-color/bee-A1SM.svg","response":0,"trial_type":"image-button-response","trial_index":13,"time_elapsed":220075,"internal_node_id":"0.0-4.0-0.3","subject_id":"5875778b5c17910001ea4f35","study_id":"60edd13110225f80f9f3709b","session_id":"6196c704b8cec23ee24c47fd","condition":"contingent","relevant_dimensions":["wings","pattern"],"bee_group":{"antennae":"X","wings":"2","pattern":"D","legs":"X"},"action":"harvest","summary":"good-harvest","bonus":1.7400000000000013},{"rt":9074.199999999953,"stimulus":"\n                    <p><b>Action: <em>harvest</em></b></p>\n                    <p>This is the bee that you just saw.</p>\n                    <img src=\"bees-with-color/bee-A1SM.svg\" width=\"200\">\n                    <p><span class=\"greenText\"><b>Successful harvest!</b></span><br>Your pay has increased by $0.02. Your bonus pay is now $0.50.</p>\n            ","response":0,"trial_type":"html-button-response","trial_index":14,"time_elapsed":229151,"internal_node_id":"0.0-4.0-1.3","subject_id":"5875778b5c17910001ea4f35","study_id":"60edd13110225f80f9f3709b","session_id":"6196c704b8cec23ee24c47fd","condition":"contingent","relevant_dimensions":["wings","pattern"],"bee_group":{"antennae":"X","wings":"2","pattern":"D","legs":"X"},"bonus":1.7400000000000013},{"rt":3071.600000000093,"stimulus":"bees-with-color/bee-B2SF.svg","response":0,"trial_type":"image-button-response","trial_index":15,"time_elapsed":232225,"internal_node_id":"0.0-4.0-0.4","subject_id":"5875778b5c17910001ea4f35","study_id":"60edd13110225f80f9f3709b","session_id":"6196c704b8cec23ee24c47fd","condition":"contingent","relevant_dimensions":["wings","pattern"],"bee_group":{"antennae":"X","wings":"2","pattern":"D","legs":"X"},"action":"harvest","summary":"good-harvest","bonus":1.7400000000000013},{"rt":4673.90000000014,"stimulus":"\n                    <p><b>Action: <em>harvest</em></b></p>\n                    <p>This is the bee that you just saw.</p>\n                    <img src=\"bees-with-color/bee-B2SF.svg\" width=\"200\">\n                    <p><span class=\"greenText\"><b>Successful harvest!</b></span><br>Your pay has increased by $0.02. Your bonus pay is now $0.52.</p>\n            ","response":0,"trial_type":"html-button-response","trial_index":16,"time_elapsed":236901,"internal_node_id":"0.0-4.0-1.4","subject_id":"5875778b5c17910001ea4f35","study_id":"60edd13110225f80f9f3709b","session_id":"6196c704b8cec23ee24c47fd","condition":"contingent","relevant_dimensions":["wings","pattern"],"bee_group":{"antennae":"X","wings":"2","pattern":"D","legs":"X"},"bonus":1.7400000000000013},{"rt":2796.2999999998137,"stimulus":"bees-with-color/bee-B1SF.svg","response":0,"trial_type":"image-button-response","trial_index":17,"time_elapsed":239700,"internal_node_id":"0.0-4.0-0.5","subject_id":"5875778b5c17910001ea4f35","study_id":"60edd13110225f80f9f3709b","session_id":"6196c704b8cec23ee24c47fd","condition":"contingent","relevant_dimensions":["wings","pattern"],"bee_group":{"antennae":"X","wings":"2","pattern":"D","legs":"X"},"action":"harvest","summary":"good-harvest","bonus":1.7400000000000013},{"rt":3153.1999999999534,"stimulus":"\n                    <p><b>Action: <em>harvest</em></b></p>\n                    <p>This is the bee that you just saw.</p>\n                    <img src=\"bees-with-color/bee-B1SF.svg\" width=\"200\">\n                    <p><span class=\"greenText\"><b>Successful harvest!</b></span><br>Your pay has increased by $0.02. Your bonus pay is now $0.54.</p>\n            ","response":0,"trial_type":"html-button-response","trial_index":18,"time_elapsed":242856,"internal_node_id":"0.0-4.0-1.5","subject_id":"5875778b5c17910001ea4f35","study_id":"60edd13110225f80f9f3709b","session_id":"6196c704b8cec23ee24c47fd","condition":"contingent","relevant_dimensions":["wings","pattern"],"bee_group":{"antennae":"X","wings":"2","pattern":"D","legs":"X"},"bonus":1.7400000000000013},{"rt":1718.4000000001397,"stimulus":"bees-with-color/bee-A1DF.svg","response":1,"trial_type":"image-button-response","trial_index":19,"time_elapsed":244576,"internal_node_id":"0.0-4.0-0.6","subject_id":"5875778b5c17910001ea4f35","study_id":"60edd13110225f80f9f3709b","session_id":"6196c704b8cec23ee24c47fd","condition":"contingent","relevant_dimensions":["wings","pattern"],"bee_group":{"antennae":"X","wings":"2","pattern":"D","legs":"X"},"action":"avoid","summary":"bad-avoid","bonus":1.7400000000000013},{"rt":3706,"stimulus":"\n                    <p><b>Action: <em>avoid</em></b></p>\n                    <p>This is the bee that you just saw.</p>\n                    <img src=\"bees-with-color/bee-A1DF.svg\" width=\"200\">\n                    <p><br>Your bonus pay is unchanged, and remains at $0.54.</p>\n            ","response":0,"trial_type":"html-button-response","trial_index":20,"time_elapsed":248284,"internal_node_id":"0.0-4.0-1.6","subject_id":"5875778b5c17910001ea4f35","study_id":"60edd13110225f80f9f3709b","session_id":"6196c704b8cec23ee24c47fd","condition":"contingent","relevant_dimensions":["wings","pattern"],"bee_group":{"antennae":"X","wings":"2","pattern":"D","legs":"X"},"bonus":1.7400000000000013},{"rt":1452.5,"stimulus":"bees-with-color/bee-B2DF.svg","response":1,"trial_type":"image-button-response","trial_index":21,"time_elapsed":249739,"internal_node_id":"0.0-4.0-0.7","subject_id":"5875778b5c17910001ea4f35","study_id":"60edd13110225f80f9f3709b","session_id":"6196c704b8cec23ee24c47fd","condition":"contingent","relevant_dimensions":["wings","pattern"],"bee_group":{"antennae":"X","wings":"2","pattern":"D","legs":"X"},"action":"avoid","summary":"good-avoid","bonus":1.7400000000000013},{"rt":1583.8999999999069,"stimulus":"\n                    <p><b>Action: <em>avoid</em></b></p>\n                    <p>This is the bee that you just saw.</p>\n                    <img src=\"bees-with-color/bee-B2DF.svg\" width=\"200\">\n                    <p><br>Your bonus pay is unchanged, and remains at $0.54.</p>\n            ","response":0,"trial_type":"html-button-response","trial_index":22,"time_elapsed":251325,"internal_node_id":"0.0-4.0-1.7","subject_id":"5875778b5c17910001ea4f35","study_id":"60edd13110225f80f9f3709b","session_id":"6196c704b8cec23ee24c47fd","condition":"contingent","relevant_dimensions":["wings","pattern"],"bee_group":{"antennae":"X","wings":"2","pattern":"D","legs":"X"},"bonus":1.7400000000000013},{"rt":3379.3000000000466,"stimulus":"bees-with-color/bee-B1DM.svg","response":0,"trial_type":"image-button-response","trial_index":23,"time_elapsed":254707,"internal_node_id":"0.0-4.0-0.8","subject_id":"5875778b5c17910001ea4f35","study_id":"60edd13110225f80f9f3709b","session_id":"6196c704b8cec23ee24c47fd","condition":"contingent","relevant_dimensions":["wings","pattern"],"bee_group":{"antennae":"X","wings":"2","pattern":"D","legs":"X"},"action":"harvest","summary":"good-harvest","bonus":1.7400000000000013},{"rt":18993.299999999814,"stimulus":"\n                    <p><b>Action: <em>harvest</em></b></p>\n                    <p>This is the bee that you just saw.</p>\n                    <img src=\"bees-with-color/bee-B1DM.svg\" width=\"200\">\n                    <p><span class=\"greenText\"><b>Successful harvest!</b></span><br>Your pay has increased by $0.02. Your bonus pay is now $0.56.</p>\n            ","response":0,"trial_type":"html-button-response","trial_index":24,"time_elapsed":273702,"internal_node_id":"0.0-4.0-1.8","subject_id":"5875778b5c17910001ea4f35","study_id":"60edd13110225f80f9f3709b","session_id":"6196c704b8cec23ee24c47fd","condition":"contingent","relevant_dimensions":["wings","pattern"],"bee_group":{"antennae":"X","wings":"2","pattern":"D","legs":"X"},"bonus":1.7400000000000013},{"rt":2787.3000000000466,"stimulus":"bees-with-color/bee-A2DM.svg","response":1,"trial_type":"image-button-response","trial_index":25,"time_elapsed":276493,"internal_node_id":"0.0-4.0-0.9","subject_id":"5875778b5c17910001ea4f35","study_id":"60edd13110225f80f9f3709b","session_id":"6196c704b8cec23ee24c47fd","condition":"contingent","relevant_dimensions":["wings","pattern"],"bee_group":{"antennae":"X","wings":"2","pattern":"D","legs":"X"},"action":"avoid","summary":"good-avoid","bonus":1.7400000000000013},{"rt":901.1999999999534,"stimulus":"\n                    <p><b>Action: <em>avoid</em></b></p>\n                    <p>This is the bee that you just saw.</p>\n                    <img src=\"bees-with-color/bee-A2DM.svg\" width=\"200\">\n                    <p><br>Your bonus pay is unchanged, and remains at $0.56.</p>\n            ","response":0,"trial_type":"html-button-response","trial_index":26,"time_elapsed":277397,"internal_node_id":"0.0-4.0-1.9","subject_id":"5875778b5c17910001ea4f35","study_id":"60edd13110225f80f9f3709b","session_id":"6196c704b8cec23ee24c47fd","condition":"contingent","relevant_dimensions":["wings","pattern"],"bee_group":{"antennae":"X","wings":"2","pattern":"D","legs":"X"},"bonus":1.7400000000000013},{"rt":1121.0999999998603,"stimulus":"bees-with-color/bee-A1SF.svg","response":0,"trial_type":"image-button-response","trial_index":27,"time_elapsed":278520,"internal_node_id":"0.0-4.0-0.10","subject_id":"5875778b5c17910001ea4f35","study_id":"60edd13110225f80f9f3709b","session_id":"6196c704b8cec23ee24c47fd","condition":"contingent","relevant_dimensions":["wings","pattern"],"bee_group":{"antennae":"X","wings":"2","pattern":"D","legs":"X"},"action":"harvest","summary":"good-harvest","bonus":1.7400000000000013},{"rt":1075.0999999998603,"stimulus":"\n                    <p><b>Action: <em>harvest</em></b></p>\n                    <p>This is the bee that you just saw.</p>\n                    <img src=\"bees-with-color/bee-A1SF.svg\" width=\"200\">\n                    <p><span class=\"greenText\"><b>Successful harvest!</b></span><br>Your pay has increased by $0.02. Your bonus pay is now $0.58.</p>\n            ","response":0,"trial_type":"html-button-response","trial_index":28,"time_elapsed":279598,"internal_node_id":"0.0-4.0-1.10","subject_id":"5875778b5c17910001ea4f35","study_id":"60edd13110225f80f9f3709b","session_id":"6196c704b8cec23ee24c47fd","condition":"contingent","relevant_dimensions":["wings","pattern"],"bee_group":{"antennae":"X","wings":"2","pattern":"D","legs":"X"},"bonus":1.7400000000000013},{"rt":4057.5,"stimulus":"bees-with-color/bee-A1DM.svg","response":1,"trial_type":"image-button-response","trial_index":29,"time_elapsed":283658,"internal_node_id":"0.0-4.0-0.11","subject_id":"5875778b5c17910001ea4f35","study_id":"60edd13110225f80f9f3709b","session_id":"6196c704b8cec23ee24c47fd","condition":"contingent","relevant_dimensions":["wings","pattern"],"bee_group":{"antennae":"X","wings":"2","pattern":"D","legs":"X"},"action":"avoid","summary":"bad-avoid","bonus":1.7400000000000013},{"rt":1015.3999999999069,"stimulus":"\n                    <p><b>Action: <em>avoid</em></b></p>\n                    <p>This is the bee that you just saw.</p>\n                    <img src=\"bees-with-color/bee-A1DM.svg\" width=\"200\">\n                    <p><br>Your bonus pay is unchanged, and remains at $0.58.</p>\n            ","response":0,"trial_type":"html-button-response","trial_index":30,"time_elapsed":284676,"internal_node_id":"0.0-4.0-1.11","subject_id":"5875778b5c17910001ea4f35","study_id":"60edd13110225f80f9f3709b","session_id":"6196c704b8cec23ee24c47fd","condition":"contingent","relevant_dimensions":["wings","pattern"],"bee_group":{"antennae":"X","wings":"2","pattern":"D","legs":"X"},"bonus":1.7400000000000013},{"rt":1015.8000000000466,"stimulus":"bees-with-color/bee-B1DF.svg","response":0,"trial_type":"image-button-response","trial_index":31,"time_elapsed":285695,"internal_node_id":"0.0-4.0-0.12","subject_id":"5875778b5c17910001ea4f35","study_id":"60edd13110225f80f9f3709b","session_id":"6196c704b8cec23ee24c47fd","condition":"contingent","relevant_dimensions":["wings","pattern"],"bee_group":{"antennae":"X","wings":"2","pattern":"D","legs":"X"},"action":"harvest","summary":"good-harvest","bonus":1.7400000000000013},{"rt":1265.5999999998603,"stimulus":"\n                    <p><b>Action: <em>harvest</em></b></p>\n                    <p>This is the bee that you just saw.</p>\n                    <img src=\"bees-with-color/bee-B1DF.svg\" width=\"200\">\n                    <p><span class=\"greenText\"><b>Successful harvest!</b></span><br>Your pay has increased by $0.02. Your bonus pay is now $0.60.</p>\n            ","response":0,"trial_type":"html-button-response","trial_index":32,"time_elapsed":286962,"internal_node_id":"0.0-4.0-1.12","subject_id":"5875778b5c17910001ea4f35","study_id":"60edd13110225f80f9f3709b","session_id":"6196c704b8cec23ee24c47fd","condition":"contingent","relevant_dimensions":["wings","pattern"],"bee_group":{"antennae":"X","wings":"2","pattern":"D","legs":"X"},"bonus":1.7400000000000013},{"rt":1512.8000000000466,"stimulus":"bees-with-color/bee-A2DF.svg","response":0,"trial_type":"image-button-response","trial_index":33,"time_elapsed":288477,"internal_node_id":"0.0-4.0-0.13","subject_id":"5875778b5c17910001ea4f35","study_id":"60edd13110225f80f9f3709b","session_id":"6196c704b8cec23ee24c47fd","condition":"contingent","relevant_dimensions":["wings","pattern"],"bee_group":{"antennae":"X","wings":"2","pattern":"D","legs":"X"},"action":"harvest","summary":"bad-harvest","bonus":1.7400000000000013},{"rt":86706.69999999995,"stimulus":"\n                    <p><b>Action: <em>harvest</em></b></p>\n                    <p>This is the bee that you just saw.</p>\n                    <img src=\"bees-with-color/bee-A2DF.svg\" width=\"200\">\n                    <p><span class=\"redText\">Bad choice, the bee was angry.</span><br><b>You have been stung!</b><br>Your pay has been decreased by $0.10. Your bonus pay is now $0.50.</p>\n            ","response":0,"trial_type":"html-button-response","trial_index":34,"time_elapsed":375188,"internal_node_id":"0.0-4.0-1.13","subject_id":"5875778b5c17910001ea4f35","study_id":"60edd13110225f80f9f3709b","session_id":"6196c704b8cec23ee24c47fd","condition":"contingent","relevant_dimensions":["wings","pattern"],"bee_group":{"antennae":"X","wings":"2","pattern":"D","legs":"X"},"bonus":1.7400000000000013},{"rt":2127,"stimulus":"bees-with-color/bee-B2SM.svg","response":0,"trial_type":"image-button-response","trial_index":35,"time_elapsed":377317,"internal_node_id":"0.0-4.0-0.14","subject_id":"5875778b5c17910001ea4f35","study_id":"60edd13110225f80f9f3709b","session_id":"6196c704b8cec23ee24c47fd","condition":"contingent","relevant_dimensions":["wings","pattern"],"bee_group":{"antennae":"X","wings":"2","pattern":"D","legs":"X"},"action":"harvest","summary":"good-harvest","bonus":1.7400000000000013},{"rt":918.2999999998137,"stimulus":"\n                    <p><b>Action: <em>harvest</em></b></p>\n                    <p>This is the bee that you just saw.</p>\n                    <img src=\"bees-with-color/bee-B2SM.svg\" width=\"200\">\n                    <p><span class=\"greenText\"><b>Successful harvest!</b></span><br>Your pay has increased by $0.02. Your bonus pay is now $0.52.</p>\n            ","response":0,"trial_type":"html-button-response","trial_index":36,"time_elapsed":378237,"internal_node_id":"0.0-4.0-1.14","subject_id":"5875778b5c17910001ea4f35","study_id":"60edd13110225f80f9f3709b","session_id":"6196c704b8cec23ee24c47fd","condition":"contingent","relevant_dimensions":["wings","pattern"],"bee_group":{"antennae":"X","wings":"2","pattern":"D","legs":"X"},"bonus":1.7400000000000013},{"rt":959.6999999999534,"stimulus":"bees-with-color/bee-A2SF.svg","response":0,"trial_type":"image-button-response","trial_index":37,"time_elapsed":379198,"internal_node_id":"0.0-4.0-0.15","subject_id":"5875778b5c17910001ea4f35","study_id":"60edd13110225f80f9f3709b","session_id":"6196c704b8cec23ee24c47fd","condition":"contingent","relevant_dimensions":["wings","pattern"],"bee_group":{"antennae":"X","wings":"2","pattern":"D","legs":"X"},"action":"harvest","summary":"good-harvest","bonus":1.7400000000000013},{"rt":838.1000000000931,"stimulus":"\n                    <p><b>Action: <em>harvest</em></b></p>\n                    <p>This is the bee that you just saw.</p>\n                    <img src=\"bees-with-color/bee-A2SF.svg\" width=\"200\">\n                    <p><span class=\"greenText\"><b>Successful harvest!</b></span><br>Your pay has increased by $0.02. Your bonus pay is now $0.54.</p>\n            ","response":0,"trial_type":"html-button-response","trial_index":38,"time_elapsed":380038,"internal_node_id":"0.0-4.0-1.15","subject_id":"5875778b5c17910001ea4f35","study_id":"60edd13110225f80f9f3709b","session_id":"6196c704b8cec23ee24c47fd","condition":"contingent","relevant_dimensions":["wings","pattern"],"bee_group":{"antennae":"X","wings":"2","pattern":"D","legs":"X"},"bonus":1.7400000000000013},{"rt":947.5,"stimulus":"bees-with-color/bee-A1SF.svg","response":0,"trial_type":"image-button-response","trial_index":39,"time_elapsed":380987,"internal_node_id":"0.0-4.0-0.16","subject_id":"5875778b5c17910001ea4f35","study_id":"60edd13110225f80f9f3709b","session_id":"6196c704b8cec23ee24c47fd","condition":"contingent","relevant_dimensions":["wings","pattern"],"bee_group":{"antennae":"X","wings":"2","pattern":"D","legs":"X"},"action":"harvest","summary":"good-harvest","bonus":1.7400000000000013},{"rt":1363.3000000000466,"stimulus":"\n                    <p><b>Action: <em>harvest</em></b></p>\n                    <p>This is the bee that you just saw.</p>\n                    <img src=\"bees-with-color/bee-A1SF.svg\" width=\"200\">\n                    <p><span class=\"greenText\"><b>Successful harvest!</b></span><br>Your pay has increased by $0.02. Your bonus pay is now $0.56.</p>\n            ","response":0,"trial_type":"html-button-response","trial_index":40,"time_elapsed":382353,"internal_node_id":"0.0-4.0-1.16","subject_id":"5875778b5c17910001ea4f35","study_id":"60edd13110225f80f9f3709b","session_id":"6196c704b8cec23ee24c47fd","condition":"contingent","relevant_dimensions":["wings","pattern"],"bee_group":{"antennae":"X","wings":"2","pattern":"D","legs":"X"},"bonus":1.7400000000000013},{"rt":911.0999999998603,"stimulus":"bees-with-color/bee-B1SM.svg","response":0,"trial_type":"image-button-response","trial_index":41,"time_elapsed":383265,"internal_node_id":"0.0-4.0-0.17","subject_id":"5875778b5c17910001ea4f35","study_id":"60edd13110225f80f9f3709b","session_id":"6196c704b8cec23ee24c47fd","condition":"contingent","relevant_dimensions":["wings","pattern"],"bee_group":{"antennae":"X","wings":"2","pattern":"D","legs":"X"},"action":"harvest","summary":"good-harvest","bonus":1.7400000000000013},{"rt":1185.5999999998603,"stimulus":"\n                    <p><b>Action: <em>harvest</em></b></p>\n                    <p>This is the bee that you just saw.</p>\n                    <img src=\"bees-with-color/bee-B1SM.svg\" width=\"200\">\n                    <p><span class=\"greenText\"><b>Successful harvest!</b></span><br>Your pay has increased by $0.02. Your bonus pay is now $0.58.</p>\n            ","response":0,"trial_type":"html-button-response","trial_index":42,"time_elapsed":384453,"internal_node_id":"0.0-4.0-1.17","subject_id":"5875778b5c17910001ea4f35","study_id":"60edd13110225f80f9f3709b","session_id":"6196c704b8cec23ee24c47fd","condition":"contingent","relevant_dimensions":["wings","pattern"],"bee_group":{"antennae":"X","wings":"2","pattern":"D","legs":"X"},"bonus":1.7400000000000013},{"rt":899.1999999999534,"stimulus":"bees-with-color/bee-B2SF.svg","response":0,"trial_type":"image-button-response","trial_index":43,"time_elapsed":385354,"internal_node_id":"0.0-4.0-0.18","subject_id":"5875778b5c17910001ea4f35","study_id":"60edd13110225f80f9f3709b","session_id":"6196c704b8cec23ee24c47fd","condition":"contingent","relevant_dimensions":["wings","pattern"],"bee_group":{"antennae":"X","wings":"2","pattern":"D","legs":"X"},"action":"harvest","summary":"good-harvest","bonus":1.7400000000000013},{"rt":797.3000000000466,"stimulus":"\n                    <p><b>Action: <em>harvest</em></b></p>\n                    <p>This is the bee that you just saw.</p>\n                    <img src=\"bees-with-color/bee-B2SF.svg\" width=\"200\">\n                    <p><span class=\"greenText\"><b>Successful harvest!</b></span><br>Your pay has increased by $0.02. Your bonus pay is now $0.60.</p>\n            ","response":0,"trial_type":"html-button-response","trial_index":44,"time_elapsed":386153,"internal_node_id":"0.0-4.0-1.18","subject_id":"5875778b5c17910001ea4f35","study_id":"60edd13110225f80f9f3709b","session_id":"6196c704b8cec23ee24c47fd","condition":"contingent","relevant_dimensions":["wings","pattern"],"bee_group":{"antennae":"X","wings":"2","pattern":"D","legs":"X"},"bonus":1.7400000000000013},{"rt":2017.8999999999069,"stimulus":"bees-with-color/bee-B2DF.svg","response":1,"trial_type":"image-button-response","trial_index":45,"time_elapsed":388173,"internal_node_id":"0.0-4.0-0.19","subject_id":"5875778b5c17910001ea4f35","study_id":"60edd13110225f80f9f3709b","session_id":"6196c704b8cec23ee24c47fd","condition":"contingent","relevant_dimensions":["wings","pattern"],"bee_group":{"antennae":"X","wings":"2","pattern":"D","legs":"X"},"action":"avoid","summary":"good-avoid","bonus":1.7400000000000013},{"rt":765.5,"stimulus":"\n                    <p><b>Action: <em>avoid</em></b></p>\n                    <p>This is the bee that you just saw.</p>\n                    <img src=\"bees-with-color/bee-B2DF.svg\" width=\"200\">\n                    <p><br>Your bonus pay is unchanged, and remains at $0.60.</p>\n            ","response":0,"trial_type":"html-button-response","trial_index":46,"time_elapsed":388940,"internal_node_id":"0.0-4.0-1.19","subject_id":"5875778b5c17910001ea4f35","study_id":"60edd13110225f80f9f3709b","session_id":"6196c704b8cec23ee24c47fd","condition":"contingent","relevant_dimensions":["wings","pattern"],"bee_group":{"antennae":"X","wings":"2","pattern":"D","legs":"X"},"bonus":1.7400000000000013},{"rt":833.5999999998603,"stimulus":"bees-with-color/bee-A2SF.svg","response":0,"trial_type":"image-button-response","trial_index":47,"time_elapsed":389776,"internal_node_id":"0.0-4.0-0.20","subject_id":"5875778b5c17910001ea4f35","study_id":"60edd13110225f80f9f3709b","session_id":"6196c704b8cec23ee24c47fd","condition":"contingent","relevant_dimensions":["wings","pattern"],"bee_group":{"antennae":"X","wings":"2","pattern":"D","legs":"X"},"action":"harvest","summary":"good-harvest","bonus":1.7400000000000013},{"rt":718,"stimulus":"\n                    <p><b>Action: <em>harvest</em></b></p>\n                    <p>This is the bee that you just saw.</p>\n                    <img src=\"bees-with-color/bee-A2SF.svg\" width=\"200\">\n                    <p><span class=\"greenText\"><b>Successful harvest!</b></span><br>Your pay has increased by $0.02. Your bonus pay is now $0.62.</p>\n            ","response":0,"trial_type":"html-button-response","trial_index":48,"time_elapsed":390495,"internal_node_id":"0.0-4.0-1.20","subject_id":"5875778b5c17910001ea4f35","study_id":"60edd13110225f80f9f3709b","session_id":"6196c704b8cec23ee24c47fd","condition":"contingent","relevant_dimensions":["wings","pattern"],"bee_group":{"antennae":"X","wings":"2","pattern":"D","legs":"X"},"bonus":1.7400000000000013},{"rt":1847.8999999999069,"stimulus":"bees-with-color/bee-B2DM.svg","response":1,"trial_type":"image-button-response","trial_index":49,"time_elapsed":392345,"internal_node_id":"0.0-4.0-0.21","subject_id":"5875778b5c17910001ea4f35","study_id":"60edd13110225f80f9f3709b","session_id":"6196c704b8cec23ee24c47fd","condition":"contingent","relevant_dimensions":["wings","pattern"],"bee_group":{"antennae":"X","wings":"2","pattern":"D","legs":"X"},"action":"avoid","summary":"good-avoid","bonus":1.7400000000000013},{"rt":773.6999999999534,"stimulus":"\n                    <p><b>Action: <em>avoid</em></b></p>\n                    <p>This is the bee that you just saw.</p>\n                    <img src=\"bees-with-color/bee-B2DM.svg\" width=\"200\">\n                    <p><br>Your bonus pay is unchanged, and remains at $0.62.</p>\n            ","response":0,"trial_type":"html-button-response","trial_index":50,"time_elapsed":393121,"internal_node_id":"0.0-4.0-1.21","subject_id":"5875778b5c17910001ea4f35","study_id":"60edd13110225f80f9f3709b","session_id":"6196c704b8cec23ee24c47fd","condition":"contingent","relevant_dimensions":["wings","pattern"],"bee_group":{"antennae":"X","wings":"2","pattern":"D","legs":"X"},"bonus":1.7400000000000013},{"rt":1128.8000000000466,"stimulus":"bees-with-color/bee-B1DF.svg","response":0,"trial_type":"image-button-response","trial_index":51,"time_elapsed":394252,"internal_node_id":"0.0-4.0-0.22","subject_id":"5875778b5c17910001ea4f35","study_id":"60edd13110225f80f9f3709b","session_id":"6196c704b8cec23ee24c47fd","condition":"contingent","relevant_dimensions":["wings","pattern"],"bee_group":{"antennae":"X","wings":"2","pattern":"D","legs":"X"},"action":"harvest","summary":"good-harvest","bonus":1.7400000000000013},{"rt":955,"stimulus":"\n                    <p><b>Action: <em>harvest</em></b></p>\n                    <p>This is the bee that you just saw.</p>\n                    <img src=\"bees-with-color/bee-B1DF.svg\" width=\"200\">\n                    <p><span class=\"greenText\"><b>Successful harvest!</b></span><br>Your pay has increased by $0.02. Your bonus pay is now $0.64.</p>\n            ","response":0,"trial_type":"html-button-response","trial_index":52,"time_elapsed":395209,"internal_node_id":"0.0-4.0-1.22","subject_id":"5875778b5c17910001ea4f35","study_id":"60edd13110225f80f9f3709b","session_id":"6196c704b8cec23ee24c47fd","condition":"contingent","relevant_dimensions":["wings","pattern"],"bee_group":{"antennae":"X","wings":"2","pattern":"D","legs":"X"},"bonus":1.7400000000000013},{"rt":1872.1999999999534,"stimulus":"bees-with-color/bee-A2SM.svg","response":0,"trial_type":"image-button-response","trial_index":53,"time_elapsed":397083,"internal_node_id":"0.0-4.0-0.23","subject_id":"5875778b5c17910001ea4f35","study_id":"60edd13110225f80f9f3709b","session_id":"6196c704b8cec23ee24c47fd","condition":"contingent","relevant_dimensions":["wings","pattern"],"bee_group":{"antennae":"X","wings":"2","pattern":"D","legs":"X"},"action":"harvest","summary":"good-harvest","bonus":1.7400000000000013},{"rt":942.8000000000466,"stimulus":"\n                    <p><b>Action: <em>harvest</em></b></p>\n                    <p>This is the bee that you just saw.</p>\n                    <img src=\"bees-with-color/bee-A2SM.svg\" width=\"200\">\n                    <p><span class=\"greenText\"><b>Successful harvest!</b></span><br>Your pay has increased by $0.02. Your bonus pay is now $0.66.</p>\n            ","response":0,"trial_type":"html-button-response","trial_index":54,"time_elapsed":398028,"internal_node_id":"0.0-4.0-1.23","subject_id":"5875778b5c17910001ea4f35","study_id":"60edd13110225f80f9f3709b","session_id":"6196c704b8cec23ee24c47fd","condition":"contingent","relevant_dimensions":["wings","pattern"],"bee_group":{"antennae":"X","wings":"2","pattern":"D","legs":"X"},"bonus":1.7400000000000013},{"rt":894.7999999998137,"stimulus":"bees-with-color/bee-A1SM.svg","response":0,"trial_type":"image-button-response","trial_index":55,"time_elapsed":398925,"internal_node_id":"0.0-4.0-0.24","subject_id":"5875778b5c17910001ea4f35","study_id":"60edd13110225f80f9f3709b","session_id":"6196c704b8cec23ee24c47fd","condition":"contingent","relevant_dimensions":["wings","pattern"],"bee_group":{"antennae":"X","wings":"2","pattern":"D","legs":"X"},"action":"harvest","summary":"good-harvest","bonus":1.7400000000000013},{"rt":890.3999999999069,"stimulus":"\n                    <p><b>Action: <em>harvest</em></b></p>\n                    <p>This is the bee that you just saw.</p>\n                    <img src=\"bees-with-color/bee-A1SM.svg\" width=\"200\">\n                    <p><span class=\"greenText\"><b>Successful harvest!</b></span><br>Your pay has increased by $0.02. Your bonus pay is now $0.68.</p>\n            ","response":0,"trial_type":"html-button-response","trial_index":56,"time_elapsed":399818,"internal_node_id":"0.0-4.0-1.24","subject_id":"5875778b5c17910001ea4f35","study_id":"60edd13110225f80f9f3709b","session_id":"6196c704b8cec23ee24c47fd","condition":"contingent","relevant_dimensions":["wings","pattern"],"bee_group":{"antennae":"X","wings":"2","pattern":"D","legs":"X"},"bonus":1.7400000000000013},{"rt":1202,"stimulus":"bees-with-color/bee-A2DM.svg","response":1,"trial_type":"image-button-response","trial_index":57,"time_elapsed":401021,"internal_node_id":"0.0-4.0-0.25","subject_id":"5875778b5c17910001ea4f35","study_id":"60edd13110225f80f9f3709b","session_id":"6196c704b8cec23ee24c47fd","condition":"contingent","relevant_dimensions":["wings","pattern"],"bee_group":{"antennae":"X","wings":"2","pattern":"D","legs":"X"},"action":"avoid","summary":"good-avoid","bonus":1.7400000000000013},{"rt":741,"stimulus":"\n                    <p><b>Action: <em>avoid</em></b></p>\n                    <p>This is the bee that you just saw.</p>\n                    <img src=\"bees-with-color/bee-A2DM.svg\" width=\"200\">\n                    <p><br>Your bonus pay is unchanged, and remains at $0.68.</p>\n            ","response":0,"trial_type":"html-button-response","trial_index":58,"time_elapsed":401764,"internal_node_id":"0.0-4.0-1.25","subject_id":"5875778b5c17910001ea4f35","study_id":"60edd13110225f80f9f3709b","session_id":"6196c704b8cec23ee24c47fd","condition":"contingent","relevant_dimensions":["wings","pattern"],"bee_group":{"antennae":"X","wings":"2","pattern":"D","legs":"X"},"bonus":1.7400000000000013},{"rt":1913.3000000000466,"stimulus":"bees-with-color/bee-A2DF.svg","response":1,"trial_type":"image-button-response","trial_index":59,"time_elapsed":403680,"internal_node_id":"0.0-4.0-0.26","subject_id":"5875778b5c17910001ea4f35","study_id":"60edd13110225f80f9f3709b","session_id":"6196c704b8cec23ee24c47fd","condition":"contingent","relevant_dimensions":["wings","pattern"],"bee_group":{"antennae":"X","wings":"2","pattern":"D","legs":"X"},"action":"avoid","summary":"good-avoid","bonus":1.7400000000000013},{"rt":881.4000000001397,"stimulus":"\n                    <p><b>Action: <em>avoid</em></b></p>\n                    <p>This is the bee that you just saw.</p>\n                    <img src=\"bees-with-color/bee-A2DF.svg\" width=\"200\">\n                    <p><br>Your bonus pay is unchanged, and remains at $0.68.</p>\n            ","response":0,"trial_type":"html-button-response","trial_index":60,"time_elapsed":404564,"internal_node_id":"0.0-4.0-1.26","subject_id":"5875778b5c17910001ea4f35","study_id":"60edd13110225f80f9f3709b","session_id":"6196c704b8cec23ee24c47fd","condition":"contingent","relevant_dimensions":["wings","pattern"],"bee_group":{"antennae":"X","wings":"2","pattern":"D","legs":"X"},"bonus":1.7400000000000013},{"rt":733.3000000000466,"stimulus":"bees-with-color/bee-B1DM.svg","response":0,"trial_type":"image-button-response","trial_index":61,"time_elapsed":405300,"internal_node_id":"0.0-4.0-0.27","subject_id":"5875778b5c17910001ea4f35","study_id":"60edd13110225f80f9f3709b","session_id":"6196c704b8cec23ee24c47fd","condition":"contingent","relevant_dimensions":["wings","pattern"],"bee_group":{"antennae":"X","wings":"2","pattern":"D","legs":"X"},"action":"harvest","summary":"good-harvest","bonus":1.7400000000000013},{"rt":789.0999999998603,"stimulus":"\n                    <p><b>Action: <em>harvest</em></b></p>\n                    <p>This is the bee that you just saw.</p>\n                    <img src=\"bees-with-color/bee-B1DM.svg\" width=\"200\">\n                    <p><span class=\"greenText\"><b>Successful harvest!</b></span><br>Your pay has increased by $0.02. Your bonus pay is now $0.70.</p>\n            ","response":0,"trial_type":"html-button-response","trial_index":62,"time_elapsed":406091,"internal_node_id":"0.0-4.0-1.27","subject_id":"5875778b5c17910001ea4f35","study_id":"60edd13110225f80f9f3709b","session_id":"6196c704b8cec23ee24c47fd","condition":"contingent","relevant_dimensions":["wings","pattern"],"bee_group":{"antennae":"X","wings":"2","pattern":"D","legs":"X"},"bonus":1.7400000000000013},{"rt":2211.0999999998603,"stimulus":"bees-with-color/bee-A1DM.svg","response":0,"trial_type":"image-button-response","trial_index":63,"time_elapsed":408304,"internal_node_id":"0.0-4.0-0.28","subject_id":"5875778b5c17910001ea4f35","study_id":"60edd13110225f80f9f3709b","session_id":"6196c704b8cec23ee24c47fd","condition":"contingent","relevant_dimensions":["wings","pattern"],"bee_group":{"antennae":"X","wings":"2","pattern":"D","legs":"X"},"action":"harvest","summary":"good-harvest","bonus":1.7400000000000013},{"rt":874.8000000000466,"stimulus":"\n                    <p><b>Action: <em>harvest</em></b></p>\n                    <p>This is the bee that you just saw.</p>\n                    <img src=\"bees-with-color/bee-A1DM.svg\" width=\"200\">\n                    <p><span class=\"greenText\"><b>Successful harvest!</b></span><br>Your pay has increased by $0.02. Your bonus pay is now $0.72.</p>\n            ","response":0,"trial_type":"html-button-response","trial_index":64,"time_elapsed":409181,"internal_node_id":"0.0-4.0-1.28","subject_id":"5875778b5c17910001ea4f35","study_id":"60edd13110225f80f9f3709b","session_id":"6196c704b8cec23ee24c47fd","condition":"contingent","relevant_dimensions":["wings","pattern"],"bee_group":{"antennae":"X","wings":"2","pattern":"D","legs":"X"},"bonus":1.7400000000000013},{"rt":813.4000000001397,"stimulus":"bees-with-color/bee-B1SF.svg","response":0,"trial_type":"image-button-response","trial_index":65,"time_elapsed":409997,"internal_node_id":"0.0-4.0-0.29","subject_id":"5875778b5c17910001ea4f35","study_id":"60edd13110225f80f9f3709b","session_id":"6196c704b8cec23ee24c47fd","condition":"contingent","relevant_dimensions":["wings","pattern"],"bee_group":{"antennae":"X","wings":"2","pattern":"D","legs":"X"},"action":"harvest","summary":"good-harvest","bonus":1.7400000000000013},{"rt":1266.3999999999069,"stimulus":"\n                    <p><b>Action: <em>harvest</em></b></p>\n                    <p>This is the bee that you just saw.</p>\n                    <img src=\"bees-with-color/bee-B1SF.svg\" width=\"200\">\n                    <p><span class=\"greenText\"><b>Successful harvest!</b></span><br>Your pay has increased by $0.02. Your bonus pay is now $0.74.</p>\n            ","response":0,"trial_type":"html-button-response","trial_index":66,"time_elapsed":411266,"internal_node_id":"0.0-4.0-1.29","subject_id":"5875778b5c17910001ea4f35","study_id":"60edd13110225f80f9f3709b","session_id":"6196c704b8cec23ee24c47fd","condition":"contingent","relevant_dimensions":["wings","pattern"],"bee_group":{"antennae":"X","wings":"2","pattern":"D","legs":"X"},"bonus":1.7400000000000013},{"rt":2008.6000000000931,"stimulus":"bees-with-color/bee-B2SM.svg","response":0,"trial_type":"image-button-response","trial_index":67,"time_elapsed":413277,"internal_node_id":"0.0-4.0-0.30","subject_id":"5875778b5c17910001ea4f35","study_id":"60edd13110225f80f9f3709b","session_id":"6196c704b8cec23ee24c47fd","condition":"contingent","relevant_dimensions":["wings","pattern"],"bee_group":{"antennae":"X","wings":"2","pattern":"D","legs":"X"},"action":"harvest","summary":"good-harvest","bonus":1.7400000000000013},{"rt":794.3000000000466,"stimulus":"\n                    <p><b>Action: <em>harvest</em></b></p>\n                    <p>This is the bee that you just saw.</p>\n                    <img src=\"bees-with-color/bee-B2SM.svg\" width=\"200\">\n                    <p><span class=\"greenText\"><b>Successful harvest!</b></span><br>Your pay has increased by $0.02. Your bonus pay is now $0.76.</p>\n            ","response":0,"trial_type":"html-button-response","trial_index":68,"time_elapsed":414073,"internal_node_id":"0.0-4.0-1.30","subject_id":"5875778b5c17910001ea4f35","study_id":"60edd13110225f80f9f3709b","session_id":"6196c704b8cec23ee24c47fd","condition":"contingent","relevant_dimensions":["wings","pattern"],"bee_group":{"antennae":"X","wings":"2","pattern":"D","legs":"X"},"bonus":1.7400000000000013},{"rt":1315,"stimulus":"bees-with-color/bee-A1DF.svg","response":0,"trial_type":"image-button-response","trial_index":69,"time_elapsed":415390,"internal_node_id":"0.0-4.0-0.31","subject_id":"5875778b5c17910001ea4f35","study_id":"60edd13110225f80f9f3709b","session_id":"6196c704b8cec23ee24c47fd","condition":"contingent","relevant_dimensions":["wings","pattern"],"bee_group":{"antennae":"X","wings":"2","pattern":"D","legs":"X"},"action":"harvest","summary":"good-harvest","bonus":1.7400000000000013},{"rt":1121,"stimulus":"\n                    <p><b>Action: <em>harvest</em></b></p>\n                    <p>This is the bee that you just saw.</p>\n                    <img src=\"bees-with-color/bee-A1DF.svg\" width=\"200\">\n                    <p><span class=\"greenText\"><b>Successful harvest!</b></span><br>Your pay has increased by $0.02. Your bonus pay is now $0.78.</p>\n            ","response":0,"trial_type":"html-button-response","trial_index":70,"time_elapsed":416512,"internal_node_id":"0.0-4.0-1.31","subject_id":"5875778b5c17910001ea4f35","study_id":"60edd13110225f80f9f3709b","session_id":"6196c704b8cec23ee24c47fd","condition":"contingent","relevant_dimensions":["wings","pattern"],"bee_group":{"antennae":"X","wings":"2","pattern":"D","legs":"X"},"bonus":1.7400000000000013},{"rt":806,"stimulus":"bees-with-color/bee-B1SM.svg","response":0,"trial_type":"image-button-response","trial_index":71,"time_elapsed":417320,"internal_node_id":"0.0-4.0-0.32","subject_id":"5875778b5c17910001ea4f35","study_id":"60edd13110225f80f9f3709b","session_id":"6196c704b8cec23ee24c47fd","condition":"contingent","relevant_dimensions":["wings","pattern"],"bee_group":{"antennae":"X","wings":"2","pattern":"D","legs":"X"},"action":"harvest","summary":"good-harvest","bonus":1.7400000000000013},{"rt":753.6999999999534,"stimulus":"\n                    <p><b>Action: <em>harvest</em></b></p>\n                    <p>This is the bee that you just saw.</p>\n                    <img src=\"bees-with-color/bee-B1SM.svg\" width=\"200\">\n                    <p><span class=\"greenText\"><b>Successful harvest!</b></span><br>Your pay has increased by $0.02. Your bonus pay is now $0.80.</p>\n            ","response":0,"trial_type":"html-button-response","trial_index":72,"time_elapsed":418076,"internal_node_id":"0.0-4.0-1.32","subject_id":"5875778b5c17910001ea4f35","study_id":"60edd13110225f80f9f3709b","session_id":"6196c704b8cec23ee24c47fd","condition":"contingent","relevant_dimensions":["wings","pattern"],"bee_group":{"antennae":"X","wings":"2","pattern":"D","legs":"X"},"bonus":1.7400000000000013},{"rt":919.7000000001863,"stimulus":"bees-with-color/bee-A1SM.svg","response":0,"trial_type":"image-button-response","trial_index":73,"time_elapsed":418997,"internal_node_id":"0.0-4.0-0.33","subject_id":"5875778b5c17910001ea4f35","study_id":"60edd13110225f80f9f3709b","session_id":"6196c704b8cec23ee24c47fd","condition":"contingent","relevant_dimensions":["wings","pattern"],"bee_group":{"antennae":"X","wings":"2","pattern":"D","legs":"X"},"action":"harvest","summary":"good-harvest","bonus":1.7400000000000013},{"rt":676.1000000000931,"stimulus":"\n                    <p><b>Action: <em>harvest</em></b></p>\n                    <p>This is the bee that you just saw.</p>\n                    <img src=\"bees-with-color/bee-A1SM.svg\" width=\"200\">\n                    <p><span class=\"greenText\"><b>Successful harvest!</b></span><br>Your pay has increased by $0.02. Your bonus pay is now $0.82.</p>\n            ","response":0,"trial_type":"html-button-response","trial_index":74,"time_elapsed":419675,"internal_node_id":"0.0-4.0-1.33","subject_id":"5875778b5c17910001ea4f35","study_id":"60edd13110225f80f9f3709b","session_id":"6196c704b8cec23ee24c47fd","condition":"contingent","relevant_dimensions":["wings","pattern"],"bee_group":{"antennae":"X","wings":"2","pattern":"D","legs":"X"},"bonus":1.7400000000000013},{"rt":822.1000000000931,"stimulus":"bees-with-color/bee-B2SM.svg","response":0,"trial_type":"image-button-response","trial_index":75,"time_elapsed":420499,"internal_node_id":"0.0-4.0-0.34","subject_id":"5875778b5c17910001ea4f35","study_id":"60edd13110225f80f9f3709b","session_id":"6196c704b8cec23ee24c47fd","condition":"contingent","relevant_dimensions":["wings","pattern"],"bee_group":{"antennae":"X","wings":"2","pattern":"D","legs":"X"},"action":"harvest","summary":"good-harvest","bonus":1.7400000000000013},{"rt":758.3000000000466,"stimulus":"\n                    <p><b>Action: <em>harvest</em></b></p>\n                    <p>This is the bee that you just saw.</p>\n                    <img src=\"bees-with-color/bee-B2SM.svg\" width=\"200\">\n                    <p><span class=\"greenText\"><b>Successful harvest!</b></span><br>Your pay has increased by $0.02. Your bonus pay is now $0.84.</p>\n            ","response":0,"trial_type":"html-button-response","trial_index":76,"time_elapsed":421259,"internal_node_id":"0.0-4.0-1.34","subject_id":"5875778b5c17910001ea4f35","study_id":"60edd13110225f80f9f3709b","session_id":"6196c704b8cec23ee24c47fd","condition":"contingent","relevant_dimensions":["wings","pattern"],"bee_group":{"antennae":"X","wings":"2","pattern":"D","legs":"X"},"bonus":1.7400000000000013},{"rt":1088.5,"stimulus":"bees-with-color/bee-B1DM.svg","response":0,"trial_type":"image-button-response","trial_index":77,"time_elapsed":422350,"internal_node_id":"0.0-4.0-0.35","subject_id":"5875778b5c17910001ea4f35","study_id":"60edd13110225f80f9f3709b","session_id":"6196c704b8cec23ee24c47fd","condition":"contingent","relevant_dimensions":["wings","pattern"],"bee_group":{"antennae":"X","wings":"2","pattern":"D","legs":"X"},"action":"harvest","summary":"good-harvest","bonus":1.7400000000000013},{"rt":680.3000000000466,"stimulus":"\n                    <p><b>Action: <em>harvest</em></b></p>\n                    <p>This is the bee that you just saw.</p>\n                    <img src=\"bees-with-color/bee-B1DM.svg\" width=\"200\">\n                    <p><span class=\"greenText\"><b>Successful harvest!</b></span><br>Your pay has increased by $0.02. Your bonus pay is now $0.86.</p>\n            ","response":0,"trial_type":"html-button-response","trial_index":78,"time_elapsed":423032,"internal_node_id":"0.0-4.0-1.35","subject_id":"5875778b5c17910001ea4f35","study_id":"60edd13110225f80f9f3709b","session_id":"6196c704b8cec23ee24c47fd","condition":"contingent","relevant_dimensions":["wings","pattern"],"bee_group":{"antennae":"X","wings":"2","pattern":"D","legs":"X"},"bonus":1.7400000000000013},{"rt":1194.2000000001863,"stimulus":"bees-with-color/bee-A2DM.svg","response":1,"trial_type":"image-button-response","trial_index":79,"time_elapsed":424228,"internal_node_id":"0.0-4.0-0.36","subject_id":"5875778b5c17910001ea4f35","study_id":"60edd13110225f80f9f3709b","session_id":"6196c704b8cec23ee24c47fd","condition":"contingent","relevant_dimensions":["wings","pattern"],"bee_group":{"antennae":"X","wings":"2","pattern":"D","legs":"X"},"action":"avoid","summary":"good-avoid","bonus":1.7400000000000013},{"rt":668.3999999999069,"stimulus":"\n                    <p><b>Action: <em>avoid</em></b></p>\n                    <p>This is the bee that you just saw.</p>\n                    <img src=\"bees-with-color/bee-A2DM.svg\" width=\"200\">\n                    <p><br>Your bonus pay is unchanged, and remains at $0.86.</p>\n            ","response":0,"trial_type":"html-button-response","trial_index":80,"time_elapsed":424898,"internal_node_id":"0.0-4.0-1.36","subject_id":"5875778b5c17910001ea4f35","study_id":"60edd13110225f80f9f3709b","session_id":"6196c704b8cec23ee24c47fd","condition":"contingent","relevant_dimensions":["wings","pattern"],"bee_group":{"antennae":"X","wings":"2","pattern":"D","legs":"X"},"bonus":1.7400000000000013},{"rt":1566.1000000000931,"stimulus":"bees-with-color/bee-B1SF.svg","response":0,"trial_type":"image-button-response","trial_index":81,"time_elapsed":426466,"internal_node_id":"0.0-4.0-0.37","subject_id":"5875778b5c17910001ea4f35","study_id":"60edd13110225f80f9f3709b","session_id":"6196c704b8cec23ee24c47fd","condition":"contingent","relevant_dimensions":["wings","pattern"],"bee_group":{"antennae":"X","wings":"2","pattern":"D","legs":"X"},"action":"harvest","summary":"good-harvest","bonus":1.7400000000000013},{"rt":740.8999999999069,"stimulus":"\n                    <p><b>Action: <em>harvest</em></b></p>\n                    <p>This is the bee that you just saw.</p>\n                    <img src=\"bees-with-color/bee-B1SF.svg\" width=\"200\">\n                    <p><span class=\"greenText\"><b>Successful harvest!</b></span><br>Your pay has increased by $0.02. Your bonus pay is now $0.88.</p>\n            ","response":0,"trial_type":"html-button-response","trial_index":82,"time_elapsed":427209,"internal_node_id":"0.0-4.0-1.37","subject_id":"5875778b5c17910001ea4f35","study_id":"60edd13110225f80f9f3709b","session_id":"6196c704b8cec23ee24c47fd","condition":"contingent","relevant_dimensions":["wings","pattern"],"bee_group":{"antennae":"X","wings":"2","pattern":"D","legs":"X"},"bonus":1.7400000000000013},{"rt":717,"stimulus":"bees-with-color/bee-B2SF.svg","response":0,"trial_type":"image-button-response","trial_index":83,"time_elapsed":427928,"internal_node_id":"0.0-4.0-0.38","subject_id":"5875778b5c17910001ea4f35","study_id":"60edd13110225f80f9f3709b","session_id":"6196c704b8cec23ee24c47fd","condition":"contingent","relevant_dimensions":["wings","pattern"],"bee_group":{"antennae":"X","wings":"2","pattern":"D","legs":"X"},"action":"harvest","summary":"good-harvest","bonus":1.7400000000000013},{"rt":676.3000000000466,"stimulus":"\n                    <p><b>Action: <em>harvest</em></b></p>\n                    <p>This is the bee that you just saw.</p>\n                    <img src=\"bees-with-color/bee-B2SF.svg\" width=\"200\">\n                    <p><span class=\"greenText\"><b>Successful harvest!</b></span><br>Your pay has increased by $0.02. Your bonus pay is now $0.90.</p>\n            ","response":0,"trial_type":"html-button-response","trial_index":84,"time_elapsed":428606,"internal_node_id":"0.0-4.0-1.38","subject_id":"5875778b5c17910001ea4f35","study_id":"60edd13110225f80f9f3709b","session_id":"6196c704b8cec23ee24c47fd","condition":"contingent","relevant_dimensions":["wings","pattern"],"bee_group":{"antennae":"X","wings":"2","pattern":"D","legs":"X"},"bonus":1.7400000000000013},{"rt":1193.8000000000466,"stimulus":"bees-with-color/bee-B2DM.svg","response":1,"trial_type":"image-button-response","trial_index":85,"time_elapsed":429802,"internal_node_id":"0.0-4.0-0.39","subject_id":"5875778b5c17910001ea4f35","study_id":"60edd13110225f80f9f3709b","session_id":"6196c704b8cec23ee24c47fd","condition":"contingent","relevant_dimensions":["wings","pattern"],"bee_group":{"antennae":"X","wings":"2","pattern":"D","legs":"X"},"action":"avoid","summary":"good-avoid","bonus":1.7400000000000013},{"rt":676.7000000001863,"stimulus":"\n                    <p><b>Action: <em>avoid</em></b></p>\n                    <p>This is the bee that you just saw.</p>\n                    <img src=\"bees-with-color/bee-B2DM.svg\" width=\"200\">\n                    <p><br>Your bonus pay is unchanged, and remains at $0.90.</p>\n            ","response":0,"trial_type":"html-button-response","trial_index":86,"time_elapsed":430481,"internal_node_id":"0.0-4.0-1.39","subject_id":"5875778b5c17910001ea4f35","study_id":"60edd13110225f80f9f3709b","session_id":"6196c704b8cec23ee24c47fd","condition":"contingent","relevant_dimensions":["wings","pattern"],"bee_group":{"antennae":"X","wings":"2","pattern":"D","legs":"X"},"bonus":1.7400000000000013},{"rt":587.5,"stimulus":"bees-with-color/bee-A2SM.svg","response":0,"trial_type":"image-button-response","trial_index":87,"time_elapsed":431070,"internal_node_id":"0.0-4.0-0.40","subject_id":"5875778b5c17910001ea4f35","study_id":"60edd13110225f80f9f3709b","session_id":"6196c704b8cec23ee24c47fd","condition":"contingent","relevant_dimensions":["wings","pattern"],"bee_group":{"antennae":"X","wings":"2","pattern":"D","legs":"X"},"action":"harvest","summary":"good-harvest","bonus":1.7400000000000013},{"rt":717.1999999999534,"stimulus":"\n                    <p><b>Action: <em>harvest</em></b></p>\n                    <p>This is the bee that you just saw.</p>\n                    <img src=\"bees-with-color/bee-A2SM.svg\" width=\"200\">\n                    <p><span class=\"greenText\"><b>Successful harvest!</b></span><br>Your pay has increased by $0.02. Your bonus pay is now $0.92.</p>\n            ","response":0,"trial_type":"html-button-response","trial_index":88,"time_elapsed":431790,"internal_node_id":"0.0-4.0-1.40","subject_id":"5875778b5c17910001ea4f35","study_id":"60edd13110225f80f9f3709b","session_id":"6196c704b8cec23ee24c47fd","condition":"contingent","relevant_dimensions":["wings","pattern"],"bee_group":{"antennae":"X","wings":"2","pattern":"D","legs":"X"},"bonus":1.7400000000000013},{"rt":1217.3000000000466,"stimulus":"bees-with-color/bee-A2DF.svg","response":1,"trial_type":"image-button-response","trial_index":89,"time_elapsed":433009,"internal_node_id":"0.0-4.0-0.41","subject_id":"5875778b5c17910001ea4f35","study_id":"60edd13110225f80f9f3709b","session_id":"6196c704b8cec23ee24c47fd","condition":"contingent","relevant_dimensions":["wings","pattern"],"bee_group":{"antennae":"X","wings":"2","pattern":"D","legs":"X"},"action":"avoid","summary":"good-avoid","bonus":1.7400000000000013},{"rt":733,"stimulus":"\n                    <p><b>Action: <em>avoid</em></b></p>\n                    <p>This is the bee that you just saw.</p>\n                    <img src=\"bees-with-color/bee-A2DF.svg\" width=\"200\">\n                    <p><br>Your bonus pay is unchanged, and remains at $0.92.</p>\n            ","response":0,"trial_type":"html-button-response","trial_index":90,"time_elapsed":433744,"internal_node_id":"0.0-4.0-1.41","subject_id":"5875778b5c17910001ea4f35","study_id":"60edd13110225f80f9f3709b","session_id":"6196c704b8cec23ee24c47fd","condition":"contingent","relevant_dimensions":["wings","pattern"],"bee_group":{"antennae":"X","wings":"2","pattern":"D","legs":"X"},"bonus":1.7400000000000013},{"rt":660.3999999999069,"stimulus":"bees-with-color/bee-A1SF.svg","response":0,"trial_type":"image-button-response","trial_index":91,"time_elapsed":434407,"internal_node_id":"0.0-4.0-0.42","subject_id":"5875778b5c17910001ea4f35","study_id":"60edd13110225f80f9f3709b","session_id":"6196c704b8cec23ee24c47fd","condition":"contingent","relevant_dimensions":["wings","pattern"],"bee_group":{"antennae":"X","wings":"2","pattern":"D","legs":"X"},"action":"harvest","summary":"good-harvest","bonus":1.7400000000000013},{"rt":684.6999999999534,"stimulus":"\n                    <p><b>Action: <em>harvest</em></b></p>\n                    <p>This is the bee that you just saw.</p>\n                    <img src=\"bees-with-color/bee-A1SF.svg\" width=\"200\">\n                    <p><span class=\"greenText\"><b>Successful harvest!</b></span><br>Your pay has increased by $0.02. Your bonus pay is now $0.94.</p>\n            ","response":0,"trial_type":"html-button-response","trial_index":92,"time_elapsed":435094,"internal_node_id":"0.0-4.0-1.42","subject_id":"5875778b5c17910001ea4f35","study_id":"60edd13110225f80f9f3709b","session_id":"6196c704b8cec23ee24c47fd","condition":"contingent","relevant_dimensions":["wings","pattern"],"bee_group":{"antennae":"X","wings":"2","pattern":"D","legs":"X"},"bonus":1.7400000000000013},{"rt":1145,"stimulus":"bees-with-color/bee-B2DF.svg","response":1,"trial_type":"image-button-response","trial_index":93,"time_elapsed":436241,"internal_node_id":"0.0-4.0-0.43","subject_id":"5875778b5c17910001ea4f35","study_id":"60edd13110225f80f9f3709b","session_id":"6196c704b8cec23ee24c47fd","condition":"contingent","relevant_dimensions":["wings","pattern"],"bee_group":{"antennae":"X","wings":"2","pattern":"D","legs":"X"},"action":"avoid","summary":"good-avoid","bonus":1.7400000000000013},{"rt":717,"stimulus":"\n                    <p><b>Action: <em>avoid</em></b></p>\n                    <p>This is the bee that you just saw.</p>\n                    <img src=\"bees-with-color/bee-B2DF.svg\" width=\"200\">\n                    <p><br>Your bonus pay is unchanged, and remains at $0.94.</p>\n            ","response":0,"trial_type":"html-button-response","trial_index":94,"time_elapsed":436960,"internal_node_id":"0.0-4.0-1.43","subject_id":"5875778b5c17910001ea4f35","study_id":"60edd13110225f80f9f3709b","session_id":"6196c704b8cec23ee24c47fd","condition":"contingent","relevant_dimensions":["wings","pattern"],"bee_group":{"antennae":"X","wings":"2","pattern":"D","legs":"X"},"bonus":1.7400000000000013},{"rt":1153.5,"stimulus":"bees-with-color/bee-A1DM.svg","response":0,"trial_type":"image-button-response","trial_index":95,"time_elapsed":438115,"internal_node_id":"0.0-4.0-0.44","subject_id":"5875778b5c17910001ea4f35","study_id":"60edd13110225f80f9f3709b","session_id":"6196c704b8cec23ee24c47fd","condition":"contingent","relevant_dimensions":["wings","pattern"],"bee_group":{"antennae":"X","wings":"2","pattern":"D","legs":"X"},"action":"harvest","summary":"good-harvest","bonus":1.7400000000000013},{"rt":1031.1999999999534,"stimulus":"\n                    <p><b>Action: <em>harvest</em></b></p>\n                    <p>This is the bee that you just saw.</p>\n                    <img src=\"bees-with-color/bee-A1DM.svg\" width=\"200\">\n                    <p><span class=\"greenText\"><b>Successful harvest!</b></span><br>Your pay has increased by $0.02. Your bonus pay is now $0.96.</p>\n            ","response":0,"trial_type":"html-button-response","trial_index":96,"time_elapsed":439149,"internal_node_id":"0.0-4.0-1.44","subject_id":"5875778b5c17910001ea4f35","study_id":"60edd13110225f80f9f3709b","session_id":"6196c704b8cec23ee24c47fd","condition":"contingent","relevant_dimensions":["wings","pattern"],"bee_group":{"antennae":"X","wings":"2","pattern":"D","legs":"X"},"bonus":1.7400000000000013},{"rt":1258.3000000000466,"stimulus":"bees-with-color/bee-A1DF.svg","response":0,"trial_type":"image-button-response","trial_index":97,"time_elapsed":440410,"internal_node_id":"0.0-4.0-0.45","subject_id":"5875778b5c17910001ea4f35","study_id":"60edd13110225f80f9f3709b","session_id":"6196c704b8cec23ee24c47fd","condition":"contingent","relevant_dimensions":["wings","pattern"],"bee_group":{"antennae":"X","wings":"2","pattern":"D","legs":"X"},"action":"harvest","summary":"good-harvest","bonus":1.7400000000000013},{"rt":692.6999999999534,"stimulus":"\n                    <p><b>Action: <em>harvest</em></b></p>\n                    <p>This is the bee that you just saw.</p>\n                    <img src=\"bees-with-color/bee-A1DF.svg\" width=\"200\">\n                    <p><span class=\"greenText\"><b>Successful harvest!</b></span><br>Your pay has increased by $0.02. Your bonus pay is now $0.98.</p>\n            ","response":0,"trial_type":"html-button-response","trial_index":98,"time_elapsed":441105,"internal_node_id":"0.0-4.0-1.45","subject_id":"5875778b5c17910001ea4f35","study_id":"60edd13110225f80f9f3709b","session_id":"6196c704b8cec23ee24c47fd","condition":"contingent","relevant_dimensions":["wings","pattern"],"bee_group":{"antennae":"X","wings":"2","pattern":"D","legs":"X"},"bonus":1.7400000000000013},{"rt":1229.8000000000466,"stimulus":"bees-with-color/bee-B1DF.svg","response":0,"trial_type":"image-button-response","trial_index":99,"time_elapsed":442337,"internal_node_id":"0.0-4.0-0.46","subject_id":"5875778b5c17910001ea4f35","study_id":"60edd13110225f80f9f3709b","session_id":"6196c704b8cec23ee24c47fd","condition":"contingent","relevant_dimensions":["wings","pattern"],"bee_group":{"antennae":"X","wings":"2","pattern":"D","legs":"X"},"action":"harvest","summary":"good-harvest","bonus":1.7400000000000013},{"rt":595.2000000001863,"stimulus":"\n                    <p><b>Action: <em>harvest</em></b></p>\n                    <p>This is the bee that you just saw.</p>\n                    <img src=\"bees-with-color/bee-B1DF.svg\" width=\"200\">\n                    <p><span class=\"greenText\"><b>Successful harvest!</b></span><br>Your pay has increased by $0.02. Your bonus pay is now $1.00.</p>\n            ","response":0,"trial_type":"html-button-response","trial_index":100,"time_elapsed":442934,"internal_node_id":"0.0-4.0-1.46","subject_id":"5875778b5c17910001ea4f35","study_id":"60edd13110225f80f9f3709b","session_id":"6196c704b8cec23ee24c47fd","condition":"contingent","relevant_dimensions":["wings","pattern"],"bee_group":{"antennae":"X","wings":"2","pattern":"D","legs":"X"},"bonus":1.7400000000000013},{"rt":967.4000000001397,"stimulus":"bees-with-color/bee-A2SF.svg","response":0,"trial_type":"image-button-response","trial_index":101,"time_elapsed":443903,"internal_node_id":"0.0-4.0-0.47","subject_id":"5875778b5c17910001ea4f35","study_id":"60edd13110225f80f9f3709b","session_id":"6196c704b8cec23ee24c47fd","condition":"contingent","relevant_dimensions":["wings","pattern"],"bee_group":{"antennae":"X","wings":"2","pattern":"D","legs":"X"},"action":"harvest","summary":"good-harvest","bonus":1.7400000000000013},{"rt":669.1000000000931,"stimulus":"\n                    <p><b>Action: <em>harvest</em></b></p>\n                    <p>This is the bee that you just saw.</p>\n                    <img src=\"bees-with-color/bee-A2SF.svg\" width=\"200\">\n                    <p><span class=\"greenText\"><b>Successful harvest!</b></span><br>Your pay has increased by $0.02. Your bonus pay is now $1.02.</p>\n            ","response":0,"trial_type":"html-button-response","trial_index":102,"time_elapsed":444574,"internal_node_id":"0.0-4.0-1.47","subject_id":"5875778b5c17910001ea4f35","study_id":"60edd13110225f80f9f3709b","session_id":"6196c704b8cec23ee24c47fd","condition":"contingent","relevant_dimensions":["wings","pattern"],"bee_group":{"antennae":"X","wings":"2","pattern":"D","legs":"X"},"bonus":1.7400000000000013},{"rt":1089.1999999999534,"stimulus":"bees-with-color/bee-B2DF.svg","response":1,"trial_type":"image-button-response","trial_index":103,"time_elapsed":445665,"internal_node_id":"0.0-4.0-0.48","subject_id":"5875778b5c17910001ea4f35","study_id":"60edd13110225f80f9f3709b","session_id":"6196c704b8cec23ee24c47fd","condition":"contingent","relevant_dimensions":["wings","pattern"],"bee_group":{"antennae":"X","wings":"2","pattern":"D","legs":"X"},"action":"avoid","summary":"good-avoid","bonus":1.7400000000000013},{"rt":741.8999999999069,"stimulus":"\n                    <p><b>Action: <em>avoid</em></b></p>\n                    <p>This is the bee that you just saw.</p>\n                    <img src=\"bees-with-color/bee-B2DF.svg\" width=\"200\">\n                    <p><br>Your bonus pay is unchanged, and remains at $1.02.</p>\n            ","response":0,"trial_type":"html-button-response","trial_index":104,"time_elapsed":446408,"internal_node_id":"0.0-4.0-1.48","subject_id":"5875778b5c17910001ea4f35","study_id":"60edd13110225f80f9f3709b","session_id":"6196c704b8cec23ee24c47fd","condition":"contingent","relevant_dimensions":["wings","pattern"],"bee_group":{"antennae":"X","wings":"2","pattern":"D","legs":"X"},"bonus":1.7400000000000013},{"rt":741.2000000001863,"stimulus":"bees-with-color/bee-B2SM.svg","response":0,"trial_type":"image-button-response","trial_index":105,"time_elapsed":447151,"internal_node_id":"0.0-4.0-0.49","subject_id":"5875778b5c17910001ea4f35","study_id":"60edd13110225f80f9f3709b","session_id":"6196c704b8cec23ee24c47fd","condition":"contingent","relevant_dimensions":["wings","pattern"],"bee_group":{"antennae":"X","wings":"2","pattern":"D","legs":"X"},"action":"harvest","summary":"good-harvest","bonus":1.7400000000000013},{"rt":1513.0999999998603,"stimulus":"\n                    <p><b>Action: <em>harvest</em></b></p>\n                    <p>This is the bee that you just saw.</p>\n                    <img src=\"bees-with-color/bee-B2SM.svg\" width=\"200\">\n                    <p><span class=\"greenText\"><b>Successful harvest!</b></span><br>Your pay has increased by $0.02. Your bonus pay is now $1.04.</p>\n            ","response":0,"trial_type":"html-button-response","trial_index":106,"time_elapsed":448666,"internal_node_id":"0.0-4.0-1.49","subject_id":"5875778b5c17910001ea4f35","study_id":"60edd13110225f80f9f3709b","session_id":"6196c704b8cec23ee24c47fd","condition":"contingent","relevant_dimensions":["wings","pattern"],"bee_group":{"antennae":"X","wings":"2","pattern":"D","legs":"X"},"bonus":1.7400000000000013},{"rt":798.5,"stimulus":"bees-with-color/bee-B1SM.svg","response":0,"trial_type":"image-button-response","trial_index":107,"time_elapsed":449466,"internal_node_id":"0.0-4.0-0.50","subject_id":"5875778b5c17910001ea4f35","study_id":"60edd13110225f80f9f3709b","session_id":"6196c704b8cec23ee24c47fd","condition":"contingent","relevant_dimensions":["wings","pattern"],"bee_group":{"antennae":"X","wings":"2","pattern":"D","legs":"X"},"action":"harvest","summary":"good-harvest","bonus":1.7400000000000013},{"rt":1242.3000000000466,"stimulus":"\n                    <p><b>Action: <em>harvest</em></b></p>\n                    <p>This is the bee that you just saw.</p>\n                    <img src=\"bees-with-color/bee-B1SM.svg\" width=\"200\">\n                    <p><span class=\"greenText\"><b>Successful harvest!</b></span><br>Your pay has increased by $0.02. Your bonus pay is now $1.06.</p>\n            ","response":0,"trial_type":"html-button-response","trial_index":108,"time_elapsed":450710,"internal_node_id":"0.0-4.0-1.50","subject_id":"5875778b5c17910001ea4f35","study_id":"60edd13110225f80f9f3709b","session_id":"6196c704b8cec23ee24c47fd","condition":"contingent","relevant_dimensions":["wings","pattern"],"bee_group":{"antennae":"X","wings":"2","pattern":"D","legs":"X"},"bonus":1.7400000000000013},{"rt":1355.4000000001397,"stimulus":"bees-with-color/bee-A2SM.svg","response":0,"trial_type":"image-button-response","trial_index":109,"time_elapsed":452067,"internal_node_id":"0.0-4.0-0.51","subject_id":"5875778b5c17910001ea4f35","study_id":"60edd13110225f80f9f3709b","session_id":"6196c704b8cec23ee24c47fd","condition":"contingent","relevant_dimensions":["wings","pattern"],"bee_group":{"antennae":"X","wings":"2","pattern":"D","legs":"X"},"action":"harvest","summary":"good-harvest","bonus":1.7400000000000013},{"rt":1121.5,"stimulus":"\n                    <p><b>Action: <em>harvest</em></b></p>\n                    <p>This is the bee that you just saw.</p>\n                    <img src=\"bees-with-color/bee-A2SM.svg\" width=\"200\">\n                    <p><span class=\"greenText\"><b>Successful harvest!</b></span><br>Your pay has increased by $0.02. Your bonus pay is now $1.08.</p>\n            ","response":0,"trial_type":"html-button-response","trial_index":110,"time_elapsed":453190,"internal_node_id":"0.0-4.0-1.51","subject_id":"5875778b5c17910001ea4f35","study_id":"60edd13110225f80f9f3709b","session_id":"6196c704b8cec23ee24c47fd","condition":"contingent","relevant_dimensions":["wings","pattern"],"bee_group":{"antennae":"X","wings":"2","pattern":"D","legs":"X"},"bonus":1.7400000000000013},{"rt":692.9000000001397,"stimulus":"bees-with-color/bee-B2SF.svg","response":0,"trial_type":"image-button-response","trial_index":111,"time_elapsed":453885,"internal_node_id":"0.0-4.0-0.52","subject_id":"5875778b5c17910001ea4f35","study_id":"60edd13110225f80f9f3709b","session_id":"6196c704b8cec23ee24c47fd","condition":"contingent","relevant_dimensions":["wings","pattern"],"bee_group":{"antennae":"X","wings":"2","pattern":"D","legs":"X"},"action":"harvest","summary":"good-harvest","bonus":1.7400000000000013},{"rt":716.8999999999069,"stimulus":"\n                    <p><b>Action: <em>harvest</em></b></p>\n                    <p>This is the bee that you just saw.</p>\n                    <img src=\"bees-with-color/bee-B2SF.svg\" width=\"200\">\n                    <p><span class=\"greenText\"><b>Successful harvest!</b></span><br>Your pay has increased by $0.02. Your bonus pay is now $1.10.</p>\n            ","response":0,"trial_type":"html-button-response","trial_index":112,"time_elapsed":454604,"internal_node_id":"0.0-4.0-1.52","subject_id":"5875778b5c17910001ea4f35","study_id":"60edd13110225f80f9f3709b","session_id":"6196c704b8cec23ee24c47fd","condition":"contingent","relevant_dimensions":["wings","pattern"],"bee_group":{"antennae":"X","wings":"2","pattern":"D","legs":"X"},"bonus":1.7400000000000013},{"rt":737.8999999999069,"stimulus":"bees-with-color/bee-B1SF.svg","response":0,"trial_type":"image-button-response","trial_index":113,"time_elapsed":455344,"internal_node_id":"0.0-4.0-0.53","subject_id":"5875778b5c17910001ea4f35","study_id":"60edd13110225f80f9f3709b","session_id":"6196c704b8cec23ee24c47fd","condition":"contingent","relevant_dimensions":["wings","pattern"],"bee_group":{"antennae":"X","wings":"2","pattern":"D","legs":"X"},"action":"harvest","summary":"good-harvest","bonus":1.7400000000000013},{"rt":1161.1999999999534,"stimulus":"\n                    <p><b>Action: <em>harvest</em></b></p>\n                    <p>This is the bee that you just saw.</p>\n                    <img src=\"bees-with-color/bee-B1SF.svg\" width=\"200\">\n                    <p><span class=\"greenText\"><b>Successful harvest!</b></span><br>Your pay has increased by $0.02. Your bonus pay is now $1.12.</p>\n            ","response":0,"trial_type":"html-button-response","trial_index":114,"time_elapsed":456507,"internal_node_id":"0.0-4.0-1.53","subject_id":"5875778b5c17910001ea4f35","study_id":"60edd13110225f80f9f3709b","session_id":"6196c704b8cec23ee24c47fd","condition":"contingent","relevant_dimensions":["wings","pattern"],"bee_group":{"antennae":"X","wings":"2","pattern":"D","legs":"X"},"bonus":1.7400000000000013},{"rt":992,"stimulus":"bees-with-color/bee-B2DM.svg","response":1,"trial_type":"image-button-response","trial_index":115,"time_elapsed":457501,"internal_node_id":"0.0-4.0-0.54","subject_id":"5875778b5c17910001ea4f35","study_id":"60edd13110225f80f9f3709b","session_id":"6196c704b8cec23ee24c47fd","condition":"contingent","relevant_dimensions":["wings","pattern"],"bee_group":{"antennae":"X","wings":"2","pattern":"D","legs":"X"},"action":"avoid","summary":"good-avoid","bonus":1.7400000000000013},{"rt":652.6000000000931,"stimulus":"\n                    <p><b>Action: <em>avoid</em></b></p>\n                    <p>This is the bee that you just saw.</p>\n                    <img src=\"bees-with-color/bee-B2DM.svg\" width=\"200\">\n                    <p><br>Your bonus pay is unchanged, and remains at $1.12.</p>\n            ","response":0,"trial_type":"html-button-response","trial_index":116,"time_elapsed":458155,"internal_node_id":"0.0-4.0-1.54","subject_id":"5875778b5c17910001ea4f35","study_id":"60edd13110225f80f9f3709b","session_id":"6196c704b8cec23ee24c47fd","condition":"contingent","relevant_dimensions":["wings","pattern"],"bee_group":{"antennae":"X","wings":"2","pattern":"D","legs":"X"},"bonus":1.7400000000000013},{"rt":1064.6999999999534,"stimulus":"bees-with-color/bee-B1DM.svg","response":0,"trial_type":"image-button-response","trial_index":117,"time_elapsed":459222,"internal_node_id":"0.0-4.0-0.55","subject_id":"5875778b5c17910001ea4f35","study_id":"60edd13110225f80f9f3709b","session_id":"6196c704b8cec23ee24c47fd","condition":"contingent","relevant_dimensions":["wings","pattern"],"bee_group":{"antennae":"X","wings":"2","pattern":"D","legs":"X"},"action":"harvest","summary":"good-harvest","bonus":1.7400000000000013},{"rt":729,"stimulus":"\n                    <p><b>Action: <em>harvest</em></b></p>\n                    <p>This is the bee that you just saw.</p>\n                    <img src=\"bees-with-color/bee-B1DM.svg\" width=\"200\">\n                    <p><span class=\"greenText\"><b>Successful harvest!</b></span><br>Your pay has increased by $0.02. Your bonus pay is now $1.14.</p>\n            ","response":0,"trial_type":"html-button-response","trial_index":118,"time_elapsed":459953,"internal_node_id":"0.0-4.0-1.55","subject_id":"5875778b5c17910001ea4f35","study_id":"60edd13110225f80f9f3709b","session_id":"6196c704b8cec23ee24c47fd","condition":"contingent","relevant_dimensions":["wings","pattern"],"bee_group":{"antennae":"X","wings":"2","pattern":"D","legs":"X"},"bonus":1.7400000000000013},{"rt":911.8999999999069,"stimulus":"bees-with-color/bee-B1DF.svg","response":0,"trial_type":"image-button-response","trial_index":119,"time_elapsed":460866,"internal_node_id":"0.0-4.0-0.56","subject_id":"5875778b5c17910001ea4f35","study_id":"60edd13110225f80f9f3709b","session_id":"6196c704b8cec23ee24c47fd","condition":"contingent","relevant_dimensions":["wings","pattern"],"bee_group":{"antennae":"X","wings":"2","pattern":"D","legs":"X"},"action":"harvest","summary":"good-harvest","bonus":1.7400000000000013},{"rt":691.8000000000466,"stimulus":"\n                    <p><b>Action: <em>harvest</em></b></p>\n                    <p>This is the bee that you just saw.</p>\n                    <img src=\"bees-with-color/bee-B1DF.svg\" width=\"200\">\n                    <p><span class=\"greenText\"><b>Successful harvest!</b></span><br>Your pay has increased by $0.02. Your bonus pay is now $1.16.</p>\n            ","response":0,"trial_type":"html-button-response","trial_index":120,"time_elapsed":461560,"internal_node_id":"0.0-4.0-1.56","subject_id":"5875778b5c17910001ea4f35","study_id":"60edd13110225f80f9f3709b","session_id":"6196c704b8cec23ee24c47fd","condition":"contingent","relevant_dimensions":["wings","pattern"],"bee_group":{"antennae":"X","wings":"2","pattern":"D","legs":"X"},"bonus":1.7400000000000013},{"rt":1080.8000000000466,"stimulus":"bees-with-color/bee-A2DF.svg","response":1,"trial_type":"image-button-response","trial_index":121,"time_elapsed":462643,"internal_node_id":"0.0-4.0-0.57","subject_id":"5875778b5c17910001ea4f35","study_id":"60edd13110225f80f9f3709b","session_id":"6196c704b8cec23ee24c47fd","condition":"contingent","relevant_dimensions":["wings","pattern"],"bee_group":{"antennae":"X","wings":"2","pattern":"D","legs":"X"},"action":"avoid","summary":"good-avoid","bonus":1.7400000000000013},{"rt":708.5999999998603,"stimulus":"\n                    <p><b>Action: <em>avoid</em></b></p>\n                    <p>This is the bee that you just saw.</p>\n                    <img src=\"bees-with-color/bee-A2DF.svg\" width=\"200\">\n                    <p><br>Your bonus pay is unchanged, and remains at $1.16.</p>\n            ","response":0,"trial_type":"html-button-response","trial_index":122,"time_elapsed":463354,"internal_node_id":"0.0-4.0-1.57","subject_id":"5875778b5c17910001ea4f35","study_id":"60edd13110225f80f9f3709b","session_id":"6196c704b8cec23ee24c47fd","condition":"contingent","relevant_dimensions":["wings","pattern"],"bee_group":{"antennae":"X","wings":"2","pattern":"D","legs":"X"},"bonus":1.7400000000000013},{"rt":939.5999999998603,"stimulus":"bees-with-color/bee-A1DF.svg","response":0,"trial_type":"image-button-response","trial_index":123,"time_elapsed":464295,"internal_node_id":"0.0-4.0-0.58","subject_id":"5875778b5c17910001ea4f35","study_id":"60edd13110225f80f9f3709b","session_id":"6196c704b8cec23ee24c47fd","condition":"contingent","relevant_dimensions":["wings","pattern"],"bee_group":{"antennae":"X","wings":"2","pattern":"D","legs":"X"},"action":"harvest","summary":"good-harvest","bonus":1.7400000000000013},{"rt":692.5,"stimulus":"\n                    <p><b>Action: <em>harvest</em></b></p>\n                    <p>This is the bee that you just saw.</p>\n                    <img src=\"bees-with-color/bee-A1DF.svg\" width=\"200\">\n                    <p><span class=\"greenText\"><b>Successful harvest!</b></span><br>Your pay has increased by $0.02. Your bonus pay is now $1.18.</p>\n            ","response":0,"trial_type":"html-button-response","trial_index":124,"time_elapsed":464990,"internal_node_id":"0.0-4.0-1.58","subject_id":"5875778b5c17910001ea4f35","study_id":"60edd13110225f80f9f3709b","session_id":"6196c704b8cec23ee24c47fd","condition":"contingent","relevant_dimensions":["wings","pattern"],"bee_group":{"antennae":"X","wings":"2","pattern":"D","legs":"X"},"bonus":1.7400000000000013},{"rt":1371.5,"stimulus":"bees-with-color/bee-A1DM.svg","response":0,"trial_type":"image-button-response","trial_index":125,"time_elapsed":466363,"internal_node_id":"0.0-4.0-0.59","subject_id":"5875778b5c17910001ea4f35","study_id":"60edd13110225f80f9f3709b","session_id":"6196c704b8cec23ee24c47fd","condition":"contingent","relevant_dimensions":["wings","pattern"],"bee_group":{"antennae":"X","wings":"2","pattern":"D","legs":"X"},"action":"harvest","summary":"good-harvest","bonus":1.7400000000000013},{"rt":692.7000000001863,"stimulus":"\n                    <p><b>Action: <em>harvest</em></b></p>\n                    <p>This is the bee that you just saw.</p>\n                    <img src=\"bees-with-color/bee-A1DM.svg\" width=\"200\">\n                    <p><span class=\"greenText\"><b>Successful harvest!</b></span><br>Your pay has increased by $0.02. Your bonus pay is now $1.20.</p>\n            ","response":0,"trial_type":"html-button-response","trial_index":126,"time_elapsed":467058,"internal_node_id":"0.0-4.0-1.59","subject_id":"5875778b5c17910001ea4f35","study_id":"60edd13110225f80f9f3709b","session_id":"6196c704b8cec23ee24c47fd","condition":"contingent","relevant_dimensions":["wings","pattern"],"bee_group":{"antennae":"X","wings":"2","pattern":"D","legs":"X"},"bonus":1.7400000000000013},{"rt":1121.1999999999534,"stimulus":"bees-with-color/bee-A2SF.svg","response":0,"trial_type":"image-button-response","trial_index":127,"time_elapsed":468181,"internal_node_id":"0.0-4.0-0.60","subject_id":"5875778b5c17910001ea4f35","study_id":"60edd13110225f80f9f3709b","session_id":"6196c704b8cec23ee24c47fd","condition":"contingent","relevant_dimensions":["wings","pattern"],"bee_group":{"antennae":"X","wings":"2","pattern":"D","legs":"X"},"action":"harvest","summary":"good-harvest","bonus":1.7400000000000013},{"rt":1056.5999999998603,"stimulus":"\n                    <p><b>Action: <em>harvest</em></b></p>\n                    <p>This is the bee that you just saw.</p>\n                    <img src=\"bees-with-color/bee-A2SF.svg\" width=\"200\">\n                    <p><span class=\"greenText\"><b>Successful harvest!</b></span><br>Your pay has increased by $0.02. Your bonus pay is now $1.22.</p>\n            ","response":0,"trial_type":"html-button-response","trial_index":128,"time_elapsed":469240,"internal_node_id":"0.0-4.0-1.60","subject_id":"5875778b5c17910001ea4f35","study_id":"60edd13110225f80f9f3709b","session_id":"6196c704b8cec23ee24c47fd","condition":"contingent","relevant_dimensions":["wings","pattern"],"bee_group":{"antennae":"X","wings":"2","pattern":"D","legs":"X"},"bonus":1.7400000000000013},{"rt":1738.3000000000466,"stimulus":"bees-with-color/bee-A2DM.svg","response":1,"trial_type":"image-button-response","trial_index":129,"time_elapsed":470980,"internal_node_id":"0.0-4.0-0.61","subject_id":"5875778b5c17910001ea4f35","study_id":"60edd13110225f80f9f3709b","session_id":"6196c704b8cec23ee24c47fd","condition":"contingent","relevant_dimensions":["wings","pattern"],"bee_group":{"antennae":"X","wings":"2","pattern":"D","legs":"X"},"action":"avoid","summary":"good-avoid","bonus":1.7400000000000013},{"rt":1258.5999999998603,"stimulus":"\n                    <p><b>Action: <em>avoid</em></b></p>\n                    <p>This is the bee that you just saw.</p>\n                    <img src=\"bees-with-color/bee-A2DM.svg\" width=\"200\">\n                    <p><br>Your bonus pay is unchanged, and remains at $1.22.</p>\n            ","response":0,"trial_type":"html-button-response","trial_index":130,"time_elapsed":472241,"internal_node_id":"0.0-4.0-1.61","subject_id":"5875778b5c17910001ea4f35","study_id":"60edd13110225f80f9f3709b","session_id":"6196c704b8cec23ee24c47fd","condition":"contingent","relevant_dimensions":["wings","pattern"],"bee_group":{"antennae":"X","wings":"2","pattern":"D","legs":"X"},"bonus":1.7400000000000013},{"rt":1128.8000000000466,"stimulus":"bees-with-color/bee-A1SM.svg","response":0,"trial_type":"image-button-response","trial_index":131,"time_elapsed":473372,"internal_node_id":"0.0-4.0-0.62","subject_id":"5875778b5c17910001ea4f35","study_id":"60edd13110225f80f9f3709b","session_id":"6196c704b8cec23ee24c47fd","condition":"contingent","relevant_dimensions":["wings","pattern"],"bee_group":{"antennae":"X","wings":"2","pattern":"D","legs":"X"},"action":"harvest","summary":"good-harvest","bonus":1.7400000000000013},{"rt":1079.6000000000931,"stimulus":"\n                    <p><b>Action: <em>harvest</em></b></p>\n                    <p>This is the bee that you just saw.</p>\n                    <img src=\"bees-with-color/bee-A1SM.svg\" width=\"200\">\n                    <p><span class=\"greenText\"><b>Successful harvest!</b></span><br>Your pay has increased by $0.02. Your bonus pay is now $1.24.</p>\n            ","response":0,"trial_type":"html-button-response","trial_index":132,"time_elapsed":474453,"internal_node_id":"0.0-4.0-1.62","subject_id":"5875778b5c17910001ea4f35","study_id":"60edd13110225f80f9f3709b","session_id":"6196c704b8cec23ee24c47fd","condition":"contingent","relevant_dimensions":["wings","pattern"],"bee_group":{"antennae":"X","wings":"2","pattern":"D","legs":"X"},"bonus":1.7400000000000013},{"rt":871.8000000000466,"stimulus":"bees-with-color/bee-A1SF.svg","response":0,"trial_type":"image-button-response","trial_index":133,"time_elapsed":475327,"internal_node_id":"0.0-4.0-0.63","subject_id":"5875778b5c17910001ea4f35","study_id":"60edd13110225f80f9f3709b","session_id":"6196c704b8cec23ee24c47fd","condition":"contingent","relevant_dimensions":["wings","pattern"],"bee_group":{"antennae":"X","wings":"2","pattern":"D","legs":"X"},"action":"harvest","summary":"good-harvest","bonus":1.7400000000000013},{"rt":805.8000000000466,"stimulus":"\n                    <p><b>Action: <em>harvest</em></b></p>\n                    <p>This is the bee that you just saw.</p>\n                    <img src=\"bees-with-color/bee-A1SF.svg\" width=\"200\">\n                    <p><span class=\"greenText\"><b>Successful harvest!</b></span><br>Your pay has increased by $0.02. Your bonus pay is now $1.26.</p>\n            ","response":0,"trial_type":"html-button-response","trial_index":134,"time_elapsed":476135,"internal_node_id":"0.0-4.0-1.63","subject_id":"5875778b5c17910001ea4f35","study_id":"60edd13110225f80f9f3709b","session_id":"6196c704b8cec23ee24c47fd","condition":"contingent","relevant_dimensions":["wings","pattern"],"bee_group":{"antennae":"X","wings":"2","pattern":"D","legs":"X"},"bonus":1.7400000000000013},{"rt":5441.699999999953,"stimulus":"You have completed the first part of this experiment.<br><br>You will now begin a shorter second part, in which you will receive no feedback.<br>The same rules regarding bonus pay apply.<br><br>Press any key to begin.","response":" ","trial_type":"html-keyboard-response","trial_index":135,"time_elapsed":481578,"internal_node_id":"0.0-5.0","subject_id":"5875778b5c17910001ea4f35","study_id":"60edd13110225f80f9f3709b","session_id":"6196c704b8cec23ee24c47fd","condition":"contingent","relevant_dimensions":["wings","pattern"],"bee_group":{"antennae":"X","wings":"2","pattern":"D","legs":"X"},"bonus":1.7400000000000013},{"rt":3662.2999999998137,"stimulus":"bees-with-color/bee-A1DM.svg","response":0,"trial_type":"image-button-response","trial_index":136,"time_elapsed":485244,"internal_node_id":"0.0-6.0-0.0","subject_id":"5875778b5c17910001ea4f35","study_id":"60edd13110225f80f9f3709b","session_id":"6196c704b8cec23ee24c47fd","condition":"contingent","relevant_dimensions":["wings","pattern"],"bee_group":{"antennae":"X","wings":"2","pattern":"D","legs":"X"},"bonus":1.7400000000000013},{"rt":2582.5999999998603,"stimulus":"bees-with-color/bee-B2SM.svg","response":0,"trial_type":"image-button-response","trial_index":137,"time_elapsed":487828,"internal_node_id":"0.0-6.0-0.1","subject_id":"5875778b5c17910001ea4f35","study_id":"60edd13110225f80f9f3709b","session_id":"6196c704b8cec23ee24c47fd","condition":"contingent","relevant_dimensions":["wings","pattern"],"bee_group":{"antennae":"X","wings":"2","pattern":"D","legs":"X"},"bonus":1.7400000000000013},{"rt":1160.8000000000466,"stimulus":"bees-with-color/bee-B2DF.svg","response":1,"trial_type":"image-button-response","trial_index":138,"time_elapsed":488992,"internal_node_id":"0.0-6.0-0.2","subject_id":"5875778b5c17910001ea4f35","study_id":"60edd13110225f80f9f3709b","session_id":"6196c704b8cec23ee24c47fd","condition":"contingent","relevant_dimensions":["wings","pattern"],"bee_group":{"antennae":"X","wings":"2","pattern":"D","legs":"X"},"bonus":1.7400000000000013},{"rt":1273.9000000001397,"stimulus":"bees-with-color/bee-A1SM.svg","response":0,"trial_type":"image-button-response","trial_index":139,"time_elapsed":490268,"internal_node_id":"0.0-6.0-0.3","subject_id":"5875778b5c17910001ea4f35","study_id":"60edd13110225f80f9f3709b","session_id":"6196c704b8cec23ee24c47fd","condition":"contingent","relevant_dimensions":["wings","pattern"],"bee_group":{"antennae":"X","wings":"2","pattern":"D","legs":"X"},"bonus":1.7400000000000013},{"rt":1641.3000000000466,"stimulus":"bees-with-color/bee-A2DF.svg","response":1,"trial_type":"image-button-response","trial_index":140,"time_elapsed":491912,"internal_node_id":"0.0-6.0-0.4","subject_id":"5875778b5c17910001ea4f35","study_id":"60edd13110225f80f9f3709b","session_id":"6196c704b8cec23ee24c47fd","condition":"contingent","relevant_dimensions":["wings","pattern"],"bee_group":{"antennae":"X","wings":"2","pattern":"D","legs":"X"},"bonus":1.7400000000000013},{"rt":1387.1999999999534,"stimulus":"bees-with-color/bee-A1DF.svg","response":0,"trial_type":"image-button-response","trial_index":141,"time_elapsed":493302,"internal_node_id":"0.0-6.0-0.5","subject_id":"5875778b5c17910001ea4f35","study_id":"60edd13110225f80f9f3709b","session_id":"6196c704b8cec23ee24c47fd","condition":"contingent","relevant_dimensions":["wings","pattern"],"bee_group":{"antennae":"X","wings":"2","pattern":"D","legs":"X"},"bonus":1.7400000000000013},{"rt":870.5999999998603,"stimulus":"bees-with-color/bee-B1SM.svg","response":0,"trial_type":"image-button-response","trial_index":142,"time_elapsed":494175,"internal_node_id":"0.0-6.0-0.6","subject_id":"5875778b5c17910001ea4f35","study_id":"60edd13110225f80f9f3709b","session_id":"6196c704b8cec23ee24c47fd","condition":"contingent","relevant_dimensions":["wings","pattern"],"bee_group":{"antennae":"X","wings":"2","pattern":"D","legs":"X"},"bonus":1.7400000000000013},{"rt":1014.8000000000466,"stimulus":"bees-with-color/bee-B1DF.svg","response":0,"trial_type":"image-button-response","trial_index":143,"time_elapsed":495192,"internal_node_id":"0.0-6.0-0.7","subject_id":"5875778b5c17910001ea4f35","study_id":"60edd13110225f80f9f3709b","session_id":"6196c704b8cec23ee24c47fd","condition":"contingent","relevant_dimensions":["wings","pattern"],"bee_group":{"antennae":"X","wings":"2","pattern":"D","legs":"X"},"bonus":1.7400000000000013},{"rt":1071.8999999999069,"stimulus":"bees-with-color/bee-A2DM.svg","response":1,"trial_type":"image-button-response","trial_index":144,"time_elapsed":496267,"internal_node_id":"0.0-6.0-0.8","subject_id":"5875778b5c17910001ea4f35","study_id":"60edd13110225f80f9f3709b","session_id":"6196c704b8cec23ee24c47fd","condition":"contingent","relevant_dimensions":["wings","pattern"],"bee_group":{"antennae":"X","wings":"2","pattern":"D","legs":"X"},"bonus":1.7400000000000013},{"rt":1063.6000000000931,"stimulus":"bees-with-color/bee-A1SF.svg","response":0,"trial_type":"image-button-response","trial_index":145,"time_elapsed":497333,"internal_node_id":"0.0-6.0-0.9","subject_id":"5875778b5c17910001ea4f35","study_id":"60edd13110225f80f9f3709b","session_id":"6196c704b8cec23ee24c47fd","condition":"contingent","relevant_dimensions":["wings","pattern"],"bee_group":{"antennae":"X","wings":"2","pattern":"D","legs":"X"},"bonus":1.7400000000000013},{"rt":1390.9000000001397,"stimulus":"bees-with-color/bee-A2SF.svg","response":0,"trial_type":"image-button-response","trial_index":146,"time_elapsed":498726,"internal_node_id":"0.0-6.0-0.10","subject_id":"5875778b5c17910001ea4f35","study_id":"60edd13110225f80f9f3709b","session_id":"6196c704b8cec23ee24c47fd","condition":"contingent","relevant_dimensions":["wings","pattern"],"bee_group":{"antennae":"X","wings":"2","pattern":"D","legs":"X"},"bonus":1.7400000000000013},{"rt":805.5,"stimulus":"bees-with-color/bee-A2SM.svg","response":0,"trial_type":"image-button-response","trial_index":147,"time_elapsed":499534,"internal_node_id":"0.0-6.0-0.11","subject_id":"5875778b5c17910001ea4f35","study_id":"60edd13110225f80f9f3709b","session_id":"6196c704b8cec23ee24c47fd","condition":"contingent","relevant_dimensions":["wings","pattern"],"bee_group":{"antennae":"X","wings":"2","pattern":"D","legs":"X"},"bonus":1.7400000000000013},{"rt":861.3999999999069,"stimulus":"bees-with-color/bee-B1SF.svg","response":0,"trial_type":"image-button-response","trial_index":148,"time_elapsed":500399,"internal_node_id":"0.0-6.0-0.12","subject_id":"5875778b5c17910001ea4f35","study_id":"60edd13110225f80f9f3709b","session_id":"6196c704b8cec23ee24c47fd","condition":"contingent","relevant_dimensions":["wings","pattern"],"bee_group":{"antennae":"X","wings":"2","pattern":"D","legs":"X"},"bonus":1.7400000000000013},{"rt":1427.8000000000466,"stimulus":"bees-with-color/bee-B2SF.svg","response":0,"trial_type":"image-button-response","trial_index":149,"time_elapsed":501829,"internal_node_id":"0.0-6.0-0.13","subject_id":"5875778b5c17910001ea4f35","study_id":"60edd13110225f80f9f3709b","session_id":"6196c704b8cec23ee24c47fd","condition":"contingent","relevant_dimensions":["wings","pattern"],"bee_group":{"antennae":"X","wings":"2","pattern":"D","legs":"X"},"bonus":1.7400000000000013},{"rt":1031.7000000001863,"stimulus":"bees-with-color/bee-B2DM.svg","response":1,"trial_type":"image-button-response","trial_index":150,"time_elapsed":502863,"internal_node_id":"0.0-6.0-0.14","subject_id":"5875778b5c17910001ea4f35","study_id":"60edd13110225f80f9f3709b","session_id":"6196c704b8cec23ee24c47fd","condition":"contingent","relevant_dimensions":["wings","pattern"],"bee_group":{"antennae":"X","wings":"2","pattern":"D","legs":"X"},"bonus":1.7400000000000013},{"rt":1030.8000000000466,"stimulus":"bees-with-color/bee-B1DM.svg","response":0,"trial_type":"image-button-response","trial_index":151,"time_elapsed":503896,"internal_node_id":"0.0-6.0-0.15","subject_id":"5875778b5c17910001ea4f35","study_id":"60edd13110225f80f9f3709b","session_id":"6196c704b8cec23ee24c47fd","condition":"contingent","relevant_dimensions":["wings","pattern"],"bee_group":{"antennae":"X","wings":"2","pattern":"D","legs":"X"},"bonus":1.7400000000000013},{"rt":799,"stimulus":"bees-with-color/bee-B2SM.svg","response":0,"trial_type":"image-button-response","trial_index":152,"time_elapsed":504697,"internal_node_id":"0.0-6.0-0.16","subject_id":"5875778b5c17910001ea4f35","study_id":"60edd13110225f80f9f3709b","session_id":"6196c704b8cec23ee24c47fd","condition":"contingent","relevant_dimensions":["wings","pattern"],"bee_group":{"antennae":"X","wings":"2","pattern":"D","legs":"X"},"bonus":1.7400000000000013},{"rt":926.5,"stimulus":"bees-with-color/bee-B1DM.svg","response":0,"trial_type":"image-button-response","trial_index":153,"time_elapsed":505625,"internal_node_id":"0.0-6.0-0.17","subject_id":"5875778b5c17910001ea4f35","study_id":"60edd13110225f80f9f3709b","session_id":"6196c704b8cec23ee24c47fd","condition":"contingent","relevant_dimensions":["wings","pattern"],"bee_group":{"antennae":"X","wings":"2","pattern":"D","legs":"X"},"bonus":1.7400000000000013},{"rt":1323,"stimulus":"bees-with-color/bee-A2DM.svg","response":1,"trial_type":"image-button-response","trial_index":154,"time_elapsed":506951,"internal_node_id":"0.0-6.0-0.18","subject_id":"5875778b5c17910001ea4f35","study_id":"60edd13110225f80f9f3709b","session_id":"6196c704b8cec23ee24c47fd","condition":"contingent","relevant_dimensions":["wings","pattern"],"bee_group":{"antennae":"X","wings":"2","pattern":"D","legs":"X"},"bonus":1.7400000000000013},{"rt":1080,"stimulus":"bees-with-color/bee-B1DF.svg","response":0,"trial_type":"image-button-response","trial_index":155,"time_elapsed":508033,"internal_node_id":"0.0-6.0-0.19","subject_id":"5875778b5c17910001ea4f35","study_id":"60edd13110225f80f9f3709b","session_id":"6196c704b8cec23ee24c47fd","condition":"contingent","relevant_dimensions":["wings","pattern"],"bee_group":{"antennae":"X","wings":"2","pattern":"D","legs":"X"},"bonus":1.7400000000000013},{"rt":870,"stimulus":"bees-with-color/bee-A1SF.svg","response":0,"trial_type":"image-button-response","trial_index":156,"time_elapsed":508905,"internal_node_id":"0.0-6.0-0.20","subject_id":"5875778b5c17910001ea4f35","study_id":"60edd13110225f80f9f3709b","session_id":"6196c704b8cec23ee24c47fd","condition":"contingent","relevant_dimensions":["wings","pattern"],"bee_group":{"antennae":"X","wings":"2","pattern":"D","legs":"X"},"bonus":1.7400000000000013},{"rt":952.0999999998603,"stimulus":"bees-with-color/bee-A1DF.svg","response":0,"trial_type":"image-button-response","trial_index":157,"time_elapsed":509859,"internal_node_id":"0.0-6.0-0.21","subject_id":"5875778b5c17910001ea4f35","study_id":"60edd13110225f80f9f3709b","session_id":"6196c704b8cec23ee24c47fd","condition":"contingent","relevant_dimensions":["wings","pattern"],"bee_group":{"antennae":"X","wings":"2","pattern":"D","legs":"X"},"bonus":1.7400000000000013},{"rt":1330.8000000000466,"stimulus":"bees-with-color/bee-B2DM.svg","response":1,"trial_type":"image-button-response","trial_index":158,"time_elapsed":511192,"internal_node_id":"0.0-6.0-0.22","subject_id":"5875778b5c17910001ea4f35","study_id":"60edd13110225f80f9f3709b","session_id":"6196c704b8cec23ee24c47fd","condition":"contingent","relevant_dimensions":["wings","pattern"],"bee_group":{"antennae":"X","wings":"2","pattern":"D","legs":"X"},"bonus":1.7400000000000013},{"rt":861.8000000000466,"stimulus":"bees-with-color/bee-B1SM.svg","response":0,"trial_type":"image-button-response","trial_index":159,"time_elapsed":512055,"internal_node_id":"0.0-6.0-0.23","subject_id":"5875778b5c17910001ea4f35","study_id":"60edd13110225f80f9f3709b","session_id":"6196c704b8cec23ee24c47fd","condition":"contingent","relevant_dimensions":["wings","pattern"],"bee_group":{"antennae":"X","wings":"2","pattern":"D","legs":"X"},"bonus":1.7400000000000013},{"rt":1218.5999999998603,"stimulus":"bees-with-color/bee-A1DM.svg","response":0,"trial_type":"image-button-response","trial_index":160,"time_elapsed":513276,"internal_node_id":"0.0-6.0-0.24","subject_id":"5875778b5c17910001ea4f35","study_id":"60edd13110225f80f9f3709b","session_id":"6196c704b8cec23ee24c47fd","condition":"contingent","relevant_dimensions":["wings","pattern"],"bee_group":{"antennae":"X","wings":"2","pattern":"D","legs":"X"},"bonus":1.7400000000000013},{"rt":1079.8000000000466,"stimulus":"bees-with-color/bee-A2DF.svg","response":1,"trial_type":"image-button-response","trial_index":161,"time_elapsed":514358,"internal_node_id":"0.0-6.0-0.25","subject_id":"5875778b5c17910001ea4f35","study_id":"60edd13110225f80f9f3709b","session_id":"6196c704b8cec23ee24c47fd","condition":"contingent","relevant_dimensions":["wings","pattern"],"bee_group":{"antennae":"X","wings":"2","pattern":"D","legs":"X"},"bonus":1.7400000000000013},{"rt":765.3999999999069,"stim