[{"success":true,"trial_type":"fullscreen","trial_index":0,"time_elapsed":3931,"internal_node_id":"0.0-0.0","subject_id":"612f60780f37aaf6fc78675f","study_id":"60edd13110225f80f9f3709b","session_id":"6196baa6ca3ab5ba0d4e48c7","condition":"full-information","relevant_dimensions":["wings","pattern"],"bee_group":{"antennae":"X","wings":"2","pattern":"D","legs":"X"},"bonus":1.6400000000000012},{"success":true,"timeout":false,"failed_images":[],"failed_audio":[],"failed_video":[],"trial_type":"preload","trial_index":1,"time_elapsed":6127,"internal_node_id":"0.0-1.0","subject_id":"612f60780f37aaf6fc78675f","study_id":"60edd13110225f80f9f3709b","session_id":"6196baa6ca3ab5ba0d4e48c7","condition":"full-information","relevant_dimensions":["wings","pattern"],"bee_group":{"antennae":"X","wings":"2","pattern":"D","legs":"X"},"bonus":1.6400000000000012},{"rt":3165.5,"stimulus":"Welcome! Press any key to begin.","response":"enter","trial_type":"html-keyboard-response","trial_index":2,"time_elapsed":9295,"internal_node_id":"0.0-2.0","subject_id":"612f60780f37aaf6fc78675f","study_id":"60edd13110225f80f9f3709b","session_id":"6196baa6ca3ab5ba0d4e48c7","condition":"full-information","relevant_dimensions":["wings","pattern"],"bee_group":{"antennae":"X","wings":"2","pattern":"D","legs":"X"},"bonus":1.6400000000000012},{"view_history":[{"page_index":0,"viewing_time":4889.199999999953},{"page_index":1,"viewing_time":13140.100000000093},{"page_index":2,"viewing_time":13278.199999999953},{"page_index":3,"viewing_time":14879.100000000093},{"page_index":4,"viewing_time":12977.699999999953},{"page_index":5,"viewing_time":9158.800000000047},{"page_index":6,"viewing_time":1948},{"page_index":5,"viewing_time":3920},{"page_index":6,"viewing_time":14223.699999999953},{"page_index":7,"viewing_time":8745.199999999953},{"page_index":8,"viewing_time":10406.300000000047},{"page_index":9,"viewing_time":4797.199999999953},{"page_index":10,"viewing_time":1913.3999999999069},{"page_index":11,"viewing_time":9908.100000000093},{"page_index":12,"viewing_time":13451.699999999953},{"page_index":13,"viewing_time":1731.8000000000466},{"page_index":14,"viewing_time":2538.100000000093}],"rt":141907.80000000005,"trial_type":"instructions","trial_index":3,"time_elapsed":151205,"internal_node_id":"0.0-3.0-0.0","subject_id":"612f60780f37aaf6fc78675f","study_id":"60edd13110225f80f9f3709b","session_id":"6196baa6ca3ab5ba0d4e48c7","condition":"full-information","relevant_dimensions":["wings","pattern"],"bee_group":{"antennae":"X","wings":"2","pattern":"D","legs":"X"},"bonus":1.6400000000000012},{"rt":15057.399999999907,"response":{"Q0":["Two or six legs","Stripes or spots on body","Single or double wings","Antennae or no antennae"]},"question_order":[0],"trial_type":"survey-multi-select","trial_index":4,"time_elapsed":166273,"internal_node_id":"0.0-3.0-1.0","subject_id":"612f60780f37aaf6fc78675f","study_id":"60edd13110225f80f9f3709b","session_id":"6196baa6ca3ab5ba0d4e48c7","condition":"full-information","relevant_dimensions":["wings","pattern"],"bee_group":{"antennae":"X","wings":"2","pattern":"D","legs":"X"},"correct":true,"bonus":1.6400000000000012},{"rt":25252.399999999907,"response":{"Q1":"No.","Q2":"Based on the four features of the bee.","Q3":"You learn if it was friendly or dangerous, but do not alter your bonus."},"question_order":[0,1,2],"trial_type":"survey-multi-choice","trial_index":5,"time_elapsed":191530,"internal_node_id":"0.0-3.0-2.0","subject_id":"612f60780f37aaf6fc78675f","study_id":"60edd13110225f80f9f3709b","session_id":"6196baa6ca3ab5ba0d4e48c7","condition":"full-information","relevant_dimensions":["wings","pattern"],"bee_group":{"antennae":"X","wings":"2","pattern":"D","legs":"X"},"correct":true,"bonus":1.6400000000000012},{"rt":3755.5,"stimulus":"<p>Congrats, you got everything right<br>When you're ready, click the button below to continue to the experiment.</p>","response":0,"trial_type":"html-button-response","trial_index":6,"time_elapsed":195290,"internal_node_id":"0.0-3.0-3.0","subject_id":"612f60780f37aaf6fc78675f","study_id":"60edd13110225f80f9f3709b","session_id":"6196baa6ca3ab5ba0d4e48c7","condition":"full-information","relevant_dimensions":["wings","pattern"],"bee_group":{"antennae":"X","wings":"2","pattern":"D","legs":"X"},"bonus":1.6400000000000012},{"rt":13476.399999999907,"stimulus":"bees-with-color/bee-B2DM.svg","response":0,"trial_type":"image-button-response","trial_index":7,"time_elapsed":208775,"internal_node_id":"0.0-4.0-0.0","subject_id":"612f60780f37aaf6fc78675f","study_id":"60edd13110225f80f9f3709b","session_id":"6196baa6ca3ab5ba0d4e48c7","condition":"full-information","relevant_dimensions":["wings","pattern"],"bee_group":{"antennae":"X","wings":"2","pattern":"D","legs":"X"},"action":"harvest","summary":"bad-harvest","bonus":1.6400000000000012},{"rt":8270.899999999907,"stimulus":"\n                    <p><b>Action: <em>harvest</em></b></p>\n                    <p>This is the bee that you just saw.</p>\n                    <img src=\"bees-with-color/bee-B2DM.svg\" width=\"200\">\n                    <p><span class=\"redText\">Bad choice, the bee was angry.</span><br><b>You have been stung!</b><br>Your pay has been decreased by $0.10. Your bonus pay is now $0.44.</p>\n            ","response":0,"trial_type":"html-button-response","trial_index":8,"time_elapsed":217051,"internal_node_id":"0.0-4.0-1.0","subject_id":"612f60780f37aaf6fc78675f","study_id":"60edd13110225f80f9f3709b","session_id":"6196baa6ca3ab5ba0d4e48c7","condition":"full-information","relevant_dimensions":["wings","pattern"],"bee_group":{"antennae":"X","wings":"2","pattern":"D","legs":"X"},"bonus":1.6400000000000012},{"rt":3748.5,"stimulus":"bees-with-color/bee-A2DF.svg","response":0,"trial_type":"image-button-response","trial_index":9,"time_elapsed":220805,"internal_node_id":"0.0-4.0-0.1","subject_id":"612f60780f37aaf6fc78675f","study_id":"60edd13110225f80f9f3709b","session_id":"6196baa6ca3ab5ba0d4e48c7","condition":"full-information","relevant_dimensions":["wings","pattern"],"bee_group":{"antennae":"X","wings":"2","pattern":"D","legs":"X"},"action":"harvest","summary":"bad-harvest","bonus":1.6400000000000012},{"rt":36473.5,"stimulus":"\n                    <p><b>Action: <em>harvest</em></b></p>\n                    <p>This is the bee that you just saw.</p>\n                    <img src=\"bees-with-color/bee-A2DF.svg\" width=\"200\">\n                    <p><span class=\"redText\">Bad choice, the bee was angry.</span><br><b>You have been stung!</b><br>Your pay has been decreased by $0.10. Your bonus pay is now $0.34.</p>\n            ","response":0,"trial_type":"html-button-response","trial_index":10,"time_elapsed":257284,"internal_node_id":"0.0-4.0-1.1","subject_id":"612f60780f37aaf6fc78675f","study_id":"60edd13110225f80f9f3709b","session_id":"6196baa6ca3ab5ba0d4e48c7","condition":"full-information","relevant_dimensions":["wings","pattern"],"bee_group":{"antennae":"X","wings":"2","pattern":"D","legs":"X"},"bonus":1.6400000000000012},{"rt":6897,"stimulus":"bees-with-color/bee-A1DM.svg","response":0,"trial_type":"image-button-response","trial_index":11,"time_elapsed":264187,"internal_node_id":"0.0-4.0-0.2","subject_id":"612f60780f37aaf6fc78675f","study_id":"60edd13110225f80f9f3709b","session_id":"6196baa6ca3ab5ba0d4e48c7","condition":"full-information","relevant_dimensions":["wings","pattern"],"bee_group":{"antennae":"X","wings":"2","pattern":"D","legs":"X"},"action":"harvest","summary":"good-harvest","bonus":1.6400000000000012},{"rt":13370.600000000093,"stimulus":"\n                    <p><b>Action: <em>harvest</em></b></p>\n                    <p>This is the bee that you just saw.</p>\n                    <img src=\"bees-with-color/bee-A1DM.svg\" width=\"200\">\n                    <p><span class=\"greenText\"><b>Successful harvest!</b></span><br>Your pay has increased by $0.02. Your bonus pay is now $0.36.</p>\n            ","response":0,"trial_type":"html-button-response","trial_index":12,"time_elapsed":277563,"internal_node_id":"0.0-4.0-1.2","subject_id":"612f60780f37aaf6fc78675f","study_id":"60edd13110225f80f9f3709b","session_id":"6196baa6ca3ab5ba0d4e48c7","condition":"full-information","relevant_dimensions":["wings","pattern"],"bee_group":{"antennae":"X","wings":"2","pattern":"D","legs":"X"},"bonus":1.6400000000000012},{"rt":4854.699999999953,"stimulus":"bees-with-color/bee-A1DF.svg","response":1,"trial_type":"image-button-response","trial_index":13,"time_elapsed":282424,"internal_node_id":"0.0-4.0-0.3","subject_id":"612f60780f37aaf6fc78675f","study_id":"60edd13110225f80f9f3709b","session_id":"6196baa6ca3ab5ba0d4e48c7","condition":"full-information","relevant_dimensions":["wings","pattern"],"bee_group":{"antennae":"X","wings":"2","pattern":"D","legs":"X"},"action":"avoid","summary":"bad-avoid","bonus":1.6400000000000012},{"rt":24192.300000000047,"stimulus":"\n                    <p><b>Action: <em>avoid</em></b></p>\n                    <p>This is the bee that you just saw.</p>\n                    <img src=\"bees-with-color/bee-A1DF.svg\" width=\"200\">\n                    <p><span class=\"redText\">Bad choice,</span> the bee was friendly.<br>Your bonus pay is unchanged, and remains at $0.36.</p>\n            ","response":0,"trial_type":"html-button-response","trial_index":14,"time_elapsed":306621,"internal_node_id":"0.0-4.0-1.3","subject_id":"612f60780f37aaf6fc78675f","study_id":"60edd13110225f80f9f3709b","session_id":"6196baa6ca3ab5ba0d4e48c7","condition":"full-information","relevant_dimensions":["wings","pattern"],"bee_group":{"antennae":"X","wings":"2","pattern":"D","legs":"X"},"bonus":1.6400000000000012},{"rt":6357.5,"stimulus":"bees-with-color/bee-A2SM.svg","response":0,"trial_type":"image-button-response","trial_index":15,"time_elapsed":312985,"internal_node_id":"0.0-4.0-0.4","subject_id":"612f60780f37aaf6fc78675f","study_id":"60edd13110225f80f9f3709b","session_id":"6196baa6ca3ab5ba0d4e48c7","condition":"full-information","relevant_dimensions":["wings","pattern"],"bee_group":{"antennae":"X","wings":"2","pattern":"D","legs":"X"},"action":"harvest","summary":"good-harvest","bonus":1.6400000000000012},{"rt":14083.40000000014,"stimulus":"\n                    <p><b>Action: <em>harvest</em></b></p>\n                    <p>This is the bee that you just saw.</p>\n                    <img src=\"bees-with-color/bee-A2SM.svg\" width=\"200\">\n                    <p><span class=\"greenText\"><b>Successful harvest!</b></span><br>Your pay has increased by $0.02. Your bonus pay is now $0.38.</p>\n            ","response":0,"trial_type":"html-button-response","trial_index":16,"time_elapsed":327073,"internal_node_id":"0.0-4.0-1.4","subject_id":"612f60780f37aaf6fc78675f","study_id":"60edd13110225f80f9f3709b","session_id":"6196baa6ca3ab5ba0d4e48c7","condition":"full-information","relevant_dimensions":["wings","pattern"],"bee_group":{"antennae":"X","wings":"2","pattern":"D","legs":"X"},"bonus":1.6400000000000012},{"rt":8777.799999999814,"stimulus":"bees-with-color/bee-A1SM.svg","response":0,"trial_type":"image-button-response","trial_index":17,"time_elapsed":335856,"internal_node_id":"0.0-4.0-0.5","subject_id":"612f60780f37aaf6fc78675f","study_id":"60edd13110225f80f9f3709b","session_id":"6196baa6ca3ab5ba0d4e48c7","condition":"full-information","relevant_dimensions":["wings","pattern"],"bee_group":{"antennae":"X","wings":"2","pattern":"D","legs":"X"},"action":"harvest","summary":"good-harvest","bonus":1.6400000000000012},{"rt":3253.6999999999534,"stimulus":"\n                    <p><b>Action: <em>harvest</em></b></p>\n                    <p>This is the bee that you just saw.</p>\n                    <img src=\"bees-with-color/bee-A1SM.svg\" width=\"200\">\n                    <p><span class=\"greenText\"><b>Successful harvest!</b></span><br>Your pay has increased by $0.02. Your bonus pay is now $0.40.</p>\n            ","response":0,"trial_type":"html-button-response","trial_index":18,"time_elapsed":339113,"internal_node_id":"0.0-4.0-1.5","subject_id":"612f60780f37aaf6fc78675f","study_id":"60edd13110225f80f9f3709b","session_id":"6196baa6ca3ab5ba0d4e48c7","condition":"full-information","relevant_dimensions":["wings","pattern"],"bee_group":{"antennae":"X","wings":"2","pattern":"D","legs":"X"},"bonus":1.6400000000000012},{"rt":4217.800000000047,"stimulus":"bees-with-color/bee-B1SM.svg","response":0,"trial_type":"image-button-response","trial_index":19,"time_elapsed":343334,"internal_node_id":"0.0-4.0-0.6","subject_id":"612f60780f37aaf6fc78675f","study_id":"60edd13110225f80f9f3709b","session_id":"6196baa6ca3ab5ba0d4e48c7","condition":"full-information","relevant_dimensions":["wings","pattern"],"bee_group":{"antennae":"X","wings":"2","pattern":"D","legs":"X"},"action":"harvest","summary":"good-harvest","bonus":1.6400000000000012},{"rt":1476.5,"stimulus":"\n                    <p><b>Action: <em>harvest</em></b></p>\n                    <p>This is the bee that you just saw.</p>\n                    <img src=\"bees-with-color/bee-B1SM.svg\" width=\"200\">\n                    <p><span class=\"greenText\"><b>Successful harvest!</b></span><br>Your pay has increased by $0.02. Your bonus pay is now $0.42.</p>\n            ","response":0,"trial_type":"html-button-response","trial_index":20,"time_elapsed":344814,"internal_node_id":"0.0-4.0-1.6","subject_id":"612f60780f37aaf6fc78675f","study_id":"60edd13110225f80f9f3709b","session_id":"6196baa6ca3ab5ba0d4e48c7","condition":"full-information","relevant_dimensions":["wings","pattern"],"bee_group":{"antennae":"X","wings":"2","pattern":"D","legs":"X"},"bonus":1.6400000000000012},{"rt":5511.299999999814,"stimulus":"bees-with-color/bee-B1DF.svg","response":0,"trial_type":"image-button-response","trial_index":21,"time_elapsed":350330,"internal_node_id":"0.0-4.0-0.7","subject_id":"612f60780f37aaf6fc78675f","study_id":"60edd13110225f80f9f3709b","session_id":"6196baa6ca3ab5ba0d4e48c7","condition":"full-information","relevant_dimensions":["wings","pattern"],"bee_group":{"antennae":"X","wings":"2","pattern":"D","legs":"X"},"action":"harvest","summary":"good-harvest","bonus":1.6400000000000012},{"rt":1418.6999999999534,"stimulus":"\n                    <p><b>Action: <em>harvest</em></b></p>\n                    <p>This is the bee that you just saw.</p>\n                    <img src=\"bees-with-color/bee-B1DF.svg\" width=\"200\">\n                    <p><span class=\"greenText\"><b>Successful harvest!</b></span><br>Your pay has increased by $0.02. Your bonus pay is now $0.44.</p>\n            ","response":0,"trial_type":"html-button-response","trial_index":22,"time_elapsed":351753,"internal_node_id":"0.0-4.0-1.7","subject_id":"612f60780f37aaf6fc78675f","study_id":"60edd13110225f80f9f3709b","session_id":"6196baa6ca3ab5ba0d4e48c7","condition":"full-information","relevant_dimensions":["wings","pattern"],"bee_group":{"antennae":"X","wings":"2","pattern":"D","legs":"X"},"bonus":1.6400000000000012},{"rt":4100.399999999907,"stimulus":"bees-with-color/bee-B1DM.svg","response":1,"trial_type":"image-button-response","trial_index":23,"time_elapsed":355860,"internal_node_id":"0.0-4.0-0.8","subject_id":"612f60780f37aaf6fc78675f","study_id":"60edd13110225f80f9f3709b","session_id":"6196baa6ca3ab5ba0d4e48c7","condition":"full-information","relevant_dimensions":["wings","pattern"],"bee_group":{"antennae":"X","wings":"2","pattern":"D","legs":"X"},"action":"avoid","summary":"bad-avoid","bonus":1.6400000000000012},{"rt":11507,"stimulus":"\n                    <p><b>Action: <em>avoid</em></b></p>\n                    <p>This is the bee that you just saw.</p>\n                    <img src=\"bees-with-color/bee-B1DM.svg\" width=\"200\">\n                    <p><span class=\"redText\">Bad choice,</span> the bee was friendly.<br>Your bonus pay is unchanged, and remains at $0.44.</p>\n            ","response":0,"trial_type":"html-button-response","trial_index":24,"time_elapsed":367372,"internal_node_id":"0.0-4.0-1.8","subject_id":"612f60780f37aaf6fc78675f","study_id":"60edd13110225f80f9f3709b","session_id":"6196baa6ca3ab5ba0d4e48c7","condition":"full-information","relevant_dimensions":["wings","pattern"],"bee_group":{"antennae":"X","wings":"2","pattern":"D","legs":"X"},"bonus":1.6400000000000012},{"rt":5709,"stimulus":"bees-with-color/bee-B2SM.svg","response":1,"trial_type":"image-button-response","trial_index":25,"time_elapsed":373086,"internal_node_id":"0.0-4.0-0.9","subject_id":"612f60780f37aaf6fc78675f","study_id":"60edd13110225f80f9f3709b","session_id":"6196baa6ca3ab5ba0d4e48c7","condition":"full-information","relevant_dimensions":["wings","pattern"],"bee_group":{"antennae":"X","wings":"2","pattern":"D","legs":"X"},"action":"avoid","summary":"bad-avoid","bonus":1.6400000000000012},{"rt":11624.100000000093,"stimulus":"\n                    <p><b>Action: <em>avoid</em></b></p>\n                    <p>This is the bee that you just saw.</p>\n                    <img src=\"bees-with-color/bee-B2SM.svg\" width=\"200\">\n                    <p><span class=\"redText\">Bad choice,</span> the bee was friendly.<br>Your bonus pay is unchanged, and remains at $0.44.</p>\n            ","response":0,"trial_type":"html-button-response","trial_index":26,"time_elapsed":384715,"internal_node_id":"0.0-4.0-1.9","subject_id":"612f60780f37aaf6fc78675f","study_id":"60edd13110225f80f9f3709b","session_id":"6196baa6ca3ab5ba0d4e48c7","condition":"full-information","relevant_dimensions":["wings","pattern"],"bee_group":{"antennae":"X","wings":"2","pattern":"D","legs":"X"},"bonus":1.6400000000000012},{"rt":6088.399999999907,"stimulus":"bees-with-color/bee-A2DM.svg","response":1,"trial_type":"image-button-response","trial_index":27,"time_elapsed":390809,"internal_node_id":"0.0-4.0-0.10","subject_id":"612f60780f37aaf6fc78675f","study_id":"60edd13110225f80f9f3709b","session_id":"6196baa6ca3ab5ba0d4e48c7","condition":"full-information","relevant_dimensions":["wings","pattern"],"bee_group":{"antennae":"X","wings":"2","pattern":"D","legs":"X"},"action":"avoid","summary":"good-avoid","bonus":1.6400000000000012},{"rt":1947.1000000000931,"stimulus":"\n                    <p><b>Action: <em>avoid</em></b></p>\n                    <p>This is the bee that you just saw.</p>\n                    <img src=\"bees-with-color/bee-A2DM.svg\" width=\"200\">\n                    <p><span class=\"greenText\">Good choice!</span>  This bee would have stung you.<br>Your bonus pay is unchanged, and remains at $0.44.</p>\n            ","response":0,"trial_type":"html-button-response","trial_index":28,"time_elapsed":392761,"internal_node_id":"0.0-4.0-1.10","subject_id":"612f60780f37aaf6fc78675f","study_id":"60edd13110225f80f9f3709b","session_id":"6196baa6ca3ab5ba0d4e48c7","condition":"full-information","relevant_dimensions":["wings","pattern"],"bee_group":{"antennae":"X","wings":"2","pattern":"D","legs":"X"},"bonus":1.6400000000000012},{"rt":4446.09999999986,"stimulus":"bees-with-color/bee-B2DF.svg","response":1,"trial_type":"image-button-response","trial_index":29,"time_elapsed":397213,"internal_node_id":"0.0-4.0-0.11","subject_id":"612f60780f37aaf6fc78675f","study_id":"60edd13110225f80f9f3709b","session_id":"6196baa6ca3ab5ba0d4e48c7","condition":"full-information","relevant_dimensions":["wings","pattern"],"bee_group":{"antennae":"X","wings":"2","pattern":"D","legs":"X"},"action":"avoid","summary":"good-avoid","bonus":1.6400000000000012},{"rt":1778.0999999998603,"stimulus":"\n                    <p><b>Action: <em>avoid</em></b></p>\n                    <p>This is the bee that you just saw.</p>\n                    <img src=\"bees-with-color/bee-B2DF.svg\" width=\"200\">\n                    <p><span class=\"greenText\">Good choice!</span>  This bee would have stung you.<br>Your bonus pay is unchanged, and remains at $0.44.</p>\n            ","response":0,"trial_type":"html-button-response","trial_index":30,"time_elapsed":398996,"internal_node_id":"0.0-4.0-1.11","subject_id":"612f60780f37aaf6fc78675f","study_id":"60edd13110225f80f9f3709b","session_id":"6196baa6ca3ab5ba0d4e48c7","condition":"full-information","relevant_dimensions":["wings","pattern"],"bee_group":{"antennae":"X","wings":"2","pattern":"D","legs":"X"},"bonus":1.6400000000000012},{"rt":4844.09999999986,"stimulus":"bees-with-color/bee-B1SF.svg","response":1,"trial_type":"image-button-response","trial_index":31,"time_elapsed":403845,"internal_node_id":"0.0-4.0-0.12","subject_id":"612f60780f37aaf6fc78675f","study_id":"60edd13110225f80f9f3709b","session_id":"6196baa6ca3ab5ba0d4e48c7","condition":"full-information","relevant_dimensions":["wings","pattern"],"bee_group":{"antennae":"X","wings":"2","pattern":"D","legs":"X"},"action":"avoid","summary":"bad-avoid","bonus":1.6400000000000012},{"rt":6358.700000000186,"stimulus":"\n                    <p><b>Action: <em>avoid</em></b></p>\n                    <p>This is the bee that you just saw.</p>\n                    <img src=\"bees-with-color/bee-B1SF.svg\" width=\"200\">\n                    <p><span class=\"redText\">Bad choice,</span> the bee was friendly.<br>Your bonus pay is unchanged, and remains at $0.44.</p>\n            ","response":0,"trial_type":"html-button-response","trial_index":32,"time_elapsed":410209,"internal_node_id":"0.0-4.0-1.12","subject_id":"612f60780f37aaf6fc78675f","study_id":"60edd13110225f80f9f3709b","session_id":"6196baa6ca3ab5ba0d4e48c7","condition":"full-information","relevant_dimensions":["wings","pattern"],"bee_group":{"antennae":"X","wings":"2","pattern":"D","legs":"X"},"bonus":1.6400000000000012},{"rt":4609.699999999953,"stimulus":"bees-with-color/bee-A1SF.svg","response":0,"trial_type":"image-button-response","trial_index":33,"time_elapsed":414825,"internal_node_id":"0.0-4.0-0.13","subject_id":"612f60780f37aaf6fc78675f","study_id":"60edd13110225f80f9f3709b","session_id":"6196baa6ca3ab5ba0d4e48c7","condition":"full-information","relevant_dimensions":["wings","pattern"],"bee_group":{"antennae":"X","wings":"2","pattern":"D","legs":"X"},"action":"harvest","summary":"good-harvest","bonus":1.6400000000000012},{"rt":1426.3999999999069,"stimulus":"\n                    <p><b>Action: <em>harvest</em></b></p>\n                    <p>This is the bee that you just saw.</p>\n                    <img src=\"bees-with-color/bee-A1SF.svg\" width=\"200\">\n                    <p><span class=\"greenText\"><b>Successful harvest!</b></span><br>Your pay has increased by $0.02. Your bonus pay is now $0.46.</p>\n            ","response":0,"trial_type":"html-button-response","trial_index":34,"time_elapsed":416256,"internal_node_id":"0.0-4.0-1.13","subject_id":"612f60780f37aaf6fc78675f","study_id":"60edd13110225f80f9f3709b","session_id":"6196baa6ca3ab5ba0d4e48c7","condition":"full-information","relevant_dimensions":["wings","pattern"],"bee_group":{"antennae":"X","wings":"2","pattern":"D","legs":"X"},"bonus":1.6400000000000012},{"rt":11503.199999999953,"stimulus":"bees-with-color/bee-A2SF.svg","response":1,"trial_type":"image-button-response","trial_index":35,"time_elapsed":427765,"internal_node_id":"0.0-4.0-0.14","subject_id":"612f60780f37aaf6fc78675f","study_id":"60edd13110225f80f9f3709b","session_id":"6196baa6ca3ab5ba0d4e48c7","condition":"full-information","relevant_dimensions":["wings","pattern"],"bee_group":{"antennae":"X","wings":"2","pattern":"D","legs":"X"},"action":"avoid","summary":"bad-avoid","bonus":1.6400000000000012},{"rt":12905.899999999907,"stimulus":"\n                    <p><b>Action: <em>avoid</em></b></p>\n                    <p>This is the bee that you just saw.</p>\n                    <img src=\"bees-with-color/bee-A2SF.svg\" width=\"200\">\n                    <p><span class=\"redText\">Bad choice,</span> the bee was friendly.<br>Your bonus pay is unchanged, and remains at $0.46.</p>\n            ","response":0,"trial_type":"html-button-response","trial_index":36,"time_elapsed":440676,"internal_node_id":"0.0-4.0-1.14","subject_id":"612f60780f37aaf6fc78675f","study_id":"60edd13110225f80f9f3709b","session_id":"6196baa6ca3ab5ba0d4e48c7","condition":"full-information","relevant_dimensions":["wings","pattern"],"bee_group":{"antennae":"X","wings":"2","pattern":"D","legs":"X"},"bonus":1.6400000000000012},{"rt":5204.399999999907,"stimulus":"bees-with-color/bee-B2SF.svg","response":0,"trial_type":"image-button-response","trial_index":37,"time_elapsed":445886,"internal_node_id":"0.0-4.0-0.15","subject_id":"612f60780f37aaf6fc78675f","study_id":"60edd13110225f80f9f3709b","session_id":"6196baa6ca3ab5ba0d4e48c7","condition":"full-information","relevant_dimensions":["wings","pattern"],"bee_group":{"antennae":"X","wings":"2","pattern":"D","legs":"X"},"action":"harvest","summary":"good-harvest","bonus":1.6400000000000012},{"rt":1652.8000000000466,"stimulus":"\n                    <p><b>Action: <em>harvest</em></b></p>\n                    <p>This is the bee that you just saw.</p>\n                    <img src=\"bees-with-color/bee-B2SF.svg\" width=\"200\">\n                    <p><span class=\"greenText\"><b>Successful harvest!</b></span><br>Your pay has increased by $0.02. Your bonus pay is now $0.48.</p>\n            ","response":0,"trial_type":"html-button-response","trial_index":38,"time_elapsed":447545,"internal_node_id":"0.0-4.0-1.15","subject_id":"612f60780f37aaf6fc78675f","study_id":"60edd13110225f80f9f3709b","session_id":"6196baa6ca3ab5ba0d4e48c7","condition":"full-information","relevant_dimensions":["wings","pattern"],"bee_group":{"antennae":"X","wings":"2","pattern":"D","legs":"X"},"bonus":1.6400000000000012},{"rt":4511.699999999953,"stimulus":"bees-with-color/bee-A1SM.svg","response":0,"trial_type":"image-button-response","trial_index":39,"time_elapsed":452062,"internal_node_id":"0.0-4.0-0.16","subject_id":"612f60780f37aaf6fc78675f","study_id":"60edd13110225f80f9f3709b","session_id":"6196baa6ca3ab5ba0d4e48c7","condition":"full-information","relevant_dimensions":["wings","pattern"],"bee_group":{"antennae":"X","wings":"2","pattern":"D","legs":"X"},"action":"harvest","summary":"good-harvest","bonus":1.6400000000000012},{"rt":1515.0999999998603,"stimulus":"\n                    <p><b>Action: <em>harvest</em></b></p>\n                    <p>This is the bee that you just saw.</p>\n                    <img src=\"bees-with-color/bee-A1SM.svg\" width=\"200\">\n                    <p><span class=\"greenText\"><b>Successful harvest!</b></span><br>Your pay has increased by $0.02. Your bonus pay is now $0.50.</p>\n            ","response":0,"trial_type":"html-button-response","trial_index":40,"time_elapsed":453581,"internal_node_id":"0.0-4.0-1.16","subject_id":"612f60780f37aaf6fc78675f","study_id":"60edd13110225f80f9f3709b","session_id":"6196baa6ca3ab5ba0d4e48c7","condition":"full-information","relevant_dimensions":["wings","pattern"],"bee_group":{"antennae":"X","wings":"2","pattern":"D","legs":"X"},"bonus":1.6400000000000012},{"rt":3353.1999999999534,"stimulus":"bees-with-color/bee-A1DM.svg","response":0,"trial_type":"image-button-response","trial_index":41,"time_elapsed":456938,"internal_node_id":"0.0-4.0-0.17","subject_id":"612f60780f37aaf6fc78675f","study_id":"60edd13110225f80f9f3709b","session_id":"6196baa6ca3ab5ba0d4e48c7","condition":"full-information","relevant_dimensions":["wings","pattern"],"bee_group":{"antennae":"X","wings":"2","pattern":"D","legs":"X"},"action":"harvest","summary":"good-harvest","bonus":1.6400000000000012},{"rt":1100.7000000001863,"stimulus":"\n                    <p><b>Action: <em>harvest</em></b></p>\n                    <p>This is the bee that you just saw.</p>\n                    <img src=\"bees-with-color/bee-A1DM.svg\" width=\"200\">\n                    <p><span class=\"greenText\"><b>Successful harvest!</b></span><br>Your pay has increased by $0.02. Your bonus pay is now $0.52.</p>\n            ","response":0,"trial_type":"html-button-response","trial_index":42,"time_elapsed":458043,"internal_node_id":"0.0-4.0-1.17","subject_id":"612f60780f37aaf6fc78675f","study_id":"60edd13110225f80f9f3709b","session_id":"6196baa6ca3ab5ba0d4e48c7","condition":"full-information","relevant_dimensions":["wings","pattern"],"bee_group":{"antennae":"X","wings":"2","pattern":"D","legs":"X"},"bonus":1.6400000000000012},{"rt":2708.9000000001397,"stimulus":"bees-with-color/bee-B1DF.svg","response":0,"trial_type":"image-button-response","trial_index":43,"time_elapsed":460756,"internal_node_id":"0.0-4.0-0.18","subject_id":"612f60780f37aaf6fc78675f","study_id":"60edd13110225f80f9f3709b","session_id":"6196baa6ca3ab5ba0d4e48c7","condition":"full-information","relevant_dimensions":["wings","pattern"],"bee_group":{"antennae":"X","wings":"2","pattern":"D","legs":"X"},"action":"harvest","summary":"good-harvest","bonus":1.6400000000000012},{"rt":1023.0999999998603,"stimulus":"\n                    <p><b>Action: <em>harvest</em></b></p>\n                    <p>This is the bee that you just saw.</p>\n                    <img src=\"bees-with-color/bee-B1DF.svg\" width=\"200\">\n                    <p><span class=\"greenText\"><b>Successful harvest!</b></span><br>Your pay has increased by $0.02. Your bonus pay is now $0.54.</p>\n            ","response":0,"trial_type":"html-button-response","trial_index":44,"time_elapsed":461783,"internal_node_id":"0.0-4.0-1.18","subject_id":"612f60780f37aaf6fc78675f","study_id":"60edd13110225f80f9f3709b","session_id":"6196baa6ca3ab5ba0d4e48c7","condition":"full-information","relevant_dimensions":["wings","pattern"],"bee_group":{"antennae":"X","wings":"2","pattern":"D","legs":"X"},"bonus":1.6400000000000012},{"rt":9261.299999999814,"stimulus":"bees-with-color/bee-B2DM.svg","response":1,"trial_type":"image-button-response","trial_index":45,"time_elapsed":471049,"internal_node_id":"0.0-4.0-0.19","subject_id":"612f60780f37aaf6fc78675f","study_id":"60edd13110225f80f9f3709b","session_id":"6196baa6ca3ab5ba0d4e48c7","condition":"full-information","relevant_dimensions":["wings","pattern"],"bee_group":{"antennae":"X","wings":"2","pattern":"D","legs":"X"},"action":"avoid","summary":"good-avoid","bonus":1.6400000000000012},{"rt":1755.5,"stimulus":"\n                    <p><b>Action: <em>avoid</em></b></p>\n                    <p>This is the bee that you just saw.</p>\n                    <img src=\"bees-with-color/bee-B2DM.svg\" width=\"200\">\n                    <p><span class=\"greenText\">Good choice!</span>  This bee would have stung you.<br>Your bonus pay is unchanged, and remains at $0.54.</p>\n            ","response":0,"trial_type":"html-button-response","trial_index":46,"time_elapsed":472809,"internal_node_id":"0.0-4.0-1.19","subject_id":"612f60780f37aaf6fc78675f","study_id":"60edd13110225f80f9f3709b","session_id":"6196baa6ca3ab5ba0d4e48c7","condition":"full-information","relevant_dimensions":["wings","pattern"],"bee_group":{"antennae":"X","wings":"2","pattern":"D","legs":"X"},"bonus":1.6400000000000012},{"rt":6688.199999999953,"stimulus":"bees-with-color/bee-A1DF.svg","response":0,"trial_type":"image-button-response","trial_index":47,"time_elapsed":479503,"internal_node_id":"0.0-4.0-0.20","subject_id":"612f60780f37aaf6fc78675f","study_id":"60edd13110225f80f9f3709b","session_id":"6196baa6ca3ab5ba0d4e48c7","condition":"full-information","relevant_dimensions":["wings","pattern"],"bee_group":{"antennae":"X","wings":"2","pattern":"D","legs":"X"},"action":"harvest","summary":"good-harvest","bonus":1.6400000000000012},{"rt":1083.0999999998603,"stimulus":"\n                    <p><b>Action: <em>harvest</em></b></p>\n                    <p>This is the bee that you just saw.</p>\n                    <img src=\"bees-with-color/bee-A1DF.svg\" width=\"200\">\n                    <p><span class=\"greenText\"><b>Successful harvest!</b></span><br>Your pay has increased by $0.02. Your bonus pay is now $0.56.</p>\n            ","response":0,"trial_type":"html-button-response","trial_index":48,"time_elapsed":480591,"internal_node_id":"0.0-4.0-1.20","subject_id":"612f60780f37aaf6fc78675f","study_id":"60edd13110225f80f9f3709b","session_id":"6196baa6ca3ab5ba0d4e48c7","condition":"full-information","relevant_dimensions":["wings","pattern"],"bee_group":{"antennae":"X","wings":"2","pattern":"D","legs":"X"},"bonus":1.6400000000000012},{"rt":5161.699999999953,"stimulus":"bees-with-color/bee-B2SM.svg","response":0,"trial_type":"image-button-response","trial_index":49,"time_elapsed":485758,"internal_node_id":"0.0-4.0-0.21","subject_id":"612f60780f37aaf6fc78675f","study_id":"60edd13110225f80f9f3709b","session_id":"6196baa6ca3ab5ba0d4e48c7","condition":"full-information","relevant_dimensions":["wings","pattern"],"bee_group":{"antennae":"X","wings":"2","pattern":"D","legs":"X"},"action":"harvest","summary":"good-harvest","bonus":1.6400000000000012},{"rt":1097.7999999998137,"stimulus":"\n                    <p><b>Action: <em>harvest</em></b></p>\n                    <p>This is the bee that you just saw.</p>\n                    <img src=\"bees-with-color/bee-B2SM.svg\" width=\"200\">\n                    <p><span class=\"greenText\"><b>Successful harvest!</b></span><br>Your pay has increased by $0.02. Your bonus pay is now $0.58.</p>\n            ","response":0,"trial_type":"html-button-response","trial_index":50,"time_elapsed":486861,"internal_node_id":"0.0-4.0-1.21","subject_id":"612f60780f37aaf6fc78675f","study_id":"60edd13110225f80f9f3709b","session_id":"6196baa6ca3ab5ba0d4e48c7","condition":"full-information","relevant_dimensions":["wings","pattern"],"bee_group":{"antennae":"X","wings":"2","pattern":"D","legs":"X"},"bonus":1.6400000000000012},{"rt":3473.5,"stimulus":"bees-with-color/bee-B1SM.svg","response":0,"trial_type":"image-button-response","trial_index":51,"time_elapsed":490340,"internal_node_id":"0.0-4.0-0.22","subject_id":"612f60780f37aaf6fc78675f","study_id":"60edd13110225f80f9f3709b","session_id":"6196baa6ca3ab5ba0d4e48c7","condition":"full-information","relevant_dimensions":["wings","pattern"],"bee_group":{"antennae":"X","wings":"2","pattern":"D","legs":"X"},"action":"harvest","summary":"good-harvest","bonus":1.6400000000000012},{"rt":952.8999999999069,"stimulus":"\n                    <p><b>Action: <em>harvest</em></b></p>\n                    <p>This is the bee that you just saw.</p>\n                    <img src=\"bees-with-color/bee-B1SM.svg\" width=\"200\">\n                    <p><span class=\"greenText\"><b>Successful harvest!</b></span><br>Your pay has increased by $0.02. Your bonus pay is now $0.60.</p>\n            ","response":0,"trial_type":"html-button-response","trial_index":52,"time_elapsed":491299,"internal_node_id":"0.0-4.0-1.22","subject_id":"612f60780f37aaf6fc78675f","study_id":"60edd13110225f80f9f3709b","session_id":"6196baa6ca3ab5ba0d4e48c7","condition":"full-information","relevant_dimensions":["wings","pattern"],"bee_group":{"antennae":"X","wings":"2","pattern":"D","legs":"X"},"bonus":1.6400000000000012},{"rt":6063.399999999907,"stimulus":"bees-with-color/bee-B2DF.svg","response":1,"trial_type":"image-button-response","trial_index":53,"time_elapsed":497368,"internal_node_id":"0.0-4.0-0.23","subject_id":"612f60780f37aaf6fc78675f","study_id":"60edd13110225f80f9f3709b","session_id":"6196baa6ca3ab5ba0d4e48c7","condition":"full-information","relevant_dimensions":["wings","pattern"],"bee_group":{"antennae":"X","wings":"2","pattern":"D","legs":"X"},"action":"avoid","summary":"good-avoid","bonus":1.6400000000000012},{"rt":1619,"stimulus":"\n                    <p><b>Action: <em>avoid</em></b></p>\n                    <p>This is the bee that you just saw.</p>\n                    <img src=\"bees-with-color/bee-B2DF.svg\" width=\"200\">\n                    <p><span class=\"greenText\">Good choice!</span>  This bee would have stung you.<br>Your bonus pay is unchanged, and remains at $0.60.</p>\n            ","response":0,"trial_type":"html-button-response","trial_index":54,"time_elapsed":498992,"internal_node_id":"0.0-4.0-1.23","subject_id":"612f60780f37aaf6fc78675f","study_id":"60edd13110225f80f9f3709b","session_id":"6196baa6ca3ab5ba0d4e48c7","condition":"full-information","relevant_dimensions":["wings","pattern"],"bee_group":{"antennae":"X","wings":"2","pattern":"D","legs":"X"},"bonus":1.6400000000000012},{"rt":3523.1999999999534,"stimulus":"bees-with-color/bee-B1DM.svg","response":0,"trial_type":"image-button-response","trial_index":55,"time_elapsed":502522,"internal_node_id":"0.0-4.0-0.24","subject_id":"612f60780f37aaf6fc78675f","study_id":"60edd13110225f80f9f3709b","session_id":"6196baa6ca3ab5ba0d4e48c7","condition":"full-information","relevant_dimensions":["wings","pattern"],"bee_group":{"antennae":"X","wings":"2","pattern":"D","legs":"X"},"action":"harvest","summary":"good-harvest","bonus":1.6400000000000012},{"rt":1132.5,"stimulus":"\n                    <p><b>Action: <em>harvest</em></b></p>\n                    <p>This is the bee that you just saw.</p>\n                    <img src=\"bees-with-color/bee-B1DM.svg\" width=\"200\">\n                    <p><span class=\"greenText\"><b>Successful harvest!</b></span><br>Your pay has increased by $0.02. Your bonus pay is now $0.62.</p>\n            ","response":0,"trial_type":"html-button-response","trial_index":56,"time_elapsed":503661,"internal_node_id":"0.0-4.0-1.24","subject_id":"612f60780f37aaf6fc78675f","study_id":"60edd13110225f80f9f3709b","session_id":"6196baa6ca3ab5ba0d4e48c7","condition":"full-information","relevant_dimensions":["wings","pattern"],"bee_group":{"antennae":"X","wings":"2","pattern":"D","legs":"X"},"bonus":1.6400000000000012},{"rt":5842.90000000014,"stimulus":"bees-with-color/bee-A2DM.svg","response":1,"trial_type":"image-button-response","trial_index":57,"time_elapsed":509509,"internal_node_id":"0.0-4.0-0.25","subject_id":"612f60780f37aaf6fc78675f","study_id":"60edd13110225f80f9f3709b","session_id":"6196baa6ca3ab5ba0d4e48c7","condition":"full-information","relevant_dimensions":["wings","pattern"],"bee_group":{"antennae":"X","wings":"2","pattern":"D","legs":"X"},"action":"avoid","summary":"good-avoid","bonus":1.6400000000000012},{"rt":2347,"stimulus":"\n                    <p><b>Action: <em>avoid</em></b></p>\n                    <p>This is the bee that you just saw.</p>\n                    <img src=\"bees-with-color/bee-A2DM.svg\" width=\"200\">\n                    <p><span class=\"greenText\">Good choice!</span>  This bee would have stung you.<br>Your bonus pay is unchanged, and remains at $0.62.</p>\n            ","response":0,"trial_type":"html-button-response","trial_index":58,"time_elapsed":511862,"internal_node_id":"0.0-4.0-1.25","subject_id":"612f60780f37aaf6fc78675f","study_id":"60edd13110225f80f9f3709b","session_id":"6196baa6ca3ab5ba0d4e48c7","condition":"full-information","relevant_dimensions":["wings","pattern"],"bee_group":{"antennae":"X","wings":"2","pattern":"D","legs":"X"},"bonus":1.6400000000000012},{"rt":3635.3000000000466,"stimulus":"bees-with-color/bee-B2SF.svg","response":0,"trial_type":"image-button-response","trial_index":59,"time_elapsed":515505,"internal_node_id":"0.0-4.0-0.26","subject_id":"612f60780f37aaf6fc78675f","study_id":"60edd13110225f80f9f3709b","session_id":"6196baa6ca3ab5ba0d4e48c7","condition":"full-information","relevant_dimensions":["wings","pattern"],"bee_group":{"antennae":"X","wings":"2","pattern":"D","legs":"X"},"action":"harvest","summary":"good-harvest","bonus":1.6400000000000012},{"rt":1260.1000000000931,"stimulus":"\n                    <p><b>Action: <em>harvest</em></b></p>\n                    <p>This is the bee that you just saw.</p>\n                    <img src=\"bees-with-color/bee-B2SF.svg\" width=\"200\">\n                    <p><span class=\"greenText\"><b>Successful harvest!</b></span><br>Your pay has increased by $0.02. Your bonus pay is now $0.64.</p>\n            ","response":0,"trial_type":"html-button-response","trial_index":60,"time_elapsed":516770,"internal_node_id":"0.0-4.0-1.26","subject_id":"612f60780f37aaf6fc78675f","study_id":"60edd13110225f80f9f3709b","session_id":"6196baa6ca3ab5ba0d4e48c7","condition":"full-information","relevant_dimensions":["wings","pattern"],"bee_group":{"antennae":"X","wings":"2","pattern":"D","legs":"X"},"bonus":1.6400000000000012},{"rt":4149,"stimulus":"bees-with-color/bee-A2SF.svg","response":0,"trial_type":"image-button-response","trial_index":61,"time_elapsed":520923,"internal_node_id":"0.0-4.0-0.27","subject_id":"612f60780f37aaf6fc78675f","study_id":"60edd13110225f80f9f3709b","session_id":"6196baa6ca3ab5ba0d4e48c7","condition":"full-information","relevant_dimensions":["wings","pattern"],"bee_group":{"antennae":"X","wings":"2","pattern":"D","legs":"X"},"action":"harvest","summary":"good-harvest","bonus":1.6400000000000012},{"rt":1107.9000000001397,"stimulus":"\n                    <p><b>Action: <em>harvest</em></b></p>\n                    <p>This is the bee that you just saw.</p>\n                    <img src=\"bees-with-color/bee-A2SF.svg\" width=\"200\">\n                    <p><span class=\"greenText\"><b>Successful harvest!</b></span><br>Your pay has increased by $0.02. Your bonus pay is now $0.66.</p>\n            ","response":0,"trial_type":"html-button-response","trial_index":62,"time_elapsed":522035,"internal_node_id":"0.0-4.0-1.27","subject_id":"612f60780f37aaf6fc78675f","study_id":"60edd13110225f80f9f3709b","session_id":"6196baa6ca3ab5ba0d4e48c7","condition":"full-information","relevant_dimensions":["wings","pattern"],"bee_group":{"antennae":"X","wings":"2","pattern":"D","legs":"X"},"bonus":1.6400000000000012},{"rt":5982.199999999953,"stimulus":"bees-with-color/bee-A2DF.svg","response":1,"trial_type":"image-button-response","trial_index":63,"time_elapsed":528022,"internal_node_id":"0.0-4.0-0.28","subject_id":"612f60780f37aaf6fc78675f","study_id":"60edd13110225f80f9f3709b","session_id":"6196baa6ca3ab5ba0d4e48c7","condition":"full-information","relevant_dimensions":["wings","pattern"],"bee_group":{"antennae":"X","wings":"2","pattern":"D","legs":"X"},"action":"avoid","summary":"good-avoid","bonus":1.6400000000000012},{"rt":1024,"stimulus":"\n                    <p><b>Action: <em>avoid</em></b></p>\n                    <p>This is the bee that you just saw.</p>\n                    <img src=\"bees-with-color/bee-A2DF.svg\" width=\"200\">\n                    <p><span class=\"greenText\">Good choice!</span>  This bee would have stung you.<br>Your bonus pay is unchanged, and remains at $0.66.</p>\n            ","response":0,"trial_type":"html-button-response","trial_index":64,"time_elapsed":529050,"internal_node_id":"0.0-4.0-1.28","subject_id":"612f60780f37aaf6fc78675f","study_id":"60edd13110225f80f9f3709b","session_id":"6196baa6ca3ab5ba0d4e48c7","condition":"full-information","relevant_dimensions":["wings","pattern"],"bee_group":{"antennae":"X","wings":"2","pattern":"D","legs":"X"},"bonus":1.6400000000000012},{"rt":5556.100000000093,"stimulus":"bees-with-color/bee-B1SF.svg","response":0,"trial_type":"image-button-response","trial_index":65,"time_elapsed":534611,"internal_node_id":"0.0-4.0-0.29","subject_id":"612f60780f37aaf6fc78675f","study_id":"60edd13110225f80f9f3709b","session_id":"6196baa6ca3ab5ba0d4e48c7","condition":"full-information","relevant_dimensions":["wings","pattern"],"bee_group":{"antennae":"X","wings":"2","pattern":"D","legs":"X"},"action":"harvest","summary":"good-harvest","bonus":1.6400000000000012},{"rt":1652.6000000000931,"stimulus":"\n                    <p><b>Action: <em>harvest</em></b></p>\n                    <p>This is the bee that you just saw.</p>\n                    <img src=\"bees-with-color/bee-B1SF.svg\" width=\"200\">\n                    <p><span class=\"greenText\"><b>Successful harvest!</b></span><br>Your pay has increased by $0.02. Your bonus pay is now $0.68.</p>\n            ","response":0,"trial_type":"html-button-response","trial_index":66,"time_elapsed":536267,"internal_node_id":"0.0-4.0-1.29","subject_id":"612f60780f37aaf6fc78675f","study_id":"60edd13110225f80f9f3709b","session_id":"6196baa6ca3ab5ba0d4e48c7","condition":"full-information","relevant_dimensions":["wings","pattern"],"bee_group":{"antennae":"X","wings":"2","pattern":"D","legs":"X"},"bonus":1.6400000000000012},{"rt":3092.399999999907,"stimulus":"bees-with-color/bee-A1SF.svg","response":0,"trial_type":"image-button-response","trial_index":67,"time_elapsed":539365,"internal_node_id":"0.0-4.0-0.30","subject_id":"612f60780f37aaf6fc78675f","study_id":"60edd13110225f80f9f3709b","session_id":"6196baa6ca3ab5ba0d4e48c7","condition":"full-information","relevant_dimensions":["wings","pattern"],"bee_group":{"antennae":"X","wings":"2","pattern":"D","legs":"X"},"action":"harvest","summary":"good-harvest","bonus":1.6400000000000012},{"rt":1029.8000000000466,"stimulus":"\n                    <p><b>Action: <em>harvest</em></b></p>\n                    <p>This is the bee that you just saw.</p>\n                    <img src=\"bees-with-color/bee-A1SF.svg\" width=\"200\">\n                    <p><span class=\"greenText\"><b>Successful harvest!</b></span><br>Your pay has increased by $0.02. Your bonus pay is now $0.70.</p>\n            ","response":0,"trial_type":"html-button-response","trial_index":68,"time_elapsed":540399,"internal_node_id":"0.0-4.0-1.30","subject_id":"612f60780f37aaf6fc78675f","study_id":"60edd13110225f80f9f3709b","session_id":"6196baa6ca3ab5ba0d4e48c7","condition":"full-information","relevant_dimensions":["wings","pattern"],"bee_group":{"antennae":"X","wings":"2","pattern":"D","legs":"X"},"bonus":1.6400000000000012},{"rt":5463.800000000047,"stimulus":"bees-with-color/bee-A2SM.svg","response":0,"trial_type":"image-button-response","trial_index":69,"time_elapsed":545868,"internal_node_id":"0.0-4.0-0.31","subject_id":"612f60780f37aaf6fc78675f","study_id":"60edd13110225f80f9f3709b","session_id":"6196baa6ca3ab5ba0d4e48c7","condition":"full-information","relevant_dimensions":["wings","pattern"],"bee_group":{"antennae":"X","wings":"2","pattern":"D","legs":"X"},"action":"harvest","summary":"good-harvest","bonus":1.6400000000000012},{"rt":1330.8999999999069,"stimulus":"\n                    <p><b>Action: <em>harvest</em></b></p>\n                    <p>This is the bee that you just saw.</p>\n                    <img src=\"bees-with-color/bee-A2SM.svg\" width=\"200\">\n                    <p><span class=\"greenText\"><b>Successful harvest!</b></span><br>Your pay has increased by $0.02. Your bonus pay is now $0.72.</p>\n            ","response":0,"trial_type":"html-button-response","trial_index":70,"time_elapsed":547203,"internal_node_id":"0.0-4.0-1.31","subject_id":"612f60780f37aaf6fc78675f","study_id":"60edd13110225f80f9f3709b","session_id":"6196baa6ca3ab5ba0d4e48c7","condition":"full-information","relevant_dimensions":["wings","pattern"],"bee_group":{"antennae":"X","wings":"2","pattern":"D","legs":"X"},"bonus":1.6400000000000012},{"rt":5156.199999999953,"stimulus":"bees-with-color/bee-A2DM.svg","response":1,"trial_type":"image-button-response","trial_index":71,"time_elapsed":552365,"internal_node_id":"0.0-4.0-0.32","subject_id":"612f60780f37aaf6fc78675f","study_id":"60edd13110225f80f9f3709b","session_id":"6196baa6ca3ab5ba0d4e48c7","condition":"full-information","relevant_dimensions":["wings","pattern"],"bee_group":{"antennae":"X","wings":"2","pattern":"D","legs":"X"},"action":"avoid","summary":"good-avoid","bonus":1.6400000000000012},{"rt":1055.0999999998603,"stimulus":"\n                    <p><b>Action: <em>avoid</em></b></p>\n                    <p>This is the bee that you just saw.</p>\n                    <img src=\"bees-with-color/bee-A2DM.svg\" width=\"200\">\n                    <p><span class=\"greenText\">Good choice!</span>  This bee would have stung you.<br>Your bonus pay is unchanged, and remains at $0.72.</p>\n            ","response":0,"trial_type":"html-button-response","trial_index":72,"time_elapsed":553425,"internal_node_id":"0.0-4.0-1.32","subject_id":"612f60780f37aaf6fc78675f","study_id":"60edd13110225f80f9f3709b","session_id":"6196baa6ca3ab5ba0d4e48c7","condition":"full-information","relevant_dimensions":["wings","pattern"],"bee_group":{"antennae":"X","wings":"2","pattern":"D","legs":"X"},"bonus":1.6400000000000012},{"rt":3340,"stimulus":"bees-with-color/bee-B1SM.svg","response":0,"trial_type":"image-button-response","trial_index":73,"time_elapsed":556770,"internal_node_id":"0.0-4.0-0.33","subject_id":"612f60780f37aaf6fc78675f","study_id":"60edd13110225f80f9f3709b","session_id":"6196baa6ca3ab5ba0d4e48c7","condition":"full-information","relevant_dimensions":["wings","pattern"],"bee_group":{"antennae":"X","wings":"2","pattern":"D","legs":"X"},"action":"harvest","summary":"good-harvest","bonus":1.6400000000000012},{"rt":1455.4000000001397,"stimulus":"\n                    <p><b>Action: <em>harvest</em></b></p>\n                    <p>This is the bee that you just saw.</p>\n                    <img src=\"bees-with-color/bee-B1SM.svg\" width=\"200\">\n                    <p><span class=\"greenText\"><b>Successful harvest!</b></span><br>Your pay has increased by $0.02. Your bonus pay is now $0.74.</p>\n            ","response":0,"trial_type":"html-button-response","trial_index":74,"time_elapsed":558230,"internal_node_id":"0.0-4.0-1.33","subject_id":"612f60780f37aaf6fc78675f","study_id":"60edd13110225f80f9f3709b","session_id":"6196baa6ca3ab5ba0d4e48c7","condition":"full-information","relevant_dimensions":["wings","pattern"],"bee_group":{"antennae":"X","wings":"2","pattern":"D","legs":"X"},"bonus":1.6400000000000012},{"rt":9746.300000000047,"stimulus":"bees-with-color/bee-B2DM.svg","response":1,"trial_type":"image-button-response","trial_index":75,"time_elapsed":567982,"internal_node_id":"0.0-4.0-0.34","subject_id":"612f60780f37aaf6fc78675f","study_id":"60edd13110225f80f9f3709b","session_id":"6196baa6ca3ab5ba0d4e48c7","condition":"full-information","relevant_dimensions":["wings","pattern"],"bee_group":{"antennae":"X","wings":"2","pattern":"D","legs":"X"},"action":"avoid","summary":"good-avoid","bonus":1.6400000000000012},{"rt":1101.8999999999069,"stimulus":"\n                    <p><b>Action: <em>avoid</em></b></p>\n                    <p>This is the bee that you just saw.</p>\n                    <img src=\"bees-with-color/bee-B2DM.svg\" width=\"200\">\n                    <p><span class=\"greenText\">Good choice!</span>  This bee would have stung you.<br>Your bonus pay is unchanged, and remains at $0.74.</p>\n            ","response":0,"trial_type":"html-button-response","trial_index":76,"time_elapsed":569089,"internal_node_id":"0.0-4.0-1.34","subject_id":"612f60780f37aaf6fc78675f","study_id":"60edd13110225f80f9f3709b","session_id":"6196baa6ca3ab5ba0d4e48c7","condition":"full-information","relevant_dimensions":["wings","pattern"],"bee_group":{"antennae":"X","wings":"2","pattern":"D","legs":"X"},"bonus":1.6400000000000012},{"rt":1923.6999999999534,"stimulus":"bees-with-color/bee-B1DM.svg","response":0,"trial_type":"image-button-response","trial_index":77,"time_elapsed":571018,"internal_node_id":"0.0-4.0-0.35","subject_id":"612f60780f37aaf6fc78675f","study_id":"60edd13110225f80f9f3709b","session_id":"6196baa6ca3ab5ba0d4e48c7","condition":"full-information","relevant_dimensions":["wings","pattern"],"bee_group":{"antennae":"X","wings":"2","pattern":"D","legs":"X"},"action":"harvest","summary":"good-harvest","bonus":1.6400000000000012},{"rt":911.5,"stimulus":"\n                    <p><b>Action: <em>harvest</em></b></p>\n                    <p>This is the bee that you just saw.</p>\n                    <img src=\"bees-with-color/bee-B1DM.svg\" width=\"200\">\n                    <p><span class=\"greenText\"><b>Successful harvest!</b></span><br>Your pay has increased by $0.02. Your bonus pay is now $0.76.</p>\n            ","response":0,"trial_type":"html-button-response","trial_index":78,"time_elapsed":571935,"internal_node_id":"0.0-4.0-1.35","subject_id":"612f60780f37aaf6fc78675f","study_id":"60edd13110225f80f9f3709b","session_id":"6196baa6ca3ab5ba0d4e48c7","condition":"full-information","relevant_dimensions":["wings","pattern"],"bee_group":{"antennae":"X","wings":"2","pattern":"D","legs":"X"},"bonus":1.6400000000000012},{"rt":4149,"stimulus":"bees-with-color/bee-A2SF.svg","response":0,"trial_type":"image-button-response","trial_index":79,"time_elapsed":576088,"internal_node_id":"0.0-4.0-0.36","subject_id":"612f60780f37aaf6fc78675f","study_id":"60edd13110225f80f9f3709b","session_id":"6196baa6ca3ab5ba0d4e48c7","condition":"full-information","relevant_dimensions":["wings","pattern"],"bee_group":{"antennae":"X","wings":"2","pattern":"D","legs":"X"},"action":"harvest","summary":"good-harvest","bonus":1.6400000000000012},{"rt":958.6000000000931,"stimulus":"\n                    <p><b>Action: <em>harvest</em></b></p>\n                    <p>This is the bee that you just saw.</p>\n                    <img src=\"bees-with-color/bee-A2SF.svg\" width=\"200\">\n                    <p><span class=\"greenText\"><b>Successful harvest!</b></span><br>Your pay has increased by $0.02. Your bonus pay is now $0.78.</p>\n            ","response":0,"trial_type":"html-button-response","trial_index":80,"time_elapsed":577052,"internal_node_id":"0.0-4.0-1.36","subject_id":"612f60780f37aaf6fc78675f","study_id":"60edd13110225f80f9f3709b","session_id":"6196baa6ca3ab5ba0d4e48c7","condition":"full-information","relevant_dimensions":["wings","pattern"],"bee_group":{"antennae":"X","wings":"2","pattern":"D","legs":"X"},"bonus":1.6400000000000012},{"rt":8615.5,"stimulus":"bees-with-color/bee-A1DF.svg","response":0,"trial_type":"image-button-response","trial_index":81,"time_elapsed":585674,"internal_node_id":"0.0-4.0-0.37","subject_id":"612f60780f37aaf6fc78675f","study_id":"60edd13110225f80f9f3709b","session_id":"6196baa6ca3ab5ba0d4e48c7","condition":"full-information","relevant_dimensions":["wings","pattern"],"bee_group":{"antennae":"X","wings":"2","pattern":"D","legs":"X"},"action":"harvest","summary":"good-harvest","bonus":1.6400000000000012},{"rt":1287.7999999998137,"stimulus":"\n                    <p><b>Action: <em>harvest</em></b></p>\n                    <p>This is the bee that you just saw.</p>\n                    <img src=\"bees-with-color/bee-A1DF.svg\" width=\"200\">\n                    <p><span class=\"greenText\"><b>Successful harvest!</b></span><br>Your pay has increased by $0.02. Your bonus pay is now $0.80.</p>\n            ","response":0,"trial_type":"html-button-response","trial_index":82,"time_elapsed":586967,"internal_node_id":"0.0-4.0-1.37","subject_id":"612f60780f37aaf6fc78675f","study_id":"60edd13110225f80f9f3709b","session_id":"6196baa6ca3ab5ba0d4e48c7","condition":"full-information","relevant_dimensions":["wings","pattern"],"bee_group":{"antennae":"X","wings":"2","pattern":"D","legs":"X"},"bonus":1.6400000000000012},{"rt":8564,"stimulus":"bees-with-color/bee-B2SM.svg","response":0,"trial_type":"image-button-response","trial_index":83,"time_elapsed":595537,"internal_node_id":"0.0-4.0-0.38","subject_id":"612f60780f37aaf6fc78675f","study_id":"60edd13110225f80f9f3709b","session_id":"6196baa6ca3ab5ba0d4e48c7","condition":"full-information","relevant_dimensions":["wings","pattern"],"bee_group":{"antennae":"X","wings":"2","pattern":"D","legs":"X"},"action":"harvest","summary":"good-harvest","bonus":1.6400000000000012},{"rt":1272,"stimulus":"\n                    <p><b>Action: <em>harvest</em></b></p>\n                    <p>This is the bee that you just saw.</p>\n                    <img src=\"bees-with-color/bee-B2SM.svg\" width=\"200\">\n                    <p><span class=\"greenText\"><b>Successful harvest!</b></span><br>Your pay has increased by $0.02. Your bonus pay is now $0.82.</p>\n            ","response":0,"trial_type":"html-button-response","trial_index":84,"time_elapsed":596814,"internal_node_id":"0.0-4.0-1.38","subject_id":"612f60780f37aaf6fc78675f","study_id":"60edd13110225f80f9f3709b","session_id":"6196baa6ca3ab5ba0d4e48c7","condition":"full-information","relevant_dimensions":["wings","pattern"],"bee_group":{"antennae":"X","wings":"2","pattern":"D","legs":"X"},"bonus":1.6400000000000012},{"rt":2783,"stimulus":"bees-with-color/bee-A1SM.svg","response":0,"trial_type":"image-button-response","trial_index":85,"time_elapsed":599602,"internal_node_id":"0.0-4.0-0.39","subject_id":"612f60780f37aaf6fc78675f","study_id":"60edd13110225f80f9f3709b","session_id":"6196baa6ca3ab5ba0d4e48c7","condition":"full-information","relevant_dimensions":["wings","pattern"],"bee_group":{"antennae":"X","wings":"2","pattern":"D","legs":"X"},"action":"harvest","summary":"good-harvest","bonus":1.6400000000000012},{"rt":997.8000000000466,"stimulus":"\n                    <p><b>Action: <em>harvest</em></b></p>\n                    <p>This is the bee that you just saw.</p>\n                    <img src=\"bees-with-color/bee-A1SM.svg\" width=\"200\">\n                    <p><span class=\"greenText\"><b>Successful harvest!</b></span><br>Your pay has increased by $0.02. Your bonus pay is now $0.84.</p>\n            ","response":0,"trial_type":"html-button-response","trial_index":86,"time_elapsed":600604,"internal_node_id":"0.0-4.0-1.39","subject_id":"612f60780f37aaf6fc78675f","study_id":"60edd13110225f80f9f3709b","session_id":"6196baa6ca3ab5ba0d4e48c7","condition":"full-information","relevant_dimensions":["wings","pattern"],"bee_group":{"antennae":"X","wings":"2","pattern":"D","legs":"X"},"bonus":1.6400000000000012},{"rt":5872.799999999814,"stimulus":"bees-with-color/bee-B2SF.svg","response":1,"trial_type":"image-button-response","trial_index":87,"time_elapsed":606480,"internal_node_id":"0.0-4.0-0.40","subject_id":"612f60780f37aaf6fc78675f","study_id":"60edd13110225f80f9f3709b","session_id":"6196baa6ca3ab5ba0d4e48c7","condition":"full-information","relevant_dimensions":["wings","pattern"],"bee_group":{"antennae":"X","wings":"2","pattern":"D","legs":"X"},"action":"avoid","summary":"bad-avoid","bonus":1.6400000000000012},{"rt":4771,"stimulus":"\n                    <p><b>Action: <em>avoid</em></b></p>\n                    <p>This is the bee that you just saw.</p>\n                    <img src=\"bees-with-color/bee-B2SF.svg\" width=\"200\">\n                    <p><span class=\"redText\">Bad choice,</span> the bee was friendly.<br>Your bonus pay is unchanged, and remains at $0.84.</p>\n            ","response":0,"trial_type":"html-button-response","trial_index":88,"time_elapsed":611255,"internal_node_id":"0.0-4.0-1.40","subject_id":"612f60780f37aaf6fc78675f","study_id":"60edd13110225f80f9f3709b","session_id":"6196baa6ca3ab5ba0d4e48c7","condition":"full-information","relevant_dimensions":["wings","pattern"],"bee_group":{"antennae":"X","wings":"2","pattern":"D","legs":"X"},"bonus":1.6400000000000012},{"rt":4859.399999999907,"stimulus":"bees-with-color/bee-B1SF.svg","response":0,"trial_type":"image-button-response","trial_index":89,"time_elapsed":616120,"internal_node_id":"0.0-4.0-0.41","subject_id":"612f60780f37aaf6fc78675f","study_id":"60edd13110225f80f9f3709b","session_id":"6196baa6ca3ab5ba0d4e48c7","condition":"full-information","relevant_dimensions":["wings","pattern"],"bee_group":{"antennae":"X","wings":"2","pattern":"D","legs":"X"},"action":"harvest","summary":"good-harvest","bonus":1.6400000000000012},{"rt":1049.6000000000931,"stimulus":"\n                    <p><b>Action: <em>harvest</em></b></p>\n                    <p>This is the bee that you just saw.</p>\n                    <img src=\"bees-with-color/bee-B1SF.svg\" width=\"200\">\n                    <p><span class=\"greenText\"><b>Successful harvest!</b></span><br>Your pay has increased by $0.02. Your bonus pay is now $0.86.</p>\n            ","response":0,"trial_type":"html-button-response","trial_index":90,"time_elapsed":617174,"internal_node_id":"0.0-4.0-1.41","subject_id":"612f60780f37aaf6fc78675f","study_id":"60edd13110225f80f9f3709b","session_id":"6196baa6ca3ab5ba0d4e48c7","condition":"full-information","relevant_dimensions":["wings","pattern"],"bee_group":{"antennae":"X","wings":"2","pattern":"D","legs":"X"},"bonus":1.6400000000000012},{"rt":5035.399999999907,"stimulus":"bees-with-color/bee-A1SF.svg","response":0,"trial_type":"image-button-response","trial_index":91,"time_elapsed":622214,"internal_node_id":"0.0-4.0-0.42","subject_id":"612f60780f37aaf6fc78675f","study_id":"60edd13110225f80f9f3709b","session_id":"6196baa6ca3ab5ba0d4e48c7","condition":"full-information","relevant_dimensions":["wings","pattern"],"bee_group":{"antennae":"X","wings":"2","pattern":"D","legs":"X"},"action":"harvest","summary":"good-harvest","bonus":1.6400000000000012},{"rt":1165.1999999999534,"stimulus":"\n                    <p><b>Action: <em>harvest</em></b></p>\n                    <p>This is the bee that you just saw.</p>\n                    <img src=\"bees-with-color/bee-A1SF.svg\" width=\"200\">\n                    <p><span class=\"greenText\"><b>Successful harvest!</b></span><br>Your pay has increased by $0.02. Your bonus pay is now $0.88.</p>\n            ","response":0,"trial_type":"html-button-response","trial_index":92,"time_elapsed":623384,"internal_node_id":"0.0-4.0-1.42","subject_id":"612f60780f37aaf6fc78675f","study_id":"60edd13110225f80f9f3709b","session_id":"6196baa6ca3ab5ba0d4e48c7","condition":"full-information","relevant_dimensions":["wings","pattern"],"bee_group":{"antennae":"X","wings":"2","pattern":"D","legs":"X"},"bonus":1.6400000000000012},{"rt":5693,"stimulus":"bees-with-color/bee-B2DF.svg","response":1,"trial_type":"image-button-response","trial_index":93,"time_elapsed":629082,"internal_node_id":"0.0-4.0-0.43","subject_id":"612f60780f37aaf6fc78675f","study_id":"60edd13110225f80f9f3709b","session_id":"6196baa6ca3ab5ba0d4e48c7","condition":"full-information","relevant_dimensions":["wings","pattern"],"bee_group":{"antennae":"X","wings":"2","pattern":"D","legs":"X"},"action":"avoid","summary":"good-avoid","bonus":1.6400000000000012},{"rt":1039.2000000001863,"stimulus":"\n                    <p><b>Action: <em>avoid</em></b></p>\n                    <p>This is the bee that you just saw.</p>\n                    <img src=\"bees-with-color/bee-B2DF.svg\" width=\"200\">\n                    <p><span class=\"greenText\">Good choice!</span>  This bee would have stung you.<br>Your bonus pay is unchanged, and remains at $0.88.</p>\n            ","response":0,"trial_type":"html-button-response","trial_index":94,"time_elapsed":630126,"internal_node_id":"0.0-4.0-1.43","subject_id":"612f60780f37aaf6fc78675f","study_id":"60edd13110225f80f9f3709b","session_id":"6196baa6ca3ab5ba0d4e48c7","condition":"full-information","relevant_dimensions":["wings","pattern"],"bee_group":{"antennae":"X","wings":"2","pattern":"D","legs":"X"},"bonus":1.6400000000000012},{"rt":3739.899999999907,"stimulus":"bees-with-color/bee-A1DM.svg","response":0,"trial_type":"image-button-response","trial_index":95,"time_elapsed":633871,"internal_node_id":"0.0-4.0-0.44","subject_id":"612f60780f37aaf6fc78675f","study_id":"60edd13110225f80f9f3709b","session_id":"6196baa6ca3ab5ba0d4e48c7","condition":"full-information","relevant_dimensions":["wings","pattern"],"bee_group":{"antennae":"X","wings":"2","pattern":"D","legs":"X"},"action":"harvest","summary":"good-harvest","bonus":1.6400000000000012},{"rt":1078.8999999999069,"stimulus":"\n                    <p><b>Action: <em>harvest</em></b></p>\n                    <p>This is the bee that you just saw.</p>\n                    <img src=\"bees-with-color/bee-A1DM.svg\" width=\"200\">\n                    <p><span class=\"greenText\"><b>Successful harvest!</b></span><br>Your pay has increased by $0.02. Your bonus pay is now $0.90.</p>\n            ","response":0,"trial_type":"html-button-response","trial_index":96,"time_elapsed":634955,"internal_node_id":"0.0-4.0-1.44","subject_id":"612f60780f37aaf6fc78675f","study_id":"60edd13110225f80f9f3709b","session_id":"6196baa6ca3ab5ba0d4e48c7","condition":"full-information","relevant_dimensions":["wings","pattern"],"bee_group":{"antennae":"X","wings":"2","pattern":"D","legs":"X"},"bonus":1.6400000000000012},{"rt":4364.699999999953,"stimulus":"bees-with-color/bee-B1DF.svg","response":0,"trial_type":"image-button-response","trial_index":97,"time_elapsed":639325,"internal_node_id":"0.0-4.0-0.45","subject_id":"612f60780f37aaf6fc78675f","study_id":"60edd13110225f80f9f3709b","session_id":"6196baa6ca3ab5ba0d4e48c7","condition":"full-information","relevant_dimensions":["wings","pattern"],"bee_group":{"antennae":"X","wings":"2","pattern":"D","legs":"X"},"action":"harvest","summary":"good-harvest","bonus":1.6400000000000012},{"rt":917.5,"stimulus":"\n                    <p><b>Action: <em>harvest</em></b></p>\n                    <p>This is the bee that you just saw.</p>\n                    <img src=\"bees-with-color/bee-B1DF.svg\" width=\"200\">\n                    <p><span class=\"greenText\"><b>Successful harvest!</b></span><br>Your pay has increased by $0.02. Your bonus pay is now $0.92.</p>\n            ","response":0,"trial_type":"html-button-response","trial_index":98,"time_elapsed":640247,"internal_node_id":"0.0-4.0-1.45","subject_id":"612f60780f37aaf6fc78675f","study_id":"60edd13110225f80f9f3709b","session_id":"6196baa6ca3ab5ba0d4e48c7","condition":"full-information","relevant_dimensions":["wings","pattern"],"bee_group":{"antennae":"X","wings":"2","pattern":"D","legs":"X"},"bonus":1.6400000000000012},{"rt":5458.300000000047,"stimulus":"bees-with-color/bee-A2DF.svg","response":1,"trial_type":"image-button-response","trial_index":99,"time_elapsed":645710,"internal_node_id":"0.0-4.0-0.46","subject_id":"612f60780f37aaf6fc78675f","study_id":"60edd13110225f80f9f3709b","session_id":"6196baa6ca3ab5ba0d4e48c7","condition":"full-information","relevant_dimensions":["wings","pattern"],"bee_group":{"antennae":"X","wings":"2","pattern":"D","legs":"X"},"action":"avoid","summary":"good-avoid","bonus":1.6400000000000012},{"rt":1643.8000000000466,"stimulus":"\n                    <p><b>Action: <em>avoid</em></b></p>\n                    <p>This is the bee that you just saw.</p>\n                    <img src=\"bees-with-color/bee-A2DF.svg\" width=\"200\">\n                    <p><span class=\"greenText\">Good choice!</span>  This bee would have stung you.<br>Your bonus pay is unchanged, and remains at $0.92.</p>\n            ","response":0,"trial_type":"html-button-response","trial_index":100,"time_elapsed":647359,"internal_node_id":"0.0-4.0-1.46","subject_id":"612f60780f37aaf6fc78675f","study_id":"60edd13110225f80f9f3709b","session_id":"6196baa6ca3ab5ba0d4e48c7","condition":"full-information","relevant_dimensions":["wings","pattern"],"bee_group":{"antennae":"X","wings":"2","pattern":"D","legs":"X"},"bonus":1.6400000000000012},{"rt":6182.199999999953,"stimulus":"bees-with-color/bee-A2SM.svg","response":0,"trial_type":"image-button-response","trial_index":101,"time_elapsed":653548,"internal_node_id":"0.0-4.0-0.47","subject_id":"612f60780f37aaf6fc78675f","study_id":"60edd13110225f80f9f3709b","session_id":"6196baa6ca3ab5ba0d4e48c7","condition":"full-information","relevant_dimensions":["wings","pattern"],"bee_group":{"antennae":"X","wings":"2","pattern":"D","legs":"X"},"action":"harvest","summary":"good-harvest","bonus":1.6400000000000012},{"rt":1018,"stimulus":"\n                    <p><b>Action: <em>harvest</em></b></p>\n                    <p>This is the bee that you just saw.</p>\n                    <img src=\"bees-with-color/bee-A2SM.svg\" width=\"200\">\n                    <p><span class=\"greenText\"><b>Successful harvest!</b></span><br>Your pay has increased by $0.02. Your bonus pay is now $0.94.</p>\n            ","response":0,"trial_type":"html-button-response","trial_index":102,"time_elapsed":654571,"internal_node_id":"0.0-4.0-1.47","subject_id":"612f60780f37aaf6fc78675f","study_id":"60edd13110225f80f9f3709b","session_id":"6196baa6ca3ab5ba0d4e48c7","condition":"full-information","relevant_dimensions":["wings","pattern"],"bee_group":{"antennae":"X","wings":"2","pattern":"D","legs":"X"},"bonus":1.6400000000000012},{"rt":4521.800000000047,"stimulus":"bees-with-color/bee-A1SF.svg","response":0,"trial_type":"image-button-response","trial_index":103,"time_elapsed":659098,"internal_node_id":"0.0-4.0-0.48","subject_id":"612f60780f37aaf6fc78675f","study_id":"60edd13110225f80f9f3709b","session_id":"6196baa6ca3ab5ba0d4e48c7","condition":"full-information","relevant_dimensions":["wings","pattern"],"bee_group":{"antennae":"X","wings":"2","pattern":"D","legs":"X"},"action":"harvest","summary":"good-harvest","bonus":1.6400000000000012},{"rt":931.1999999999534,"stimulus":"\n                    <p><b>Action: <em>harvest</em></b></p>\n                    <p>This is the bee that you just saw.</p>\n                    <img src=\"bees-with-color/bee-A1SF.svg\" width=\"200\">\n                    <p><span class=\"greenText\"><b>Successful harvest!</b></span><br>Your pay has increased by $0.02. Your bonus pay is now $0.96.</p>\n            ","response":0,"trial_type":"html-button-response","trial_index":104,"time_elapsed":660035,"internal_node_id":"0.0-4.0-1.48","subject_id":"612f60780f37aaf6fc78675f","study_id":"60edd13110225f80f9f3709b","session_id":"6196baa6ca3ab5ba0d4e48c7","condition":"full-information","relevant_dimensions":["wings","pattern"],"bee_group":{"antennae":"X","wings":"2","pattern":"D","legs":"X"},"bonus":1.6400000000000012},{"rt":4055.5,"stimulus":"bees-with-color/bee-B2SF.svg","response":0,"trial_type":"image-button-response","trial_index":105,"time_elapsed":664097,"internal_node_id":"0.0-4.0-0.49","subject_id":"612f60780f37aaf6fc78675f","study_id":"60edd13110225f80f9f3709b","session_id":"6196baa6ca3ab5ba0d4e48c7","condition":"full-information","relevant_dimensions":["wings","pattern"],"bee_group":{"antennae":"X","wings":"2","pattern":"D","legs":"X"},"action":"harvest","summary":"good-harvest","bonus":1.6400000000000012},{"rt":976.8000000000466,"stimulus":"\n                    <p><b>Action: <em>harvest</em></b></p>\n                    <p>This is the bee that you just saw.</p>\n                    <img src=\"bees-with-color/bee-B2SF.svg\" width=\"200\">\n                    <p><span class=\"greenText\"><b>Successful harvest!</b></span><br>Your pay has increased by $0.02. Your bonus pay is now $0.98.</p>\n            ","response":0,"trial_type":"html-button-response","trial_index":106,"time_elapsed":665080,"internal_node_id":"0.0-4.0-1.49","subject_id":"612f60780f37aaf6fc78675f","study_id":"60edd13110225f80f9f3709b","session_id":"6196baa6ca3ab5ba0d4e48c7","condition":"full-information","relevant_dimensions":["wings","pattern"],"bee_group":{"antennae":"X","wings":"2","pattern":"D","legs":"X"},"bonus":1.6400000000000012},{"rt":11032.09999999986,"stimulus":"bees-with-color/bee-B1SF.svg","response":0,"trial_type":"image-button-response","trial_index":107,"time_elapsed":676117,"internal_node_id":"0.0-4.0-0.50","subject_id":"612f60780f37aaf6fc78675f","study_id":"60edd13110225f80f9f3709b","session_id":"6196baa6ca3ab5ba0d4e48c7","condition":"full-information","relevant_dimensions":["wings","pattern"],"bee_group":{"antennae":"X","wings":"2","pattern":"D","legs":"X"},"action":"harvest","summary":"good-harvest","bonus":1.6400000000000012},{"rt":913.4000000001397,"stimulus":"\n                    <p><b>Action: <em>harvest</em></b></p>\n                    <p>This is the bee that you just saw.</p>\n                    <img src=\"bees-with-color/bee-B1SF.svg\" width=\"200\">\n                    <p><span class=\"greenText\"><b>Successful harvest!</b></span><br>Your pay has increased by $0.02. Your bonus pay is now $1.00.</p>\n            ","response":0,"trial_type":"html-button-response","trial_index":108,"time_elapsed":677034,"internal_node_id":"0.0-4.0-1.50","subject_id":"612f60780f37aaf6fc78675f","study_id":"60edd13110225f80f9f3709b","session_id":"6196baa6ca3ab5ba0d4e48c7","condition":"full-information","relevant_dimensions":["wings","pattern"],"bee_group":{"antennae":"X","wings":"2","pattern":"D","legs":"X"},"bonus":1.6400000000000012},{"rt":3859.1999999999534,"stimulus":"bees-with-color/bee-B1DM.svg","response":0,"trial_type":"image-button-response","trial_index":109,"time_elapsed":680899,"internal_node_id":"0.0-4.0-0.51","subject_id":"612f60780f37aaf6fc78675f","study_id":"60edd13110225f80f9f3709b","session_id":"6196baa6ca3ab5ba0d4e48c7","condition":"full-information","relevant_dimensions":["wings","pattern"],"bee_group":{"antennae":"X","wings":"2","pattern":"D","legs":"X"},"action":"harvest","summary":"good-harvest","bonus":1.6400000000000012},{"rt":1312.9000000001397,"stimulus":"\n                    <p><b>Action: <em>harvest</em></b></p>\n                    <p>This is the bee that you just saw.</p>\n                    <img src=\"bees-with-color/bee-B1DM.svg\" width=\"200\">\n                    <p><span class=\"greenText\"><b>Successful harvest!</b></span><br>Your pay has increased by $0.02. Your bonus pay is now $1.02.</p>\n            ","response":0,"trial_type":"html-button-response","trial_index":110,"time_elapsed":682215,"internal_node_id":"0.0-4.0-1.51","subject_id":"612f60780f37aaf6fc78675f","study_id":"60edd13110225f80f9f3709b","session_id":"6196baa6ca3ab5ba0d4e48c7","condition":"full-information","relevant_dimensions":["wings","pattern"],"bee_group":{"antennae":"X","wings":"2","pattern":"D","legs":"X"},"bonus":1.6400000000000012},{"rt":7294.199999999953,"stimulus":"bees-with-color/bee-B2SM.svg","response":0,"trial_type":"image-button-response","trial_index":111,"time_elapsed":689514,"internal_node_id":"0.0-4.0-0.52","subject_id":"612f60780f37aaf6fc78675f","study_id":"60edd13110225f80f9f3709b","session_id":"6196baa6ca3ab5ba0d4e48c7","condition":"full-information","relevant_dimensions":["wings","pattern"],"bee_group":{"antennae":"X","wings":"2","pattern":"D","legs":"X"},"action":"harvest","summary":"good-harvest","bonus":1.6400000000000012},{"rt":884.6999999999534,"stimulus":"\n                    <p><b>Action: <em>harvest</em></b></p>\n                    <p>This is the bee that you just saw.</p>\n                    <img src=\"bees-with-color/bee-B2SM.svg\" width=\"200\">\n                    <p><span class=\"greenText\"><b>Successful harvest!</b></span><br>Your pay has increased by $0.02. Your bonus pay is now $1.04.</p>\n            ","response":0,"trial_type":"html-button-response","trial_index":112,"time_elapsed":690403,"internal_node_id":"0.0-4.0-1.52","subject_id":"612f60780f37aaf6fc78675f","study_id":"60edd13110225f80f9f3709b","session_id":"6196baa6ca3ab5ba0d4e48c7","condition":"full-information","relevant_dimensions":["wings","pattern"],"bee_group":{"antennae":"X","wings":"2","pattern":"D","legs":"X"},"bonus":1.6400000000000012},{"rt":3604.399999999907,"stimulus":"bees-with-color/bee-A1DM.svg","response":0,"trial_type":"image-button-response","trial_index":113,"time_elapsed":694013,"internal_node_id":"0.0-4.0-0.53","subject_id":"612f60780f37aaf6fc78675f","study_id":"60edd13110225f80f9f3709b","session_id":"6196baa6ca3ab5ba0d4e48c7","condition":"full-information","relevant_dimensions":["wings","pattern"],"bee_group":{"antennae":"X","wings":"2","pattern":"D","legs":"X"},"action":"harvest","summary":"good-harvest","bonus":1.6400000000000012},{"rt":1113.5,"stimulus":"\n                    <p><b>Action: <em>harvest</em></b></p>\n                    <p>This is the bee that you just saw.</p>\n                    <img src=\"bees-with-color/bee-A1DM.svg\" width=\"200\">\n                    <p><span class=\"greenText\"><b>Successful harvest!</b></span><br>Your pay has increased by $0.02. Your bonus pay is now $1.06.</p>\n            ","response":0,"trial_type":"html-button-response","trial_index":114,"time_elapsed":695130,"internal_node_id":"0.0-4.0-1.53","subject_id":"612f60780f37aaf6fc78675f","study_id":"60edd13110225f80f9f3709b","session_id":"6196baa6ca3ab5ba0d4e48c7","condition":"full-information","relevant_dimensions":["wings","pattern"],"bee_group":{"antennae":"X","wings":"2","pattern":"D","legs":"X"},"bonus":1.6400000000000012},{"rt":3942,"stimulus":"bees-with-color/bee-A2DM.svg","response":1,"trial_type":"image-button-response","trial_index":115,"time_elapsed":699078,"internal_node_id":"0.0-4.0-0.54","subject_id":"612f60780f37aaf6fc78675f","study_id":"60edd13110225f80f9f3709b","session_id":"6196baa6ca3ab5ba0d4e48c7","condition":"full-information","relevant_dimensions":["wings","pattern"],"bee_group":{"antennae":"X","wings":"2","pattern":"D","legs":"X"},"action":"avoid","summary":"good-avoid","bonus":1.6400000000000012},{"rt":1300.9000000001397,"stimulus":"\n                    <p><b>Action: <em>avoid</em></b></p>\n                    <p>This is the bee that you just saw.</p>\n                    <img src=\"bees-with-color/bee-A2DM.svg\" width=\"200\">\n                    <p><span class=\"greenText\">Good choice!</span>  This bee would have stung you.<br>Your bonus pay is unchanged, and remains at $1.06.</p>\n            ","response":0,"trial_type":"html-button-response","trial_index":116,"time_elapsed":700383,"internal_node_id":"0.0-4.0-1.54","subject_id":"612f60780f37aaf6fc78675f","study_id":"60edd13110225f80f9f3709b","session_id":"6196baa6ca3ab5ba0d4e48c7","condition":"full-information","relevant_dimensions":["wings","pattern"],"bee_group":{"antennae":"X","wings":"2","pattern":"D","legs":"X"},"bonus":1.6400000000000012},{"rt":7164.600000000093,"stimulus":"bees-with-color/bee-A2DF.svg","response":1,"trial_type":"image-button-response","trial_index":117,"time_elapsed":707553,"internal_node_id":"0.0-4.0-0.55","subject_id":"612f60780f37aaf6fc78675f","study_id":"60edd13110225f80f9f3709b","session_id":"6196baa6ca3ab5ba0d4e48c7","condition":"full-information","relevant_dimensions":["wings","pattern"],"bee_group":{"antennae":"X","wings":"2","pattern":"D","legs":"X"},"action":"avoid","summary":"good-avoid","bonus":1.6400000000000012},{"rt":4487.499999999767,"stimulus":"\n                    <p><b>Action: <em>avoid</em></b></p>\n                    <p>This is the bee that you just saw.</p>\n                    <img src=\"bees-with-color/bee-A2DF.svg\" width=\"200\">\n                    <p><span class=\"greenText\">Good choice!</span>  This bee would have stung you.<br>Your bonus pay is unchanged, and remains at $1.06.</p>\n            ","response":0,"trial_type":"html-button-response","trial_index":118,"time_elapsed":712046,"internal_node_id":"0.0-4.0-1.55","subject_id":"612f60780f37aaf6fc78675f","study_id":"60edd13110225f80f9f3709b","session_id":"6196baa6ca3ab5ba0d4e48c7","condition":"full-information","relevant_dimensions":["wings","pattern"],"bee_group":{"antennae":"X","wings":"2","pattern":"D","legs":"X"},"bonus":1.6400000000000012},{"rt":4033.5,"stimulus":"bees-with-color/bee-B1SM.svg","response":0,"trial_type":"image-button-response","trial_index":119,"time_elapsed":716084,"internal_node_id":"0.0-4.0-0.56","subject_id":"612f60780f37aaf6fc78675f","study_id":"60edd13110225f80f9f3709b","session_id":"6196baa6ca3ab5ba0d4e48c7","condition":"full-information","relevant_dimensions":["wings","pattern"],"bee_group":{"antennae":"X","wings":"2","pattern":"D","legs":"X"},"action":"harvest","summary":"good-harvest","bonus":1.6400000000000012},{"rt":1204.0999999996275,"stimulus":"\n                    <p><b>Action: <em>harvest</em></b></p>\n                    <p>This is the bee that you just saw.</p>\n                    <img src=\"bees-with-color/bee-B1SM.svg\" width=\"200\">\n                    <p><span class=\"greenText\"><b>Successful harvest!</b></span><br>Your pay has increased by $0.02. Your bonus pay is now $1.08.</p>\n            ","response":0,"trial_type":"html-button-response","trial_index":120,"time_elapsed":717294,"internal_node_id":"0.0-4.0-1.56","subject_id":"612f60780f37aaf6fc78675f","study_id":"60edd13110225f80f9f3709b","session_id":"6196baa6ca3ab5ba0d4e48c7","condition":"full-information","relevant_dimensions":["wings","pattern"],"bee_group":{"antennae":"X","wings":"2","pattern":"D","legs":"X"},"bonus":1.6400000000000012},{"rt":5124.700000000186,"stimulus":"bees-with-color/bee-B1DF.svg","response":0,"trial_type":"image-button-response","trial_index":121,"time_elapsed":722425,"internal_node_id":"0.0-4.0-0.57","subject_id":"612f60780f37aaf6fc78675f","study_id":"60edd13110225f80f9f3709b","session_id":"6196baa6ca3ab5ba0d4e48c7","condition":"full-information","relevant_dimensions":["wings","pattern"],"bee_group":{"antennae":"X","wings":"2","pattern":"D","legs":"X"},"action":"harvest","summary":"good-harvest","bonus":1.6400000000000012},{"rt":1120.8999999999069,"stimulus":"\n                    <p><b>Action: <em>harvest</em></b></p>\n                    <p>This is the bee that you just saw.</p>\n                    <img src=\"bees-with-color/bee-B1DF.svg\" width=\"200\">\n                    <p><span class=\"greenText\"><b>Successful harvest!</b></span><br>Your pay has increased by $0.02. Your bonus pay is now $1.10.</p>\n            ","response":0,"trial_type":"html-button-response","trial_index":122,"time_elapsed":723551,"internal_node_id":"0.0-4.0-1.57","subject_id":"612f60780f37aaf6fc78675f","study_id":"60edd13110225f80f9f3709b","session_id":"6196baa6ca3ab5ba0d4e48c7","condition":"full-information","relevant_dimensions":["wings","pattern"],"bee_group":{"antennae":"X","wings":"2","pattern":"D","legs":"X"},"bonus":1.6400000000000012},{"rt":4081.1999999997206,"stimulus":"bees-with-color/bee-A1DF.svg","response":0,"trial_type":"image-button-response","trial_index":123,"time_elapsed":727639,"internal_node_id":"0.0-4.0-0.58","subject_id":"612f60780f37aaf6fc78675f","study_id":"60edd13110225f80f9f3709b","session_id":"6196baa6ca3ab5ba0d4e48c7","condition":"full-information","relevant_dimensions":["wings","pattern"],"bee_group":{"antennae":"X","wings":"2","pattern":"D","legs":"X"},"action":"harvest","summary":"good-harvest","bonus":1.6400000000000012},{"rt":1551.1000000000931,"stimulus":"\n                    <p><b>Action: <em>harvest</em></b></p>\n                    <p>This is the bee that you just saw.</p>\n                    <img src=\"bees-with-color/bee-A1DF.svg\" width=\"200\">\n                    <p><span class=\"greenText\"><b>Successful harvest!</b></span><br>Your pay has increased by $0.02. Your bonus pay is now $1.12.</p>\n            ","response":0,"trial_type":"html-button-response","trial_index":124,"time_elapsed":729197,"internal_node_id":"0.0-4.0-1.58","subject_id":"612f60780f37aaf6fc78675f","study_id":"60edd13110225f80f9f3709b","session_id":"6196baa6ca3ab5ba0d4e48c7","condition":"full-information","relevant_dimensions":["wings","pattern"],"bee_group":{"antennae":"X","wings":"2","pattern":"D","legs":"X"},"bonus":1.6400000000000012},{"rt":5945.100000000093,"stimulus":"bees-with-color/bee-A2SM.svg","response":0,"trial_type":"image-button-response","trial_index":125,"time_elapsed":735149,"internal_node_id":"0.0-4.0-0.59","subject_id":"612f60780f37aaf6fc78675f","study_id":"60edd13110225f80f9f3709b","session_id":"6196baa6ca3ab5ba0d4e48c7","condition":"full-information","relevant_dimensions":["wings","pattern"],"bee_group":{"antennae":"X","wings":"2","pattern":"D","legs":"X"},"action":"harvest","summary":"good-harvest","bonus":1.6400000000000012},{"rt":962.6000000000931,"stimulus":"\n                    <p><b>Action: <em>harvest</em></b></p>\n                    <p>This is the bee that you just saw.</p>\n                    <img src=\"bees-with-color/bee-A2SM.svg\" width=\"200\">\n                    <p><span class=\"greenText\"><b>Successful harvest!</b></span><br>Your pay has increased by $0.02. Your bonus pay is now $1.14.</p>\n            ","response":0,"trial_type":"html-button-response","trial_index":126,"time_elapsed":736117,"internal_node_id":"0.0-4.0-1.59","subject_id":"612f60780f37aaf6fc78675f","study_id":"60edd13110225f80f9f3709b","session_id":"6196baa6ca3ab5ba0d4e48c7","condition":"full-information","relevant_dimensions":["wings","pattern"],"bee_group":{"antennae":"X","wings":"2","pattern":"D","legs":"X"},"bonus":1.6400000000000012},{"rt":4252.799999999814,"stimulus":"bees-with-color/bee-B2DM.svg","response":1,"trial_type":"image-button-response","trial_index":127,"time_elapsed":740375,"internal_node_id":"0.0-4.0-0.60","subject_id":"612f60780f37aaf6fc78675f","study_id":"60edd13110225f80f9f3709b","session_id":"6196baa6ca3ab5ba0d4e48c7","condition":"full-information","relevant_dimensions":["wings","pattern"],"bee_group":{"antennae":"X","wings":"2","pattern":"D","legs":"X"},"action":"avoid","summary":"good-avoid","bonus":1.6400000000000012},{"rt":1016.5,"stimulus":"\n                    <p><b>Action: <em>avoid</em></b></p>\n                    <p>This is the bee that you just saw.</p>\n                    <img src=\"bees-with-color/bee-B2DM.svg\" width=\"200\">\n                    <p><span class=\"greenText\">Good choice!</span>  This bee would have stung you.<br>Your bonus pay is unchanged, and remains at $1.14.</p>\n            ","response":0,"trial_type":"html-button-response","trial_index":128,"time_elapsed":741395,"internal_node_id":"0.0-4.0-1.60","subject_id":"612f60780f37aaf6fc78675f","study_id":"60edd13110225f80f9f3709b","session_id":"6196baa6ca3ab5ba0d4e48c7","condition":"full-information","relevant_dimensions":["wings","pattern"],"bee_group":{"antennae":"X","wings":"2","pattern":"D","legs":"X"},"bonus":1.6400000000000012},{"rt":4150.899999999907,"stimulus":"bees-with-color/bee-A1SM.svg","response":0,"trial_type":"image-button-response","trial_index":129,"time_elapsed":745550,"internal_node_id":"0.0-4.0-0.61","subject_id":"612f60780f37aaf6fc78675f","study_id":"60edd13110225f80f9f3709b","session_id":"6196baa6ca3ab5ba0d4e48c7","condition":"full-information","relevant_dimensions":["wings","pattern"],"bee_group":{"antennae":"X","wings":"2","pattern":"D","legs":"X"},"action":"harvest","summary":"good-harvest","bonus":1.6400000000000012},{"rt":1077.2999999998137,"stimulus":"\n                    <p><b>Action: <em>harvest</em></b></p>\n                    <p>This is the bee that you just saw.</p>\n                    <img src=\"bees-with-color/bee-A1SM.svg\" width=\"200\">\n                    <p><span class=\"greenText\"><b>Successful harvest!</b></span><br>Your pay has increased by $0.02. Your bonus pay is now $1.16.</p>\n            ","response":0,"trial_type":"html-button-response","trial_index":130,"time_elapsed":746632,"internal_node_id":"0.0-4.0-1.61","subject_id":"612f60780f37aaf6fc78675f","study_id":"60edd13110225f80f9f3709b","session_id":"6196baa6ca3ab5ba0d4e48c7","condition":"full-information","relevant_dimensions":["wings","pattern"],"bee_group":{"antennae":"X","wings":"2","pattern":"D","legs":"X"},"bonus":1.6400000000000012},{"rt":3830.5,"stimulus":"bees-with-color/bee-A2SF.svg","response":0,"trial_type":"image-button-response","trial_index":131,"time_elapsed":750467,"internal_node_id":"0.0-4.0-0.62","subject_id":"612f60780f37aaf6fc78675f","study_id":"60edd13110225f80f9f3709b","session_id":"6196baa6ca3ab5ba0d4e48c7","condition":"full-information","relevant_dimensions":["wings","pattern"],"bee_group":{"antennae":"X","wings":"2","pattern":"D","legs":"X"},"action":"harvest","summary":"good-harvest","bonus":1.6400000000000012},{"rt":1546.7999999998137,"stimulus":"\n                    <p><b>Action: <em>harvest</em></b></p>\n                    <p>This is the bee that you just saw.</p>\n                    <img src=\"bees-with-color/bee-A2SF.svg\" width=\"200\">\n                    <p><span class=\"greenText\"><b>Successful harvest!</b></span><br>Your pay has increased by $0.02. Your bonus pay is now $1.18.</p>\n            ","response":0,"trial_type":"html-button-response","trial_index":132,"time_elapsed":752018,"internal_node_id":"0.0-4.0-1.62","subject_id":"612f60780f37aaf6fc78675f","study_id":"60edd13110225f80f9f3709b","session_id":"6196baa6ca3ab5ba0d4e48c7","condition":"full-information","relevant_dimensions":["wings","pattern"],"bee_group":{"antennae":"X","wings":"2","pattern":"D","legs":"X"},"bonus":1.6400000000000012},{"rt":3335.1999999997206,"stimulus":"bees-with-color/bee-B2DF.svg","response":1,"trial_type":"image-button-response","trial_index":133,"time_elapsed":755358,"internal_node_id":"0.0-4.0-0.63","subject_id":"612f60780f37aaf6fc78675f","study_id":"60edd13110225f80f9f3709b","session_id":"6196baa6ca3ab5ba0d4e48c7","condition":"full-information","relevant_dimensions":["wings","pattern"],"bee_group":{"antennae":"X","wings":"2","pattern":"D","legs":"X"},"action":"avoid","summary":"good-avoid","bonus":1.6400000000000012},{"rt":1215.3999999999069,"stimulus":"\n                    <p><b>Action: <em>avoid</em></b></p>\n                    <p>This is the bee that you just saw.</p>\n                    <img src=\"bees-with-color/bee-B2DF.svg\" width=\"200\">\n                    <p><span class=\"greenText\">Good choice!</span>  This bee would have stung you.<br>Your bonus pay is unchanged, and remains at $1.18.</p>\n            ","response":0,"trial_type":"html-button-response","trial_index":134,"time_elapsed":756578,"internal_node_id":"0.0-4.0-1.63","subject_id":"612f60780f37aaf6fc78675f","study_id":"60edd13110225f80f9f3709b","session_id":"6196baa6ca3ab5ba0d4e48c7","condition":"full-information","relevant_dimensions":["wings","pattern"],"bee_group":{"antennae":"X","wings":"2","pattern":"D","legs":"X"},"bonus":1.6400000000000012},{"rt":9762.200000000186,"stimulus":"You have completed the first part of this experiment.<br><br>You will now begin a shorter second part, in which you will receive no feedback.<br>The same rules regarding bonus pay apply.<br><br>Press any key to begin.","response":"enter","trial_type":"html-keyboard-response","trial_index":135,"time_elapsed":766345,"internal_node_id":"0.0-5.0","subject_id":"612f60780f37aaf6fc78675f","study_id":"60edd13110225f80f9f3709b","session_id":"6196baa6ca3ab5ba0d4e48c7","condition":"full-information","relevant_dimensions":["wings","pattern"],"bee_group":{"antennae":"X","wings":"2","pattern":"D","legs":"X"},"bonus":1.6400000000000012},{"rt":9120.099999999627,"stimulus":"bees-with-color/bee-B2SM.svg","response":0,"trial_type":"image-button-response","trial_index":136,"time_elapsed":775473,"internal_node_id":"0.0-6.0-0.0","subject_id":"612f60780f37aaf6fc78675f","study_id":"60edd13110225f80f9f3709b","session_id":"6196baa6ca3ab5ba0d4e48c7","condition":"full-information","relevant_dimensions":["wings","pattern"],"bee_group":{"antennae":"X","wings":"2","pattern":"D","legs":"X"},"bonus":1.6400000000000012},{"rt":8828.30000000028,"stimulus":"bees-with-color/bee-B1DM.svg","response":0,"trial_type":"image-button-response","trial_index":137,"time_elapsed":784307,"internal_node_id":"0.0-6.0-0.1","subject_id":"612f60780f37aaf6fc78675f","study_id":"60edd13110225f80f9f3709b","session_id":"6196baa6ca3ab5ba0d4e48c7","condition":"full-information","relevant_dimensions":["wings","pattern"],"bee_group":{"antennae":"X","wings":"2","pattern":"D","legs":"X"},"bonus":1.6400000000000012},{"rt":6879.799999999814,"stimulus":"bees-with-color/bee-B2SF.svg","response":0,"trial_type":"image-button-response","trial_index":138,"time_elapsed":791192,"internal_node_id":"0.0-6.0-0.2","subject_id":"612f60780f37aaf6fc78675f","study_id":"60edd13110225f80f9f3709b","session_id":"6196baa6ca3ab5ba0d4e48c7","condition":"full-information","relevant_dimensions":["wings","pattern"],"bee_group":{"antennae":"X","wings":"2","pattern":"D","legs":"X"},"bonus":1.6400000000000012},{"rt":3242.6999999997206,"stimulus":"bees-with-color/bee-A2DF.svg","response":1,"trial_type":"image-button-response","trial_index":139,"time_elapsed":794441,"internal_node_id":"0.0-6.0-0.3","subject_id":"612f60780f37aaf6fc78675f","study_id":"60edd13110225f80f9f3709b","session_id":"6196baa6ca3ab5ba0d4e48c7","condition":"full-information","relevant_dimensions":["wings","pattern"],"bee_group":{"antennae":"X","wings":"2","pattern":"D","legs":"X"},"bonus":1.6400000000000012},{"rt":2688.600000000093,"stimulus":"bees-with-color/bee-B1DF.svg","response":0,"trial_type":"image-button-response","trial_index":140,"time_elapsed":797136,"internal_node_id":"0.0-6.0-0.4","subject_id":"612f60780f37aaf6fc78675f","study_id":"60edd13110225f80f9f3709b","session_id":"6196baa6ca3ab5ba0d4e48c7","condition":"full-information","relevant_dimensions":["wings","pattern"],"bee_group":{"antennae":"X","wings":"2","pattern":"D","legs":"X"},"bonus":1.6400000000000012},{"rt":8034.700000000186,"stimulus":"bees-with-color/bee-B1SM.svg","response":0,"trial_type":"image-button-response","trial_index":141,"time_elapsed":805175,"internal_node_id":"0.0-6.0-0.5","subject_id":"612f60780f37aaf6fc78675f","study_id":"60edd13110225f80f9f3709b","session_id":"6196baa6ca3ab5ba0d4e48c7","condition":"full-information","relevant_dimensions":["wings","pattern"],"bee_group":{"antennae":"X","wings":"2","pattern":"D","legs":"X"},"bonus":1.6400000000000012},{"rt":3651.2000000001863,"stimulus":"bees-with-color/bee-A1SF.svg","response":0,"trial_type":"image-button-response","trial_index":142,"time_elapsed":808831,"internal_node_id":"0.0-6.0-0.6","subject_id":"612f60780f37aaf6fc78675f","study_id":"60edd13110225f80f9f3709b","session_id":"6196baa6ca3ab5ba0d4e48c7","condition":"full-information","relevant_dimensions":["wings","pattern"],"bee_group":{"antennae":"X","wings":"2","pattern":"D","legs":"X"},"bonus":1.6400000000000012},{"rt":2672.2000000001863,"stimulus":"bees-with-color/bee-B2DF.svg","response":1,"trial_type":"image-button-response","trial_index":143,"time_elapsed":811509,"internal_node_id":"0.0-6.0-0.7","subject_id":"612f60780f37aaf6fc78675f","study_id":"60edd13110225f80f9f3709b","session_id":"6196baa6ca3ab5ba0d4e48c7","condition":"full-information","relevant_dimensions":["wings","pattern"],"bee_group":{"antennae":"X","wings":"2","pattern":"D","legs":"X"},"bonus":1.6400000000000012},{"rt":4515.100000000093,"stimulus":"bees-with-color/bee-A2SM.svg","response":0,"trial_type":"image-button-response","trial_index":144,"time_elapsed":816030,"internal_node_id":"0.0-6.0-0.8","subject_id":"612f60780f37aaf6fc78675f","study_id":"60edd13110225f80f9f3709b","session_id":"6196baa6ca3ab5ba0d4e48c7","condition":"full-information","relevant_dimensions":["wings","pattern"],"bee_group":{"antennae":"X","wings":"2","pattern":"D","legs":"X"},"bonus":1.6400000000000012},{"rt":5966.899999999907,"stimulus":"bees-with-color/bee-A1DM.svg","response":1,"trial_type":"image-button-response","trial_index":145,"time_elapsed":822004,"internal_node_id":"0.0-6.0-0.9","subject_id":"612f60780f37aaf6fc78675f","study_id":"60edd13110225f80f9f3709b","session_id":"6196baa6ca3ab5ba0d4e48c7","condition":"full-information","relevant_dimensions":["wings","pattern"],"bee_group":{"antennae":"X","wings":"2","pattern":"D","legs":"X"},"bonus":1.6400000000000012},{"rt":11226.69999999972,"stimulus":"bees-with-color/bee-B2DM.svg","response":1,"trial_type":"image-button-response","trial_index":146,"time_elapsed":833236,"internal_node_id":"0.0-6.0-0.10","subject_id":"612f60780f37aaf6fc78675f","study_id":"60edd13110225f80f9f3709b","session_id":"6196baa6ca3ab5ba0d4e48c7","condition":"full-information","relevant_dimensions":["wings","pattern"],"bee_group":{"antennae":"X","wings":"2","pattern":"D","legs":"X"},"bonus":1.6400000000000012},{"rt":8166,"stimulus":"bees-with-color/bee-B1SF.svg","response":0,"trial_type":"image-button-response","trial_index":147,"time_elapsed":841407,"internal_node_id":"0.0-6.0-0.11","subject_id":"612f60780f37aaf6fc78675f","study_id":"60edd13110225f80f9f3709b","session_id":"6196baa6ca3ab5ba0d4e48c7","condition":"full-information","relevant_dimensions":["wings","pattern"],"bee_group":{"antennae":"X","wings":"2","pattern":"D","legs":"X"},"bonus":1.6400000000000012},{"rt":5874.399999999907,"stimulus":"bees-with-color/bee-A1SM.svg","response":0,"trial_type":"image-button-response","trial_index":148,"time_elapsed":847289,"internal_node_id":"0.0-6.0-0.12","subject_id":"612f60780f37aaf6fc78675f","study_id":"60edd13110225f80f9f3709b","session_id":"6196baa6ca3ab5ba0d4e48c7","condition":"full-information","relevant_dimensions":["wings","pattern"],"bee_group":{"antennae":"X","wings":"2","pattern":"D","legs":"X"},"bonus":1.6400000000000012},{"rt":6281.300000000279,"stimulus":"bees-with-color/bee-A2DM.svg","response":1,"trial_type":"image-button-response","trial_index":149,"time_elapsed":853577,"internal_node_id":"0.0-6.0-0.13","subject_id":"612f60780f37aaf6fc78675f","study_id":"60edd13110225f80f9f3709b","session_id":"6196baa6ca3ab5ba0d4e48c7","condition":"full-information","relevant_dimensions":["wings","pattern"],"bee_group":{"antennae":"X","wings":"2","pattern":"D","legs":"X"},"bonus":1.6400000000000012},{"rt":2898.600000000093,"stimulus":"bees-with-color/bee-A1DF.svg","response":0,"trial_type":"image-button-response","trial_index":150,"time_elapsed":856481,"internal_node_id":"0.0-6.0-0.14","subject_id":"612f60780f37aaf6fc78675f","study_id":"60edd13110225f80f9f3709b","session_id":"6196baa6ca3ab5ba0d4e48c7","condition":"full-information","relevant_dimensions":["wings","pattern"],"bee_group":{"antennae":"X","wings":"2","pattern":"D","legs":"X"},"bonus":1.6400000000000012},{"rt":3648.1999999997206,"stimulus":"bees-with-color/bee-A2SF.svg","response":0,"trial_type":"image-button-response","trial_index":151,"time_elapsed":860135,"internal_node_id":"0.0-6.0-0.15","subject_id":"612f60780f37aaf6fc78675f","study_id":"60edd13110225f80f9f3709b","session_id":"6196baa6ca3ab5ba0d4e48c7","condition":"full-information","relevant_dimensions":["wings","pattern"],"bee_group":{"antennae":"X","wings":"2","pattern":"D","legs":"X"},"bonus":1.6400000000000012},{"rt":2505.2000000001863,"stimulus":"bees-with-color/bee-A1SF.svg","response":0,"trial_type":"image-button-response","trial_index":152,"time_elapsed":862645,"internal_node_id":"0.0-6.0-0.16","subject_id":"612f60780f37aaf6fc78675f","study_id":"60edd13110225f80f9f3709b","session_id":"6196baa6ca3ab5ba0d4e48c7","condition":"full-information","relevant_dimensions":["wings","pattern"],"bee_group":{"antennae":"X","wings":"2","pattern":"D","legs":"X"},"bonus":1.6400000000000012},{"rt":3437.399999999907,"stimulus":"bees-with-color/bee-B2SF.svg","response":0,"trial_type":"image-button-response","trial_index":153,"time_elapsed":866088,"internal_node_id":"0.0-6.0-0.17","subject_id":"612f60780f37aaf6fc78675f","study_id":"60edd13110225f80f9f3709b","session_id":"6196baa6ca3ab5ba0d4e48c7","condition":"full-information","relevant_dimensions":["wings","pattern"],"bee_group":{"antennae":"X","wings":"2","pattern":"D","legs":"X"},"bonus":1.6400000000000012},{"rt":4057.399999999907,"stimulus":"bees-with-color/bee-B2DM.svg","response":1,"trial_type":"image-button-response","trial_index":154,"time_elapsed":870152,"internal_node_id":"0.0-6.0-0.18","subject_id":"612f60780f37aaf6fc78675f","study_id":"60edd13110225f80f9f3709b","session_id":"6196baa6ca3ab5ba0d4e48c7","condition":"full-information","relevant_dimensions":["wings","pattern"],"bee_group":{"antennae":"X","wings":"2","pattern":"D","legs":"X"},"bonus":1.6400000000000012},{"rt":2632.5,"stimulus":"bees-with-color/bee-B1SF.svg","response":0,"trial_type":"image-button-response","trial_index":155,"time_elapsed":872790,"internal_node_id":"0.0-6.0-0.19","subject_id":"612f60780f37aaf6fc78675f","study_id":"60edd13110225f80f9f3709b","session_id":"6196baa6ca3ab5ba0d4e48c7","condition":"full-information","relevant_dimensions":["wings","pattern"],"bee_group":{"antennae":"X","wings":"2","pattern":"D","legs":"X"},"bonus":1.6400000000000012},{"rt":5094.800000000279,"stimulus":"bees-with-color/bee-A2SF.svg","response":0,"trial_type":"image-button-response","trial_index":156,"time_elapsed":877890,"internal_node_id":"0.0-6.0-0.20","subject_id":"612f60780f37aaf6fc78675f","study_id":"60edd13110225f80f9f3709b","session_id":"6196baa6ca3ab5ba0d4e48c7","condition":"full-information","relevant_dimensions":["wings","pattern"],"bee_group":{"antennae":"X","wings":"2","pattern":"D","legs":"X"},"bonus":1.6400000000000012},{"rt":8597.399999999907,"stimulus":"bees-with-color/bee-A2DM.svg","response":1,"trial_type":"image-button-response","trial_index":157,"time_elapsed":886494,"internal_node_id":"0.0-6.0-0.21","subject_id":"612