[{"success":true,"trial_type":"fullscreen","trial_index":0,"time_elapsed":352184,"internal_node_id":"0.0-0.0","subject_id":"5c704329d25ffb00016fa39f","study_id":"6197b3f67c2b5cd3b6d9596a","session_id":"6197b88d3ded49448719ed92","condition":"full-information","relevant_dimensions":["wings","pattern"],"bee_group":{"antennae":"X","wings":"2","pattern":"S","legs":"X"},"bonus":1.5800000000000012},{"success":true,"timeout":false,"failed_images":[],"failed_audio":[],"failed_video":[],"trial_type":"preload","trial_index":1,"time_elapsed":355053,"internal_node_id":"0.0-1.0","subject_id":"5c704329d25ffb00016fa39f","study_id":"6197b3f67c2b5cd3b6d9596a","session_id":"6197b88d3ded49448719ed92","condition":"full-information","relevant_dimensions":["wings","pattern"],"bee_group":{"antennae":"X","wings":"2","pattern":"S","legs":"X"},"bonus":1.5800000000000012},{"rt":2081.7000000476837,"stimulus":"Welcome! Press any key to begin.","response":" ","trial_type":"html-keyboard-response","trial_index":2,"time_elapsed":357137,"internal_node_id":"0.0-2.0","subject_id":"5c704329d25ffb00016fa39f","study_id":"6197b3f67c2b5cd3b6d9596a","session_id":"6197b88d3ded49448719ed92","condition":"full-information","relevant_dimensions":["wings","pattern"],"bee_group":{"antennae":"X","wings":"2","pattern":"S","legs":"X"},"bonus":1.5800000000000012},{"view_history":[{"page_index":0,"viewing_time":3247.5},{"page_index":1,"viewing_time":5751.599999904633},{"page_index":2,"viewing_time":6094.5},{"page_index":3,"viewing_time":5056.200000047684},{"page_index":4,"viewing_time":4200.100000023842},{"page_index":5,"viewing_time":4374.5},{"page_index":6,"viewing_time":4862},{"page_index":7,"viewing_time":6093.600000023842},{"page_index":8,"viewing_time":1382.5999999046326},{"page_index":9,"viewing_time":2504.7000000476837},{"page_index":10,"viewing_time":1327.3999999761581},{"page_index":11,"viewing_time":5638.899999976158},{"page_index":12,"viewing_time":14823.900000095367},{"page_index":13,"viewing_time":36706.09999990463},{"page_index":14,"viewing_time":2962.3000000715256}],"rt":105026.29999995232,"trial_type":"instructions","trial_index":3,"time_elapsed":462164,"internal_node_id":"0.0-3.0-0.0","subject_id":"5c704329d25ffb00016fa39f","study_id":"6197b3f67c2b5cd3b6d9596a","session_id":"6197b88d3ded49448719ed92","condition":"full-information","relevant_dimensions":["wings","pattern"],"bee_group":{"antennae":"X","wings":"2","pattern":"S","legs":"X"},"bonus":1.5800000000000012},{"rt":10060.100000023842,"response":{"Q0":["Two or six legs","Stripes or spots on body","Single or double wings","Antennae or no antennae"]},"question_order":[0],"trial_type":"survey-multi-select","trial_index":4,"time_elapsed":472227,"internal_node_id":"0.0-3.0-1.0","subject_id":"5c704329d25ffb00016fa39f","study_id":"6197b3f67c2b5cd3b6d9596a","session_id":"6197b88d3ded49448719ed92","condition":"full-information","relevant_dimensions":["wings","pattern"],"bee_group":{"antennae":"X","wings":"2","pattern":"S","legs":"X"},"correct":true,"bonus":1.5800000000000012},{"rt":43178,"response":{"Q1":"No.","Q2":"Based on the four features of the bee.","Q3":"You learn if it was friendly or dangerous and alter your bonus."},"question_order":[0,1,2],"trial_type":"survey-multi-choice","trial_index":5,"time_elapsed":515407,"internal_node_id":"0.0-3.0-2.0","subject_id":"5c704329d25ffb00016fa39f","study_id":"6197b3f67c2b5cd3b6d9596a","session_id":"6197b88d3ded49448719ed92","condition":"full-information","relevant_dimensions":["wings","pattern"],"bee_group":{"antennae":"X","wings":"2","pattern":"S","legs":"X"},"correct":false,"bonus":1.5800000000000012},{"rt":3503,"stimulus":"<p>You did not answer all comprehension questions correctly.<br>Press <b>continue</b> to review the instructions again.</p>","response":0,"trial_type":"html-button-response","trial_index":6,"time_elapsed":518912,"internal_node_id":"0.0-3.0-3.0","subject_id":"5c704329d25ffb00016fa39f","study_id":"6197b3f67c2b5cd3b6d9596a","session_id":"6197b88d3ded49448719ed92","condition":"full-information","relevant_dimensions":["wings","pattern"],"bee_group":{"antennae":"X","wings":"2","pattern":"S","legs":"X"},"bonus":1.5800000000000012},{"view_history":[{"page_index":0,"viewing_time":31591},{"page_index":1,"viewing_time":4862.200000047684},{"page_index":2,"viewing_time":4819},{"page_index":3,"viewing_time":8605},{"page_index":4,"viewing_time":4766.699999928474},{"page_index":5,"viewing_time":5858},{"page_index":6,"viewing_time":4538.5},{"page_index":7,"viewing_time":1925.1000000238419},{"page_index":8,"viewing_time":1314.3999999761581},{"page_index":9,"viewing_time":1053.1000000238419},{"page_index":10,"viewing_time":705.7999999523163},{"page_index":11,"viewing_time":6793.700000047684},{"page_index":12,"viewing_time":1812},{"page_index":13,"viewing_time":1054.7999999523163},{"page_index":14,"viewing_time":779.4000000953674}],"rt":80479.10000002384,"trial_type":"instructions","trial_index":7,"time_elapsed":599392,"internal_node_id":"0.0-3.0-4.0-0.0","subject_id":"5c704329d25ffb00016fa39f","study_id":"6197b3f67c2b5cd3b6d9596a","session_id":"6197b88d3ded49448719ed92","condition":"full-information","relevant_dimensions":["wings","pattern"],"bee_group":{"antennae":"X","wings":"2","pattern":"S","legs":"X"},"bonus":1.5800000000000012},{"rt":6334,"response":{"Q0":["Two or six legs","Stripes or spots on body","Single or double wings","Antennae or no antennae"]},"question_order":[0],"trial_type":"survey-multi-select","trial_index":8,"time_elapsed":605730,"internal_node_id":"0.0-3.0-4.0-1.0","subject_id":"5c704329d25ffb00016fa39f","study_id":"6197b3f67c2b5cd3b6d9596a","session_id":"6197b88d3ded49448719ed92","condition":"full-information","relevant_dimensions":["wings","pattern"],"bee_group":{"antennae":"X","wings":"2","pattern":"S","legs":"X"},"correct":true,"bonus":1.5800000000000012},{"rt":10650.800000071526,"response":{"Q1":"No.","Q2":"Based on the four features of the bee.","Q3":"You learn if it was friendly or dangerous, but do not alter your bonus."},"question_order":[0,1,2],"trial_type":"survey-multi-choice","trial_index":9,"time_elapsed":616383,"internal_node_id":"0.0-3.0-4.0-2.0","subject_id":"5c704329d25ffb00016fa39f","study_id":"6197b3f67c2b5cd3b6d9596a","session_id":"6197b88d3ded49448719ed92","condition":"full-information","relevant_dimensions":["wings","pattern"],"bee_group":{"antennae":"X","wings":"2","pattern":"S","legs":"X"},"correct":true,"bonus":1.5800000000000012},{"rt":2709.399999976158,"stimulus":"<p>Congrats, you got everything right<br>When you're ready, click the button below to continue to the experiment.</p>","response":0,"trial_type":"html-button-response","trial_index":10,"time_elapsed":619093,"internal_node_id":"0.0-3.0-4.0-3.0","subject_id":"5c704329d25ffb00016fa39f","study_id":"6197b3f67c2b5cd3b6d9596a","session_id":"6197b88d3ded49448719ed92","condition":"full-information","relevant_dimensions":["wings","pattern"],"bee_group":{"antennae":"X","wings":"2","pattern":"S","legs":"X"},"bonus":1.5800000000000012},{"rt":5582.400000095367,"stimulus":"bees-with-color/bee-A1DF.svg","response":0,"trial_type":"image-button-response","trial_index":11,"time_elapsed":624679,"internal_node_id":"0.0-4.0-0.0","subject_id":"5c704329d25ffb00016fa39f","study_id":"6197b3f67c2b5cd3b6d9596a","session_id":"6197b88d3ded49448719ed92","condition":"full-information","relevant_dimensions":["wings","pattern"],"bee_group":{"antennae":"X","wings":"2","pattern":"S","legs":"X"},"action":"harvest","summary":"good-harvest","bonus":1.5800000000000012},{"rt":2476.5999999046326,"stimulus":"\n                    <p><b>Action: <em>harvest</em></b></p>\n                    <p>This is the bee that you just saw.</p>\n                    <img src=\"bees-with-color/bee-A1DF.svg\" width=\"200\">\n                    <p><span class=\"greenText\"><b>Successful harvest!</b></span><br>Your pay has increased by $0.02. Your bonus pay is now $0.56.</p>\n            ","response":0,"trial_type":"html-button-response","trial_index":12,"time_elapsed":627158,"internal_node_id":"0.0-4.0-1.0","subject_id":"5c704329d25ffb00016fa39f","study_id":"6197b3f67c2b5cd3b6d9596a","session_id":"6197b88d3ded49448719ed92","condition":"full-information","relevant_dimensions":["wings","pattern"],"bee_group":{"antennae":"X","wings":"2","pattern":"S","legs":"X"},"bonus":1.5800000000000012},{"rt":3990.899999976158,"stimulus":"bees-with-color/bee-B2DM.svg","response":0,"trial_type":"image-button-response","trial_index":13,"time_elapsed":631150,"internal_node_id":"0.0-4.0-0.1","subject_id":"5c704329d25ffb00016fa39f","study_id":"6197b3f67c2b5cd3b6d9596a","session_id":"6197b88d3ded49448719ed92","condition":"full-information","relevant_dimensions":["wings","pattern"],"bee_group":{"antennae":"X","wings":"2","pattern":"S","legs":"X"},"action":"harvest","summary":"good-harvest","bonus":1.5800000000000012},{"rt":1094,"stimulus":"\n                    <p><b>Action: <em>harvest</em></b></p>\n                    <p>This is the bee that you just saw.</p>\n                    <img src=\"bees-with-color/bee-B2DM.svg\" width=\"200\">\n                    <p><span class=\"greenText\"><b>Successful harvest!</b></span><br>Your pay has increased by $0.02. Your bonus pay is now $0.58.</p>\n            ","response":0,"trial_type":"html-button-response","trial_index":14,"time_elapsed":632246,"internal_node_id":"0.0-4.0-1.1","subject_id":"5c704329d25ffb00016fa39f","study_id":"6197b3f67c2b5cd3b6d9596a","session_id":"6197b88d3ded49448719ed92","condition":"full-information","relevant_dimensions":["wings","pattern"],"bee_group":{"antennae":"X","wings":"2","pattern":"S","legs":"X"},"bonus":1.5800000000000012},{"rt":2353.2000000476837,"stimulus":"bees-with-color/bee-B2SM.svg","response":0,"trial_type":"image-button-response","trial_index":15,"time_elapsed":634601,"internal_node_id":"0.0-4.0-0.2","subject_id":"5c704329d25ffb00016fa39f","study_id":"6197b3f67c2b5cd3b6d9596a","session_id":"6197b88d3ded49448719ed92","condition":"full-information","relevant_dimensions":["wings","pattern"],"bee_group":{"antennae":"X","wings":"2","pattern":"S","legs":"X"},"action":"harvest","summary":"bad-harvest","bonus":1.5800000000000012},{"rt":1921.6999999284744,"stimulus":"\n                    <p><b>Action: <em>harvest</em></b></p>\n                    <p>This is the bee that you just saw.</p>\n                    <img src=\"bees-with-color/bee-B2SM.svg\" width=\"200\">\n                    <p><span class=\"redText\">Bad choice, the bee was angry.</span><br><b>You have been stung!</b><br>Your pay has been decreased by $0.10. Your bonus pay is now $0.48.</p>\n            ","response":0,"trial_type":"html-button-response","trial_index":16,"time_elapsed":636524,"internal_node_id":"0.0-4.0-1.2","subject_id":"5c704329d25ffb00016fa39f","study_id":"6197b3f67c2b5cd3b6d9596a","session_id":"6197b88d3ded49448719ed92","condition":"full-information","relevant_dimensions":["wings","pattern"],"bee_group":{"antennae":"X","wings":"2","pattern":"S","legs":"X"},"bonus":1.5800000000000012},{"rt":2016.3999999761581,"stimulus":"bees-with-color/bee-A2SM.svg","response":1,"trial_type":"image-button-response","trial_index":17,"time_elapsed":638541,"internal_node_id":"0.0-4.0-0.3","subject_id":"5c704329d25ffb00016fa39f","study_id":"6197b3f67c2b5cd3b6d9596a","session_id":"6197b88d3ded49448719ed92","condition":"full-information","relevant_dimensions":["wings","pattern"],"bee_group":{"antennae":"X","wings":"2","pattern":"S","legs":"X"},"action":"avoid","summary":"good-avoid","bonus":1.5800000000000012},{"rt":1064.7000000476837,"stimulus":"\n                    <p><b>Action: <em>avoid</em></b></p>\n                    <p>This is the bee that you just saw.</p>\n                    <img src=\"bees-with-color/bee-A2SM.svg\" width=\"200\">\n                    <p><span class=\"greenText\">Good choice!</span>  This bee would have stung you.<br>Your bonus pay is unchanged, and remains at $0.48.</p>\n            ","response":0,"trial_type":"html-button-response","trial_index":18,"time_elapsed":639607,"internal_node_id":"0.0-4.0-1.3","subject_id":"5c704329d25ffb00016fa39f","study_id":"6197b3f67c2b5cd3b6d9596a","session_id":"6197b88d3ded49448719ed92","condition":"full-information","relevant_dimensions":["wings","pattern"],"bee_group":{"antennae":"X","wings":"2","pattern":"S","legs":"X"},"bonus":1.5800000000000012},{"rt":3509.1999999284744,"stimulus":"bees-with-color/bee-B1SM.svg","response":0,"trial_type":"image-button-response","trial_index":19,"time_elapsed":643118,"internal_node_id":"0.0-4.0-0.4","subject_id":"5c704329d25ffb00016fa39f","study_id":"6197b3f67c2b5cd3b6d9596a","session_id":"6197b88d3ded49448719ed92","condition":"full-information","relevant_dimensions":["wings","pattern"],"bee_group":{"antennae":"X","wings":"2","pattern":"S","legs":"X"},"action":"harvest","summary":"good-harvest","bonus":1.5800000000000012},{"rt":864,"stimulus":"\n                    <p><b>Action: <em>harvest</em></b></p>\n                    <p>This is the bee that you just saw.</p>\n                    <img src=\"bees-with-color/bee-B1SM.svg\" width=\"200\">\n                    <p><span class=\"greenText\"><b>Successful harvest!</b></span><br>Your pay has increased by $0.02. Your bonus pay is now $0.50.</p>\n            ","response":0,"trial_type":"html-button-response","trial_index":20,"time_elapsed":643983,"internal_node_id":"0.0-4.0-1.4","subject_id":"5c704329d25ffb00016fa39f","study_id":"6197b3f67c2b5cd3b6d9596a","session_id":"6197b88d3ded49448719ed92","condition":"full-information","relevant_dimensions":["wings","pattern"],"bee_group":{"antennae":"X","wings":"2","pattern":"S","legs":"X"},"bonus":1.5800000000000012},{"rt":2186.1999999284744,"stimulus":"bees-with-color/bee-A2DM.svg","response":1,"trial_type":"image-button-response","trial_index":21,"time_elapsed":646171,"internal_node_id":"0.0-4.0-0.5","subject_id":"5c704329d25ffb00016fa39f","study_id":"6197b3f67c2b5cd3b6d9596a","session_id":"6197b88d3ded49448719ed92","condition":"full-information","relevant_dimensions":["wings","pattern"],"bee_group":{"antennae":"X","wings":"2","pattern":"S","legs":"X"},"action":"avoid","summary":"bad-avoid","bonus":1.5800000000000012},{"rt":828.7999999523163,"stimulus":"\n                    <p><b>Action: <em>avoid</em></b></p>\n                    <p>This is the bee that you just saw.</p>\n                    <img src=\"bees-with-color/bee-A2DM.svg\" width=\"200\">\n                    <p><span class=\"redText\">Bad choice,</span> the bee was friendly.<br>Your bonus pay is unchanged, and remains at $0.50.</p>\n            ","response":0,"trial_type":"html-button-response","trial_index":22,"time_elapsed":647001,"internal_node_id":"0.0-4.0-1.5","subject_id":"5c704329d25ffb00016fa39f","study_id":"6197b3f67c2b5cd3b6d9596a","session_id":"6197b88d3ded49448719ed92","condition":"full-information","relevant_dimensions":["wings","pattern"],"bee_group":{"antennae":"X","wings":"2","pattern":"S","legs":"X"},"bonus":1.5800000000000012},{"rt":1667.1000000238419,"stimulus":"bees-with-color/bee-B1DF.svg","response":1,"trial_type":"image-button-response","trial_index":23,"time_elapsed":648670,"internal_node_id":"0.0-4.0-0.6","subject_id":"5c704329d25ffb00016fa39f","study_id":"6197b3f67c2b5cd3b6d9596a","session_id":"6197b88d3ded49448719ed92","condition":"full-information","relevant_dimensions":["wings","pattern"],"bee_group":{"antennae":"X","wings":"2","pattern":"S","legs":"X"},"action":"avoid","summary":"bad-avoid","bonus":1.5800000000000012},{"rt":705.5,"stimulus":"\n                    <p><b>Action: <em>avoid</em></b></p>\n                    <p>This is the bee that you just saw.</p>\n                    <img src=\"bees-with-color/bee-B1DF.svg\" width=\"200\">\n                    <p><span class=\"redText\">Bad choice,</span> the bee was friendly.<br>Your bonus pay is unchanged, and remains at $0.50.</p>\n            ","response":0,"trial_type":"html-button-response","trial_index":24,"time_elapsed":649377,"internal_node_id":"0.0-4.0-1.6","subject_id":"5c704329d25ffb00016fa39f","study_id":"6197b3f67c2b5cd3b6d9596a","session_id":"6197b88d3ded49448719ed92","condition":"full-information","relevant_dimensions":["wings","pattern"],"bee_group":{"antennae":"X","wings":"2","pattern":"S","legs":"X"},"bonus":1.5800000000000012},{"rt":1090.4000000953674,"stimulus":"bees-with-color/bee-B2DF.svg","response":1,"trial_type":"image-button-response","trial_index":25,"time_elapsed":650469,"internal_node_id":"0.0-4.0-0.7","subject_id":"5c704329d25ffb00016fa39f","study_id":"6197b3f67c2b5cd3b6d9596a","session_id":"6197b88d3ded49448719ed92","condition":"full-information","relevant_dimensions":["wings","pattern"],"bee_group":{"antennae":"X","wings":"2","pattern":"S","legs":"X"},"action":"avoid","summary":"bad-avoid","bonus":1.5800000000000012},{"rt":754.1000000238419,"stimulus":"\n                    <p><b>Action: <em>avoid</em></b></p>\n                    <p>This is the bee that you just saw.</p>\n                    <img src=\"bees-with-color/bee-B2DF.svg\" width=\"200\">\n                    <p><span class=\"redText\">Bad choice,</span> the bee was friendly.<br>Your bonus pay is unchanged, and remains at $0.50.</p>\n            ","response":0,"trial_type":"html-button-response","trial_index":26,"time_elapsed":651224,"internal_node_id":"0.0-4.0-1.7","subject_id":"5c704329d25ffb00016fa39f","study_id":"6197b3f67c2b5cd3b6d9596a","session_id":"6197b88d3ded49448719ed92","condition":"full-information","relevant_dimensions":["wings","pattern"],"bee_group":{"antennae":"X","wings":"2","pattern":"S","legs":"X"},"bonus":1.5800000000000012},{"rt":1952.8999999761581,"stimulus":"bees-with-color/bee-A1DM.svg","response":1,"trial_type":"image-button-response","trial_index":27,"time_elapsed":653178,"internal_node_id":"0.0-4.0-0.8","subject_id":"5c704329d25ffb00016fa39f","study_id":"6197b3f67c2b5cd3b6d9596a","session_id":"6197b88d3ded49448719ed92","condition":"full-information","relevant_dimensions":["wings","pattern"],"bee_group":{"antennae":"X","wings":"2","pattern":"S","legs":"X"},"action":"avoid","summary":"bad-avoid","bonus":1.5800000000000012},{"rt":1175,"stimulus":"\n                    <p><b>Action: <em>avoid</em></b></p>\n                    <p>This is the bee that you just saw.</p>\n                    <img src=\"bees-with-color/bee-A1DM.svg\" width=\"200\">\n                    <p><span class=\"redText\">Bad choice,</span> the bee was friendly.<br>Your bonus pay is unchanged, and remains at $0.50.</p>\n            ","response":0,"trial_type":"html-button-response","trial_index":28,"time_elapsed":654355,"internal_node_id":"0.0-4.0-1.8","subject_id":"5c704329d25ffb00016fa39f","study_id":"6197b3f67c2b5cd3b6d9596a","session_id":"6197b88d3ded49448719ed92","condition":"full-information","relevant_dimensions":["wings","pattern"],"bee_group":{"antennae":"X","wings":"2","pattern":"S","legs":"X"},"bonus":1.5800000000000012},{"rt":1150.7000000476837,"stimulus":"bees-with-color/bee-A2SF.svg","response":0,"trial_type":"image-button-response","trial_index":29,"time_elapsed":655507,"internal_node_id":"0.0-4.0-0.9","subject_id":"5c704329d25ffb00016fa39f","study_id":"6197b3f67c2b5cd3b6d9596a","session_id":"6197b88d3ded49448719ed92","condition":"full-information","relevant_dimensions":["wings","pattern"],"bee_group":{"antennae":"X","wings":"2","pattern":"S","legs":"X"},"action":"harvest","summary":"bad-harvest","bonus":1.5800000000000012},{"rt":862.5,"stimulus":"\n                    <p><b>Action: <em>harvest</em></b></p>\n                    <p>This is the bee that you just saw.</p>\n                    <img src=\"bees-with-color/bee-A2SF.svg\" width=\"200\">\n                    <p><span class=\"redText\">Bad choice, the bee was angry.</span><br><b>You have been stung!</b><br>Your pay has been decreased by $0.10. Your bonus pay is now $0.40.</p>\n            ","response":0,"trial_type":"html-button-response","trial_index":30,"time_elapsed":656371,"internal_node_id":"0.0-4.0-1.9","subject_id":"5c704329d25ffb00016fa39f","study_id":"6197b3f67c2b5cd3b6d9596a","session_id":"6197b88d3ded49448719ed92","condition":"full-information","relevant_dimensions":["wings","pattern"],"bee_group":{"antennae":"X","wings":"2","pattern":"S","legs":"X"},"bonus":1.5800000000000012},{"rt":2052.8000000715256,"stimulus":"bees-with-color/bee-A1SM.svg","response":0,"trial_type":"image-button-response","trial_index":31,"time_elapsed":658425,"internal_node_id":"0.0-4.0-0.10","subject_id":"5c704329d25ffb00016fa39f","study_id":"6197b3f67c2b5cd3b6d9596a","session_id":"6197b88d3ded49448719ed92","condition":"full-information","relevant_dimensions":["wings","pattern"],"bee_group":{"antennae":"X","wings":"2","pattern":"S","legs":"X"},"action":"harvest","summary":"good-harvest","bonus":1.5800000000000012},{"rt":792,"stimulus":"\n                    <p><b>Action: <em>harvest</em></b></p>\n                    <p>This is the bee that you just saw.</p>\n                    <img src=\"bees-with-color/bee-A1SM.svg\" width=\"200\">\n                    <p><span class=\"greenText\"><b>Successful harvest!</b></span><br>Your pay has increased by $0.02. Your bonus pay is now $0.42.</p>\n            ","response":0,"trial_type":"html-button-response","trial_index":32,"time_elapsed":659218,"internal_node_id":"0.0-4.0-1.10","subject_id":"5c704329d25ffb00016fa39f","study_id":"6197b3f67c2b5cd3b6d9596a","session_id":"6197b88d3ded49448719ed92","condition":"full-information","relevant_dimensions":["wings","pattern"],"bee_group":{"antennae":"X","wings":"2","pattern":"S","legs":"X"},"bonus":1.5800000000000012},{"rt":1930.3000000715256,"stimulus":"bees-with-color/bee-A2DF.svg","response":0,"trial_type":"image-button-response","trial_index":33,"time_elapsed":661150,"internal_node_id":"0.0-4.0-0.11","subject_id":"5c704329d25ffb00016fa39f","study_id":"6197b3f67c2b5cd3b6d9596a","session_id":"6197b88d3ded49448719ed92","condition":"full-information","relevant_dimensions":["wings","pattern"],"bee_group":{"antennae":"X","wings":"2","pattern":"S","legs":"X"},"action":"harvest","summary":"good-harvest","bonus":1.5800000000000012},{"rt":790,"stimulus":"\n                    <p><b>Action: <em>harvest</em></b></p>\n                    <p>This is the bee that you just saw.</p>\n                    <img src=\"bees-with-color/bee-A2DF.svg\" width=\"200\">\n                    <p><span class=\"greenText\"><b>Successful harvest!</b></span><br>Your pay has increased by $0.02. Your bonus pay is now $0.44.</p>\n            ","response":0,"trial_type":"html-button-response","trial_index":34,"time_elapsed":661942,"internal_node_id":"0.0-4.0-1.11","subject_id":"5c704329d25ffb00016fa39f","study_id":"6197b3f67c2b5cd3b6d9596a","session_id":"6197b88d3ded49448719ed92","condition":"full-information","relevant_dimensions":["wings","pattern"],"bee_group":{"antennae":"X","wings":"2","pattern":"S","legs":"X"},"bonus":1.5800000000000012},{"rt":10467.5,"stimulus":"bees-with-color/bee-B1SF.svg","response":1,"trial_type":"image-button-response","trial_index":35,"time_elapsed":672410,"internal_node_id":"0.0-4.0-0.12","subject_id":"5c704329d25ffb00016fa39f","study_id":"6197b3f67c2b5cd3b6d9596a","session_id":"6197b88d3ded49448719ed92","condition":"full-information","relevant_dimensions":["wings","pattern"],"bee_group":{"antennae":"X","wings":"2","pattern":"S","legs":"X"},"action":"avoid","summary":"bad-avoid","bonus":1.5800000000000012},{"rt":1098.7000000476837,"stimulus":"\n                    <p><b>Action: <em>avoid</em></b></p>\n                    <p>This is the bee that you just saw.</p>\n                    <img src=\"bees-with-color/bee-B1SF.svg\" width=\"200\">\n                    <p><span class=\"redText\">Bad choice,</span> the bee was friendly.<br>Your bonus pay is unchanged, and remains at $0.44.</p>\n            ","response":0,"trial_type":"html-button-response","trial_index":36,"time_elapsed":673511,"internal_node_id":"0.0-4.0-1.12","subject_id":"5c704329d25ffb00016fa39f","study_id":"6197b3f67c2b5cd3b6d9596a","session_id":"6197b88d3ded49448719ed92","condition":"full-information","relevant_dimensions":["wings","pattern"],"bee_group":{"antennae":"X","wings":"2","pattern":"S","legs":"X"},"bonus":1.5800000000000012},{"rt":3964.399999976158,"stimulus":"bees-with-color/bee-A1SF.svg","response":0,"trial_type":"image-button-response","trial_index":37,"time_elapsed":677477,"internal_node_id":"0.0-4.0-0.13","subject_id":"5c704329d25ffb00016fa39f","study_id":"6197b3f67c2b5cd3b6d9596a","session_id":"6197b88d3ded49448719ed92","condition":"full-information","relevant_dimensions":["wings","pattern"],"bee_group":{"antennae":"X","wings":"2","pattern":"S","legs":"X"},"action":"harvest","summary":"good-harvest","bonus":1.5800000000000012},{"rt":831.2000000476837,"stimulus":"\n                    <p><b>Action: <em>harvest</em></b></p>\n                    <p>This is the bee that you just saw.</p>\n                    <img src=\"bees-with-color/bee-A1SF.svg\" width=\"200\">\n                    <p><span class=\"greenText\"><b>Successful harvest!</b></span><br>Your pay has increased by $0.02. Your bonus pay is now $0.46.</p>\n            ","response":0,"trial_type":"html-button-response","trial_index":38,"time_elapsed":678309,"internal_node_id":"0.0-4.0-1.13","subject_id":"5c704329d25ffb00016fa39f","study_id":"6197b3f67c2b5cd3b6d9596a","session_id":"6197b88d3ded49448719ed92","condition":"full-information","relevant_dimensions":["wings","pattern"],"bee_group":{"antennae":"X","wings":"2","pattern":"S","legs":"X"},"bonus":1.5800000000000012},{"rt":2156.8000000715256,"stimulus":"bees-with-color/bee-B1DM.svg","response":1,"trial_type":"image-button-response","trial_index":39,"time_elapsed":680468,"internal_node_id":"0.0-4.0-0.14","subject_id":"5c704329d25ffb00016fa39f","study_id":"6197b3f67c2b5cd3b6d9596a","session_id":"6197b88d3ded49448719ed92","condition":"full-information","relevant_dimensions":["wings","pattern"],"bee_group":{"antennae":"X","wings":"2","pattern":"S","legs":"X"},"action":"avoid","summary":"bad-avoid","bonus":1.5800000000000012},{"rt":1184.2000000476837,"stimulus":"\n                    <p><b>Action: <em>avoid</em></b></p>\n                    <p>This is the bee that you just saw.</p>\n                    <img src=\"bees-with-color/bee-B1DM.svg\" width=\"200\">\n                    <p><span class=\"redText\">Bad choice,</span> the bee was friendly.<br>Your bonus pay is unchanged, and remains at $0.46.</p>\n            ","response":0,"trial_type":"html-button-response","trial_index":40,"time_elapsed":681654,"internal_node_id":"0.0-4.0-1.14","subject_id":"5c704329d25ffb00016fa39f","study_id":"6197b3f67c2b5cd3b6d9596a","session_id":"6197b88d3ded49448719ed92","condition":"full-information","relevant_dimensions":["wings","pattern"],"bee_group":{"antennae":"X","wings":"2","pattern":"S","legs":"X"},"bonus":1.5800000000000012},{"rt":6335,"stimulus":"bees-with-color/bee-B2SF.svg","response":1,"trial_type":"image-button-response","trial_index":41,"time_elapsed":687990,"internal_node_id":"0.0-4.0-0.15","subject_id":"5c704329d25ffb00016fa39f","study_id":"6197b3f67c2b5cd3b6d9596a","session_id":"6197b88d3ded49448719ed92","condition":"full-information","relevant_dimensions":["wings","pattern"],"bee_group":{"antennae":"X","wings":"2","pattern":"S","legs":"X"},"action":"avoid","summary":"good-avoid","bonus":1.5800000000000012},{"rt":2579.100000023842,"stimulus":"\n                    <p><b>Action: <em>avoid</em></b></p>\n                    <p>This is the bee that you just saw.</p>\n                    <img src=\"bees-with-color/bee-B2SF.svg\" width=\"200\">\n                    <p><span class=\"greenText\">Good choice!</span>  This bee would have stung you.<br>Your bonus pay is unchanged, and remains at $0.46.</p>\n            ","response":0,"trial_type":"html-button-response","trial_index":42,"time_elapsed":690571,"internal_node_id":"0.0-4.0-1.15","subject_id":"5c704329d25ffb00016fa39f","study_id":"6197b3f67c2b5cd3b6d9596a","session_id":"6197b88d3ded49448719ed92","condition":"full-information","relevant_dimensions":["wings","pattern"],"bee_group":{"antennae":"X","wings":"2","pattern":"S","legs":"X"},"bonus":1.5800000000000012},{"rt":3179.3000000715256,"stimulus":"bees-with-color/bee-B2SF.svg","response":1,"trial_type":"image-button-response","trial_index":43,"time_elapsed":693752,"internal_node_id":"0.0-4.0-0.16","subject_id":"5c704329d25ffb00016fa39f","study_id":"6197b3f67c2b5cd3b6d9596a","session_id":"6197b88d3ded49448719ed92","condition":"full-information","relevant_dimensions":["wings","pattern"],"bee_group":{"antennae":"X","wings":"2","pattern":"S","legs":"X"},"action":"avoid","summary":"good-avoid","bonus":1.5800000000000012},{"rt":765.3000000715256,"stimulus":"\n                    <p><b>Action: <em>avoid</em></b></p>\n                    <p>This is the bee that you just saw.</p>\n                    <img src=\"bees-with-color/bee-B2SF.svg\" width=\"200\">\n                    <p><span class=\"greenText\">Good choice!</span>  This bee would have stung you.<br>Your bonus pay is unchanged, and remains at $0.46.</p>\n            ","response":0,"trial_type":"html-button-response","trial_index":44,"time_elapsed":694518,"internal_node_id":"0.0-4.0-1.16","subject_id":"5c704329d25ffb00016fa39f","study_id":"6197b3f67c2b5cd3b6d9596a","session_id":"6197b88d3ded49448719ed92","condition":"full-information","relevant_dimensions":["wings","pattern"],"bee_group":{"antennae":"X","wings":"2","pattern":"S","legs":"X"},"bonus":1.5800000000000012},{"rt":2595,"stimulus":"bees-with-color/bee-B2DF.svg","response":0,"trial_type":"image-button-response","trial_index":45,"time_elapsed":697115,"internal_node_id":"0.0-4.0-0.17","subject_id":"5c704329d25ffb00016fa39f","study_id":"6197b3f67c2b5cd3b6d9596a","session_id":"6197b88d3ded49448719ed92","condition":"full-information","relevant_dimensions":["wings","pattern"],"bee_group":{"antennae":"X","wings":"2","pattern":"S","legs":"X"},"action":"harvest","summary":"good-harvest","bonus":1.5800000000000012},{"rt":1077.3999999761581,"stimulus":"\n                    <p><b>Action: <em>harvest</em></b></p>\n                    <p>This is the bee that you just saw.</p>\n                    <img src=\"bees-with-color/bee-B2DF.svg\" width=\"200\">\n                    <p><span class=\"greenText\"><b>Successful harvest!</b></span><br>Your pay has increased by $0.02. Your bonus pay is now $0.48.</p>\n            ","response":0,"trial_type":"html-button-response","trial_index":46,"time_elapsed":698193,"internal_node_id":"0.0-4.0-1.17","subject_id":"5c704329d25ffb00016fa39f","study_id":"6197b3f67c2b5cd3b6d9596a","session_id":"6197b88d3ded49448719ed92","condition":"full-information","relevant_dimensions":["wings","pattern"],"bee_group":{"antennae":"X","wings":"2","pattern":"S","legs":"X"},"bonus":1.5800000000000012},{"rt":3546.600000023842,"stimulus":"bees-with-color/bee-A1DF.svg","response":1,"trial_type":"image-button-response","trial_index":47,"time_elapsed":701741,"internal_node_id":"0.0-4.0-0.18","subject_id":"5c704329d25ffb00016fa39f","study_id":"6197b3f67c2b5cd3b6d9596a","session_id":"6197b88d3ded49448719ed92","condition":"full-information","relevant_dimensions":["wings","pattern"],"bee_group":{"antennae":"X","wings":"2","pattern":"S","legs":"X"},"action":"avoid","summary":"bad-avoid","bonus":1.5800000000000012},{"rt":1058.3999999761581,"stimulus":"\n                    <p><b>Action: <em>avoid</em></b></p>\n                    <p>This is the bee that you just saw.</p>\n                    <img src=\"bees-with-color/bee-A1DF.svg\" width=\"200\">\n                    <p><span class=\"redText\">Bad choice,</span> the bee was friendly.<br>Your bonus pay is unchanged, and remains at $0.48.</p>\n            ","response":0,"trial_type":"html-button-response","trial_index":48,"time_elapsed":702801,"internal_node_id":"0.0-4.0-1.18","subject_id":"5c704329d25ffb00016fa39f","study_id":"6197b3f67c2b5cd3b6d9596a","session_id":"6197b88d3ded49448719ed92","condition":"full-information","relevant_dimensions":["wings","pattern"],"bee_group":{"antennae":"X","wings":"2","pattern":"S","legs":"X"},"bonus":1.5800000000000012},{"rt":1802.7999999523163,"stimulus":"bees-with-color/bee-B1SF.svg","response":1,"trial_type":"image-button-response","trial_index":49,"time_elapsed":704605,"internal_node_id":"0.0-4.0-0.19","subject_id":"5c704329d25ffb00016fa39f","study_id":"6197b3f67c2b5cd3b6d9596a","session_id":"6197b88d3ded49448719ed92","condition":"full-information","relevant_dimensions":["wings","pattern"],"bee_group":{"antennae":"X","wings":"2","pattern":"S","legs":"X"},"action":"avoid","summary":"bad-avoid","bonus":1.5800000000000012},{"rt":1012.8999999761581,"stimulus":"\n                    <p><b>Action: <em>avoid</em></b></p>\n                    <p>This is the bee that you just saw.</p>\n                    <img src=\"bees-with-color/bee-B1SF.svg\" width=\"200\">\n                    <p><span class=\"redText\">Bad choice,</span> the bee was friendly.<br>Your bonus pay is unchanged, and remains at $0.48.</p>\n            ","response":0,"trial_type":"html-button-response","trial_index":50,"time_elapsed":705619,"internal_node_id":"0.0-4.0-1.19","subject_id":"5c704329d25ffb00016fa39f","study_id":"6197b3f67c2b5cd3b6d9596a","session_id":"6197b88d3ded49448719ed92","condition":"full-information","relevant_dimensions":["wings","pattern"],"bee_group":{"antennae":"X","wings":"2","pattern":"S","legs":"X"},"bonus":1.5800000000000012},{"rt":2227.0999999046326,"stimulus":"bees-with-color/bee-A2DF.svg","response":1,"trial_type":"image-button-response","trial_index":51,"time_elapsed":707847,"internal_node_id":"0.0-4.0-0.20","subject_id":"5c704329d25ffb00016fa39f","study_id":"6197b3f67c2b5cd3b6d9596a","session_id":"6197b88d3ded49448719ed92","condition":"full-information","relevant_dimensions":["wings","pattern"],"bee_group":{"antennae":"X","wings":"2","pattern":"S","legs":"X"},"action":"avoid","summary":"bad-avoid","bonus":1.5800000000000012},{"rt":930.6000000238419,"stimulus":"\n                    <p><b>Action: <em>avoid</em></b></p>\n                    <p>This is the bee that you just saw.</p>\n                    <img src=\"bees-with-color/bee-A2DF.svg\" width=\"200\">\n                    <p><span class=\"redText\">Bad choice,</span> the bee was friendly.<br>Your bonus pay is unchanged, and remains at $0.48.</p>\n            ","response":0,"trial_type":"html-button-response","trial_index":52,"time_elapsed":708779,"internal_node_id":"0.0-4.0-1.20","subject_id":"5c704329d25ffb00016fa39f","study_id":"6197b3f67c2b5cd3b6d9596a","session_id":"6197b88d3ded49448719ed92","condition":"full-information","relevant_dimensions":["wings","pattern"],"bee_group":{"antennae":"X","wings":"2","pattern":"S","legs":"X"},"bonus":1.5800000000000012},{"rt":2031.6999999284744,"stimulus":"bees-with-color/bee-B2SM.svg","response":1,"trial_type":"image-button-response","trial_index":53,"time_elapsed":710812,"internal_node_id":"0.0-4.0-0.21","subject_id":"5c704329d25ffb00016fa39f","study_id":"6197b3f67c2b5cd3b6d9596a","session_id":"6197b88d3ded49448719ed92","condition":"full-information","relevant_dimensions":["wings","pattern"],"bee_group":{"antennae":"X","wings":"2","pattern":"S","legs":"X"},"action":"avoid","summary":"good-avoid","bonus":1.5800000000000012},{"rt":838.7999999523163,"stimulus":"\n                    <p><b>Action: <em>avoid</em></b></p>\n                    <p>This is the bee that you just saw.</p>\n                    <img src=\"bees-with-color/bee-B2SM.svg\" width=\"200\">\n                    <p><span class=\"greenText\">Good choice!</span>  This bee would have stung you.<br>Your bonus pay is unchanged, and remains at $0.48.</p>\n            ","response":0,"trial_type":"html-button-response","trial_index":54,"time_elapsed":711652,"internal_node_id":"0.0-4.0-1.21","subject_id":"5c704329d25ffb00016fa39f","study_id":"6197b3f67c2b5cd3b6d9596a","session_id":"6197b88d3ded49448719ed92","condition":"full-information","relevant_dimensions":["wings","pattern"],"bee_group":{"antennae":"X","wings":"2","pattern":"S","legs":"X"},"bonus":1.5800000000000012},{"rt":2195.3000000715256,"stimulus":"bees-with-color/bee-A1SM.svg","response":0,"trial_type":"image-button-response","trial_index":55,"time_elapsed":713849,"internal_node_id":"0.0-4.0-0.22","subject_id":"5c704329d25ffb00016fa39f","study_id":"6197b3f67c2b5cd3b6d9596a","session_id":"6197b88d3ded49448719ed92","condition":"full-information","relevant_dimensions":["wings","pattern"],"bee_group":{"antennae":"X","wings":"2","pattern":"S","legs":"X"},"action":"harvest","summary":"good-harvest","bonus":1.5800000000000012},{"rt":786.2000000476837,"stimulus":"\n                    <p><b>Action: <em>harvest</em></b></p>\n                    <p>This is the bee that you just saw.</p>\n                    <img src=\"bees-with-color/bee-A1SM.svg\" width=\"200\">\n                    <p><span class=\"greenText\"><b>Successful harvest!</b></span><br>Your pay has increased by $0.02. Your bonus pay is now $0.50.</p>\n            ","response":0,"trial_type":"html-button-response","trial_index":56,"time_elapsed":714636,"internal_node_id":"0.0-4.0-1.22","subject_id":"5c704329d25ffb00016fa39f","study_id":"6197b3f67c2b5cd3b6d9596a","session_id":"6197b88d3ded49448719ed92","condition":"full-information","relevant_dimensions":["wings","pattern"],"bee_group":{"antennae":"X","wings":"2","pattern":"S","legs":"X"},"bonus":1.5800000000000012},{"rt":2333.2999999523163,"stimulus":"bees-with-color/bee-A1DM.svg","response":0,"trial_type":"image-button-response","trial_index":57,"time_elapsed":716971,"internal_node_id":"0.0-4.0-0.23","subject_id":"5c704329d25ffb00016fa39f","study_id":"6197b3f67c2b5cd3b6d9596a","session_id":"6197b88d3ded49448719ed92","condition":"full-information","relevant_dimensions":["wings","pattern"],"bee_group":{"antennae":"X","wings":"2","pattern":"S","legs":"X"},"action":"harvest","summary":"good-harvest","bonus":1.5800000000000012},{"rt":750.1999999284744,"stimulus":"\n                    <p><b>Action: <em>harvest</em></b></p>\n                    <p>This is the bee that you just saw.</p>\n                    <img src=\"bees-with-color/bee-A1DM.svg\" width=\"200\">\n                    <p><span class=\"greenText\"><b>Successful harvest!</b></span><br>Your pay has increased by $0.02. Your bonus pay is now $0.52.</p>\n            ","response":0,"trial_type":"html-button-response","trial_index":58,"time_elapsed":717722,"internal_node_id":"0.0-4.0-1.23","subject_id":"5c704329d25ffb00016fa39f","study_id":"6197b3f67c2b5cd3b6d9596a","session_id":"6197b88d3ded49448719ed92","condition":"full-information","relevant_dimensions":["wings","pattern"],"bee_group":{"antennae":"X","wings":"2","pattern":"S","legs":"X"},"bonus":1.5800000000000012},{"rt":2998.5,"stimulus":"bees-with-color/bee-B1DF.svg","response":0,"trial_type":"image-button-response","trial_index":59,"time_elapsed":720723,"internal_node_id":"0.0-4.0-0.24","subject_id":"5c704329d25ffb00016fa39f","study_id":"6197b3f67c2b5cd3b6d9596a","session_id":"6197b88d3ded49448719ed92","condition":"full-information","relevant_dimensions":["wings","pattern"],"bee_group":{"antennae":"X","wings":"2","pattern":"S","legs":"X"},"action":"harvest","summary":"good-harvest","bonus":1.5800000000000012},{"rt":2222.600000023842,"stimulus":"\n                    <p><b>Action: <em>harvest</em></b></p>\n                    <p>This is the bee that you just saw.</p>\n                    <img src=\"bees-with-color/bee-B1DF.svg\" width=\"200\">\n                    <p><span class=\"greenText\"><b>Successful harvest!</b></span><br>Your pay has increased by $0.02. Your bonus pay is now $0.54.</p>\n            ","response":0,"trial_type":"html-button-response","trial_index":60,"time_elapsed":722947,"internal_node_id":"0.0-4.0-1.24","subject_id":"5c704329d25ffb00016fa39f","study_id":"6197b3f67c2b5cd3b6d9596a","session_id":"6197b88d3ded49448719ed92","condition":"full-information","relevant_dimensions":["wings","pattern"],"bee_group":{"antennae":"X","wings":"2","pattern":"S","legs":"X"},"bonus":1.5800000000000012},{"rt":2249.899999976158,"stimulus":"bees-with-color/bee-B1DM.svg","response":0,"trial_type":"image-button-response","trial_index":61,"time_elapsed":725198,"internal_node_id":"0.0-4.0-0.25","subject_id":"5c704329d25ffb00016fa39f","study_id":"6197b3f67c2b5cd3b6d9596a","session_id":"6197b88d3ded49448719ed92","condition":"full-information","relevant_dimensions":["wings","pattern"],"bee_group":{"antennae":"X","wings":"2","pattern":"S","legs":"X"},"action":"harvest","summary":"good-harvest","bonus":1.5800000000000012},{"rt":711.2000000476837,"stimulus":"\n                    <p><b>Action: <em>harvest</em></b></p>\n                    <p>This is the bee that you just saw.</p>\n                    <img src=\"bees-with-color/bee-B1DM.svg\" width=\"200\">\n                    <p><span class=\"greenText\"><b>Successful harvest!</b></span><br>Your pay has increased by $0.02. Your bonus pay is now $0.56.</p>\n            ","response":0,"trial_type":"html-button-response","trial_index":62,"time_elapsed":725910,"internal_node_id":"0.0-4.0-1.25","subject_id":"5c704329d25ffb00016fa39f","study_id":"6197b3f67c2b5cd3b6d9596a","session_id":"6197b88d3ded49448719ed92","condition":"full-information","relevant_dimensions":["wings","pattern"],"bee_group":{"antennae":"X","wings":"2","pattern":"S","legs":"X"},"bonus":1.5800000000000012},{"rt":4449.399999976158,"stimulus":"bees-with-color/bee-A2DM.svg","response":0,"trial_type":"image-button-response","trial_index":63,"time_elapsed":730361,"internal_node_id":"0.0-4.0-0.26","subject_id":"5c704329d25ffb00016fa39f","study_id":"6197b3f67c2b5cd3b6d9596a","session_id":"6197b88d3ded49448719ed92","condition":"full-information","relevant_dimensions":["wings","pattern"],"bee_group":{"antennae":"X","wings":"2","pattern":"S","legs":"X"},"action":"harvest","summary":"good-harvest","bonus":1.5800000000000012},{"rt":803.3000000715256,"stimulus":"\n                    <p><b>Action: <em>harvest</em></b></p>\n                    <p>This is the bee that you just saw.</p>\n                    <img src=\"bees-with-color/bee-A2DM.svg\" width=\"200\">\n                    <p><span class=\"greenText\"><b>Successful harvest!</b></span><br>Your pay has increased by $0.02. Your bonus pay is now $0.58.</p>\n            ","response":0,"trial_type":"html-button-response","trial_index":64,"time_elapsed":731166,"internal_node_id":"0.0-4.0-1.26","subject_id":"5c704329d25ffb00016fa39f","study_id":"6197b3f67c2b5cd3b6d9596a","session_id":"6197b88d3ded49448719ed92","condition":"full-information","relevant_dimensions":["wings","pattern"],"bee_group":{"antennae":"X","wings":"2","pattern":"S","legs":"X"},"bonus":1.5800000000000012},{"rt":4049.2999999523163,"stimulus":"bees-with-color/bee-B2DM.svg","response":0,"trial_type":"image-button-response","trial_index":65,"time_elapsed":735217,"internal_node_id":"0.0-4.0-0.27","subject_id":"5c704329d25ffb00016fa39f","study_id":"6197b3f67c2b5cd3b6d9596a","session_id":"6197b88d3ded49448719ed92","condition":"full-information","relevant_dimensions":["wings","pattern"],"bee_group":{"antennae":"X","wings":"2","pattern":"S","legs":"X"},"action":"harvest","summary":"good-harvest","bonus":1.5800000000000012},{"rt":766.1999999284744,"stimulus":"\n                    <p><b>Action: <em>harvest</em></b></p>\n                    <p>This is the bee that you just saw.</p>\n                    <img src=\"bees-with-color/bee-B2DM.svg\" width=\"200\">\n                    <p><span class=\"greenText\"><b>Successful harvest!</b></span><br>Your pay has increased by $0.02. Your bonus pay is now $0.60.</p>\n            ","response":0,"trial_type":"html-button-response","trial_index":66,"time_elapsed":735985,"internal_node_id":"0.0-4.0-1.27","subject_id":"5c704329d25ffb00016fa39f","study_id":"6197b3f67c2b5cd3b6d9596a","session_id":"6197b88d3ded49448719ed92","condition":"full-information","relevant_dimensions":["wings","pattern"],"bee_group":{"antennae":"X","wings":"2","pattern":"S","legs":"X"},"bonus":1.5800000000000012},{"rt":1821.8000000715256,"stimulus":"bees-with-color/bee-B1SM.svg","response":0,"trial_type":"image-button-response","trial_index":67,"time_elapsed":737808,"internal_node_id":"0.0-4.0-0.28","subject_id":"5c704329d25ffb00016fa39f","study_id":"6197b3f67c2b5cd3b6d9596a","session_id":"6197b88d3ded49448719ed92","condition":"full-information","relevant_dimensions":["wings","pattern"],"bee_group":{"antennae":"X","wings":"2","pattern":"S","legs":"X"},"action":"harvest","summary":"good-harvest","bonus":1.5800000000000012},{"rt":727.6000000238419,"stimulus":"\n                    <p><b>Action: <em>harvest</em></b></p>\n                    <p>This is the bee that you just saw.</p>\n                    <img src=\"bees-with-color/bee-B1SM.svg\" width=\"200\">\n                    <p><span class=\"greenText\"><b>Successful harvest!</b></span><br>Your pay has increased by $0.02. Your bonus pay is now $0.62.</p>\n            ","response":0,"trial_type":"html-button-response","trial_index":68,"time_elapsed":738537,"internal_node_id":"0.0-4.0-1.28","subject_id":"5c704329d25ffb00016fa39f","study_id":"6197b3f67c2b5cd3b6d9596a","session_id":"6197b88d3ded49448719ed92","condition":"full-information","relevant_dimensions":["wings","pattern"],"bee_group":{"antennae":"X","wings":"2","pattern":"S","legs":"X"},"bonus":1.5800000000000012},{"rt":1952.5,"stimulus":"bees-with-color/bee-A2SM.svg","response":1,"trial_type":"image-button-response","trial_index":69,"time_elapsed":740491,"internal_node_id":"0.0-4.0-0.29","subject_id":"5c704329d25ffb00016fa39f","study_id":"6197b3f67c2b5cd3b6d9596a","session_id":"6197b88d3ded49448719ed92","condition":"full-information","relevant_dimensions":["wings","pattern"],"bee_group":{"antennae":"X","wings":"2","pattern":"S","legs":"X"},"action":"avoid","summary":"good-avoid","bonus":1.5800000000000012},{"rt":740.1999999284744,"stimulus":"\n                    <p><b>Action: <em>avoid</em></b></p>\n                    <p>This is the bee that you just saw.</p>\n                    <img src=\"bees-with-color/bee-A2SM.svg\" width=\"200\">\n                    <p><span class=\"greenText\">Good choice!</span>  This bee would have stung you.<br>Your bonus pay is unchanged, and remains at $0.62.</p>\n            ","response":0,"trial_type":"html-button-response","trial_index":70,"time_elapsed":741232,"internal_node_id":"0.0-4.0-1.29","subject_id":"5c704329d25ffb00016fa39f","study_id":"6197b3f67c2b5cd3b6d9596a","session_id":"6197b88d3ded49448719ed92","condition":"full-information","relevant_dimensions":["wings","pattern"],"bee_group":{"antennae":"X","wings":"2","pattern":"S","legs":"X"},"bonus":1.5800000000000012},{"rt":2724.399999976158,"stimulus":"bees-with-color/bee-A2SF.svg","response":1,"trial_type":"image-button-response","trial_index":71,"time_elapsed":743958,"internal_node_id":"0.0-4.0-0.30","subject_id":"5c704329d25ffb00016fa39f","study_id":"6197b3f67c2b5cd3b6d9596a","session_id":"6197b88d3ded49448719ed92","condition":"full-information","relevant_dimensions":["wings","pattern"],"bee_group":{"antennae":"X","wings":"2","pattern":"S","legs":"X"},"action":"avoid","summary":"good-avoid","bonus":1.5800000000000012},{"rt":740.5,"stimulus":"\n                    <p><b>Action: <em>avoid</em></b></p>\n                    <p>This is the bee that you just saw.</p>\n                    <img src=\"bees-with-color/bee-A2SF.svg\" width=\"200\">\n                    <p><span class=\"greenText\">Good choice!</span>  This bee would have stung you.<br>Your bonus pay is unchanged, and remains at $0.62.</p>\n            ","response":0,"trial_type":"html-button-response","trial_index":72,"time_elapsed":744700,"internal_node_id":"0.0-4.0-1.30","subject_id":"5c704329d25ffb00016fa39f","study_id":"6197b3f67c2b5cd3b6d9596a","session_id":"6197b88d3ded49448719ed92","condition":"full-information","relevant_dimensions":["wings","pattern"],"bee_group":{"antennae":"X","wings":"2","pattern":"S","legs":"X"},"bonus":1.5800000000000012},{"rt":1124.5,"stimulus":"bees-with-color/bee-A1SF.svg","response":0,"trial_type":"image-button-response","trial_index":73,"time_elapsed":745826,"internal_node_id":"0.0-4.0-0.31","subject_id":"5c704329d25ffb00016fa39f","study_id":"6197b3f67c2b5cd3b6d9596a","session_id":"6197b88d3ded49448719ed92","condition":"full-information","relevant_dimensions":["wings","pattern"],"bee_group":{"antennae":"X","wings":"2","pattern":"S","legs":"X"},"action":"harvest","summary":"good-harvest","bonus":1.5800000000000012},{"rt":822.6000000238419,"stimulus":"\n                    <p><b>Action: <em>harvest</em></b></p>\n                    <p>This is the bee that you just saw.</p>\n                    <img src=\"bees-with-color/bee-A1SF.svg\" width=\"200\">\n                    <p><span class=\"greenText\"><b>Successful harvest!</b></span><br>Your pay has increased by $0.02. Your bonus pay is now $0.64.</p>\n            ","response":0,"trial_type":"html-button-response","trial_index":74,"time_elapsed":746650,"internal_node_id":"0.0-4.0-1.31","subject_id":"5c704329d25ffb00016fa39f","study_id":"6197b3f67c2b5cd3b6d9596a","session_id":"6197b88d3ded49448719ed92","condition":"full-information","relevant_dimensions":["wings","pattern"],"bee_group":{"antennae":"X","wings":"2","pattern":"S","legs":"X"},"bonus":1.5800000000000012},{"rt":1727.7999999523163,"stimulus":"bees-with-color/bee-A2DM.svg","response":0,"trial_type":"image-button-response","trial_index":75,"time_elapsed":748379,"internal_node_id":"0.0-4.0-0.32","subject_id":"5c704329d25ffb00016fa39f","study_id":"6197b3f67c2b5cd3b6d9596a","session_id":"6197b88d3ded49448719ed92","condition":"full-information","relevant_dimensions":["wings","pattern"],"bee_group":{"antennae":"X","wings":"2","pattern":"S","legs":"X"},"action":"harvest","summary":"good-harvest","bonus":1.5800000000000012},{"rt":641.7999999523163,"stimulus":"\n                    <p><b>Action: <em>harvest</em></b></p>\n                    <p>This is the bee that you just saw.</p>\n                    <img src=\"bees-with-color/bee-A2DM.svg\" width=\"200\">\n                    <p><span class=\"greenText\"><b>Successful harvest!</b></span><br>Your pay has increased by $0.02. Your bonus pay is now $0.66.</p>\n            ","response":0,"trial_type":"html-button-response","trial_index":76,"time_elapsed":749022,"internal_node_id":"0.0-4.0-1.32","subject_id":"5c704329d25ffb00016fa39f","study_id":"6197b3f67c2b5cd3b6d9596a","session_id":"6197b88d3ded49448719ed92","condition":"full-information","relevant_dimensions":["wings","pattern"],"bee_group":{"antennae":"X","wings":"2","pattern":"S","legs":"X"},"bonus":1.5800000000000012},{"rt":897.3000000715256,"stimulus":"bees-with-color/bee-A2DF.svg","response":0,"trial_type":"image-button-response","trial_index":77,"time_elapsed":749921,"internal_node_id":"0.0-4.0-0.33","subject_id":"5c704329d25ffb00016fa39f","study_id":"6197b3f67c2b5cd3b6d9596a","session_id":"6197b88d3ded49448719ed92","condition":"full-information","relevant_dimensions":["wings","pattern"],"bee_group":{"antennae":"X","wings":"2","pattern":"S","legs":"X"},"action":"harvest","summary":"good-harvest","bonus":1.5800000000000012},{"rt":647.2000000476837,"stimulus":"\n                    <p><b>Action: <em>harvest</em></b></p>\n                    <p>This is the bee that you just saw.</p>\n                    <img src=\"bees-with-color/bee-A2DF.svg\" width=\"200\">\n                    <p><span class=\"greenText\"><b>Successful harvest!</b></span><br>Your pay has increased by $0.02. Your bonus pay is now $0.68.</p>\n            ","response":0,"trial_type":"html-button-response","trial_index":78,"time_elapsed":750569,"internal_node_id":"0.0-4.0-1.33","subject_id":"5c704329d25ffb00016fa39f","study_id":"6197b3f67c2b5cd3b6d9596a","session_id":"6197b88d3ded49448719ed92","condition":"full-information","relevant_dimensions":["wings","pattern"],"bee_group":{"antennae":"X","wings":"2","pattern":"S","legs":"X"},"bonus":1.5800000000000012},{"rt":1661.3999999761581,"stimulus":"bees-with-color/bee-B2SM.svg","response":1,"trial_type":"image-button-response","trial_index":79,"time_elapsed":752231,"internal_node_id":"0.0-4.0-0.34","subject_id":"5c704329d25ffb00016fa39f","study_id":"6197b3f67c2b5cd3b6d9596a","session_id":"6197b88d3ded49448719ed92","condition":"full-information","relevant_dimensions":["wings","pattern"],"bee_group":{"antennae":"X","wings":"2","pattern":"S","legs":"X"},"action":"avoid","summary":"good-avoid","bonus":1.5800000000000012},{"rt":666.8999999761581,"stimulus":"\n                    <p><b>Action: <em>avoid</em></b></p>\n                    <p>This is the bee that you just saw.</p>\n                    <img src=\"bees-with-color/bee-B2SM.svg\" width=\"200\">\n                    <p><span class=\"greenText\">Good choice!</span>  This bee would have stung you.<br>Your bonus pay is unchanged, and remains at $0.68.</p>\n            ","response":0,"trial_type":"html-button-response","trial_index":80,"time_elapsed":752899,"internal_node_id":"0.0-4.0-1.34","subject_id":"5c704329d25ffb00016fa39f","study_id":"6197b3f67c2b5cd3b6d9596a","session_id":"6197b88d3ded49448719ed92","condition":"full-information","relevant_dimensions":["wings","pattern"],"bee_group":{"antennae":"X","wings":"2","pattern":"S","legs":"X"},"bonus":1.5800000000000012},{"rt":1241,"stimulus":"bees-with-color/bee-A2SF.svg","response":1,"trial_type":"image-button-response","trial_index":81,"time_elapsed":754142,"internal_node_id":"0.0-4.0-0.35","subject_id":"5c704329d25ffb00016fa39f","study_id":"6197b3f67c2b5cd3b6d9596a","session_id":"6197b88d3ded49448719ed92","condition":"full-information","relevant_dimensions":["wings","pattern"],"bee_group":{"antennae":"X","wings":"2","pattern":"S","legs":"X"},"action":"avoid","summary":"good-avoid","bonus":1.5800000000000012},{"rt":649.5,"stimulus":"\n                    <p><b>Action: <em>avoid</em></b></p>\n                    <p>This is the bee that you just saw.</p>\n                    <img src=\"bees-with-color/bee-A2SF.svg\" width=\"200\">\n                    <p><span class=\"greenText\">Good choice!</span>  This bee would have stung you.<br>Your bonus pay is unchanged, and remains at $0.68.</p>\n            ","response":0,"trial_type":"html-button-response","trial_index":82,"time_elapsed":754792,"internal_node_id":"0.0-4.0-1.35","subject_id":"5c704329d25ffb00016fa39f","study_id":"6197b3f67c2b5cd3b6d9596a","session_id":"6197b88d3ded49448719ed92","condition":"full-information","relevant_dimensions":["wings","pattern"],"bee_group":{"antennae":"X","wings":"2","pattern":"S","legs":"X"},"bonus":1.5800000000000012},{"rt":1452.6000000238419,"stimulus":"bees-with-color/bee-A1DF.svg","response":0,"trial_type":"image-button-response","trial_index":83,"time_elapsed":756246,"internal_node_id":"0.0-4.0-0.36","subject_id":"5c704329d25ffb00016fa39f","study_id":"6197b3f67c2b5cd3b6d9596a","session_id":"6197b88d3ded49448719ed92","condition":"full-information","relevant_dimensions":["wings","pattern"],"bee_group":{"antennae":"X","wings":"2","pattern":"S","legs":"X"},"action":"harvest","summary":"good-harvest","bonus":1.5800000000000012},{"rt":606.9000000953674,"stimulus":"\n                    <p><b>Action: <em>harvest</em></b></p>\n                    <p>This is the bee that you just saw.</p>\n                    <img src=\"bees-with-color/bee-A1DF.svg\" width=\"200\">\n                    <p><span class=\"greenText\"><b>Successful harvest!</b></span><br>Your pay has increased by $0.02. Your bonus pay is now $0.70.</p>\n            ","response":0,"trial_type":"html-button-response","trial_index":84,"time_elapsed":756854,"internal_node_id":"0.0-4.0-1.36","subject_id":"5c704329d25ffb00016fa39f","study_id":"6197b3f67c2b5cd3b6d9596a","session_id":"6197b88d3ded49448719ed92","condition":"full-information","relevant_dimensions":["wings","pattern"],"bee_group":{"antennae":"X","wings":"2","pattern":"S","legs":"X"},"bonus":1.5800000000000012},{"rt":2619.399999976158,"stimulus":"bees-with-color/bee-B1SF.svg","response":0,"trial_type":"image-button-response","trial_index":85,"time_elapsed":759475,"internal_node_id":"0.0-4.0-0.37","subject_id":"5c704329d25ffb00016fa39f","study_id":"6197b3f67c2b5cd3b6d9596a","session_id":"6197b88d3ded49448719ed92","condition":"full-information","relevant_dimensions":["wings","pattern"],"bee_group":{"antennae":"X","wings":"2","pattern":"S","legs":"X"},"action":"harvest","summary":"good-harvest","bonus":1.5800000000000012},{"rt":871.0999999046326,"stimulus":"\n                    <p><b>Action: <em>harvest</em></b></p>\n                    <p>This is the bee that you just saw.</p>\n                    <img src=\"bees-with-color/bee-B1SF.svg\" width=\"200\">\n                    <p><span class=\"greenText\"><b>Successful harvest!</b></span><br>Your pay has increased by $0.02. Your bonus pay is now $0.72.</p>\n            ","response":0,"trial_type":"html-button-response","trial_index":86,"time_elapsed":760347,"internal_node_id":"0.0-4.0-1.37","subject_id":"5c704329d25ffb00016fa39f","study_id":"6197b3f67c2b5cd3b6d9596a","session_id":"6197b88d3ded49448719ed92","condition":"full-information","relevant_dimensions":["wings","pattern"],"bee_group":{"antennae":"X","wings":"2","pattern":"S","legs":"X"},"bonus":1.5800000000000012},{"rt":2212.5,"stimulus":"bees-with-color/bee-A1SM.svg","response":0,"trial_type":"image-button-response","trial_index":87,"time_elapsed":762561,"internal_node_id":"0.0-4.0-0.38","subject_id":"5c704329d25ffb00016fa39f","study_id":"6197b3f67c2b5cd3b6d9596a","session_id":"6197b88d3ded49448719ed92","condition":"full-information","relevant_dimensions":["wings","pattern"],"bee_group":{"antennae":"X","wings":"2","pattern":"S","legs":"X"},"action":"harvest","summary":"good-harvest","bonus":1.5800000000000012},{"rt":634.9000000953674,"stimulus":"\n                    <p><b>Action: <em>harvest</em></b></p>\n                    <p>This is the bee that you just saw.</p>\n                    <img src=\"bees-with-color/bee-A1SM.svg\" width=\"200\">\n                    <p><span class=\"greenText\"><b>Successful harvest!</b></span><br>Your pay has increased by $0.02. Your bonus pay is now $0.74.</p>\n            ","response":0,"trial_type":"html-button-response","trial_index":88,"time_elapsed":763197,"internal_node_id":"0.0-4.0-1.38","subject_id":"5c704329d25ffb00016fa39f","study_id":"6197b3f67c2b5cd3b6d9596a","session_id":"6197b88d3ded49448719ed92","condition":"full-information","relevant_dimensions":["wings","pattern"],"bee_group":{"antennae":"X","wings":"2","pattern":"S","legs":"X"},"bonus":1.5800000000000012},{"rt":1028.0999999046326,"stimulus":"bees-with-color/bee-B1SM.svg","response":0,"trial_type":"image-button-response","trial_index":89,"time_elapsed":764227,"internal_node_id":"0.0-4.0-0.39","subject_id":"5c704329d25ffb00016fa39f","study_id":"6197b3f67c2b5cd3b6d9596a","session_id":"6197b88d3ded49448719ed92","condition":"full-information","relevant_dimensions":["wings","pattern"],"bee_group":{"antennae":"X","wings":"2","pattern":"S","legs":"X"},"action":"harvest","summary":"good-harvest","bonus":1.5800000000000012},{"rt":636.2000000476837,"stimulus":"\n                    <p><b>Action: <em>harvest</em></b></p>\n                    <p>This is the bee that you just saw.</p>\n                    <img src=\"bees-with-color/bee-B1SM.svg\" width=\"200\">\n                    <p><span class=\"greenText\"><b>Successful harvest!</b></span><br>Your pay has increased by $0.02. Your bonus pay is now $0.76.</p>\n            ","response":0,"trial_type":"html-button-response","trial_index":90,"time_elapsed":764864,"internal_node_id":"0.0-4.0-1.39","subject_id":"5c704329d25ffb00016fa39f","study_id":"6197b3f67c2b5cd3b6d9596a","session_id":"6197b88d3ded49448719ed92","condition":"full-information","relevant_dimensions":["wings","pattern"],"bee_group":{"antennae":"X","wings":"2","pattern":"S","legs":"X"},"bonus":1.5800000000000012},{"rt":1946.7000000476837,"stimulus":"bees-with-color/bee-B1DF.svg","response":0,"trial_type":"image-button-response","trial_index":91,"time_elapsed":766812,"internal_node_id":"0.0-4.0-0.40","subject_id":"5c704329d25ffb00016fa39f","study_id":"6197b3f67c2b5cd3b6d9596a","session_id":"6197b88d3ded49448719ed92","condition":"full-information","relevant_dimensions":["wings","pattern"],"bee_group":{"antennae":"X","wings":"2","pattern":"S","legs":"X"},"action":"harvest","summary":"good-harvest","bonus":1.5800000000000012},{"rt":689.6000000238419,"stimulus":"\n                    <p><b>Action: <em>harvest</em></b></p>\n                    <p>This is the bee that you just saw.</p>\n                    <img src=\"bees-with-color/bee-B1DF.svg\" width=\"200\">\n                    <p><span class=\"greenText\"><b>Successful harvest!</b></span><br>Your pay has increased by $0.02. Your bonus pay is now $0.78.</p>\n            ","response":0,"trial_type":"html-button-response","trial_index":92,"time_elapsed":767503,"internal_node_id":"0.0-4.0-1.40","subject_id":"5c704329d25ffb00016fa39f","study_id":"6197b3f67c2b5cd3b6d9596a","session_id":"6197b88d3ded49448719ed92","condition":"full-information","relevant_dimensions":["wings","pattern"],"bee_group":{"antennae":"X","wings":"2","pattern":"S","legs":"X"},"bonus":1.5800000000000012},{"rt":1089.7999999523163,"stimulus":"bees-with-color/bee-A1DM.svg","response":0,"trial_type":"image-button-response","trial_index":93,"time_elapsed":768594,"internal_node_id":"0.0-4.0-0.41","subject_id":"5c704329d25ffb00016fa39f","study_id":"6197b3f67c2b5cd3b6d9596a","session_id":"6197b88d3ded49448719ed92","condition":"full-information","relevant_dimensions":["wings","pattern"],"bee_group":{"antennae":"X","wings":"2","pattern":"S","legs":"X"},"action":"harvest","summary":"good-harvest","bonus":1.5800000000000012},{"rt":785.5,"stimulus":"\n                    <p><b>Action: <em>harvest</em></b></p>\n                    <p>This is the bee that you just saw.</p>\n                    <img src=\"bees-with-color/bee-A1DM.svg\" width=\"200\">\n                    <p><span class=\"greenText\"><b>Successful harvest!</b></span><br>Your pay has increased by $0.02. Your bonus pay is now $0.80.</p>\n            ","response":0,"trial_type":"html-button-response","trial_index":94,"time_elapsed":769381,"internal_node_id":"0.0-4.0-1.41","subject_id":"5c704329d25ffb00016fa39f","study_id":"6197b3f67c2b5cd3b6d9596a","session_id":"6197b88d3ded49448719ed92","condition":"full-information","relevant_dimensions":["wings","pattern"],"bee_group":{"antennae":"X","wings":"2","pattern":"S","legs":"X"},"bonus":1.5800000000000012},{"rt":816.3000000715256,"stimulus":"bees-with-color/bee-A1SF.svg","response":0,"trial_type":"image-button-response","trial_index":95,"time_elapsed":770198,"internal_node_id":"0.0-4.0-0.42","subject_id":"5c704329d25ffb00016fa39f","study_id":"6197b3f67c2b5cd3b6d9596a","session_id":"6197b88d3ded49448719ed92","condition":"full-information","relevant_dimensions":["wings","pattern"],"bee_group":{"antennae":"X","wings":"2","pattern":"S","legs":"X"},"action":"harvest","summary":"good-harvest","bonus":1.5800000000000012},{"rt":692.2999999523163,"stimulus":"\n                    <p><b>Action: <em>harvest</em></b></p>\n                    <p>This is the bee that you just saw.</p>\n                    <img src=\"bees-with-color/bee-A1SF.svg\" width=\"200\">\n                    <p><span class=\"greenText\"><b>Successful harvest!</b></span><br>Your pay has increased by $0.02. Your bonus pay is now $0.82.</p>\n            ","response":0,"trial_type":"html-button-response","trial_index":96,"time_elapsed":770892,"internal_node_id":"0.0-4.0-1.42","subject_id":"5c704329d25ffb00016fa39f","study_id":"6197b3f67c2b5cd3b6d9596a","session_id":"6197b88d3ded49448719ed92","condition":"full-information","relevant_dimensions":["wings","pattern"],"bee_group":{"antennae":"X","wings":"2","pattern":"S","legs":"X"},"bonus":1.5800000000000012},{"rt":742.7000000476837,"stimulus":"bees-with-color/bee-B1DM.svg","response":0,"trial_type":"image-button-response","trial_index":97,"time_elapsed":771636,"internal_node_id":"0.0-4.0-0.43","subject_id":"5c704329d25ffb00016fa39f","study_id":"6197b3f67c2b5cd3b6d9596a","session_id":"6197b88d3ded49448719ed92","condition":"full-information","relevant_dimensions":["wings","pattern"],"bee_group":{"antennae":"X","wings":"2","pattern":"S","legs":"X"},"action":"harvest","summary":"good-harvest","bonus":1.5800000000000012},{"rt":645.2999999523163,"stimulus":"\n                    <p><b>Action: <em>harvest</em></b></p>\n                    <p>This is the bee that you just saw.</p>\n                    <img src=\"bees-with-color/bee-B1DM.svg\" width=\"200\">\n                    <p><span class=\"greenText\"><b>Successful harvest!</b></span><br>Your pay has increased by $0.02. Your bonus pay is now $0.84.</p>\n            ","response":0,"trial_type":"html-button-response","trial_index":98,"time_elapsed":772283,"internal_node_id":"0.0-4.0-1.43","subject_id":"5c704329d25ffb00016fa39f","study_id":"6197b3f67c2b5cd3b6d9596a","session_id":"6197b88d3ded49448719ed92","condition":"full-information","relevant_dimensions":["wings","pattern"],"bee_group":{"antennae":"X","wings":"2","pattern":"S","legs":"X"},"bonus":1.5800000000000012},{"rt":1643.0999999046326,"stimulus":"bees-with-color/bee-B2SF.svg","response":1,"trial_type":"image-button-response","trial_index":99,"time_elapsed":773927,"internal_node_id":"0.0-4.0-0.44","subject_id":"5c704329d25ffb00016fa39f","study_id":"6197b3f67c2b5cd3b6d9596a","session_id":"6197b88d3ded49448719ed92","condition":"full-information","relevant_dimensions":["wings","pattern"],"bee_group":{"antennae":"X","wings":"2","pattern":"S","legs":"X"},"action":"avoid","summary":"good-avoid","bonus":1.5800000000000012},{"rt":805.5999999046326,"stimulus":"\n                    <p><b>Action: <em>avoid</em></b></p>\n                    <p>This is the bee that you just saw.</p>\n                    <img src=\"bees-with-color/bee-B2SF.svg\" width=\"200\">\n                    <p><span class=\"greenText\">Good choice!</span>  This bee would have stung you.<br>Your bonus pay is unchanged, and remains at $0.84.</p>\n            ","response":0,"trial_type":"html-button-response","trial_index":100,"time_elapsed":774734,"internal_node_id":"0.0-4.0-1.44","subject_id":"5c704329d25ffb00016fa39f","study_id":"6197b3f67c2b5cd3b6d9596a","session_id":"6197b88d3ded49448719ed92","condition":"full-information","relevant_dimensions":["wings","pattern"],"bee_group":{"antennae":"X","wings":"2","pattern":"S","legs":"X"},"bonus":1.5800000000000012},{"rt":1732.5,"stimulus":"bees-with-color/bee-B2DM.svg","response":0,"trial_type":"image-button-response","trial_index":101,"time_elapsed":776468,"internal_node_id":"0.0-4.0-0.45","subject_id":"5c704329d25ffb00016fa39f","study_id":"6197b3f67c2b5cd3b6d9596a","session_id":"6197b88d3ded49448719ed92","condition":"full-information","relevant_dimensions":["wings","pattern"],"bee_group":{"antennae":"X","wings":"2","pattern":"S","legs":"X"},"action":"harvest","summary":"good-harvest","bonus":1.5800000000000012},{"rt":627.9000000953674,"stimulus":"\n                    <p><b>Action: <em>harvest</em></b></p>\n                    <p>This is the bee that you just saw.</p>\n                    <img src=\"bees-with-color/bee-B2DM.svg\" width=\"200\">\n                    <p><span class=\"greenText\"><b>Successful harvest!</b></span><br>Your pay has increased by $0.02. Your bonus pay is now $0.86.</p>\n            ","response":0,"trial_type":"html-button-response","trial_index":102,"time_elapsed":777097,"internal_node_id":"0.0-4.0-1.45","subject_id":"5c704329d25ffb00016fa39f","study_id":"6197b3f67c2b5cd3b6d9596a","session_id":"6197b88d3ded49448719ed92","condition":"full-information","relevant_dimensions":["wings","pattern"],"bee_group":{"antennae":"X","wings":"2","pattern":"S","legs":"X"},"bonus":1.5800000000000012},{"rt":1278.1000000238419,"stimulus":"bees-with-color/bee-A2SM.svg","response":1,"trial_type":"image-button-response","trial_index":103,"time_elapsed":778376,"internal_node_id":"0.0-4.0-0.46","subject_id":"5c704329d25ffb00016fa39f","study_id":"6197b3f67c2b5cd3b6d9596a","session_id":"6197b88d3ded49448719ed92","condition":"full-information","relevant_dimensions":["wings","pattern"],"bee_group":{"antennae":"X","wings":"2","pattern":"S","legs":"X"},"action":"avoid","summary":"good-avoid","bonus":1.5800000000000012},{"rt":595.8999999761581,"stimulus":"\n                    <p><b>Action: <em>avoid</em></b></p>\n                    <p>This is the bee that you just saw.</p>\n                    <img src=\"bees-with-color/bee-A2SM.svg\" width=\"200\">\n                    <p><span class=\"greenText\">Good choice!</span>  This bee would have stung you.<br>Your bonus pay is unchanged, and remains at $0.86.</p>\n            ","response":0,"trial_type":"html-button-response","trial_index":104,"time_elapsed":778974,"internal_node_id":"0.0-4.0-1.46","subject_id":"5c704329d25ffb00016fa39f","study_id":"6197b3f67c2b5cd3b6d9596a","session_id":"6197b88d3ded49448719ed92","condition":"full-information","relevant_dimensions":["wings","pattern"],"bee_group":{"antennae":"X","wings":"2","pattern":"S","legs":"X"},"bonus":1.5800000000000012},{"rt":1168.3999999761581,"stimulus":"bees-with-color/bee-B2DF.svg","response":0,"trial_type":"image-button-response","trial_index":105,"time_elapsed":780143,"internal_node_id":"0.0-4.0-0.47","subject_id":"5c704329d25ffb00016fa39f","study_id":"6197b3f67c2b5cd3b6d9596a","session_id":"6197b88d3ded49448719ed92","condition":"full-information","relevant_dimensions":["wings","pattern"],"bee_group":{"antennae":"X","wings":"2","pattern":"S","legs":"X"},"action":"harvest","summary":"good-harvest","bonus":1.5800000000000012},{"rt":599.3000000715256,"stimulus":"\n                    <p><b>Action: <em>harvest</em></b></p>\n                    <p>This is the bee that you just saw.</p>\n                    <img src=\"bees-with-color/bee-B2DF.svg\" width=\"200\">\n                    <p><span class=\"greenText\"><b>Successful harvest!</b></span><br>Your pay has increased by $0.02. Your bonus pay is now $0.88.</p>\n            ","response":0,"trial_type":"html-button-response","trial_index":106,"time_elapsed":780744,"internal_node_id":"0.0-4.0-1.47","subject_id":"5c704329d25ffb00016fa39f","study_id":"6197b3f67c2b5cd3b6d9596a","session_id":"6197b88d3ded49448719ed92","condition":"full-information","relevant_dimensions":["wings","pattern"],"bee_group":{"antennae":"X","wings":"2","pattern":"S","legs":"X"},"bonus":1.5800000000000012},{"rt":1047.5,"stimulus":"bees-with-color/bee-B2SF.svg","response":1,"trial_type":"image-button-response","trial_index":107,"time_elapsed":781793,"internal_node_id":"0.0-4.0-0.48","subject_id":"5c704329d25ffb00016fa39f","study_id":"6197b3f67c2b5cd3b6d9596a","session_id":"6197b88d3ded49448719ed92","condition":"full-information","relevant_dimensions":["wings","pattern"],"bee_group":{"antennae":"X","wings":"2","pattern":"S","legs":"X"},"action":"avoid","summary":"good-avoid","bonus":1.5800000000000012},{"rt":1084.5,"stimulus":"\n                    <p><b>Action: <em>avoid</em></b></p>\n                    <p>This is the bee that you just saw.</p>\n                    <img src=\"bees-with-color/bee-B2SF.svg\" width=\"200\">\n                    <p><span class=\"greenText\">Good choice!</span>  This bee would have stung you.<br>Your bonus pay is unchanged, and remains at $0.88.</p>\n            ","response":0,"trial_type":"html-button-response","trial_index":108,"time_elapsed":782879,"internal_node_id":"0.0-4.0-1.48","subject_id":"5c704329d25ffb00016fa39f","study_id":"6197b3f67c2b5cd3b6d9596a","session_id":"6197b88d3ded49448719ed92","condition":"full-information","relevant_dimensions":["wings","pattern"],"bee_group":{"antennae":"X","wings":"2","pattern":"S","legs":"X"},"bonus":1.5800000000000012},{"rt":2025.7999999523163,"stimulus":"bees-with-color/bee-A2SF.svg","response":1,"trial_type":"image-button-response","trial_index":109,"time_elapsed":784906,"internal_node_id":"0.0-4.0-0.49","subject_id":"5c704329d25ffb00016fa39f","study_id":"6197b3f67c2b5cd3b6d9596a","session_id":"6197b88d3ded49448719ed92","condition":"full-information","relevant_dimensions":["wings","pattern"],"bee_group":{"antennae":"X","wings":"2","pattern":"S","legs":"X"},"action":"avoid","summary":"good-avoid","bonus":1.5800000000000012},{"rt":594,"stimulus":"\n                    <p><b>Action: <em>avoid</em></b></p>\n                    <p>This is the bee that you just saw.</p>\n                    <img src=\"bees-with-color/bee-A2SF.svg\" width=\"200\">\n                    <p><span class=\"greenText\">Good choice!</span>  This bee would have stung you.<br>Your bonus pay is unchanged, and remains at $0.88.</p>\n            ","response":0,"trial_type":"html-button-response","trial_index":110,"time_elapsed":785501,"internal_node_id":"0.0-4.0-1.49","subject_id":"5c704329d25ffb00016fa39f","study_id":"6197b3f67c2b5cd3b6d9596a","session_id":"6197b88d3ded49448719ed92","condition":"full-information","relevant_dimensions":["wings","pattern"],"bee_group":{"antennae":"X","wings":"2","pattern":"S","legs":"X"},"bonus":1.5800000000000012},{"rt":850.7999999523163,"stimulus":"bees-with-color/bee-B1SM.svg","response":0,"trial_type":"image-button-response","trial_index":111,"time_elapsed":786354,"internal_node_id":"0.0-4.0-0.50","subject_id":"5c704329d25ffb00016fa39f","study_id":"6197b3f67c2b5cd3b6d9596a","session_id":"6197b88d3ded49448719ed92","condition":"full-information","relevant_dimensions":["wings","pattern"],"bee_group":{"antennae":"X","wings":"2","pattern":"S","legs":"X"},"action":"harvest","summary":"good-harvest","bonus":1.5800000000000012},{"rt":669.6999999284744,"stimulus":"\n                    <p><b>Action: <em>harvest</em></b></p>\n                    <p>This is the bee that you just saw.</p>\n                    <img src=\"bees-with-color/bee-B1SM.svg\" width=\"200\">\n                    <p><span class=\"greenText\"><b>Successful harvest!</b></span><br>Your pay has increased by $0.02. Your bonus pay is now $0.90.</p>\n            ","response":0,"trial_type":"html-button-response","trial_index":112,"time_elapsed":787025,"internal_node_id":"0.0-4.0-1.50","subject_id":"5c704329d25ffb00016fa39f","study_id":"6197b3f67c2b5cd3b6d9596a","session_id":"6197b88d3ded49448719ed92","condition":"full-information","relevant_dimensions":["wings","pattern"],"bee_group":{"antennae":"X","wings":"2","pattern":"S","legs":"X"},"bonus":1.5800000000000012},{"rt":1219.5,"stimulus":"bees-with-color/bee-B2DM.svg","response":0,"trial_type":"image-button-response","trial_index":113,"time_elapsed":788245,"internal_node_id":"0.0-4.0-0.51","subject_id":"5c704329d25ffb00016fa39f","study_id":"6197b3f67c2b5cd3b6d9596a","session_id":"6197b88d3ded49448719ed92","condition":"full-information","relevant_dimensions":["wings","pattern"],"bee_group":{"antennae":"X","wings":"2","pattern":"S","legs":"X"},"action":"harvest","summary":"good-harvest","bonus":1.5800000000000012},{"rt":1059.6000000238419,"stimulus":"\n                    <p><b>Action: <em>harvest</em></b></p>\n                    <p>This is the bee that you just saw.</p>\n                    <img src=\"bees-with-color/bee-B2DM.svg\" width=\"200\">\n                    <p><span class=\"greenText\"><b>Successful harvest!</b></span><br>Your pay has increased by $0.02. Your bonus pay is now $0.92.</p>\n            ","response":0,"trial_type":"html-button-response","trial_index":114,"time_elapsed":789306,"internal_node_id":"0.0-4.0-1.51","subject_id":"5c704329d25ffb00016fa39f","study_id":"6197b3f67c2b5cd3b6d9596a","session_id":"6197b88d3ded49448719ed92","condition":"full-information","relevant_dimensions":["wings","pattern"],"bee_group":{"antennae":"X","wings":"2","pattern":"S","legs":"X"},"bonus":1.5800000000000012},{"rt":1854.1999999284744,"stimulus":"bees-with-color/bee-B1SF.svg","response":0,"trial_type":"image-button-response","trial_index":115,"time_elapsed":791162,"internal_node_id":"0.0-4.0-0.52","subject_id":"5c704329d25ffb00016fa39f","study_id":"6197b3f67c2b5cd3b6d9596a","session_id":"6197b88d3ded49448719ed92","condition":"full-information","relevant_dimensions":["wings","pattern"],"bee_group":{"antennae":"X","wings":"2","pattern":"S","legs":"X"},"action":"harvest","summary":"good-harvest","bonus":1.5800000000000012},{"rt":703.0999999046326,"stimulus":"\n                    <p><b>Action: <em>harvest</em></b></p>\n                    <p>This is the bee that you just saw.</p>\n                    <img src=\"bees-with-color/bee-B1SF.svg\" width=\"200\">\n                    <p><span class=\"greenText\"><b>Successful harvest!</b></span><br>Your pay has increased by $0.02. Your bonus pay is now $0.94.</p>\n            ","response":0,"trial_type":"html-button-response","trial_index":116,"time_elapsed":791866,"internal_node_id":"0.0-4.0-1.52","subject_id":"5c704329d25ffb00016fa39f","study_id":"6197b3f67c2b5cd3b6d9596a","session_id":"6197b88d3ded49448719ed92","condition":"full-information","relevant_dimensions":["wings","pattern"],"bee_group":{"antennae":"X","wings":"2","pattern":"S","legs":"X"},"bonus":1.5800000000000012},{"rt":1358.7000000476837,"stimulus":"bees-with-color/bee-A2DM.svg","response":0,"trial_type":"image-button-response","trial_index":117,"time_elapsed":793226,"internal_node_id":"0.0-4.0-0.53","subject_id":"5c704329d25ffb00016fa39f","study_id":"6197b3f67c2b5cd3b6d9596a","session_id":"6197b88d3ded49448719ed92","condition":"full-information","relevant_dimensions":["wings","pattern"],"bee_group":{"antennae":"X","wings":"2","pattern":"S","legs":"X"},"action":"harvest","summary":"good-harvest","bonus":1.5800000000000012},{"rt":694,"stimulus":"\n                    <p><b>Action: <em>harvest</em></b></p>\n                    <p>This is the bee that you just saw.</p>\n                    <img src=\"bees-with-color/bee-A2DM.svg\" width=\"200\">\n                    <p><span class=\"greenText\"><b>Successful harvest!</b></span><br>Your pay has increased by $0.02. Your bonus pay is now $0.96.</p>\n            ","response":0,"trial_type":"html-button-response","trial_index":118,"time_elapsed":793921,"internal_node_id":"0.0-4.0-1.53","subject_id":"5c704329d25ffb00016fa39f","study_id":"6197b3f67c2b5cd3b6d9596a","session_id":"6197b88d3ded49448719ed92","condition":"full-information","relevant_dimensions":["wings","pattern"],"bee_group":{"antennae":"X","wings":"2","pattern":"S","legs":"X"},"bonus":1.5800000000000012},{"rt":710.7000000476837,"stimulus":"bees-with-color/bee-B1DM.svg","response":0,"trial_type":"image-button-response","trial_index":119,"time_elapsed":794632,"internal_node_id":"0.0-4.0-0.54","subject_id":"5c704329d25ffb00016fa39f","study_id":"6197b3f67c2b5cd3b6d9596a","session_id":"6197b88d3ded49448719ed92","condition":"full-information","relevant_dimensions":["wings","pattern"],"bee_group":{"antennae":"X","wings":"2","pattern":"S","legs":"X"},"action":"harvest","summary":"good-harvest","bonus":1.5800000000000012},{"rt":635.0999999046326,"stimulus":"\n                    <p><b>Action: <em>harvest</em></b></p>\n                    <p>This is the bee that you just saw.</p>\n                    <img src=\"bees-with-color/bee-B1DM.svg\" width=\"200\">\n                    <p><span class=\"greenText\"><b>Successful harvest!</b></span><br>Your pay has increased by $0.02. Your bonus pay is now $0.98.</p>\n            ","response":0,"trial_type":"html-button-response","trial_index":120,"time_elapsed":795269,"internal_node_id":"0.0-4.0-1.54","subject_id":"5c704329d25ffb00016fa39f","study_id":"6197b3f67c2b5cd3b6d9596a","session_id":"6197b88d3ded49448719ed92","condition":"full-information","relevant_dimensions":["wings","pattern"],"bee_group":{"antennae":"X","wings":"2","pattern":"S","legs":"X"},"bonus":1.5800000000000012},{"rt":1800.3000000715256,"stimulus":"bees-with-color/bee-B2DF.svg","response":0,"trial_type":"image-button-response","trial_index":121,"time_elapsed":797070,"internal_node_id":"0.0-4.0-0.55","subject_id":"5c704329d25ffb00016fa39f","study_id":"6197b3f67c2b5cd3b6d9596a","session_id":"6197b88d3ded49448719ed92","condition":"full-information","relevant_dimensions":["wings","pattern"],"bee_group":{"antennae":"X","wings":"2","pattern":"S","legs":"X"},"action":"harvest","summary":"good-harvest","bonus":1.5800000000000012},{"rt":766.3999999761581,"stimulus":"\n                    <p><b>Action: <em>harvest</em></b></p>\n                    <p>This is the bee that you just saw.</p>\n                    <img src=\"bees-with-color/bee-B2DF.svg\" width=\"200\">\n                    <p><span class=\"greenText\"><b>Successful harvest!</b></span><br>Your pay has increased by $0.02. Your bonus pay is now $1.00.</p>\n            ","response":0,"trial_type":"html-button-response","trial_index":122,"time_elapsed":797837,"internal_node_id":"0.0-4.0-1.55","subject_id":"5c704329d25ffb00016fa39f","study_id":"6197b3f67c2b5cd3b6d9596a","session_id":"6197b88d3ded49448719ed92","condition":"full-information","relevant_dimensions":["wings","pattern"],"bee_group":{"antennae":"X","wings":"2","pattern":"S","legs":"X"},"bonus":1.5800000000000012},{"rt":1219.7000000476837,"stimulus":"bees-with-color/bee-A1SM.svg","response":0,"trial_type":"image-button-response","trial_index":123,"time_elapsed":799058,"internal_node_id":"0.0-4.0-0.56","subject_id":"5c704329d25ffb00016fa39f","study_id":"6197b3f67c2b5cd3b6d9596a","session_id":"6197b88d3ded49448719ed92","condition":"full-information","relevant_dimensions":["wings","pattern"],"bee_group":{"antennae":"X","wings":"2","pattern":"S","legs":"X"},"action":"harvest","summary":"good-harvest","bonus":1.5800000000000012},{"rt":614.7999999523163,"stimulus":"\n                    <p><b>Action: <em>harvest</em></b></p>\n                    <p>This is the bee that you just saw.</p>\n                    <img src=\"bees-with-color/bee-A1SM.svg\" width=\"200\">\n                    <p><span class=\"greenText\"><b>Successful harvest!</b></span><br>Your pay has increased by $0.02. Your bonus pay is now $1.02.</p>\n            ","response":0,"trial_type":"html-button-response","trial_index":124,"time_elapsed":799674,"internal_node_id":"0.0-4.0-1.56","subject_id":"5c704329d25ffb00016fa39f","study_id":"6197b3f67c2b5cd3b6d9596a","session_id":"6197b88d3ded49448719ed92","condition":"full-information","relevant_dimensions":["wings","pattern"],"bee_group":{"antennae":"X","wings":"2","pattern":"S","legs":"X"},"bonus":1.5800000000000012},{"rt":903.6999999284744,"stimulus":"bees-with-color/bee-A1DM.svg","response":0,"trial_type":"image-button-response","trial_index":125,"time_elapsed":800579,"internal_node_id":"0.0-4.0-0.57","subject_id":"5c704329d25ffb00016fa39f","study_id":"6197b3f67c2b5cd3b6d9596a","session_id":"6197b88d3ded49448719ed92","condition":"full-information","relevant_dimensions":["wings","pattern"],"bee_group":{"antennae":"X","wings":"2","pattern":"S","legs":"X"},"action":"harvest","summary":"good-harvest","bonus":1.5800000000000012},{"rt":574,"stimulus":"\n                    <p><b>Action: <em>harvest</em></b></p>\n                    <p>This is the bee that you just saw.</p>\n                    <img src=\"bees-with-color/bee-A1DM.svg\" width=\"200\">\n                    <p><span class=\"greenText\"><b>Successful harvest!</b></span><br>Your pay has increased by $0.02. Your bonus pay is now $1.04.</p>\n            ","response":0,"trial_type":"html-button-response","trial_index":126,"time_elapsed":801155,"internal_node_id":"0.0-4.0-1.57","subject_id":"5c704329d25ffb00016fa39f","study_id":"6197b3f67c2b5cd3b6d9596a","session_id":"6197b88d3ded49448719ed92","condition":"full-information","relevant_dimensions":["wings","pattern"],"bee_group":{"antennae":"X","wings":"2","pattern":"S","legs":"X"},"bonus":1.5800000000000012},{"rt":970.7999999523163,"stimulus":"bees-with-color/bee-B2SM.svg","response":1,"trial_type":"image-button-response","trial_index":127,"time_elapsed":802126,"internal_node_id":"0.0-4.0-0.58","subject_id":"5c704329d25ffb00016fa39f","study_id":"6197b3f67c2b5cd3b6d9596a","session_id":"6197b88d3ded49448719ed92","condition":"full-information","relevant_dimensions":["wings","pattern"],"bee_group":{"antennae":"X","wings":"2","pattern":"S","legs":"X"},"action":"avoid","summary":"good-avoid","bonus":1.5800000000000012},{"rt":580.5,"stimulus":"\n                    <p><b>Action: <em>avoid</em></b></p>\n                    <p>This is the bee that you just saw.</p>\n                    <img src=\"bees-with-color/bee-B2SM.svg\" width=\"200\">\n                    <p><span class=\"greenText\">Good choice!</span>  This bee would have stung you.<br>Your bonus pay is unchanged, and remains at $1.04.</p>\n            ","response":0,"trial_type":"html-button-response","trial_index":128,"time_elapsed":802708,"internal_node_id":"0.0-4.0-1.58","subject_id":"5c704329d25ffb00016fa39f","study_id":"6197b3f67c2b5cd3b6d9596a","session_id":"6197b88d3ded49448719ed92","condition":"full-information","relevant_dimensions":["wings","pattern"],"bee_group":{"antennae":"X","wings":"2","pattern":"S","legs":"X"},"bonus":1.5800000000000012},{"rt":939,"stimulus":"bees-with-color/bee-B1DF.svg","response":0,"trial_type":"image-button-response","trial_index":129,"time_elapsed":803648,"internal_node_id":"0.0-4.0-0.59","subject_id":"5c704329d25ffb00016fa39f","study_id":"6197b3f67c2b5cd3b6d9596a","session_id":"6197b88d3ded49448719ed92","condition":"full-information","relevant_dimensions":["wings","pattern"],"bee_group":{"antennae":"X","wings":"2","pattern":"S","legs":"X"},"action":"harvest","summary":"good-harvest","bonus":1.5800000000000012},{"rt":704.5,"stimulus":"\n                    <p><b>Action: <em>harvest</em></b></p>\n                    <p>This is the bee that you just saw.</p>\n                    <img src=\"bees-with-color/bee-B1DF.svg\" width=\"200\">\n                    <p><span class=\"greenText\"><b>Successful harvest!</b></span><br>Your pay has increased by $0.02. Your bonus pay is now $1.06.</p>\n            ","response":0,"trial_type":"html-button-response","trial_index":130,"time_elapsed":804354,"internal_node_id":"0.0-4.0-1.59","subject_id":"5c704329d25ffb00016fa39f","study_id":"6197b3f67c2b5cd3b6d9596a","session_id":"6197b88d3ded49448719ed92","condition":"full-information","relevant_dimensions":["wings","pattern"],"bee_group":{"antennae":"X","wings":"2","pattern":"S","legs":"X"},"bonus":1.5800000000000012},{"rt":1712.7999999523163,"stimulus":"bees-with-color/bee-A1SF.svg","response":0,"trial_type":"image-button-response","trial_index":131,"time_elapsed":806068,"internal_node_id":"0.0-4.0-0.60","subject_id":"5c704329d25ffb00016fa39f","study_id":"6197b3f67c2b5cd3b6d9596a","session_id":"6197b88d3ded49448719ed92","condition":"full-information","relevant_dimensions":["wings","pattern"],"bee_group":{"antennae":"X","wings":"2","pattern":"S","legs":"X"},"action":"harvest","summary":"good-harvest","bonus":1.5800000000000012},{"rt":1243.8999999761581,"stimulus":"\n                    <p><b>Action: <em>harvest</em></b></p>\n                    <p>This is the bee that you just saw.</p>\n                    <img src=\"bees-with-color/bee-A1SF.svg\" width=\"200\">\n                    <p><span class=\"greenText\"><b>Successful harvest!</b></span><br>Your pay has increased by $0.02. Your bonus pay is now $1.08.</p>\n            ","response":0,"trial_type":"html-button-response","trial_index":132,"time_elapsed":807313,"internal_node_id":"0.0-4.0-1.60","subject_id":"5c704329d25ffb00016fa39f","study_id":"6197b3f67c2b5cd3b6d9596a","session_id":"6197b88d3ded49448719ed92","condition":"full-information","relevant_dimensions":["wings","pattern"],"bee_group":{"antennae":"X","wings":"2","pattern":"S","legs":"X"},"bonus":1.5800000000000012},{"rt":1108.1000000238419,"stimulus":"bees-with-color/bee-A2DF.svg","response":0,"trial_type":"image-button-response","trial_index":133,"time_elapsed":808423,"internal_node_id":"0.0-4.0-0.61","subject_id":"5c704329d25ffb00016fa39f","study_id":"6197b3f67c2b5cd3b6d9596a","session_id":"6197b88d3ded49448719ed92","condition":"full-information","relevant_dimensions":["wings","pattern"],"bee_group":{"antennae":"X","wings":"2","pattern":"S","legs":"X"},"action":"harvest","summary":"good-harvest","bonus":1.5800000000000012},{"rt":637.1000000238419,"stimulus":"\n                    <p><b>Action: <em>harvest</em></b></p>\n                    <p>This is the bee that you just saw.</p>\n                    <img src=\"bees-with-color/bee-A2DF.svg\" width=\"200\">\n                    <p><span class=\"greenText\"><b>Successful harvest!</b></span><br>Your pay has increased by $0.02. Your bonus pay is now $1.10.</p>\n            ","response":0,"trial_type":"html-button-response","trial_index":134,"time_elapsed":809061,"internal_node_id":"0.0-4.0-1.61","subject_id":"5c704329d25ffb00016fa39f","study_id":"6197b3f67c2b5cd3b6d9596a","session_id":"6197b88d3ded49448719ed92","condition":"full-information","relevant_dimensions":["wings","pattern"],"bee_group":{"antennae":"X","wings":"2","pattern":"S","legs":"X"},"bonus":1.5800000000000012},{"rt":908,"stimulus":"bees-with-color/bee-A2SM.svg","response":1,"trial_type":"image-button-response","trial_index":135,"time_elapsed":809970,"internal_node_id":"0.0-4.0-0.62","subject_id":"5c704329d25ffb00016fa39f","study_id":"6197b3f67c2b5cd3b6d9596a","session_id":"6197b88d3ded49448719ed92","condition":"full-information","relevant_dimensions":["wings","pattern"],"bee_group":{"antennae":"X","wings":"2","pattern":"S","legs":"X"},"action":"avoid","summary":"good-avoid","bonus":1.5800000000000012},{"rt":640.8999999761581,"stimulus":"\n                    <p><b>Action: <em>avoid</em></b></p>\n                    <p>This is the bee that you just saw.</p>\n                    <img src=\"bees-with-color/bee-A2SM.svg\" width=\"200\">\n                    <p><span class=\"greenText\">Good choice!</span>  This bee would have stung you.<br>Your bonus pay is unchanged, and remains at $1.10.</p>\n            ","response":0,"trial_type":"html-button-response","trial_index":136,"time_elapsed":810612,"internal_node_id":"0.0-4.0-1.62","subject_id":"5c704329d25ffb00016fa39f","study_id":"6197b3f67c2b5cd3b6d9596a","session_id":"6197b88d3ded49448719ed92","condition":"full-information","relevant_dimensions":["wings","pattern"],"bee_group":{"antennae":"X","wings":"2","pattern":"S","legs":"X"},"bonus":1.5800000000000012},{"rt":841.1000000238419,"stimulus":"bees-with-color/bee-A1DF.svg","response":0,"trial_type":"image-button-response","trial_index":137,"time_elapsed":811455,"internal_node_id":"0.0-4.0-0.63","subject_id":"5c704329d25ffb00016fa39f","study_id":"6197b3f67c2b5cd3b6d9596a","session_id":"6197b88d3ded49448719ed92","condition":"full-information","relevant_dimensions":["wings","pattern"],"bee_group":{"antennae":"X","wings":"2","pattern":"S","legs":"X"},"action":"harvest","summary":"good-harvest","bonus":1.5800000000000012},{"rt":569.8000000715256,"stimulus":"\n                    <p><b>Action: <em>harvest</em></b></p>\n                    <p>This is the bee that you just saw.</p>\n                    <img src=\"bees-with-color/bee-A1DF.svg\" width=\"200\">\n                    <p><span class=\"greenText\"><b>Successful harvest!</b></span><br>Your pay has increased by $0.02. Your bonus pay is now $1.12.</p>\n            ","response":0,"trial_type":"html-button-response","trial_index":138,"time_elapsed":812026,"internal_node_id":"0.0-4.0-1.63","subject_id":"5c704329d25ffb00016fa39f","study_id":"6197b3f67c2b5cd3b6d9596a","session_id":"6197b88d3ded49448719ed92","condition":"full-information","relevant_dimensions":["wings","pattern"],"bee_group":{"antennae":"X","wings":"2","pattern":"S","legs":"X"},"bonus":1.5800000000000012},{"rt":4589.600000023842,"stimulus":"You have completed the first part of this experiment.<br><br>You will now begin a shorter second part, in which you will receive no feedback.<br>The same rules regarding bonus pay apply.<br><br>Press any key to begin.","response":" ","trial_type":"html-keyboard-response","trial_index":139,"time_elapsed":816617,"internal_node_id":"0.0-5.0","subject_id":"5c704329d25ffb00016fa39f","study_id":"6197b3f67c2b5cd3b6d9596a","session_id":"6197b88d3ded49448719ed92","condition":"full-information","relevant_dimensions":["wings","pattern"],"bee_group":{"antennae":"X","wings":"2","pattern":"S","legs":"X"},"bonus":1.5800000000000012},{"rt":3504.7999999523163,"stimulus":"bees-with-color/bee-A2DF.svg","response":0,"trial_type":"image-button-response","trial_index":140,"time_elapsed":820130,"internal_node_id":"0.0-6.0-0.0","subject_id":"5c704329d25ffb00016fa39f","study_id":"6197b3f67c2b5cd3b6d9596a","session_id":"6197b88d3ded49448719ed92","condition":"full-information","relevant_dimensions":["wings","pattern"],"bee_group":{"antennae":"X","wings":"2","pattern":"S","legs":"X"},"bonus":1.5800000000000012},{"rt":2210,"stimulus":"bees-with-color/bee-A1DF.svg","response":0,"trial_type":"image-button-response","trial_index":141,"time_elapsed":822342,"internal_node_id":"0.0-6.0-0.1","subject_id":"5c704329d25ffb00016fa39f","study_id":"6197b3f67c2b5cd3b6d9596a","session_id":"6197b88d3ded49448719ed92","condition":"full-information","relevant_dimensions":["wings","pattern"],"bee_group":{"antennae":"X","wings":"2","pattern":"S","legs":"X"},"bonus":1.5800000000000012},{"rt":1976.2000000476837,"stimulus":"bees-with-color/bee-A1SM.svg","response":0,"trial_type":"image-button-response","trial_index":142,"time_elapsed":824321,"internal_node_id":"0.0-6.0-0.2","subject_id":"5c704329d25ffb00016fa39f","study_id":"6197b3f67c2b5cd3b6d9596a","session_id":"6197b88d3ded49448719ed92","condition":"full-information","relevant_dimensions":["wings","pattern"],"bee_group":{"antennae":"X","wings":"2","pattern":"S","legs":"X"},"bonus":1.5800000000000012},{"rt":1448.7999999523163,"stimulus":"bees-with-color/bee-B1DF.svg","response":0,"trial_type":"image-button-response","trial_index":143,"time_elapsed":825771,"internal_node_id":"0.0-6.0-0.3","subject_id":"5c704329d25ffb00016fa39f","study_id":"6197b3f67c2b5cd3b6d9596a","session_id":"6197b88d3ded49448719ed92","condition":"full-information","relevant_dimensions":["wings","pattern"],"bee_group":{"antennae":"X","wings":"2","pattern":"S","legs":"X"},"bonus":1.5800000000000012},{"rt":990.7000000476837,"stimulus":"bees-with-color/bee-B2DM.svg","response":1,"trial_type":"image-button-response","trial_index":144,"time_elapsed":826764,"internal_node_id":"0.0-6.0-0.4","subject_id":"5c704329d25ffb00016fa39f","study_id":"6197b3f67c2b5cd3b6d9596a","session_id":"6197b88d3ded49448719ed92","condition":"full-information","relevant_dimensions":["wings","pattern"],"bee_group":{"antennae":"X","wings":"2","pattern":"S","legs":"X"},"bonus":1.5800000000000012},{"rt":1790.5,"stimulus":"bees-with-color/bee-A2SM.svg","response":1,"trial_type":"image-button-response","trial_index":145,"time_elapsed":828557,"internal_node_id":"0.0-6.0-0.5","subject_id":"5c704329d25ffb00016fa39f","study_id":"6197b3f67c2b5cd3b6d9596a","session_id":"6197b88d3ded49448719ed92","condition":"full-information","relevant_dimensions":["wings","pattern"],"bee_group":{"antennae":"X","wings":"2","pattern":"S","legs":"X"},"bonus":1.5800000000000012},{"rt":1284.7000000476837,"stimulus":"bees-with-color/bee-A1DM.svg","response":0,"trial_type":"image-button-response","trial_index":146,"time_elapsed":829844,"internal_node_id":"0.0-6.0-0.6","subject_id":"5c704329d25ffb00016fa39f","study_id":"6197b3f67c2b5cd3b6d9596a","session_id":"6197b88d3ded49448719ed92","condition":"full-information","relevant_dimensions":["wings","pattern"],"bee_group":{"antennae":"X","wings":"2","pattern":"S","legs":"X"},"bonus":1.5800000000000012},{"rt":1460.6000000238419,"stimulus":"bees-with-color/bee-B2SF.svg","response":1,"trial_type":"image-button-response","trial_index":147,"time_elapsed":831306,"internal_node_id":"0.0-6.0-0.7","subject_id":"5c704329d25ffb00016fa39f","study_id":"6197b3f67c2b5cd3b6d9596a","session_id":"6197b88d3ded49448719ed92","condition":"full-information","relevant_dimensions":["wings","pattern"],"bee_group":{"antennae":"X","wings":"2","pattern":"S","legs":"X"},"bonus":1.5800000000000012},{"rt":1301.6000000238419,"stimulus":"bees-with-color/bee-A1SF.svg","response":0,"trial_type":"image-button-response","trial_index":148,"time_elapsed":832610,"internal_node_id":"0.0-6.0-0.8","subject_id":"5c704329d25ffb00016fa39f","study_id":"6197b3f67c2b5cd3b6d9596a","session_id":"6197b88d3ded49448719ed92","condition":"full-information","relevant_dimensions":["wings","pattern"],"bee_group":{"antennae":"X","wings":"2","pattern":"S","legs":"X"},"bonus":1.5800000000000012},{"rt":2196.2999999523163,"stimulus":"bees-with-color/bee-B1SM.svg","response":0,"trial_type":"image-button-response","trial_index":149,"time_elapsed":834808,"internal_node_id":"0.0-6.0-0.9","subject_id":"5c704329d25ffb00016fa39f","study_id":"6197b3f67c2b5cd3b6d9596a","session_id":"6197b88d3ded49448719ed92","condition":"full-information","relevant_dimensions":["wings","pattern"],"bee_group":{"antennae":"X","wings":"2","pattern":"S","legs":"X"},"bonus":1.5800000000000012},{"rt":1182.8999999761581,"stimulus":"bees-with-color/bee-A2SF.svg","response":1,"trial_type":"image-button-response","trial_index":150,"time_elapsed":835992,"internal_node_id":"0.0-6.0-0.10","subject_id":"5c704329d25ffb00016fa39f","study_id":"6197b3f67c2b5cd3b6d9596a","session_id":"6197b88d3ded49448719ed92","condition":"full-information","relevant_dimensions":["wings","pattern"],"bee_group":{"antennae":"X","wings":"2","pattern":"S","legs":"X"},"bonus":1.5800000000000012},{"rt":1316.0999999046326,"stimulus":"bees-with-color/bee-B2DF.svg","response":0,"trial_type":"image-button-response","trial_index":151,"time_elapsed":837310,"internal_node_id":"0.0-6.0-0.11","subject_id":"5c704329d25ffb00016fa39f","study_id":"6197b3f67c2b5cd3b6d9596a","session_id":"6197b88d3ded49448719ed92","condition":"full-information","relevant_dimensions":["wings","pattern"],"bee_group":{"antennae":"X","wings":"2","pattern":"S","legs":"X"},"bonus":1.5800000000000012},{"rt":928.7000000476837,"stimulus":"bees-with-color/bee-A2DM.svg","response":0,"trial_type":"image-button-response","trial_index":152,"time_elapsed":838241,"internal_node_id":"0.0-6.0-0.12","subject_id":"5c704329d25ffb00016fa39f","study_id":"6197b3f67c2b5cd3b6d9596a","session_id":"6197b88d3ded49448719ed92","condition":"full-information","relevant_dimensions":["wings","pattern"],"bee_group":{"antennae":"X","wings":"2","pattern":"S","legs":"X"},"bonus":1.5800000000000012},{"rt":1072.3999999761581,"stimulus":"bees-with-color/bee-B1DM.svg","response":0,"trial_type":"image-button-response","trial_index":153,"time_elapsed":839315,"internal_node_id":"0.0-6.0-0.13","subject_id":"5c704329d25ffb00016fa39f","study_id":"6197b3f67c2b5cd3b6d9596a","session_id":"6197b88d3ded49448719ed92","condition":"full-information","relevant_dimensions":["wings","pattern"],"bee_group":{"antennae":"X","wings":"2","pattern":"S","legs":"X"},"bonus":1.5800000000000012},{"rt":1026.1000000238419,"stimulus":"bees-with-color/bee-B2SM.svg","response":1,"trial_type":"image-button-response","trial_index":154,"time_elapsed":840343,"internal_node_id":"0.0-6.0-0.14","subject_id":"5c704329d25ffb00016fa39f","study_id":"6197b3f67c2b5cd3b6d9596a","session_id":"6197b88d3ded49448719ed92","condition":"full-information","relevant_dimensions":["wings","pattern"],"bee_group":{"antennae":"X","wings":"2","pattern":"S","legs":"X"},"bonus":1.5800000000000012},{"rt":1035.1000000238419,"stimulus":"bees-with-color/bee-B1SF.svg","response":0,"trial_type":"image-button-response","trial_index":155,"time_elapsed":841380,"internal_node_id":"0.0-6.0-0.15","subject_id":"5c704329d25ffb00016fa39f","study_id":"6197b3f67c2b5cd3b6d9596a","session_id":"6197b88d3ded49448719ed92","condition":"full-information","relevant_di