[{"success":true,"trial_type":"fullscreen","trial_index":0,"time_elapsed":16557,"internal_node_id":"0.0-0.0","subject_id":"611a2c1ca8f92b2b84567cf8","study_id":"6197b3f67c2b5cd3b6d9596a","session_id":"6197b5cbeccb8bf063118836","condition":"full-information","relevant_dimensions":["pattern","legs"],"bee_group":{"antennae":"X","wings":"X","pattern":"S","legs":"M"},"bonus":0.700000000000001},{"success":true,"timeout":false,"failed_images":[],"failed_audio":[],"failed_video":[],"trial_type":"preload","trial_index":1,"time_elapsed":21005,"internal_node_id":"0.0-1.0","subject_id":"611a2c1ca8f92b2b84567cf8","study_id":"6197b3f67c2b5cd3b6d9596a","session_id":"6197b5cbeccb8bf063118836","condition":"full-information","relevant_dimensions":["pattern","legs"],"bee_group":{"antennae":"X","wings":"X","pattern":"S","legs":"M"},"bonus":0.700000000000001},{"rt":3414.2999999523163,"stimulus":"Welcome! Press any key to begin.","response":" ","trial_type":"html-keyboard-response","trial_index":2,"time_elapsed":24421,"internal_node_id":"0.0-2.0","subject_id":"611a2c1ca8f92b2b84567cf8","study_id":"6197b3f67c2b5cd3b6d9596a","session_id":"6197b5cbeccb8bf063118836","condition":"full-information","relevant_dimensions":["pattern","legs"],"bee_group":{"antennae":"X","wings":"X","pattern":"S","legs":"M"},"bonus":0.700000000000001},{"view_history":[{"page_index":0,"viewing_time":29827.199999928474},{"page_index":1,"viewing_time":30595.100000023842},{"page_index":2,"viewing_time":12608.700000047684},{"page_index":3,"viewing_time":24244},{"page_index":4,"viewing_time":6000},{"page_index":5,"viewing_time":11156.199999928474},{"page_index":6,"viewing_time":37197.89999997616},{"page_index":7,"viewing_time":9997.5},{"page_index":8,"viewing_time":4278.600000023842},{"page_index":9,"viewing_time":10915.5},{"page_index":10,"viewing_time":3874.5},{"page_index":11,"viewing_time":10101.800000071526},{"page_index":12,"viewing_time":11044.099999904633},{"page_index":13,"viewing_time":2074},{"page_index":14,"viewing_time":3430}],"rt":207345.5,"trial_type":"instructions","trial_index":3,"time_elapsed":231767,"internal_node_id":"0.0-3.0-0.0","subject_id":"611a2c1ca8f92b2b84567cf8","study_id":"6197b3f67c2b5cd3b6d9596a","session_id":"6197b5cbeccb8bf063118836","condition":"full-information","relevant_dimensions":["pattern","legs"],"bee_group":{"antennae":"X","wings":"X","pattern":"S","legs":"M"},"bonus":0.700000000000001},{"rt":15832.5,"response":{"Q0":["Two or six legs","Stripes or spots on body","Single or double wings","Antennae or no antennae"]},"question_order":[0],"trial_type":"survey-multi-select","trial_index":4,"time_elapsed":247603,"internal_node_id":"0.0-3.0-1.0","subject_id":"611a2c1ca8f92b2b84567cf8","study_id":"6197b3f67c2b5cd3b6d9596a","session_id":"6197b5cbeccb8bf063118836","condition":"full-information","relevant_dimensions":["pattern","legs"],"bee_group":{"antennae":"X","wings":"X","pattern":"S","legs":"M"},"correct":true,"bonus":0.700000000000001},{"rt":26751.5,"response":{"Q1":"No.","Q2":"Based on the four features of the bee.","Q3":"You learn if it was friendly or dangerous, but do not alter your bonus."},"question_order":[0,1,2],"trial_type":"survey-multi-choice","trial_index":5,"time_elapsed":274357,"internal_node_id":"0.0-3.0-2.0","subject_id":"611a2c1ca8f92b2b84567cf8","study_id":"6197b3f67c2b5cd3b6d9596a","session_id":"6197b5cbeccb8bf063118836","condition":"full-information","relevant_dimensions":["pattern","legs"],"bee_group":{"antennae":"X","wings":"X","pattern":"S","legs":"M"},"correct":true,"bonus":0.700000000000001},{"rt":3280.2000000476837,"stimulus":"<p>Congrats, you got everything right<br>When you're ready, click the button below to continue to the experiment.</p>","response":0,"trial_type":"html-button-response","trial_index":6,"time_elapsed":277639,"internal_node_id":"0.0-3.0-3.0","subject_id":"611a2c1ca8f92b2b84567cf8","study_id":"6197b3f67c2b5cd3b6d9596a","session_id":"6197b5cbeccb8bf063118836","condition":"full-information","relevant_dimensions":["pattern","legs"],"bee_group":{"antennae":"X","wings":"X","pattern":"S","legs":"M"},"bonus":0.700000000000001},{"rt":12385.100000023842,"stimulus":"bees-with-color/bee-B2SM.svg","response":0,"trial_type":"image-button-response","trial_index":7,"time_elapsed":290027,"internal_node_id":"0.0-4.0-0.0","subject_id":"611a2c1ca8f92b2b84567cf8","study_id":"6197b3f67c2b5cd3b6d9596a","session_id":"6197b5cbeccb8bf063118836","condition":"full-information","relevant_dimensions":["pattern","legs"],"bee_group":{"antennae":"X","wings":"X","pattern":"S","legs":"M"},"action":"harvest","summary":"bad-harvest","bonus":0.700000000000001},{"rt":13802.399999976158,"stimulus":"\n                    <p><b>Action: <em>harvest</em></b></p>\n                    <p>This is the bee that you just saw.</p>\n                    <img src=\"bees-with-color/bee-B2SM.svg\" width=\"200\">\n                    <p><span class=\"redText\">Bad choice, the bee was angry.</span><br><b>You have been stung!</b><br>Your pay has been decreased by $0.10. Your bonus pay is now $0.44.</p>\n            ","response":0,"trial_type":"html-button-response","trial_index":8,"time_elapsed":303833,"internal_node_id":"0.0-4.0-1.0","subject_id":"611a2c1ca8f92b2b84567cf8","study_id":"6197b3f67c2b5cd3b6d9596a","session_id":"6197b5cbeccb8bf063118836","condition":"full-information","relevant_dimensions":["pattern","legs"],"bee_group":{"antennae":"X","wings":"X","pattern":"S","legs":"M"},"bonus":0.700000000000001},{"rt":6149.399999976158,"stimulus":"bees-with-color/bee-A2DF.svg","response":0,"trial_type":"image-button-response","trial_index":9,"time_elapsed":309984,"internal_node_id":"0.0-4.0-0.1","subject_id":"611a2c1ca8f92b2b84567cf8","study_id":"6197b3f67c2b5cd3b6d9596a","session_id":"6197b5cbeccb8bf063118836","condition":"full-information","relevant_dimensions":["pattern","legs"],"bee_group":{"antennae":"X","wings":"X","pattern":"S","legs":"M"},"action":"harvest","summary":"good-harvest","bonus":0.700000000000001},{"rt":10534.100000023842,"stimulus":"\n                    <p><b>Action: <em>harvest</em></b></p>\n                    <p>This is the bee that you just saw.</p>\n                    <img src=\"bees-with-color/bee-A2DF.svg\" width=\"200\">\n                    <p><span class=\"greenText\"><b>Successful harvest!</b></span><br>Your pay has increased by $0.02. Your bonus pay is now $0.46.</p>\n            ","response":0,"trial_type":"html-button-response","trial_index":10,"time_elapsed":320520,"internal_node_id":"0.0-4.0-1.1","subject_id":"611a2c1ca8f92b2b84567cf8","study_id":"6197b3f67c2b5cd3b6d9596a","session_id":"6197b5cbeccb8bf063118836","condition":"full-information","relevant_dimensions":["pattern","legs"],"bee_group":{"antennae":"X","wings":"X","pattern":"S","legs":"M"},"bonus":0.700000000000001},{"rt":10317.699999928474,"stimulus":"bees-with-color/bee-B2DM.svg","response":1,"trial_type":"image-button-response","trial_index":11,"time_elapsed":330840,"internal_node_id":"0.0-4.0-0.2","subject_id":"611a2c1ca8f92b2b84567cf8","study_id":"6197b3f67c2b5cd3b6d9596a","session_id":"6197b5cbeccb8bf063118836","condition":"full-information","relevant_dimensions":["pattern","legs"],"bee_group":{"antennae":"X","wings":"X","pattern":"S","legs":"M"},"action":"avoid","summary":"bad-avoid","bonus":0.700000000000001},{"rt":5082.600000023842,"stimulus":"\n                    <p><b>Action: <em>avoid</em></b></p>\n                    <p>This is the bee that you just saw.</p>\n                    <img src=\"bees-with-color/bee-B2DM.svg\" width=\"200\">\n                    <p><span class=\"redText\">Bad choice,</span> the bee was friendly.<br>Your bonus pay is unchanged, and remains at $0.46.</p>\n            ","response":0,"trial_type":"html-button-response","trial_index":12,"time_elapsed":335924,"internal_node_id":"0.0-4.0-1.2","subject_id":"611a2c1ca8f92b2b84567cf8","study_id":"6197b3f67c2b5cd3b6d9596a","session_id":"6197b5cbeccb8bf063118836","condition":"full-information","relevant_dimensions":["pattern","legs"],"bee_group":{"antennae":"X","wings":"X","pattern":"S","legs":"M"},"bonus":0.700000000000001},{"rt":2728.1999999284744,"stimulus":"bees-with-color/bee-A1DM.svg","response":0,"trial_type":"image-button-response","trial_index":13,"time_elapsed":338654,"internal_node_id":"0.0-4.0-0.3","subject_id":"611a2c1ca8f92b2b84567cf8","study_id":"6197b3f67c2b5cd3b6d9596a","session_id":"6197b5cbeccb8bf063118836","condition":"full-information","relevant_dimensions":["pattern","legs"],"bee_group":{"antennae":"X","wings":"X","pattern":"S","legs":"M"},"action":"harvest","summary":"good-harvest","bonus":0.700000000000001},{"rt":4556.199999928474,"stimulus":"\n                    <p><b>Action: <em>harvest</em></b></p>\n                    <p>This is the bee that you just saw.</p>\n                    <img src=\"bees-with-color/bee-A1DM.svg\" width=\"200\">\n                    <p><span class=\"greenText\"><b>Successful harvest!</b></span><br>Your pay has increased by $0.02. Your bonus pay is now $0.48.</p>\n            ","response":0,"trial_type":"html-button-response","trial_index":14,"time_elapsed":343212,"internal_node_id":"0.0-4.0-1.3","subject_id":"611a2c1ca8f92b2b84567cf8","study_id":"6197b3f67c2b5cd3b6d9596a","session_id":"6197b5cbeccb8bf063118836","condition":"full-information","relevant_dimensions":["pattern","legs"],"bee_group":{"antennae":"X","wings":"X","pattern":"S","legs":"M"},"bonus":0.700000000000001},{"rt":6710.199999928474,"stimulus":"bees-with-color/bee-B1DM.svg","response":0,"trial_type":"image-button-response","trial_index":15,"time_elapsed":349924,"internal_node_id":"0.0-4.0-0.4","subject_id":"611a2c1ca8f92b2b84567cf8","study_id":"6197b3f67c2b5cd3b6d9596a","session_id":"6197b5cbeccb8bf063118836","condition":"full-information","relevant_dimensions":["pattern","legs"],"bee_group":{"antennae":"X","wings":"X","pattern":"S","legs":"M"},"action":"harvest","summary":"good-harvest","bonus":0.700000000000001},{"rt":4114.399999976158,"stimulus":"\n                    <p><b>Action: <em>harvest</em></b></p>\n                    <p>This is the bee that you just saw.</p>\n                    <img src=\"bees-with-color/bee-B1DM.svg\" width=\"200\">\n                    <p><span class=\"greenText\"><b>Successful harvest!</b></span><br>Your pay has increased by $0.02. Your bonus pay is now $0.50.</p>\n            ","response":0,"trial_type":"html-button-response","trial_index":16,"time_elapsed":354040,"internal_node_id":"0.0-4.0-1.4","subject_id":"611a2c1ca8f92b2b84567cf8","study_id":"6197b3f67c2b5cd3b6d9596a","session_id":"6197b5cbeccb8bf063118836","condition":"full-information","relevant_dimensions":["pattern","legs"],"bee_group":{"antennae":"X","wings":"X","pattern":"S","legs":"M"},"bonus":0.700000000000001},{"rt":2360.2999999523163,"stimulus":"bees-with-color/bee-A2SF.svg","response":1,"trial_type":"image-button-response","trial_index":17,"time_elapsed":356402,"internal_node_id":"0.0-4.0-0.5","subject_id":"611a2c1ca8f92b2b84567cf8","study_id":"6197b3f67c2b5cd3b6d9596a","session_id":"6197b5cbeccb8bf063118836","condition":"full-information","relevant_dimensions":["pattern","legs"],"bee_group":{"antennae":"X","wings":"X","pattern":"S","legs":"M"},"action":"avoid","summary":"bad-avoid","bonus":0.700000000000001},{"rt":17022.599999904633,"stimulus":"\n                    <p><b>Action: <em>avoid</em></b></p>\n                    <p>This is the bee that you just saw.</p>\n                    <img src=\"bees-with-color/bee-A2SF.svg\" width=\"200\">\n                    <p><span class=\"redText\">Bad choice,</span> the bee was friendly.<br>Your bonus pay is unchanged, and remains at $0.50.</p>\n            ","response":0,"trial_type":"html-button-response","trial_index":18,"time_elapsed":373427,"internal_node_id":"0.0-4.0-1.5","subject_id":"611a2c1ca8f92b2b84567cf8","study_id":"6197b3f67c2b5cd3b6d9596a","session_id":"6197b5cbeccb8bf063118836","condition":"full-information","relevant_dimensions":["pattern","legs"],"bee_group":{"antennae":"X","wings":"X","pattern":"S","legs":"M"},"bonus":0.700000000000001},{"rt":9463.100000023842,"stimulus":"bees-with-color/bee-A1SF.svg","response":0,"trial_type":"image-button-response","trial_index":19,"time_elapsed":382892,"internal_node_id":"0.0-4.0-0.6","subject_id":"611a2c1ca8f92b2b84567cf8","study_id":"6197b3f67c2b5cd3b6d9596a","session_id":"6197b5cbeccb8bf063118836","condition":"full-information","relevant_dimensions":["pattern","legs"],"bee_group":{"antennae":"X","wings":"X","pattern":"S","legs":"M"},"action":"harvest","summary":"good-harvest","bonus":0.700000000000001},{"rt":8285,"stimulus":"\n                    <p><b>Action: <em>harvest</em></b></p>\n                    <p>This is the bee that you just saw.</p>\n                    <img src=\"bees-with-color/bee-A1SF.svg\" width=\"200\">\n                    <p><span class=\"greenText\"><b>Successful harvest!</b></span><br>Your pay has increased by $0.02. Your bonus pay is now $0.52.</p>\n            ","response":0,"trial_type":"html-button-response","trial_index":20,"time_elapsed":391179,"internal_node_id":"0.0-4.0-1.6","subject_id":"611a2c1ca8f92b2b84567cf8","study_id":"6197b3f67c2b5cd3b6d9596a","session_id":"6197b5cbeccb8bf063118836","condition":"full-information","relevant_dimensions":["pattern","legs"],"bee_group":{"antennae":"X","wings":"X","pattern":"S","legs":"M"},"bonus":0.700000000000001},{"rt":3527.9000000953674,"stimulus":"bees-with-color/bee-A2SM.svg","response":1,"trial_type":"image-button-response","trial_index":21,"time_elapsed":394709,"internal_node_id":"0.0-4.0-0.7","subject_id":"611a2c1ca8f92b2b84567cf8","study_id":"6197b3f67c2b5cd3b6d9596a","session_id":"6197b5cbeccb8bf063118836","condition":"full-information","relevant_dimensions":["pattern","legs"],"bee_group":{"antennae":"X","wings":"X","pattern":"S","legs":"M"},"action":"avoid","summary":"good-avoid","bonus":0.700000000000001},{"rt":3466.6999999284744,"stimulus":"\n                    <p><b>Action: <em>avoid</em></b></p>\n                    <p>This is the bee that you just saw.</p>\n                    <img src=\"bees-with-color/bee-A2SM.svg\" width=\"200\">\n                    <p><span class=\"greenText\">Good choice!</span>  This bee would have stung you.<br>Your bonus pay is unchanged, and remains at $0.52.</p>\n            ","response":0,"trial_type":"html-button-response","trial_index":22,"time_elapsed":398177,"internal_node_id":"0.0-4.0-1.7","subject_id":"611a2c1ca8f92b2b84567cf8","study_id":"6197b3f67c2b5cd3b6d9596a","session_id":"6197b5cbeccb8bf063118836","condition":"full-information","relevant_dimensions":["pattern","legs"],"bee_group":{"antennae":"X","wings":"X","pattern":"S","legs":"M"},"bonus":0.700000000000001},{"rt":7223.600000023842,"stimulus":"bees-with-color/bee-B2DF.svg","response":1,"trial_type":"image-button-response","trial_index":23,"time_elapsed":405403,"internal_node_id":"0.0-4.0-0.8","subject_id":"611a2c1ca8f92b2b84567cf8","study_id":"6197b3f67c2b5cd3b6d9596a","session_id":"6197b5cbeccb8bf063118836","condition":"full-information","relevant_dimensions":["pattern","legs"],"bee_group":{"antennae":"X","wings":"X","pattern":"S","legs":"M"},"action":"avoid","summary":"bad-avoid","bonus":0.700000000000001},{"rt":3740.399999976158,"stimulus":"\n                    <p><b>Action: <em>avoid</em></b></p>\n                    <p>This is the bee that you just saw.</p>\n                    <img src=\"bees-with-color/bee-B2DF.svg\" width=\"200\">\n                    <p><span class=\"redText\">Bad choice,</span> the bee was friendly.<br>Your bonus pay is unchanged, and remains at $0.52.</p>\n            ","response":0,"trial_type":"html-button-response","trial_index":24,"time_elapsed":409145,"internal_node_id":"0.0-4.0-1.8","subject_id":"611a2c1ca8f92b2b84567cf8","study_id":"6197b3f67c2b5cd3b6d9596a","session_id":"6197b5cbeccb8bf063118836","condition":"full-information","relevant_dimensions":["pattern","legs"],"bee_group":{"antennae":"X","wings":"X","pattern":"S","legs":"M"},"bonus":0.700000000000001},{"rt":3037.7000000476837,"stimulus":"bees-with-color/bee-A2DM.svg","response":0,"trial_type":"image-button-response","trial_index":25,"time_elapsed":412184,"internal_node_id":"0.0-4.0-0.9","subject_id":"611a2c1ca8f92b2b84567cf8","study_id":"6197b3f67c2b5cd3b6d9596a","session_id":"6197b5cbeccb8bf063118836","condition":"full-information","relevant_dimensions":["pattern","legs"],"bee_group":{"antennae":"X","wings":"X","pattern":"S","legs":"M"},"action":"harvest","summary":"good-harvest","bonus":0.700000000000001},{"rt":3562.600000023842,"stimulus":"\n                    <p><b>Action: <em>harvest</em></b></p>\n                    <p>This is the bee that you just saw.</p>\n                    <img src=\"bees-with-color/bee-A2DM.svg\" width=\"200\">\n                    <p><span class=\"greenText\"><b>Successful harvest!</b></span><br>Your pay has increased by $0.02. Your bonus pay is now $0.54.</p>\n            ","response":0,"trial_type":"html-button-response","trial_index":26,"time_elapsed":415749,"internal_node_id":"0.0-4.0-1.9","subject_id":"611a2c1ca8f92b2b84567cf8","study_id":"6197b3f67c2b5cd3b6d9596a","session_id":"6197b5cbeccb8bf063118836","condition":"full-information","relevant_dimensions":["pattern","legs"],"bee_group":{"antennae":"X","wings":"X","pattern":"S","legs":"M"},"bonus":0.700000000000001},{"rt":4082.100000023842,"stimulus":"bees-with-color/bee-A1SM.svg","response":0,"trial_type":"image-button-response","trial_index":27,"time_elapsed":419833,"internal_node_id":"0.0-4.0-0.10","subject_id":"611a2c1ca8f92b2b84567cf8","study_id":"6197b3f67c2b5cd3b6d9596a","session_id":"6197b5cbeccb8bf063118836","condition":"full-information","relevant_dimensions":["pattern","legs"],"bee_group":{"antennae":"X","wings":"X","pattern":"S","legs":"M"},"action":"harvest","summary":"bad-harvest","bonus":0.700000000000001},{"rt":3334.1999999284744,"stimulus":"\n                    <p><b>Action: <em>harvest</em></b></p>\n                    <p>This is the bee that you just saw.</p>\n                    <img src=\"bees-with-color/bee-A1SM.svg\" width=\"200\">\n                    <p><span class=\"redText\">Bad choice, the bee was angry.</span><br><b>You have been stung!</b><br>Your pay has been decreased by $0.10. Your bonus pay is now $0.44.</p>\n            ","response":0,"trial_type":"html-button-response","trial_index":28,"time_elapsed":423169,"internal_node_id":"0.0-4.0-1.10","subject_id":"611a2c1ca8f92b2b84567cf8","study_id":"6197b3f67c2b5cd3b6d9596a","session_id":"6197b5cbeccb8bf063118836","condition":"full-information","relevant_dimensions":["pattern","legs"],"bee_group":{"antennae":"X","wings":"X","pattern":"S","legs":"M"},"bonus":0.700000000000001},{"rt":5306.100000023842,"stimulus":"bees-with-color/bee-B1SF.svg","response":1,"trial_type":"image-button-response","trial_index":29,"time_elapsed":428477,"internal_node_id":"0.0-4.0-0.11","subject_id":"611a2c1ca8f92b2b84567cf8","study_id":"6197b3f67c2b5cd3b6d9596a","session_id":"6197b5cbeccb8bf063118836","condition":"full-information","relevant_dimensions":["pattern","legs"],"bee_group":{"antennae":"X","wings":"X","pattern":"S","legs":"M"},"action":"avoid","summary":"bad-avoid","bonus":0.700000000000001},{"rt":5698.299999952316,"stimulus":"\n                    <p><b>Action: <em>avoid</em></b></p>\n                    <p>This is the bee that you just saw.</p>\n                    <img src=\"bees-with-color/bee-B1SF.svg\" width=\"200\">\n                    <p><span class=\"redText\">Bad choice,</span> the bee was friendly.<br>Your bonus pay is unchanged, and remains at $0.44.</p>\n            ","response":0,"trial_type":"html-button-response","trial_index":30,"time_elapsed":434177,"internal_node_id":"0.0-4.0-1.11","subject_id":"611a2c1ca8f92b2b84567cf8","study_id":"6197b3f67c2b5cd3b6d9596a","session_id":"6197b5cbeccb8bf063118836","condition":"full-information","relevant_dimensions":["pattern","legs"],"bee_group":{"antennae":"X","wings":"X","pattern":"S","legs":"M"},"bonus":0.700000000000001},{"rt":2577.7999999523163,"stimulus":"bees-with-color/bee-A1DF.svg","response":0,"trial_type":"image-button-response","trial_index":31,"time_elapsed":436757,"internal_node_id":"0.0-4.0-0.12","subject_id":"611a2c1ca8f92b2b84567cf8","study_id":"6197b3f67c2b5cd3b6d9596a","session_id":"6197b5cbeccb8bf063118836","condition":"full-information","relevant_dimensions":["pattern","legs"],"bee_group":{"antennae":"X","wings":"X","pattern":"S","legs":"M"},"action":"harvest","summary":"good-harvest","bonus":0.700000000000001},{"rt":4482.299999952316,"stimulus":"\n                    <p><b>Action: <em>harvest</em></b></p>\n                    <p>This is the bee that you just saw.</p>\n                    <img src=\"bees-with-color/bee-A1DF.svg\" width=\"200\">\n                    <p><span class=\"greenText\"><b>Successful harvest!</b></span><br>Your pay has increased by $0.02. Your bonus pay is now $0.46.</p>\n            ","response":0,"trial_type":"html-button-response","trial_index":32,"time_elapsed":441241,"internal_node_id":"0.0-4.0-1.12","subject_id":"611a2c1ca8f92b2b84567cf8","study_id":"6197b3f67c2b5cd3b6d9596a","session_id":"6197b5cbeccb8bf063118836","condition":"full-information","relevant_dimensions":["pattern","legs"],"bee_group":{"antennae":"X","wings":"X","pattern":"S","legs":"M"},"bonus":0.700000000000001},{"rt":8245.899999976158,"stimulus":"bees-with-color/bee-B2SF.svg","response":1,"trial_type":"image-button-response","trial_index":33,"time_elapsed":449489,"internal_node_id":"0.0-4.0-0.13","subject_id":"611a2c1ca8f92b2b84567cf8","study_id":"6197b3f67c2b5cd3b6d9596a","session_id":"6197b5cbeccb8bf063118836","condition":"full-information","relevant_dimensions":["pattern","legs"],"bee_group":{"antennae":"X","wings":"X","pattern":"S","legs":"M"},"action":"avoid","summary":"bad-avoid","bonus":0.700000000000001},{"rt":4482.699999928474,"stimulus":"\n                    <p><b>Action: <em>avoid</em></b></p>\n                    <p>This is the bee that you just saw.</p>\n                    <img src=\"bees-with-color/bee-B2SF.svg\" width=\"200\">\n                    <p><span class=\"redText\">Bad choice,</span> the bee was friendly.<br>Your bonus pay is unchanged, and remains at $0.46.</p>\n            ","response":0,"trial_type":"html-button-response","trial_index":34,"time_elapsed":453973,"internal_node_id":"0.0-4.0-1.13","subject_id":"611a2c1ca8f92b2b84567cf8","study_id":"6197b3f67c2b5cd3b6d9596a","session_id":"6197b5cbeccb8bf063118836","condition":"full-information","relevant_dimensions":["pattern","legs"],"bee_group":{"antennae":"X","wings":"X","pattern":"S","legs":"M"},"bonus":0.700000000000001},{"rt":4416.299999952316,"stimulus":"bees-with-color/bee-B1SM.svg","response":1,"trial_type":"image-button-response","trial_index":35,"time_elapsed":458391,"internal_node_id":"0.0-4.0-0.14","subject_id":"611a2c1ca8f92b2b84567cf8","study_id":"6197b3f67c2b5cd3b6d9596a","session_id":"6197b5cbeccb8bf063118836","condition":"full-information","relevant_dimensions":["pattern","legs"],"bee_group":{"antennae":"X","wings":"X","pattern":"S","legs":"M"},"action":"avoid","summary":"good-avoid","bonus":0.700000000000001},{"rt":4224.699999928474,"stimulus":"\n                    <p><b>Action: <em>avoid</em></b></p>\n                    <p>This is the bee that you just saw.</p>\n                    <img src=\"bees-with-color/bee-B1SM.svg\" width=\"200\">\n                    <p><span class=\"greenText\">Good choice!</span>  This bee would have stung you.<br>Your bonus pay is unchanged, and remains at $0.46.</p>\n            ","response":0,"trial_type":"html-button-response","trial_index":36,"time_elapsed":462617,"internal_node_id":"0.0-4.0-1.14","subject_id":"611a2c1ca8f92b2b84567cf8","study_id":"6197b3f67c2b5cd3b6d9596a","session_id":"6197b5cbeccb8bf063118836","condition":"full-information","relevant_dimensions":["pattern","legs"],"bee_group":{"antennae":"X","wings":"X","pattern":"S","legs":"M"},"bonus":0.700000000000001},{"rt":3242.2999999523163,"stimulus":"bees-with-color/bee-B1DF.svg","response":0,"trial_type":"image-button-response","trial_index":37,"time_elapsed":465861,"internal_node_id":"0.0-4.0-0.15","subject_id":"611a2c1ca8f92b2b84567cf8","study_id":"6197b3f67c2b5cd3b6d9596a","session_id":"6197b5cbeccb8bf063118836","condition":"full-information","relevant_dimensions":["pattern","legs"],"bee_group":{"antennae":"X","wings":"X","pattern":"S","legs":"M"},"action":"harvest","summary":"good-harvest","bonus":0.700000000000001},{"rt":3232.5999999046326,"stimulus":"\n                    <p><b>Action: <em>harvest</em></b></p>\n                    <p>This is the bee that you just saw.</p>\n                    <img src=\"bees-with-color/bee-B1DF.svg\" width=\"200\">\n                    <p><span class=\"greenText\"><b>Successful harvest!</b></span><br>Your pay has increased by $0.02. Your bonus pay is now $0.48.</p>\n            ","response":0,"trial_type":"html-button-response","trial_index":38,"time_elapsed":469095,"internal_node_id":"0.0-4.0-1.15","subject_id":"611a2c1ca8f92b2b84567cf8","study_id":"6197b3f67c2b5cd3b6d9596a","session_id":"6197b5cbeccb8bf063118836","condition":"full-information","relevant_dimensions":["pattern","legs"],"bee_group":{"antennae":"X","wings":"X","pattern":"S","legs":"M"},"bonus":0.700000000000001},{"rt":2228.399999976158,"stimulus":"bees-with-color/bee-B2SF.svg","response":0,"trial_type":"image-button-response","trial_index":39,"time_elapsed":471325,"internal_node_id":"0.0-4.0-0.16","subject_id":"611a2c1ca8f92b2b84567cf8","study_id":"6197b3f67c2b5cd3b6d9596a","session_id":"6197b5cbeccb8bf063118836","condition":"full-information","relevant_dimensions":["pattern","legs"],"bee_group":{"antennae":"X","wings":"X","pattern":"S","legs":"M"},"action":"harvest","summary":"good-harvest","bonus":0.700000000000001},{"rt":3030.3000000715256,"stimulus":"\n                    <p><b>Action: <em>harvest</em></b></p>\n                    <p>This is the bee that you just saw.</p>\n                    <img src=\"bees-with-color/bee-B2SF.svg\" width=\"200\">\n                    <p><span class=\"greenText\"><b>Successful harvest!</b></span><br>Your pay has increased by $0.02. Your bonus pay is now $0.50.</p>\n            ","response":0,"trial_type":"html-button-response","trial_index":40,"time_elapsed":474356,"internal_node_id":"0.0-4.0-1.16","subject_id":"611a2c1ca8f92b2b84567cf8","study_id":"6197b3f67c2b5cd3b6d9596a","session_id":"6197b5cbeccb8bf063118836","condition":"full-information","relevant_dimensions":["pattern","legs"],"bee_group":{"antennae":"X","wings":"X","pattern":"S","legs":"M"},"bonus":0.700000000000001},{"rt":2392.5,"stimulus":"bees-with-color/bee-A2SM.svg","response":1,"trial_type":"image-button-response","trial_index":41,"time_elapsed":476751,"internal_node_id":"0.0-4.0-0.17","subject_id":"611a2c1ca8f92b2b84567cf8","study_id":"6197b3f67c2b5cd3b6d9596a","session_id":"6197b5cbeccb8bf063118836","condition":"full-information","relevant_dimensions":["pattern","legs"],"bee_group":{"antennae":"X","wings":"X","pattern":"S","legs":"M"},"action":"avoid","summary":"good-avoid","bonus":0.700000000000001},{"rt":3661.7999999523163,"stimulus":"\n                    <p><b>Action: <em>avoid</em></b></p>\n                    <p>This is the bee that you just saw.</p>\n                    <img src=\"bees-with-color/bee-A2SM.svg\" width=\"200\">\n                    <p><span class=\"greenText\">Good choice!</span>  This bee would have stung you.<br>Your bonus pay is unchanged, and remains at $0.50.</p>\n            ","response":0,"trial_type":"html-button-response","trial_index":42,"time_elapsed":480414,"internal_node_id":"0.0-4.0-1.17","subject_id":"611a2c1ca8f92b2b84567cf8","study_id":"6197b3f67c2b5cd3b6d9596a","session_id":"6197b5cbeccb8bf063118836","condition":"full-information","relevant_dimensions":["pattern","legs"],"bee_group":{"antennae":"X","wings":"X","pattern":"S","legs":"M"},"bonus":0.700000000000001},{"rt":2142.6999999284744,"stimulus":"bees-with-color/bee-A2DM.svg","response":1,"trial_type":"image-button-response","trial_index":43,"time_elapsed":482559,"internal_node_id":"0.0-4.0-0.18","subject_id":"611a2c1ca8f92b2b84567cf8","study_id":"6197b3f67c2b5cd3b6d9596a","session_id":"6197b5cbeccb8bf063118836","condition":"full-information","relevant_dimensions":["pattern","legs"],"bee_group":{"antennae":"X","wings":"X","pattern":"S","legs":"M"},"action":"avoid","summary":"bad-avoid","bonus":0.700000000000001},{"rt":4662.5,"stimulus":"\n                    <p><b>Action: <em>avoid</em></b></p>\n                    <p>This is the bee that you just saw.</p>\n                    <img src=\"bees-with-color/bee-A2DM.svg\" width=\"200\">\n                    <p><span class=\"redText\">Bad choice,</span> the bee was friendly.<br>Your bonus pay is unchanged, and remains at $0.50.</p>\n            ","response":0,"trial_type":"html-button-response","trial_index":44,"time_elapsed":487223,"internal_node_id":"0.0-4.0-1.18","subject_id":"611a2c1ca8f92b2b84567cf8","study_id":"6197b3f67c2b5cd3b6d9596a","session_id":"6197b5cbeccb8bf063118836","condition":"full-information","relevant_dimensions":["pattern","legs"],"bee_group":{"antennae":"X","wings":"X","pattern":"S","legs":"M"},"bonus":0.700000000000001},{"rt":2860.1999999284744,"stimulus":"bees-with-color/bee-A2DF.svg","response":0,"trial_type":"image-button-response","trial_index":45,"time_elapsed":490085,"internal_node_id":"0.0-4.0-0.19","subject_id":"611a2c1ca8f92b2b84567cf8","study_id":"6197b3f67c2b5cd3b6d9596a","session_id":"6197b5cbeccb8bf063118836","condition":"full-information","relevant_dimensions":["pattern","legs"],"bee_group":{"antennae":"X","wings":"X","pattern":"S","legs":"M"},"action":"harvest","summary":"good-harvest","bonus":0.700000000000001},{"rt":2532.5,"stimulus":"\n                    <p><b>Action: <em>harvest</em></b></p>\n                    <p>This is the bee that you just saw.</p>\n                    <img src=\"bees-with-color/bee-A2DF.svg\" width=\"200\">\n                    <p><span class=\"greenText\"><b>Successful harvest!</b></span><br>Your pay has increased by $0.02. Your bonus pay is now $0.52.</p>\n            ","response":0,"trial_type":"html-button-response","trial_index":46,"time_elapsed":492619,"internal_node_id":"0.0-4.0-1.19","subject_id":"611a2c1ca8f92b2b84567cf8","study_id":"6197b3f67c2b5cd3b6d9596a","session_id":"6197b5cbeccb8bf063118836","condition":"full-information","relevant_dimensions":["pattern","legs"],"bee_group":{"antennae":"X","wings":"X","pattern":"S","legs":"M"},"bonus":0.700000000000001},{"rt":2726.0999999046326,"stimulus":"bees-with-color/bee-B2DF.svg","response":0,"trial_type":"image-button-response","trial_index":47,"time_elapsed":495347,"internal_node_id":"0.0-4.0-0.20","subject_id":"611a2c1ca8f92b2b84567cf8","study_id":"6197b3f67c2b5cd3b6d9596a","session_id":"6197b5cbeccb8bf063118836","condition":"full-information","relevant_dimensions":["pattern","legs"],"bee_group":{"antennae":"X","wings":"X","pattern":"S","legs":"M"},"action":"harvest","summary":"good-harvest","bonus":0.700000000000001},{"rt":2336.5,"stimulus":"\n                    <p><b>Action: <em>harvest</em></b></p>\n                    <p>This is the bee that you just saw.</p>\n                    <img src=\"bees-with-color/bee-B2DF.svg\" width=\"200\">\n                    <p><span class=\"greenText\"><b>Successful harvest!</b></span><br>Your pay has increased by $0.02. Your bonus pay is now $0.54.</p>\n            ","response":0,"trial_type":"html-button-response","trial_index":48,"time_elapsed":497685,"internal_node_id":"0.0-4.0-1.20","subject_id":"611a2c1ca8f92b2b84567cf8","study_id":"6197b3f67c2b5cd3b6d9596a","session_id":"6197b5cbeccb8bf063118836","condition":"full-information","relevant_dimensions":["pattern","legs"],"bee_group":{"antennae":"X","wings":"X","pattern":"S","legs":"M"},"bonus":0.700000000000001},{"rt":3904.100000023842,"stimulus":"bees-with-color/bee-B1SM.svg","response":1,"trial_type":"image-button-response","trial_index":49,"time_elapsed":501591,"internal_node_id":"0.0-4.0-0.21","subject_id":"611a2c1ca8f92b2b84567cf8","study_id":"6197b3f67c2b5cd3b6d9596a","session_id":"6197b5cbeccb8bf063118836","condition":"full-information","relevant_dimensions":["pattern","legs"],"bee_group":{"antennae":"X","wings":"X","pattern":"S","legs":"M"},"action":"avoid","summary":"good-avoid","bonus":0.700000000000001},{"rt":2214.600000023842,"stimulus":"\n                    <p><b>Action: <em>avoid</em></b></p>\n                    <p>This is the bee that you just saw.</p>\n                    <img src=\"bees-with-color/bee-B1SM.svg\" width=\"200\">\n                    <p><span class=\"greenText\">Good choice!</span>  This bee would have stung you.<br>Your bonus pay is unchanged, and remains at $0.54.</p>\n            ","response":0,"trial_type":"html-button-response","trial_index":50,"time_elapsed":503807,"internal_node_id":"0.0-4.0-1.21","subject_id":"611a2c1ca8f92b2b84567cf8","study_id":"6197b3f67c2b5cd3b6d9596a","session_id":"6197b5cbeccb8bf063118836","condition":"full-information","relevant_dimensions":["pattern","legs"],"bee_group":{"antennae":"X","wings":"X","pattern":"S","legs":"M"},"bonus":0.700000000000001},{"rt":2672.1999999284744,"stimulus":"bees-with-color/bee-B1SF.svg","response":0,"trial_type":"image-button-response","trial_index":51,"time_elapsed":506481,"internal_node_id":"0.0-4.0-0.22","subject_id":"611a2c1ca8f92b2b84567cf8","study_id":"6197b3f67c2b5cd3b6d9596a","session_id":"6197b5cbeccb8bf063118836","condition":"full-information","relevant_dimensions":["pattern","legs"],"bee_group":{"antennae":"X","wings":"X","pattern":"S","legs":"M"},"action":"harvest","summary":"good-harvest","bonus":0.700000000000001},{"rt":1766.1999999284744,"stimulus":"\n                    <p><b>Action: <em>harvest</em></b></p>\n                    <p>This is the bee that you just saw.</p>\n                    <img src=\"bees-with-color/bee-B1SF.svg\" width=\"200\">\n                    <p><span class=\"greenText\"><b>Successful harvest!</b></span><br>Your pay has increased by $0.02. Your bonus pay is now $0.56.</p>\n            ","response":0,"trial_type":"html-button-response","trial_index":52,"time_elapsed":508249,"internal_node_id":"0.0-4.0-1.22","subject_id":"611a2c1ca8f92b2b84567cf8","study_id":"6197b3f67c2b5cd3b6d9596a","session_id":"6197b5cbeccb8bf063118836","condition":"full-information","relevant_dimensions":["pattern","legs"],"bee_group":{"antennae":"X","wings":"X","pattern":"S","legs":"M"},"bonus":0.700000000000001},{"rt":2354.1999999284744,"stimulus":"bees-with-color/bee-A1SF.svg","response":0,"trial_type":"image-button-response","trial_index":53,"time_elapsed":510605,"internal_node_id":"0.0-4.0-0.23","subject_id":"611a2c1ca8f92b2b84567cf8","study_id":"6197b3f67c2b5cd3b6d9596a","session_id":"6197b5cbeccb8bf063118836","condition":"full-information","relevant_dimensions":["pattern","legs"],"bee_group":{"antennae":"X","wings":"X","pattern":"S","legs":"M"},"action":"harvest","summary":"good-harvest","bonus":0.700000000000001},{"rt":2579.7999999523163,"stimulus":"\n                    <p><b>Action: <em>harvest</em></b></p>\n                    <p>This is the bee that you just saw.</p>\n                    <img src=\"bees-with-color/bee-A1SF.svg\" width=\"200\">\n                    <p><span class=\"greenText\"><b>Successful harvest!</b></span><br>Your pay has increased by $0.02. Your bonus pay is now $0.58.</p>\n            ","response":0,"trial_type":"html-button-response","trial_index":54,"time_elapsed":513186,"internal_node_id":"0.0-4.0-1.23","subject_id":"611a2c1ca8f92b2b84567cf8","study_id":"6197b3f67c2b5cd3b6d9596a","session_id":"6197b5cbeccb8bf063118836","condition":"full-information","relevant_dimensions":["pattern","legs"],"bee_group":{"antennae":"X","wings":"X","pattern":"S","legs":"M"},"bonus":0.700000000000001},{"rt":1914.7000000476837,"stimulus":"bees-with-color/bee-B1DF.svg","response":0,"trial_type":"image-button-response","trial_index":55,"time_elapsed":515103,"internal_node_id":"0.0-4.0-0.24","subject_id":"611a2c1ca8f92b2b84567cf8","study_id":"6197b3f67c2b5cd3b6d9596a","session_id":"6197b5cbeccb8bf063118836","condition":"full-information","relevant_dimensions":["pattern","legs"],"bee_group":{"antennae":"X","wings":"X","pattern":"S","legs":"M"},"action":"harvest","summary":"good-harvest","bonus":0.700000000000001},{"rt":1962.3999999761581,"stimulus":"\n                    <p><b>Action: <em>harvest</em></b></p>\n                    <p>This is the bee that you just saw.</p>\n                    <img src=\"bees-with-color/bee-B1DF.svg\" width=\"200\">\n                    <p><span class=\"greenText\"><b>Successful harvest!</b></span><br>Your pay has increased by $0.02. Your bonus pay is now $0.60.</p>\n            ","response":0,"trial_type":"html-button-response","trial_index":56,"time_elapsed":517067,"internal_node_id":"0.0-4.0-1.24","subject_id":"611a2c1ca8f92b2b84567cf8","study_id":"6197b3f67c2b5cd3b6d9596a","session_id":"6197b5cbeccb8bf063118836","condition":"full-information","relevant_dimensions":["pattern","legs"],"bee_group":{"antennae":"X","wings":"X","pattern":"S","legs":"M"},"bonus":0.700000000000001},{"rt":1629.7999999523163,"stimulus":"bees-with-color/bee-B2SM.svg","response":1,"trial_type":"image-button-response","trial_index":57,"time_elapsed":518699,"internal_node_id":"0.0-4.0-0.25","subject_id":"611a2c1ca8f92b2b84567cf8","study_id":"6197b3f67c2b5cd3b6d9596a","session_id":"6197b5cbeccb8bf063118836","condition":"full-information","relevant_dimensions":["pattern","legs"],"bee_group":{"antennae":"X","wings":"X","pattern":"S","legs":"M"},"action":"avoid","summary":"good-avoid","bonus":0.700000000000001},{"rt":2026.1999999284744,"stimulus":"\n                    <p><b>Action: <em>avoid</em></b></p>\n                    <p>This is the bee that you just saw.</p>\n                    <img src=\"bees-with-color/bee-B2SM.svg\" width=\"200\">\n                    <p><span class=\"greenText\">Good choice!</span>  This bee would have stung you.<br>Your bonus pay is unchanged, and remains at $0.60.</p>\n            ","response":0,"trial_type":"html-button-response","trial_index":58,"time_elapsed":520727,"internal_node_id":"0.0-4.0-1.25","subject_id":"611a2c1ca8f92b2b84567cf8","study_id":"6197b3f67c2b5cd3b6d9596a","session_id":"6197b5cbeccb8bf063118836","condition":"full-information","relevant_dimensions":["pattern","legs"],"bee_group":{"antennae":"X","wings":"X","pattern":"S","legs":"M"},"bonus":0.700000000000001},{"rt":2084.2000000476837,"stimulus":"bees-with-color/bee-A2SF.svg","response":0,"trial_type":"image-button-response","trial_index":59,"time_elapsed":522813,"internal_node_id":"0.0-4.0-0.26","subject_id":"611a2c1ca8f92b2b84567cf8","study_id":"6197b3f67c2b5cd3b6d9596a","session_id":"6197b5cbeccb8bf063118836","condition":"full-information","relevant_dimensions":["pattern","legs"],"bee_group":{"antennae":"X","wings":"X","pattern":"S","legs":"M"},"action":"harvest","summary":"good-harvest","bonus":0.700000000000001},{"rt":2228.1999999284744,"stimulus":"\n                    <p><b>Action: <em>harvest</em></b></p>\n                    <p>This is the bee that you just saw.</p>\n                    <img src=\"bees-with-color/bee-A2SF.svg\" width=\"200\">\n                    <p><span class=\"greenText\"><b>Successful harvest!</b></span><br>Your pay has increased by $0.02. Your bonus pay is now $0.62.</p>\n            ","response":0,"trial_type":"html-button-response","trial_index":60,"time_elapsed":525043,"internal_node_id":"0.0-4.0-1.26","subject_id":"611a2c1ca8f92b2b84567cf8","study_id":"6197b3f67c2b5cd3b6d9596a","session_id":"6197b5cbeccb8bf063118836","condition":"full-information","relevant_dimensions":["pattern","legs"],"bee_group":{"antennae":"X","wings":"X","pattern":"S","legs":"M"},"bonus":0.700000000000001},{"rt":1735.8000000715256,"stimulus":"bees-with-color/bee-B2DM.svg","response":1,"trial_type":"image-button-response","trial_index":61,"time_elapsed":526781,"internal_node_id":"0.0-4.0-0.27","subject_id":"611a2c1ca8f92b2b84567cf8","study_id":"6197b3f67c2b5cd3b6d9596a","session_id":"6197b5cbeccb8bf063118836","condition":"full-information","relevant_dimensions":["pattern","legs"],"bee_group":{"antennae":"X","wings":"X","pattern":"S","legs":"M"},"action":"avoid","summary":"bad-avoid","bonus":0.700000000000001},{"rt":5700.599999904633,"stimulus":"\n                    <p><b>Action: <em>avoid</em></b></p>\n                    <p>This is the bee that you just saw.</p>\n                    <img src=\"bees-with-color/bee-B2DM.svg\" width=\"200\">\n                    <p><span class=\"redText\">Bad choice,</span> the bee was friendly.<br>Your bonus pay is unchanged, and remains at $0.62.</p>\n            ","response":0,"trial_type":"html-button-response","trial_index":62,"time_elapsed":532483,"internal_node_id":"0.0-4.0-1.27","subject_id":"611a2c1ca8f92b2b84567cf8","study_id":"6197b3f67c2b5cd3b6d9596a","session_id":"6197b5cbeccb8bf063118836","condition":"full-information","relevant_dimensions":["pattern","legs"],"bee_group":{"antennae":"X","wings":"X","pattern":"S","legs":"M"},"bonus":0.700000000000001},{"rt":4814.299999952316,"stimulus":"bees-with-color/bee-A1DM.svg","response":1,"trial_type":"image-button-response","trial_index":63,"time_elapsed":537299,"internal_node_id":"0.0-4.0-0.28","subject_id":"611a2c1ca8f92b2b84567cf8","study_id":"6197b3f67c2b5cd3b6d9596a","session_id":"6197b5cbeccb8bf063118836","condition":"full-information","relevant_dimensions":["pattern","legs"],"bee_group":{"antennae":"X","wings":"X","pattern":"S","legs":"M"},"action":"avoid","summary":"bad-avoid","bonus":0.700000000000001},{"rt":2058.600000023842,"stimulus":"\n                    <p><b>Action: <em>avoid</em></b></p>\n                    <p>This is the bee that you just saw.</p>\n                    <img src=\"bees-with-color/bee-A1DM.svg\" width=\"200\">\n                    <p><span class=\"redText\">Bad choice,</span> the bee was friendly.<br>Your bonus pay is unchanged, and remains at $0.62.</p>\n            ","response":0,"trial_type":"html-button-response","trial_index":64,"time_elapsed":539359,"internal_node_id":"0.0-4.0-1.28","subject_id":"611a2c1ca8f92b2b84567cf8","study_id":"6197b3f67c2b5cd3b6d9596a","session_id":"6197b5cbeccb8bf063118836","condition":"full-information","relevant_dimensions":["pattern","legs"],"bee_group":{"antennae":"X","wings":"X","pattern":"S","legs":"M"},"bonus":0.700000000000001},{"rt":3458.3000000715256,"stimulus":"bees-with-color/bee-B1DM.svg","response":1,"trial_type":"image-button-response","trial_index":65,"time_elapsed":542819,"internal_node_id":"0.0-4.0-0.29","subject_id":"611a2c1ca8f92b2b84567cf8","study_id":"6197b3f67c2b5cd3b6d9596a","session_id":"6197b5cbeccb8bf063118836","condition":"full-information","relevant_dimensions":["pattern","legs"],"bee_group":{"antennae":"X","wings":"X","pattern":"S","legs":"M"},"action":"avoid","summary":"bad-avoid","bonus":0.700000000000001},{"rt":2236.7999999523163,"stimulus":"\n                    <p><b>Action: <em>avoid</em></b></p>\n                    <p>This is the bee that you just saw.</p>\n                    <img src=\"bees-with-color/bee-B1DM.svg\" width=\"200\">\n                    <p><span class=\"redText\">Bad choice,</span> the bee was friendly.<br>Your bonus pay is unchanged, and remains at $0.62.</p>\n            ","response":0,"trial_type":"html-button-response","trial_index":66,"time_elapsed":545057,"internal_node_id":"0.0-4.0-1.29","subject_id":"611a2c1ca8f92b2b84567cf8","study_id":"6197b3f67c2b5cd3b6d9596a","session_id":"6197b5cbeccb8bf063118836","condition":"full-information","relevant_dimensions":["pattern","legs"],"bee_group":{"antennae":"X","wings":"X","pattern":"S","legs":"M"},"bonus":0.700000000000001},{"rt":1862.3999999761581,"stimulus":"bees-with-color/bee-A1DF.svg","response":0,"trial_type":"image-button-response","trial_index":67,"time_elapsed":546921,"internal_node_id":"0.0-4.0-0.30","subject_id":"611a2c1ca8f92b2b84567cf8","study_id":"6197b3f67c2b5cd3b6d9596a","session_id":"6197b5cbeccb8bf063118836","condition":"full-information","relevant_dimensions":["pattern","legs"],"bee_group":{"antennae":"X","wings":"X","pattern":"S","legs":"M"},"action":"harvest","summary":"good-harvest","bonus":0.700000000000001},{"rt":3280.600000023842,"stimulus":"\n                    <p><b>Action: <em>harvest</em></b></p>\n                    <p>This is the bee that you just saw.</p>\n                    <img src=\"bees-with-color/bee-A1DF.svg\" width=\"200\">\n                    <p><span class=\"greenText\"><b>Successful harvest!</b></span><br>Your pay has increased by $0.02. Your bonus pay is now $0.64.</p>\n            ","response":0,"trial_type":"html-button-response","trial_index":68,"time_elapsed":550203,"internal_node_id":"0.0-4.0-1.30","subject_id":"611a2c1ca8f92b2b84567cf8","study_id":"6197b3f67c2b5cd3b6d9596a","session_id":"6197b5cbeccb8bf063118836","condition":"full-information","relevant_dimensions":["pattern","legs"],"bee_group":{"antennae":"X","wings":"X","pattern":"S","legs":"M"},"bonus":0.700000000000001},{"rt":11158.099999904633,"stimulus":"bees-with-color/bee-A1SM.svg","response":1,"trial_type":"image-button-response","trial_index":69,"time_elapsed":561363,"internal_node_id":"0.0-4.0-0.31","subject_id":"611a2c1ca8f92b2b84567cf8","study_id":"6197b3f67c2b5cd3b6d9596a","session_id":"6197b5cbeccb8bf063118836","condition":"full-information","relevant_dimensions":["pattern","legs"],"bee_group":{"antennae":"X","wings":"X","pattern":"S","legs":"M"},"action":"avoid","summary":"good-avoid","bonus":0.700000000000001},{"rt":2296.7999999523163,"stimulus":"\n                    <p><b>Action: <em>avoid</em></b></p>\n                    <p>This is the bee that you just saw.</p>\n                    <img src=\"bees-with-color/bee-A1SM.svg\" width=\"200\">\n                    <p><span class=\"greenText\">Good choice!</span>  This bee would have stung you.<br>Your bonus pay is unchanged, and remains at $0.64.</p>\n            ","response":0,"trial_type":"html-button-response","trial_index":70,"time_elapsed":563661,"internal_node_id":"0.0-4.0-1.31","subject_id":"611a2c1ca8f92b2b84567cf8","study_id":"6197b3f67c2b5cd3b6d9596a","session_id":"6197b5cbeccb8bf063118836","condition":"full-information","relevant_dimensions":["pattern","legs"],"bee_group":{"antennae":"X","wings":"X","pattern":"S","legs":"M"},"bonus":0.700000000000001},{"rt":4834.100000023842,"stimulus":"bees-with-color/bee-A1SM.svg","response":1,"trial_type":"image-button-response","trial_index":71,"time_elapsed":568497,"internal_node_id":"0.0-4.0-0.32","subject_id":"611a2c1ca8f92b2b84567cf8","study_id":"6197b3f67c2b5cd3b6d9596a","session_id":"6197b5cbeccb8bf063118836","condition":"full-information","relevant_dimensions":["pattern","legs"],"bee_group":{"antennae":"X","wings":"X","pattern":"S","legs":"M"},"action":"avoid","summary":"good-avoid","bonus":0.700000000000001},{"rt":2020.5,"stimulus":"\n                    <p><b>Action: <em>avoid</em></b></p>\n                    <p>This is the bee that you just saw.</p>\n                    <img src=\"bees-with-color/bee-A1SM.svg\" width=\"200\">\n                    <p><span class=\"greenText\">Good choice!</span>  This bee would have stung you.<br>Your bonus pay is unchanged, and remains at $0.64.</p>\n            ","response":0,"trial_type":"html-button-response","trial_index":72,"time_elapsed":570519,"internal_node_id":"0.0-4.0-1.32","subject_id":"611a2c1ca8f92b2b84567cf8","study_id":"6197b3f67c2b5cd3b6d9596a","session_id":"6197b5cbeccb8bf063118836","condition":"full-information","relevant_dimensions":["pattern","legs"],"bee_group":{"antennae":"X","wings":"X","pattern":"S","legs":"M"},"bonus":0.700000000000001},{"rt":2326.1999999284744,"stimulus":"bees-with-color/bee-A1SF.svg","response":0,"trial_type":"image-button-response","trial_index":73,"time_elapsed":572847,"internal_node_id":"0.0-4.0-0.33","subject_id":"611a2c1ca8f92b2b84567cf8","study_id":"6197b3f67c2b5cd3b6d9596a","session_id":"6197b5cbeccb8bf063118836","condition":"full-information","relevant_dimensions":["pattern","legs"],"bee_group":{"antennae":"X","wings":"X","pattern":"S","legs":"M"},"action":"harvest","summary":"good-harvest","bonus":0.700000000000001},{"rt":2260.5,"stimulus":"\n                    <p><b>Action: <em>harvest</em></b></p>\n                    <p>This is the bee that you just saw.</p>\n                    <img src=\"bees-with-color/bee-A1SF.svg\" width=\"200\">\n                    <p><span class=\"greenText\"><b>Successful harvest!</b></span><br>Your pay has increased by $0.02. Your bonus pay is now $0.66.</p>\n            ","response":0,"trial_type":"html-button-response","trial_index":74,"time_elapsed":575109,"internal_node_id":"0.0-4.0-1.33","subject_id":"611a2c1ca8f92b2b84567cf8","study_id":"6197b3f67c2b5cd3b6d9596a","session_id":"6197b5cbeccb8bf063118836","condition":"full-information","relevant_dimensions":["pattern","legs"],"bee_group":{"antennae":"X","wings":"X","pattern":"S","legs":"M"},"bonus":0.700000000000001},{"rt":4184.299999952316,"stimulus":"bees-with-color/bee-A1DM.svg","response":0,"trial_type":"image-button-response","trial_index":75,"time_elapsed":579295,"internal_node_id":"0.0-4.0-0.34","subject_id":"611a2c1ca8f92b2b84567cf8","study_id":"6197b3f67c2b5cd3b6d9596a","session_id":"6197b5cbeccb8bf063118836","condition":"full-information","relevant_dimensions":["pattern","legs"],"bee_group":{"antennae":"X","wings":"X","pattern":"S","legs":"M"},"action":"harvest","summary":"good-harvest","bonus":0.700000000000001},{"rt":2415.5,"stimulus":"\n                    <p><b>Action: <em>harvest</em></b></p>\n                    <p>This is the bee that you just saw.</p>\n                    <img src=\"bees-with-color/bee-A1DM.svg\" width=\"200\">\n                    <p><span class=\"greenText\"><b>Successful harvest!</b></span><br>Your pay has increased by $0.02. Your bonus pay is now $0.68.</p>\n            ","response":0,"trial_type":"html-button-response","trial_index":76,"time_elapsed":581712,"internal_node_id":"0.0-4.0-1.34","subject_id":"611a2c1ca8f92b2b84567cf8","study_id":"6197b3f67c2b5cd3b6d9596a","session_id":"6197b5cbeccb8bf063118836","condition":"full-information","relevant_dimensions":["pattern","legs"],"bee_group":{"antennae":"X","wings":"X","pattern":"S","legs":"M"},"bonus":0.700000000000001},{"rt":2430,"stimulus":"bees-with-color/bee-B1DM.svg","response":1,"trial_type":"image-button-response","trial_index":77,"time_elapsed":584144,"internal_node_id":"0.0-4.0-0.35","subject_id":"611a2c1ca8f92b2b84567cf8","study_id":"6197b3f67c2b5cd3b6d9596a","session_id":"6197b5cbeccb8bf063118836","condition":"full-information","relevant_dimensions":["pattern","legs"],"bee_group":{"antennae":"X","wings":"X","pattern":"S","legs":"M"},"action":"avoid","summary":"bad-avoid","bonus":0.700000000000001},{"rt":2065.100000023842,"stimulus":"\n                    <p><b>Action: <em>avoid</em></b></p>\n                    <p>This is the bee that you just saw.</p>\n                    <img src=\"bees-with-color/bee-B1DM.svg\" width=\"200\">\n                    <p><span class=\"redText\">Bad choice,</span> the bee was friendly.<br>Your bonus pay is unchanged, and remains at $0.68.</p>\n            ","response":0,"trial_type":"html-button-response","trial_index":78,"time_elapsed":586211,"internal_node_id":"0.0-4.0-1.35","subject_id":"611a2c1ca8f92b2b84567cf8","study_id":"6197b3f67c2b5cd3b6d9596a","session_id":"6197b5cbeccb8bf063118836","condition":"full-information","relevant_dimensions":["pattern","legs"],"bee_group":{"antennae":"X","wings":"X","pattern":"S","legs":"M"},"bonus":0.700000000000001},{"rt":2918,"stimulus":"bees-with-color/bee-A2SM.svg","response":1,"trial_type":"image-button-response","trial_index":79,"time_elapsed":589131,"internal_node_id":"0.0-4.0-0.36","subject_id":"611a2c1ca8f92b2b84567cf8","study_id":"6197b3f67c2b5cd3b6d9596a","session_id":"6197b5cbeccb8bf063118836","condition":"full-information","relevant_dimensions":["pattern","legs"],"bee_group":{"antennae":"X","wings":"X","pattern":"S","legs":"M"},"action":"avoid","summary":"good-avoid","bonus":0.700000000000001},{"rt":1944.1000000238419,"stimulus":"\n                    <p><b>Action: <em>avoid</em></b></p>\n                    <p>This is the bee that you just saw.</p>\n                    <img src=\"bees-with-color/bee-A2SM.svg\" width=\"200\">\n                    <p><span class=\"greenText\">Good choice!</span>  This bee would have stung you.<br>Your bonus pay is unchanged, and remains at $0.68.</p>\n            ","response":0,"trial_type":"html-button-response","trial_index":80,"time_elapsed":591077,"internal_node_id":"0.0-4.0-1.36","subject_id":"611a2c1ca8f92b2b84567cf8","study_id":"6197b3f67c2b5cd3b6d9596a","session_id":"6197b5cbeccb8bf063118836","condition":"full-information","relevant_dimensions":["pattern","legs"],"bee_group":{"antennae":"X","wings":"X","pattern":"S","legs":"M"},"bonus":0.700000000000001},{"rt":2088.2999999523163,"stimulus":"bees-with-color/bee-A2SF.svg","response":0,"trial_type":"image-button-response","trial_index":81,"time_elapsed":593167,"internal_node_id":"0.0-4.0-0.37","subject_id":"611a2c1ca8f92b2b84567cf8","study_id":"6197b3f67c2b5cd3b6d9596a","session_id":"6197b5cbeccb8bf063118836","condition":"full-information","relevant_dimensions":["pattern","legs"],"bee_group":{"antennae":"X","wings":"X","pattern":"S","legs":"M"},"action":"harvest","summary":"good-harvest","bonus":0.700000000000001},{"rt":2252.2999999523163,"stimulus":"\n                    <p><b>Action: <em>harvest</em></b></p>\n                    <p>This is the bee that you just saw.</p>\n                    <img src=\"bees-with-color/bee-A2SF.svg\" width=\"200\">\n                    <p><span class=\"greenText\"><b>Successful harvest!</b></span><br>Your pay has increased by $0.02. Your bonus pay is now $0.70.</p>\n            ","response":0,"trial_type":"html-button-response","trial_index":82,"time_elapsed":595421,"internal_node_id":"0.0-4.0-1.37","subject_id":"611a2c1ca8f92b2b84567cf8","study_id":"6197b3f67c2b5cd3b6d9596a","session_id":"6197b5cbeccb8bf063118836","condition":"full-information","relevant_dimensions":["pattern","legs"],"bee_group":{"antennae":"X","wings":"X","pattern":"S","legs":"M"},"bonus":0.700000000000001},{"rt":6751.700000047684,"stimulus":"bees-with-color/bee-A2DM.svg","response":1,"trial_type":"image-button-response","trial_index":83,"time_elapsed":602175,"internal_node_id":"0.0-4.0-0.38","subject_id":"611a2c1ca8f92b2b84567cf8","study_id":"6197b3f67c2b5cd3b6d9596a","session_id":"6197b5cbeccb8bf063118836","condition":"full-information","relevant_dimensions":["pattern","legs"],"bee_group":{"antennae":"X","wings":"X","pattern":"S","legs":"M"},"action":"avoid","summary":"bad-avoid","bonus":0.700000000000001},{"rt":2344.600000023842,"stimulus":"\n                    <p><b>Action: <em>avoid</em></b></p>\n                    <p>This is the bee that you just saw.</p>\n                    <img src=\"bees-with-color/bee-A2DM.svg\" width=\"200\">\n                    <p><span class=\"redText\">Bad choice,</span> the bee was friendly.<br>Your bonus pay is unchanged, and remains at $0.70.</p>\n            ","response":0,"trial_type":"html-button-response","trial_index":84,"time_elapsed":604521,"internal_node_id":"0.0-4.0-1.38","subject_id":"611a2c1ca8f92b2b84567cf8","study_id":"6197b3f67c2b5cd3b6d9596a","session_id":"6197b5cbeccb8bf063118836","condition":"full-information","relevant_dimensions":["pattern","legs"],"bee_group":{"antennae":"X","wings":"X","pattern":"S","legs":"M"},"bonus":0.700000000000001},{"rt":2228.100000023842,"stimulus":"bees-with-color/bee-A2DF.svg","response":0,"trial_type":"image-button-response","trial_index":85,"time_elapsed":606751,"internal_node_id":"0.0-4.0-0.39","subject_id":"611a2c1ca8f92b2b84567cf8","study_id":"6197b3f67c2b5cd3b6d9596a","session_id":"6197b5cbeccb8bf063118836","condition":"full-information","relevant_dimensions":["pattern","legs"],"bee_group":{"antennae":"X","wings":"X","pattern":"S","legs":"M"},"action":"harvest","summary":"good-harvest","bonus":0.700000000000001},{"rt":2502.2999999523163,"stimulus":"\n                    <p><b>Action: <em>harvest</em></b></p>\n                    <p>This is the bee that you just saw.</p>\n                    <img src=\"bees-with-color/bee-A2DF.svg\" width=\"200\">\n                    <p><span class=\"greenText\"><b>Successful harvest!</b></span><br>Your pay has increased by $0.02. Your bonus pay is now $0.72.</p>\n            ","response":0,"trial_type":"html-button-response","trial_index":86,"time_elapsed":609255,"internal_node_id":"0.0-4.0-1.39","subject_id":"611a2c1ca8f92b2b84567cf8","study_id":"6197b3f67c2b5cd3b6d9596a","session_id":"6197b5cbeccb8bf063118836","condition":"full-information","relevant_dimensions":["pattern","legs"],"bee_group":{"antennae":"X","wings":"X","pattern":"S","legs":"M"},"bonus":0.700000000000001},{"rt":2860.5,"stimulus":"bees-with-color/bee-B2DM.svg","response":1,"trial_type":"image-button-response","trial_index":87,"time_elapsed":612117,"internal_node_id":"0.0-4.0-0.40","subject_id":"611a2c1ca8f92b2b84567cf8","study_id":"6197b3f67c2b5cd3b6d9596a","session_id":"6197b5cbeccb8bf063118836","condition":"full-information","relevant_dimensions":["pattern","legs"],"bee_group":{"antennae":"X","wings":"X","pattern":"S","legs":"M"},"action":"avoid","summary":"bad-avoid","bonus":0.700000000000001},{"rt":10010.799999952316,"stimulus":"\n                    <p><b>Action: <em>avoid</em></b></p>\n                    <p>This is the bee that you just saw.</p>\n                    <img src=\"bees-with-color/bee-B2DM.svg\" width=\"200\">\n                    <p><span class=\"redText\">Bad choice,</span> the bee was friendly.<br>Your bonus pay is unchanged, and remains at $0.72.</p>\n            ","response":0,"trial_type":"html-button-response","trial_index":88,"time_elapsed":622129,"internal_node_id":"0.0-4.0-1.40","subject_id":"611a2c1ca8f92b2b84567cf8","study_id":"6197b3f67c2b5cd3b6d9596a","session_id":"6197b5cbeccb8bf063118836","condition":"full-information","relevant_dimensions":["pattern","legs"],"bee_group":{"antennae":"X","wings":"X","pattern":"S","legs":"M"},"bonus":0.700000000000001},{"rt":2088.5,"stimulus":"bees-with-color/bee-A1DF.svg","response":0,"trial_type":"image-button-response","trial_index":89,"time_elapsed":624219,"internal_node_id":"0.0-4.0-0.41","subject_id":"611a2c1ca8f92b2b84567cf8","study_id":"6197b3f67c2b5cd3b6d9596a","session_id":"6197b5cbeccb8bf063118836","condition":"full-information","relevant_dimensions":["pattern","legs"],"bee_group":{"antennae":"X","wings":"X","pattern":"S","legs":"M"},"action":"harvest","summary":"good-harvest","bonus":0.700000000000001},{"rt":2096.7000000476837,"stimulus":"\n                    <p><b>Action: <em>harvest</em></b></p>\n                    <p>This is the bee that you just saw.</p>\n                    <img src=\"bees-with-color/bee-A1DF.svg\" width=\"200\">\n                    <p><span class=\"greenText\"><b>Successful harvest!</b></span><br>Your pay has increased by $0.02. Your bonus pay is now $0.74.</p>\n            ","response":0,"trial_type":"html-button-response","trial_index":90,"time_elapsed":626317,"internal_node_id":"0.0-4.0-1.41","subject_id":"611a2c1ca8f92b2b84567cf8","study_id":"6197b3f67c2b5cd3b6d9596a","session_id":"6197b5cbeccb8bf063118836","condition":"full-information","relevant_dimensions":["pattern","legs"],"bee_group":{"antennae":"X","wings":"X","pattern":"S","legs":"M"},"bonus":0.700000000000001},{"rt":3038.2999999523163,"stimulus":"bees-with-color/bee-B2SM.svg","response":1,"trial_type":"image-button-response","trial_index":91,"time_elapsed":629357,"internal_node_id":"0.0-4.0-0.42","subject_id":"611a2c1ca8f92b2b84567cf8","study_id":"6197b3f67c2b5cd3b6d9596a","session_id":"6197b5cbeccb8bf063118836","condition":"full-information","relevant_dimensions":["pattern","legs"],"bee_group":{"antennae":"X","wings":"X","pattern":"S","legs":"M"},"action":"avoid","summary":"good-avoid","bonus":0.700000000000001},{"rt":1760.8999999761581,"stimulus":"\n                    <p><b>Action: <em>avoid</em></b></p>\n                    <p>This is the bee that you just saw.</p>\n                    <img src=\"bees-with-color/bee-B2SM.svg\" width=\"200\">\n                    <p><span class=\"greenText\">Good choice!</span>  This bee would have stung you.<br>Your bonus pay is unchanged, and remains at $0.74.</p>\n            ","response":0,"trial_type":"html-button-response","trial_index":92,"time_elapsed":631119,"internal_node_id":"0.0-4.0-1.42","subject_id":"611a2c1ca8f92b2b84567cf8","study_id":"6197b3f67c2b5cd3b6d9596a","session_id":"6197b5cbeccb8bf063118836","condition":"full-information","relevant_dimensions":["pattern","legs"],"bee_group":{"antennae":"X","wings":"X","pattern":"S","legs":"M"},"bonus":0.700000000000001},{"rt":5944.199999928474,"stimulus":"bees-with-color/bee-B2SF.svg","response":1,"trial_type":"image-button-response","trial_index":93,"time_elapsed":637065,"internal_node_id":"0.0-4.0-0.43","subject_id":"611a2c1ca8f92b2b84567cf8","study_id":"6197b3f67c2b5cd3b6d9596a","session_id":"6197b5cbeccb8bf063118836","condition":"full-information","relevant_dimensions":["pattern","legs"],"bee_group":{"antennae":"X","wings":"X","pattern":"S","legs":"M"},"action":"avoid","summary":"bad-avoid","bonus":0.700000000000001},{"rt":1538.3999999761581,"stimulus":"\n                    <p><b>Action: <em>avoid</em></b></p>\n                    <p>This is the bee that you just saw.</p>\n                    <img src=\"bees-with-color/bee-B2SF.svg\" width=\"200\">\n                    <p><span class=\"redText\">Bad choice,</span> the bee was friendly.<br>Your bonus pay is unchanged, and remains at $0.74.</p>\n            ","response":0,"trial_type":"html-button-response","trial_index":94,"time_elapsed":638604,"internal_node_id":"0.0-4.0-1.43","subject_id":"611a2c1ca8f92b2b84567cf8","study_id":"6197b3f67c2b5cd3b6d9596a","session_id":"6197b5cbeccb8bf063118836","condition":"full-information","relevant_dimensions":["pattern","legs"],"bee_group":{"antennae":"X","wings":"X","pattern":"S","legs":"M"},"bonus":0.700000000000001},{"rt":5676.600000023842,"stimulus":"bees-with-color/bee-B2DF.svg","response":0,"trial_type":"image-button-response","trial_index":95,"time_elapsed":644283,"internal_node_id":"0.0-4.0-0.44","subject_id":"611a2c1ca8f92b2b84567cf8","study_id":"6197b3f67c2b5cd3b6d9596a","session_id":"6197b5cbeccb8bf063118836","condition":"full-information","relevant_dimensions":["pattern","legs"],"bee_group":{"antennae":"X","wings":"X","pattern":"S","legs":"M"},"action":"harvest","summary":"good-harvest","bonus":0.700000000000001},{"rt":1480.6000000238419,"stimulus":"\n                    <p><b>Action: <em>harvest</em></b></p>\n                    <p>This is the bee that you just saw.</p>\n                    <img src=\"bees-with-color/bee-B2DF.svg\" width=\"200\">\n                    <p><span class=\"greenText\"><b>Successful harvest!</b></span><br>Your pay has increased by $0.02. Your bonus pay is now $0.76.</p>\n            ","response":0,"trial_type":"html-button-response","trial_index":96,"time_elapsed":645765,"internal_node_id":"0.0-4.0-1.44","subject_id":"611a2c1ca8f92b2b84567cf8","study_id":"6197b3f67c2b5cd3b6d9596a","session_id":"6197b5cbeccb8bf063118836","condition":"full-information","relevant_dimensions":["pattern","legs"],"bee_group":{"antennae":"X","wings":"X","pattern":"S","legs":"M"},"bonus":0.700000000000001},{"rt":5028.199999928474,"stimulus":"bees-with-color/bee-B1SM.svg","response":1,"trial_type":"image-button-response","trial_index":97,"time_elapsed":650795,"internal_node_id":"0.0-4.0-0.45","subject_id":"611a2c1ca8f92b2b84567cf8","study_id":"6197b3f67c2b5cd3b6d9596a","session_id":"6197b5cbeccb8bf063118836","condition":"full-information","relevant_dimensions":["pattern","legs"],"bee_group":{"antennae":"X","wings":"X","pattern":"S","legs":"M"},"action":"avoid","summary":"good-avoid","bonus":0.700000000000001},{"rt":1860.5,"stimulus":"\n                    <p><b>Action: <em>avoid</em></b></p>\n                    <p>This is the bee that you just saw.</p>\n                    <img src=\"bees-with-color/bee-B1SM.svg\" width=\"200\">\n                    <p><span class=\"greenText\">Good choice!</span>  This bee would have stung you.<br>Your bonus pay is unchanged, and remains at $0.76.</p>\n            ","response":0,"trial_type":"html-button-response","trial_index":98,"time_elapsed":652657,"internal_node_id":"0.0-4.0-1.45","subject_id":"611a2c1ca8f92b2b84567cf8","study_id":"6197b3f67c2b5cd3b6d9596a","session_id":"6197b5cbeccb8bf063118836","condition":"full-information","relevant_dimensions":["pattern","legs"],"bee_group":{"antennae":"X","wings":"X","pattern":"S","legs":"M"},"bonus":0.700000000000001},{"rt":4326.299999952316,"stimulus":"bees-with-color/bee-B1SF.svg","response":0,"trial_type":"image-button-response","trial_index":99,"time_elapsed":656985,"internal_node_id":"0.0-4.0-0.46","subject_id":"611a2c1ca8f92b2b84567cf8","study_id":"6197b3f67c2b5cd3b6d9596a","session_id":"6197b5cbeccb8bf063118836","condition":"full-information","relevant_dimensions":["pattern","legs"],"bee_group":{"antennae":"X","wings":"X","pattern":"S","legs":"M"},"action":"harvest","summary":"good-harvest","bonus":0.700000000000001},{"rt":1684.3999999761581,"stimulus":"\n                    <p><b>Action: <em>harvest</em></b></p>\n                    <p>This is the bee that you just saw.</p>\n                    <img src=\"bees-with-color/bee-B1SF.svg\" width=\"200\">\n                    <p><span class=\"greenText\"><b>Successful harvest!</b></span><br>Your pay has increased by $0.02. Your bonus pay is now $0.78.</p>\n            ","response":0,"trial_type":"html-button-response","trial_index":100,"time_elapsed":658671,"internal_node_id":"0.0-4.0-1.46","subject_id":"611a2c1ca8f92b2b84567cf8","study_id":"6197b3f67c2b5cd3b6d9596a","session_id":"6197b5cbeccb8bf063118836","condition":"full-information","relevant_dimensions":["pattern","legs"],"bee_group":{"antennae":"X","wings":"X","pattern":"S","legs":"M"},"bonus":0.700000000000001},{"rt":2424.600000023842,"stimulus":"bees-with-color/bee-B1DF.svg","response":0,"trial_type":"image-button-response","trial_index":101,"time_elapsed":661097,"internal_node_id":"0.0-4.0-0.47","subject_id":"611a2c1ca8f92b2b84567cf8","study_id":"6197b3f67c2b5cd3b6d9596a","session_id":"6197b5cbeccb8bf063118836","condition":"full-information","relevant_dimensions":["pattern","legs"],"bee_group":{"antennae":"X","wings":"X","pattern":"S","legs":"M"},"action":"harvest","summary":"good-harvest","bonus":0.700000000000001},{"rt":1999.9000000953674,"stimulus":"\n                    <p><b>Action: <em>harvest</em></b></p>\n                    <p>This is the bee that you just saw.</p>\n                    <img src=\"bees-with-color/bee-B1DF.svg\" width=\"200\">\n                    <p><span class=\"greenText\"><b>Successful harvest!</b></span><br>Your pay has increased by $0.02. Your bonus pay is now $0.80.</p>\n            ","response":0,"trial_type":"html-button-response","trial_index":102,"time_elapsed":663098,"internal_node_id":"0.0-4.0-1.47","subject_id":"611a2c1ca8f92b2b84567cf8","study_id":"6197b3f67c2b5cd3b6d9596a","session_id":"6197b5cbeccb8bf063118836","condition":"full-information","relevant_dimensions":["pattern","legs"],"bee_group":{"antennae":"X","wings":"X","pattern":"S","legs":"M"},"bonus":0.700000000000001},{"rt":3188.7000000476837,"stimulus":"bees-with-color/bee-A2DF.svg","response":0,"trial_type":"image-button-response","trial_index":103,"time_elapsed":666289,"internal_node_id":"0.0-4.0-0.48","subject_id":"611a2c1ca8f92b2b84567cf8","study_id":"6197b3f67c2b5cd3b6d9596a","session_id":"6197b5cbeccb8bf063118836","condition":"full-information","relevant_dimensions":["pattern","legs"],"bee_group":{"antennae":"X","wings":"X","pattern":"S","legs":"M"},"action":"harvest","summary":"good-harvest","bonus":0.700000000000001},{"rt":1502.5,"stimulus":"\n                    <p><b>Action: <em>harvest</em></b></p>\n                    <p>This is the bee that you just saw.</p>\n                    <img src=\"bees-with-color/bee-A2DF.svg\" width=\"200\">\n                    <p><span class=\"greenText\"><b>Successful harvest!</b></span><br>Your pay has increased by $0.02. Your bonus pay is now $0.82.</p>\n            ","response":0,"trial_type":"html-button-response","trial_index":104,"time_elapsed":667793,"internal_node_id":"0.0-4.0-1.48","subject_id":"611a2c1ca8f92b2b84567cf8","study_id":"6197b3f67c2b5cd3b6d9596a","session_id":"6197b5cbeccb8bf063118836","condition":"full-information","relevant_dimensions":["pattern","legs"],"bee_group":{"antennae":"X","wings":"X","pattern":"S","legs":"M"},"bonus":0.700000000000001},{"rt":10113.899999976158,"stimulus":"bees-with-color/bee-A1SM.svg","response":0,"trial_type":"image-button-response","trial_index":105,"time_elapsed":677909,"internal_node_id":"0.0-4.0-0.49","subject_id":"611a2c1ca8f92b2b84567cf8","study_id":"6197b3f67c2b5cd3b6d9596a","session_id":"6197b5cbeccb8bf063118836","condition":"full-information","relevant_dimensions":["pattern","legs"],"bee_group":{"antennae":"X","wings":"X","pattern":"S","legs":"M"},"action":"harvest","summary":"bad-harvest","bonus":0.700000000000001},{"rt":1906.7000000476837,"stimulus":"\n                    <p><b>Action: <em>harvest</em></b></p>\n                    <p>This is the bee that you just saw.</p>\n                    <img src=\"bees-with-color/bee-A1SM.svg\" width=\"200\">\n                    <p><span class=\"redText\">Bad choice, the bee was angry.</span><br><b>You have been stung!</b><br>Your pay has been decreased by $0.10. Your bonus pay is now $0.72.</p>\n            ","response":0,"trial_type":"html-button-response","trial_index":106,"time_elapsed":679819,"internal_node_id":"0.0-4.0-1.49","subject_id":"611a2c1ca8f92b2b84567cf8","study_id":"6197b3f67c2b5cd3b6d9596a","session_id":"6197b5cbeccb8bf063118836","condition":"full-information","relevant_dimensions":["pattern","legs"],"bee_group":{"antennae":"X","wings":"X","pattern":"S","legs":"M"},"bonus":0.700000000000001},{"rt":4661.799999952316,"stimulus":"bees-with-color/bee-B1SM.svg","response":1,"trial_type":"image-button-response","trial_index":107,"time_elapsed":684483,"internal_node_id":"0.0-4.0-0.50","subject_id":"611a2c1ca8f92b2b84567cf8","study_id":"6197b3f67c2b5cd3b6d9596a","session_id":"6197b5cbeccb8bf063118836","condition":"full-information","relevant_dimensions":["pattern","legs"],"bee_group":{"antennae":"X","wings":"X","pattern":"S","legs":"M"},"action":"avoid","summary":"good-avoid","bonus":0.700000000000001},{"rt":1752.5,"stimulus":"\n                    <p><b>Action: <em>avoid</em></b></p>\n                    <p>This is the bee that you just saw.</p>\n                    <img src=\"bees-with-color/bee-B1SM.svg\" width=\"200\">\n                    <p><span class=\"greenText\">Good choice!</span>  This bee would have stung you.<br>Your bonus pay is unchanged, and remains at $0.72.</p>\n            ","response":0,"trial_type":"html-button-response","trial_index":108,"time_elapsed":686237,"internal_node_id":"0.0-4.0-1.50","subject_id":"611a2c1ca8f92b2b84567cf8","study_id":"6197b3f67c2b5cd3b6d9596a","session_id":"6197b5cbeccb8bf063118836","condition":"full-information","relevant_dimensions":["pattern","legs"],"bee_group":{"antennae":"X","wings":"X","pattern":"S","legs":"M"},"bonus":0.700000000000001},{"rt":5955.899999976158,"stimulus":"bees-with-color/bee-B2SF.svg","response":0,"trial_type":"image-button-response","trial_index":109,"time_elapsed":692195,"internal_node_id":"0.0-4.0-0.51","subject_id":"611a2c1ca8f92b2b84567cf8","study_id":"6197b3f67c2b5cd3b6d9596a","session_id":"6197b5cbeccb8bf063118836","condition":"full-information","relevant_dimensions":["pattern","legs"],"bee_group":{"antennae":"X","wings":"X","pattern":"S","legs":"M"},"action":"harvest","summary":"good-harvest","bonus":0.700000000000001},{"rt":2040.1000000238419,"stimulus":"\n                    <p><b>Action: <em>harvest</em></b></p>\n                    <p>This is the bee that you just saw.</p>\n                    <img src=\"bees-with-color/bee-B2SF.svg\" width=\"200\">\n                    <p><span class=\"greenText\"><b>Successful harvest!</b></span><br>Your pay has increased by $0.02. Your bonus pay is now $0.74.</p>\n            ","response":0,"trial_type":"html-button-response","trial_index":110,"time_elapsed":694237,"internal_node_id":"0.0-4.0-1.51","subject_id":"611a2c1ca8f92b2b84567cf8","study_id":"6197b3f67c2b5cd3b6d9596a","session_id":"6197b5cbeccb8bf063118836","condition":"full-information","relevant_dimensions":["pattern","legs"],"bee_group":{"antennae":"X","wings":"X","pattern":"S","legs":"M"},"bonus":0.700000000000001},{"rt":6322.100000023842,"stimulus":"bees-with-color/bee-A2SF.svg","response":1,"trial_type":"image-button-response","trial_index":111,"time_elapsed":700561,"internal_node_id":"0.0-4.0-0.52","subject_id":"611a2c1ca8f92b2b84567cf8","study_id":"6197b3f67c2b5cd3b6d9596a","session_id":"6197b5cbeccb8bf063118836","condition":"full-information","relevant_dimensions":["pattern","legs"],"bee_group":{"antennae":"X","wings":"X","pattern":"S","legs":"M"},"action":"avoid","summary":"bad-avoid","bonus":0.700000000000001},{"rt":1775.6000000238419,"stimulus":"\n                    <p><b>Action: <em>avoid</em></b></p>\n                    <p>This is the bee that you just saw.</p>\n                    <img src=\"bees-with-color/bee-A2SF.svg\" width=\"200\">\n                    <p><span class=\"redText\">Bad choice,</span> the bee was friendly.<br>Your bonus pay is unchanged, and remains at $0.74.</p>\n            ","response":0,"trial_type":"html-button-response","trial_index":112,"time_elapsed":702338,"internal_node_id":"0.0-4.0-1.52","subject_id":"611a2c1ca8f92b2b84567cf8","study_id":"6197b3f67c2b5cd3b6d9596a","session_id":"6197b5cbeccb8bf063118836","condition":"full-information","relevant_dimensions":["pattern","legs"],"bee_group":{"antennae":"X","wings":"X","pattern":"S","legs":"M"},"bonus":0.700000000000001},{"rt":2986.899999976158,"stimulus":"bees-with-color/bee-A1DM.svg","response":0,"trial_type":"image-button-response","trial_index":113,"time_elapsed":705327,"internal_node_id":"0.0-4.0-0.53","subject_id":"611a2c1ca8f92b2b84567cf8","study_id":"6197b3f67c2b5cd3b6d9596a","session_id":"6197b5cbeccb8bf063118836","condition":"full-information","relevant_dimensions":["pattern","legs"],"bee_group":{"antennae":"X","wings":"X","pattern":"S","legs":"M"},"action":"harvest","summary":"good-harvest","bonus":0.700000000000001},{"rt":1634.7999999523163,"stimulus":"\n                    <p><b>Action: <em>harvest</em></b></p>\n                    <p>This is the bee that you just saw.</p>\n                    <img src=\"bees-with-color/bee-A1DM.svg\" width=\"200\">\n                    <p><span class=\"greenText\"><b>Successful harvest!</b></span><br>Your pay has increased by $0.02. Your bonus pay is now $0.76.</p>\n            ","response":0,"trial_type":"html-button-response","trial_index":114,"time_elapsed":706963,"internal_node_id":"0.0-4.0-1.53","subject_id":"611a2c1ca8f92b2b84567cf8","study_id":"6197b3f67c2b5cd3b6d9596a","session_id":"6197b5cbeccb8bf063118836","condition":"full-information","relevant_dimensions":["pattern","legs"],"bee_group":{"antennae":"X","wings":"X","pattern":"S","legs":"M"},"bonus":0.700000000000001},{"rt":4614.5,"stimulus":"bees-with-color/bee-B1SF.svg","response":1,"trial_type":"image-button-response","trial_index":115,"time_elapsed":711579,"internal_node_id":"0.0-4.0-0.54","subject_id":"611a2c1ca8f92b2b84567cf8","study_id":"6197b3f67c2b5cd3b6d9596a","session_id":"6197b5cbeccb8bf063118836","condition":"full-information","relevant_dimensions":["pattern","legs"],"bee_group":{"antennae":"X","wings":"X","pattern":"S","legs":"M"},"action":"avoid","summary":"bad-avoid","bonus":0.700000000000001},{"rt":1768.7999999523163,"stimulus":"\n                    <p><b>Action: <em>avoid</em></b></p>\n                    <p>This is the bee that you just saw.</p>\n                    <img src=\"bees-with-color/bee-B1SF.svg\" width=\"200\">\n                    <p><span class=\"redText\">Bad choice,</span> the bee was friendly.<br>Your bonus pay is unchanged, and remains at $0.76.</p>\n            ","response":0,"trial_type":"html-button-response","trial_index":116,"time_elapsed":713349,"internal_node_id":"0.0-4.0-1.54","subject_id":"611a2c1ca8f92b2b84567cf8","study_id":"6197b3f67c2b5cd3b6d9596a","session_id":"6197b5cbeccb8bf063118836","condition":"full-information","relevant_dimensions":["pattern","legs"],"bee_group":{"antennae":"X","wings":"X","pattern":"S","legs":"M"},"bonus":0.700000000000001},{"rt":2330.2999999523163,"stimulus":"bees-with-color/bee-A1SF.svg","response":0,"trial_type":"image-button-response","trial_index":117,"time_elapsed":715681,"internal_node_id":"0.0-4.0-0.55","subject_id":"611a2c1ca8f92b2b84567cf8","study_id":"6197b3f67c2b5cd3b6d9596a","session_id":"6197b5cbeccb8bf063118836","condition":"full-information","relevant_dimensions":["pattern","legs"],"bee_group":{"antennae":"X","wings":"X","pattern":"S","legs":"M"},"action":"harvest","summary":"good-harvest","bonus":0.700000000000001},{"rt":1644.5,"stimulus":"\n                    <p><b>Action: <em>harvest</em></b></p>\n                    <p>This is the bee that you just saw.</p>\n                    <img src=\"bees-with-color/bee-A1SF.svg\" width=\"200\">\n                    <p><span class=\"greenText\"><b>Successful harvest!</b></span><br>Your pay has increased by $0.02. Your bonus pay is now $0.78.</p>\n            ","response":0,"trial_type":"html-button-response","trial_index":118,"time_elapsed":717327,"internal_node_id":"0.0-4.0-1.55","subject_id":"611a2c1ca8f92b2b84567cf8","study_id":"6197b3f67c2b5cd3b6d9596a","session_id":"6197b5cbeccb8bf063118836","condition":"full-information","relevant_dimensions":["pattern","legs"],"bee_group":{"antennae":"X","wings":"X","pattern":"S","legs":"M"},"bonus":0.700000000000001},{"rt":3296.7000000476837,"stimulus":"bees-with-color/bee-B2SM.svg","response":1,"trial_type":"image-button-response","trial_index":119,"time_elapsed":720625,"internal_node_id":"0.0-4.0-0.56","subject_id":"611a2c1ca8f92b2b84567cf8","study_id":"6197b3f67c2b5cd3b6d9596a","session_id":"6197b5cbeccb8bf063118836","condition":"full-information","relevant_dimensions":["pattern","legs"],"bee_group":{"antennae":"X","wings":"X","pattern":"S","legs":"M"},"action":"avoid","summary":"good-avoid","bonus":0.700000000000001},{"rt":1744.7999999523163,"stimulus":"\n                    <p><b>Action: <em>avoid</em></b></p>\n                    <p>This is the bee that you just saw.</p>\n                    <img src=\"bees-with-color/bee-B2SM.svg\" width=\"200\">\n                    <p><span class=\"greenText\">Good choice!</span>  This bee would have stung you.<br>Your bonus pay is unchanged, and remains at $0.78.</p>\n            ","response":0,"trial_type":"html-button-response","trial_index":120,"time_elapsed":722371,"internal_node_id":"0.0-4.0-1.56","subject_id":"611a2c1ca8f92b2b84567cf8","study_id":"6197b3f67c2b5cd3b6d9596a","session_id":"6197b5cbeccb8bf063118836","condition":"full-information","relevant_dimensions":["pattern","legs"],"bee_group":{"antennae":"X","wings":"X","pattern":"S","legs":"M"},"bonus":0.700000000000001},{"rt":17708.399999976158,"stimulus":"bees-with-color/bee-A2SM.svg","response":1,"trial_type":"image-button-response","trial_index":121,"time_elapsed":740081,"internal_node_id":"0.0-4.0-0.57","subject_id":"611a2c1ca8f92b2b84567cf8","study_id":"6197b3f67c2b5cd3b6d9596a","session_id":"6197b5cbeccb8bf063118836","condition":"full-information","relevant_dimensions":["pattern","legs"],"bee_group":{"antennae":"X","wings":"X","pattern":"S","legs":"M"},"action":"avoid","summary":"good-avoid","bonus":0.700000000000001},{"rt":2018.6000000238419,"stimulus":"\n                    <p><b>Action: <em>avoid</em></b></p>\n                    <p>This is the bee that you just saw.</p>\n                    <img src=\"bees-with-color/bee-A2SM.svg\" width=\"200\">\n                    <p><span class=\"greenText\">Good choice!</span>  This bee would have stung you.<br>Your bonus pay is unchanged, and remains at $0.78.</p>\n            ","response":0,"trial_type":"html-button-response","trial_index":122,"time_elapsed":742101,"internal_node_id":"0.0-4.0-1.57","subject_id":"611a2c1ca8f92b2b84567cf8","study_id":"6197b3f67c2b5cd3b6d9596a","session_id":"6197b5cbeccb8bf063118836","condition":"full-information","relevant_dimensions":["pattern","legs"],"bee_group":{"antennae":"X","wings":"X","pattern":"S","legs":"M"},"bonus":0.700000000000001},{"rt":7626.199999928474,"stimulus":"bees-with-color/bee-B1DM.svg","response":0,"trial_type":"image-button-response","trial_index":123,"time_elapsed":749729,"internal_node_id":"0.0-4.0-0.58","subject_id":"611a2c1ca8f92b2b84567cf8","study_id":"6197b3f67c2b5cd3b6d9596a","session_id":"6197b5cbeccb8bf063118836","condition":"full-information","relevant_dimensions":["pattern","legs"],"bee_group":{"antennae":"X","wings":"X","pattern":"S","legs":"M"},"action":"harvest","summary":"good-harvest","bonus":0.700000000000001},{"rt":1461.7000000476837,"stimulus":"\n                    <p><b>Action: <em>harvest</em></b></p>\n                    <p>This is the bee that you just saw.</p>\n                    <img src=\"bees-with-color/bee-B1DM.svg\" width=\"200\">\n                    <p><span class=\"greenText\"><b>Successful harvest!</b></span><br>Your pay has increased by $0.02. Your bonus pay is now $0.80.</p>\n            ","response":0,"trial_type":"html-button-response","trial_index":124,"time_elapsed":751192,"internal_node_id":"0.0-4.0-1.58","subject_id":"611a2c1ca8f92b2b84567cf8","study_id":"6197b3f67c2b5cd3b6d9596a","session_id":"6197b5cbeccb8bf063118836","condition":"full-information","relevant_dimensions":["pattern","legs"],"bee_group":{"antennae":"X","wings":"X","pattern":"S","legs":"M"},"bonus":0.700000000000001},{"rt":4116.5,"stimulus":"bees-with-color/bee-B2DF.svg","response":1,"trial_type":"image-button-response","trial_index":125,"time_elapsed":755310,"internal_node_id":"0.0-4.0-0.59","subject_id":"611a2c1ca8f92b2b84567cf8","study_id":"6197b3f67c2b5cd3b6d9596a","session_id":"6197b5cbeccb8bf063118836","condition":"full-information","relevant_dimensions":["pattern","legs"],"bee_group":{"antennae":"X","wings":"X","pattern":"S","legs":"M"},"action":"avoid","summary":"bad-avoid","bonus":0.700000000000001},{"rt":4060.899999976158,"stimulus":"\n                    <p><b>Action: <em>avoid</em></b></p>\n                    <p>This is the bee that you just saw.</p>\n                    <img src=\"bees-with-color/bee-B2DF.svg\" width=\"200\">\n                    <p><span class=\"redText\">Bad choice,</span> the bee was friendly.<br>Your bonus pay is unchanged, and remains at $0.80.</p>\n            ","response":0,"trial_type":"html-button-response","trial_index":126,"time_elapsed":759373,"internal_node_id":"0.0-4.0-1.59","subject_id":"611a2c1ca8f92b2b84567cf8","study_id":"6197b3f67c2b5cd3b6d9596a","session_id":"6197b5cbeccb8bf063118836","condition":"full-information","relevant_dimensions":["pattern","legs"],"bee_group":{"antennae":"X","wings":"X","pattern":"S","legs":"M"},"bonus":0.700000000000001},{"rt":3352.2000000476837,"stimulus":"bees-with-color/bee-A1DF.svg","response":0,"trial_type":"image-button-response","trial_index":127,"time_elapsed":762727,"internal_node_id":"0.0-4.0-0.60","subject_id":"611a2c1ca8f92b2b84567cf8","study_id":"6197b3f67c2b5cd3b6d9596a","session_id":"6197b5cbeccb8bf063118836","condition":"full-information","relevant_dimensions":["pattern","legs"],"bee_group":{"antennae":"X","wings":"X","pattern":"S","legs":"M"},"action":"harvest","summary":"good-harvest","bonus":0.700000000000001},{"rt":2252.600000023842,"stimulus":"\n                    <p><b>Action: <em>harvest</em></b></p>\n                    <p>This is the bee that you just saw.</p>\n                    <img src=\"bees-with-color/bee-A1DF.svg\" width=\"200\">\n                    <p><span class=\"greenText\"><b>Successful harvest!</b></span><br>Your pay has increased by $0.02. Your bonus pay is now $0.82.</p>\n            ","response":0,"trial_type":"html-button-response","trial_index":128,"time_elapsed":764981,"internal_node_id":"0.0-4.0-1.60","subject_id":"611a2c1ca8f92b2b84567cf8","study_id":"6197b3f67c2b5cd3b6d9596a","session_id":"6197b5cbeccb8bf063118836","condition":"full-information","relevant_dimensions":["pattern","legs"],"bee_group":{"antennae":"X","wings":"X","pattern":"S","legs":"M"},"bonus":0.700000000000001},{"rt":5526.299999952316,"stimulus":"bees-with-color/bee-A2DM.svg","response":0,"trial_type":"image-button-response","trial_index":129,"time_elapsed":770509,"internal_node_id":"0.0-4.0-0.61","subject_id":"611a2c1ca8f92b2b84567cf8","study_id":"6197b3f67c2b5cd3b6d9596a","session_id":"6197b5cbeccb8bf063118836","condition":"full-information","relevant_dimensions":["pattern","legs"],"bee_group":{"antennae":"X","wings":"X","pattern":"S","legs":"M"},"action":"harvest","summary":"good-harvest","bonus":0.700000000000001},{"rt":4452.5,"stimulus":"\n                    <p><b>Action: <em>harvest</em></b></p>\n                    <p>This is the bee that you just saw.</p>\n                    <img src=\"bees-with-color/bee-A2DM.svg\" width=\"200\">\n                    <p><span class=\"greenText\"><b>Successful harvest!</b></span><br>Your pay has increased by $0.02. Your bonus pay is now $0.84.</p>\n            ","response":0,"trial_type":"html-button-response","trial_index":130,"time_elapsed":774963,"internal_node_id":"0.0-4.0-1.61","subject_id":"611a2c1ca8f92b2b84567cf8","study_id":"6197b3f67c2b5cd3b6d9596a","session_id":"6197b5cbeccb8bf063118836","condition":"full-information","relevant_dimensions":["pattern","legs"],"bee_group":{"antennae":"X","wings":"X","pattern":"S","legs":"M"},"bonus":0.700000000000001},{"rt":5924.200000047684,"stimulus":"bees-with-color/bee-B1DF.svg","response":1,"trial_type":"image-button-response","trial_index":131,"time_elapsed":780889,"internal_node_id":"0.0-4.0-0.62","subject_id":"611a2c1ca8f92b2b84567cf8","study_id":"6197b3f67c2b5cd3b6d9596a","session_id":"6197b5cbeccb8bf063118836","condition":"full-information","relevant_dimensions":["pattern","legs"],"bee_group":{"antennae":"X","wings":"X","pattern":"S","legs":"M"},"action":"avoid","summary":"bad-avoid","bonus":0.700000000000001},{"rt":2072.100000023842,"stimulus":"\n                    <p><b>Action: <em>avoid</em></b></p>\n                    <p>This is the bee that you just saw.</p>\n                    <img src=\"bees-with-color/bee-B1DF.svg\" width=\"200\">\n                    <p><span class=\"redText\">Bad choice,</span> the bee was friendly.<br>Your bonus pay is unchanged, and remains at $0.84.</p>\n            ","response":0,"trial_type":"html-button-response","trial_index":132,"time_elapsed":782963,"internal_node_id":"0.0-4.0-1.62","subject_id":"611a2c1ca8f92b2b84567cf8","study_id":"6197b3f67c2b5cd3b6d9596a","session_id":"6197b5cbeccb8bf063118836","condition":"full-information","relevant_dimensions":["pattern","legs"],"bee_group":{"antennae":"X","wings":"X","pattern":"S","legs":"M"},"bonus":0.700000000000001},{"rt":12648.100000023842,"stimulus":"bees-with-color/bee-B2DM.svg","response":1,"trial_type":"image-button-response","trial_index":133,"time_elapsed":795613,"internal_node_id":"0.0-4.0-0.63","subject_id":"611a2c1ca8f92b2b84567cf8","study_id":"6197b3f67c2b5cd3b6d9596a","session_id":"6197b5cbeccb8bf063118836","condition":"full-information","relevant_dimensions":["pattern","legs"],"bee_group":{"antennae":"X","wings":"X","pattern":"S","legs":"M"},"action":"avoid","summary":"bad-avoid","bonus":0.700000000000001},{"rt":1628.2999999523163,"stimulus":"\n                    <p><b>Action: <em>avoid</em></b></p>\n                    <p>This is the bee that you just saw.</p>\n                    <img src=\"bees-with-color/bee-B2DM.svg\" width=\"200\">\n                    <p><span class=\"redText\">Bad choice,</span> the bee was friendly.<br>Your bonus pay is unchanged, and remains at $0.84.</p>\n            ","response":0,"trial_type":"html-button-response","trial_index":134,"time_elapsed":797243,"internal_node_id":"0.0-4.0-1.63","subject_id":"611a2c1ca8f92b2b84567cf8","study_id":"6197b3f67c2b5cd3b6d9596a","session_id":"6197b5cbeccb8bf063118836","condition":"full-information","relevant_dimensions":["pattern","legs"],"bee_group":{"antennae":"X","wings":"X","pattern":"S","legs":"M"},"bonus":0.700000000000001},{"rt":11070,"stimulus":"You have completed the first part of this experiment.<br><br>You will now begin a shorter second part, in which you will receive no feedback.<br>The same rules regarding bonus pay apply.<br><br>Press any key to begin.","response":" ","trial_type":"html-keyboard-response","trial_index":135,"time_elapsed":808316,"internal_node_id":"0.0-5.0","subject_id":"611a2c1ca8f92b2b84567cf8","study_id":"6197b3f67c2b5cd3b6d9596a","session_id":"6197b5cbeccb8bf063118836","condition":"full-information","relevant_dimensions":["pattern","legs"],"bee_group":{"antennae":"X","wings":"X","pattern":"S","legs":"M"},"bonus":0.700000000000001},{"rt":13982.799999952316,"stimulus":"bees-with-color/bee-B1DF.svg","response":0,"trial_type":"image-button-response","trial_index":136,"time_elapsed":822309,"internal_node_id":"0.0-6.0-0.0","subject_id":"611a2c1ca8f92b2b84567cf8","study_id":"6197b3f67c2b5cd3b6d9596a","session_id":"6197b5cbeccb8bf063118836","condition":"full-information","relevant_dimensions":["pattern","legs"],"bee_group":{"antennae":"X","wings":"X","pattern":"S","legs":"M"},"bonus":0.700000000000001},{"rt":3551,"stimulus":"bees-with-color/bee-B1SF.svg","response":1,"trial_type":"image-button-response","trial_index":137,"time_elapsed":825863,"internal_node_id":"0.0-6.0-0.1","subject_id":"611a2c1ca8f92b2b84567cf8","study_id":"6197b3f67c2b5cd3b6d9596a","session_id":"6197b5cbeccb8bf063118836","condition":"full-information","relevant_dimensions":["pattern","legs"],"bee_group":{"antennae":"X","wings":"X","pattern":"S","legs":"M"},"bonus":0.700000000000001},{"rt":2103.5999999046326,"stimulus":"bees-with-color/bee-B2SM.svg","response":1,"trial_type":"image-button-response","trial_index":138,"time_elapsed":827969,"internal_node_id":"0.0-6.0-0.2","subject_id":"611a2c1ca8f92b2b84567cf8","study_id":"6197b3f67c2b5cd3b6d9596a","session_id":"6197b5cbeccb8bf063118836","condition":"full-information","relevant_dimensions":["pattern","legs"],"bee_group":{"antennae":"X","wings":"X","pattern":"S","legs":"M"},"bonus":0.700000000000001},{"rt":2765.6999999284744,"stimulus":"bees-with-color/bee-A2SM.svg","response":0,"trial_type":"image-button-response","trial_index":139,"time_elapsed":830737,"internal_node_id":"0.0-6.0-0.3","subject_id":"611a2c1ca8f92b2b84567cf8","study_id":"6197b3f67c2b5cd3b6d9596a","session_id":"6197b5cbeccb8bf063118836","condition":"full-information","relevant_dimensions":["pattern","legs"],"bee_group":{"antennae":"X","wings":"X","pattern":"S","legs":"M"},"bonus":0.700000000000001},{"rt":2375,"stimulus":"bees-with-color/bee-A2SF.svg","response":0,"trial_type":"image-button-response","trial_index":140,"time_elapsed":833115,"internal_node_id":"0.0-6.0-0.4","subject_id":"611a2c1ca8f92b2b84567cf8","study_id":"6197b3f67c2b5cd3b6d9596a","session_id":"6197b5cbeccb8bf063118836","condition":"full-information","relevant_dimensions":["pattern","legs"],"bee_group":{"antennae":"X","wings":"X","pattern":"S","legs":"M"},"bonus":0.700000000000001},{"rt":5192,"stimulus":"bees-with-color/bee-A1DF.svg","response":0,"trial_type":"image-button-response","trial_index":141,"time_elapsed":838309,"internal_node_id":"0.0-6.0-0.5","subject_id":"611a2c1ca8f92b2b84567cf8","study_id":"6197b3f67c2b5cd3b6d9596a","session_id":"6197b5cbeccb8bf063118836","condition":"full-information","relevant_dimensions":["pattern","legs"],"bee_group":{"antennae":"X","wings":"X","pattern":"S","legs":"M"},"bonus":0.700000000000001},{"rt":2679.399999976158,"stimulus":"bees-with-color/bee-A1DM.svg","response":0,"trial_type":"image-button-response","trial_index":142,"time_elapsed":840991,"internal_node_id":"0.0-6.0-0.6","subject_id":"611a2c1ca8f92b2b84567cf8","study_id":"6197b3f67c2b5cd3b6d9596a","session_id":"6197b5cbeccb8bf063118836","condition":"full-information","relevant_dimensions":["pattern","legs"],"bee_group":{"antennae":"X","wings":"X","pattern":"S","legs":"M"},"bonus":0.700000000000001},{"rt":2195.2999999523163,"stimulus":"bees-with-color/bee-B1DM.svg","response":1,"trial_type":"image-button-response","trial_index":143,"time_elapsed":843189,"internal_node_id":"0.0-6.0-0.7","subject_id":"611a2c1ca8f92b2b84567cf8","study_id":"6197b3f67c2b5cd3b6d9596a","session_id":"6197b5cbeccb8bf063118836","condition":"full-information","relevant_dimensions":["pattern","legs"],"bee_group":{"antennae":"X","wings":"X","pattern":"S","legs":"M"},"bonus":0.700000000000001},{"rt":2017.5,"stimulus":"bees-with-color/bee-A2DF.svg","response":0,"trial_type":"image-button-response","trial_index":144,"time_elapsed":845209,"internal_node_id":"0.0-6.0-0.8","subject_id":"611a2c1ca8f92b2b84567cf8","study_id":"6197b3f67c2b5cd3b6d9596a","session_id":"6197b5cbeccb8bf063118836","condition":"full-information","relevant_dimensions":["pattern","legs"],"bee_group":{"antennae":"X","wings":"X","pattern":"S","legs":"M"},"bonus":0.700000000000001},{"rt":1472,"stimulus":"bees-with-color/bee-A2DM.svg","response":0,"trial_type":"image-button-response","trial_index":145,"time_elapsed":846683,"internal_node_id":"0.0-6.0-0.9","subject_id":"611a2c1ca8f92b2b84567cf8","study_id":"6197b3f67c2b5cd3b6d9596a","session_id":"6197b5cbeccb8bf063118836","condition":"full-information","relevant_dimensions":["pattern","legs"],"bee_group":{"antennae":"X","wings":"X","pattern":"S","legs":"M"},"bonus":0.700000000000001},{"rt":1824.2999999523163,"stimulus":"bees-with-color/bee-B1SM.svg","response":1,"trial_type":"image-button-response","trial_index":146,"time_elapsed":848509,"internal_node_id":"0.0-6.0-0.10","subject_id":"611a2c1ca8f92b2b84567cf8","study_id":"6197b3f67c2b5cd3b6d9596a","session_id":"6197b5cbeccb8bf063118836","condition":"full-information","relevant_dimensions":["pattern","legs"],"bee_group":{"antennae":"X","wings":"X","pattern":"S","legs":"M"},"bonus":0.700000000000001},{"rt":1470.1000000238419,"stimulus":"bees-with-color/bee-A1SM.svg","response":0,"trial_type":"image-button-response","trial_index":147,"time_elapsed":849981,"internal_node_id":"0.0-6.0-0.11","subject_id":"611a2c1ca8f92b2b84567cf8","study_id":"6197b3f67c2b5cd3b6d9596a","session_id":"6197b5cbeccb8bf063118836","condition":"full-information","relevant_dimensions":["pattern","legs"],"bee_group":{"antennae":"X","wings":"X","pattern":"S","legs":"M"},"bonus":0.700000000000001},{"rt":2596.2000000476837,"stimulus":"bees-with-color/bee-B2SF.svg","response":1,"trial_type":"image-button-response","trial_index":148,"time_elapsed":852579,"internal_node_id":"0.0-6.0-0.12","subject_id":"611a2c1ca8f92b2b84567cf8","study_id":"6197b3f67c2b5cd3b6d9596a","session_id":"6197b5cbeccb8bf063118836","condition":"full-information","relevant_dimensions":["pattern","legs"],"bee_group":{"antennae":"X","wings":"X","pattern":"S","legs":"M"},"bonus":0.700000000000001},{"rt":1525.5,"stimulus":"bees-with-color/bee-A1SF.svg","response":0,"trial_type":"image-button-response","trial_index":149,"time_elapsed":854107,"internal_node_id":"0.0-6.0-0.13","subject_id":"611a2c1ca8f92b2b84567cf8","study_id":"6197b3f67c2b5cd3b6d9596a","session_id":"6197b5cbeccb8bf063118836","condition":"full-information","relevant_dimensions":["pattern","legs"],"bee_group":{"antennae":"X","wings":"X","pattern":"S","legs":"M"},"bonus":0.700000000000001},{"rt":1902.2000000476837,"stimulus":"bees-with-color/bee-B2DF.svg","response":1,"trial_type":"image-button-response","trial_index":150,"time_elapsed":856011,"internal_node_id":"0.0-6.0-0.14","subject_id":"611a2c1ca8f92b2b84567cf8","study_id":"6197b3f67c2b5cd3b6d9596a","session_id":"6197b5cbeccb8bf063118836","condition":"full-information","relevant_dimensions":["pattern","legs"],"bee_group":{"antennae":"X","wings":"X","pattern":"S","legs":"M"},"bonus":0.700000000000001},{"rt":3000.100000023842,"stimulus":"bees-with-color/bee-B2DM.svg","response":1,"trial_type":"image-button-response","trial_index":151,"time_elapsed":859013,"internal_node_id":"0.0-6.0-0.15","subject_id":"611a2c1ca8f92b2b84567cf8","study_id":"6197b3f67c2b5cd3b6d9596a","session_id":"6197b5cbeccb8bf063118836","condition":"full-information","relevant_dimensions":["pattern","legs"],"bee_group":{"antennae":"X","wings":"X","pattern":"S","legs":"M"},"bonus":0.700000000000001},{"rt":1402.1000000238419,"stimulus":"bees-with-color/bee-A2DF.svg","response":0,"trial_type":"image-button-response","trial_index":152,"time_elapsed":860417,"internal_node_id":"0.0-6.0-0.16","subject_id":"611a2c1ca8f92b2b84567cf8","study_id":"6197b3f67c2b5cd3b6d9596a","session_id":"6197b5cbeccb8bf063118836","condition":"full-information","relevant_dimensions":["pattern","legs"],"bee_group":{"antennae":"X","wings":"X","pattern":"S","legs":"M"},"bonus":0.700000000000001},{"rt":1620.6000000238419,"stimulus":"bees-with-color/bee-B1SM.svg","response":1,"trial_type":"image-button-response","trial_index":153,"time_elapsed":862039,"internal_node_id":"0.0-6.0-0.17","subject_id":"611a2c1ca8f92b2b84567cf8","study_id":"6197b3f67c2b5cd3b6d9596a","session_id":"6197b5cbeccb8bf063118836","condition":"full-information","relevant_dimensions":["pattern","legs"],"bee_group":{"antennae":"X","wings":"X","pattern":"S","legs":"M"},"bonus":0.700000000000001},{"rt":2032.3999999761581,"stimulus":"bees-with-color/bee-A2DM.svg","response":0,"trial_type":"image-button-response","trial_index":154,"time_elapsed":864073,"internal_node_id":"0.0-6.0-0.18","subject_id":"611a2c1ca8f92b2b84567cf8","study_id":"6197b3f67c2b5cd3b6d9596a","session_id":"6197b5cbeccb8bf063118836","condition":"full-information","relevant_dimensions":["pattern","legs"],"bee_group":{"antennae":"X","wings":"X","pattern":"S","legs":"M"},"bonus":0.700000000000001},{"rt":1972.2999999523163,"stimulus":"bees-with-color/bee-B1DF.svg","response":1,"trial_type":"image-button-response","trial_index":155,"time_elapsed":866047,"internal_node_id":"0.0-6.0-0.19","subject_id":"611a2c1ca8f92b2b84567cf8","study_id":"6197b3f67c2b5cd3b6d9596a","session_id":"6197b5cbeccb8bf063118836","condition":"full-information","relevant_dimensions":["pattern","legs"],"bee_group":{"antennae":"X","wings":"X","pattern":"S","legs":"M"},"bonus":0.700000000000001},{"rt":1308.5,"stimulus":"bees-with-color/bee-A2SF.svg","response":0,"trial_type":"image-button-response","trial_index":156,"time_elapsed":867357,"internal_node_id":"0.0-6.0-0.20","subject_id":"611a2c1ca8f92b2b84567cf8","study_id":"6197b3f67c2b5cd3b6d9596a","session_id":"6197b5cbeccb8bf063118836","condition":"full-information","relevant_dimensions":["pattern","legs"],"bee_group":{"antennae":"X","wings":"X","pattern":"S","legs":"M"},"bonus":0.700000000000001},{"rt":1348.5,"stimulus":"bees-with-color/bee-A1SF.svg","response":0,"trial_type":"image-button-response","trial_index":157,"time_elapsed":868707,"internal_node_id":"0.0-6.0-0.21","subject_id":"611a2c1ca8f92b2b84567cf8","study_id":"6197b3f67c2b5cd3b6d9596a","session_id":"6197b5cbeccb8bf063118836","condition":"full-information","relevant_dimensions":["pattern","legs"],"bee_group":{"antennae":"X","wings":"X","pattern":"S","legs":"M"},"bonus":0.700000000000001},{"rt":1254.5,"stimulus":"bees-with-color/bee-A2SM.svg","response":0,"trial_type":"image-button-response","trial_index":158,"time_elapsed":869963,"internal_node_id":"0.0-6.0-0.22","subject_id":"611a2c1ca8f92b2b84567cf8","study_id":"6197b3f6