[{"success":true,"trial_type":"fullscreen","trial_index":0,"time_elapsed":2910,"internal_node_id":"0.0-0.0","subject_id":"615f8c8d45198ac90f82d89e","study_id":"6197b3f67c2b5cd3b6d9596a","session_id":"6197b9e543f66f8a2cbb79e0","condition":"contingent","relevant_dimensions":["antennae","legs"],"bee_group":{"antennae":"A","wings":"X","pattern":"X","legs":"F"},"bonus":0.02},{"success":true,"timeout":false,"failed_images":[],"failed_audio":[],"failed_video":[],"trial_type":"preload","trial_index":1,"time_elapsed":3045,"internal_node_id":"0.0-1.0","subject_id":"615f8c8d45198ac90f82d89e","study_id":"6197b3f67c2b5cd3b6d9596a","session_id":"6197b9e543f66f8a2cbb79e0","condition":"contingent","relevant_dimensions":["antennae","legs"],"bee_group":{"antennae":"A","wings":"X","pattern":"X","legs":"F"},"bonus":0.02},{"rt":1590.6000000089407,"stimulus":"Welcome! Press any key to begin.","response":" ","trial_type":"html-keyboard-response","trial_index":2,"time_elapsed":4637,"internal_node_id":"0.0-2.0","subject_id":"615f8c8d45198ac90f82d89e","study_id":"6197b3f67c2b5cd3b6d9596a","session_id":"6197b9e543f66f8a2cbb79e0","condition":"contingent","relevant_dimensions":["antennae","legs"],"bee_group":{"antennae":"A","wings":"X","pattern":"X","legs":"F"},"bonus":0.02},{"view_history":[{"page_index":0,"viewing_time":2336.699999988079},{"page_index":1,"viewing_time":3093.800000011921},{"page_index":2,"viewing_time":1986},{"page_index":3,"viewing_time":1517},{"page_index":4,"viewing_time":1999.0999999940395},{"page_index":5,"viewing_time":893.9000000059605},{"page_index":6,"viewing_time":1144.0999999940395},{"page_index":7,"viewing_time":3455.9000000059605},{"page_index":8,"viewing_time":3480.0999999940395},{"page_index":9,"viewing_time":4015},{"page_index":10,"viewing_time":1635.0999999940395},{"page_index":11,"viewing_time":1672.9000000059605},{"page_index":12,"viewing_time":4029},{"page_index":13,"viewing_time":1331},{"page_index":14,"viewing_time":1504}],"rt":34093.89999999106,"trial_type":"instructions","trial_index":3,"time_elapsed":38732,"internal_node_id":"0.0-3.0-0.0","subject_id":"615f8c8d45198ac90f82d89e","study_id":"6197b3f67c2b5cd3b6d9596a","session_id":"6197b9e543f66f8a2cbb79e0","condition":"contingent","relevant_dimensions":["antennae","legs"],"bee_group":{"antennae":"A","wings":"X","pattern":"X","legs":"F"},"bonus":0.02},{"rt":7241.5,"response":{"Q0":["Two or six legs","Stripes or spots on body","Single or double wings","Antennae or no antennae"]},"question_order":[0],"trial_type":"survey-multi-select","trial_index":4,"time_elapsed":45981,"internal_node_id":"0.0-3.0-1.0","subject_id":"615f8c8d45198ac90f82d89e","study_id":"6197b3f67c2b5cd3b6d9596a","session_id":"6197b9e543f66f8a2cbb79e0","condition":"contingent","relevant_dimensions":["antennae","legs"],"bee_group":{"antennae":"A","wings":"X","pattern":"X","legs":"F"},"correct":true,"bonus":0.02},{"rt":20146.79999999702,"response":{"Q1":"Yes.","Q2":"Based on the four features of the bee.","Q3":"You do not learn if it was friendly or dangerous, and do not alter your bonus."},"question_order":[0,1,2],"trial_type":"survey-multi-choice","trial_index":5,"time_elapsed":66132,"internal_node_id":"0.0-3.0-2.0","subject_id":"615f8c8d45198ac90f82d89e","study_id":"6197b3f67c2b5cd3b6d9596a","session_id":"6197b9e543f66f8a2cbb79e0","condition":"contingent","relevant_dimensions":["antennae","legs"],"bee_group":{"antennae":"A","wings":"X","pattern":"X","legs":"F"},"correct":false,"bonus":0.02},{"rt":5333.5,"stimulus":"<p>You did not answer all comprehension questions correctly.<br>Press <b>continue</b> to review the instructions again.</p>","response":0,"trial_type":"html-button-response","trial_index":6,"time_elapsed":71470,"internal_node_id":"0.0-3.0-3.0","subject_id":"615f8c8d45198ac90f82d89e","study_id":"6197b3f67c2b5cd3b6d9596a","session_id":"6197b9e543f66f8a2cbb79e0","condition":"contingent","relevant_dimensions":["antennae","legs"],"bee_group":{"antennae":"A","wings":"X","pattern":"X","legs":"F"},"bonus":0.02},{"view_history":[{"page_index":0,"viewing_time":2963.5999999940395},{"page_index":1,"viewing_time":7109.100000008941},{"page_index":2,"viewing_time":10699.79999999702},{"page_index":3,"viewing_time":2555.0999999940395},{"page_index":4,"viewing_time":4399.9000000059605},{"page_index":5,"viewing_time":925},{"page_index":6,"viewing_time":11881.09999999404},{"page_index":7,"viewing_time":1572.1000000089407},{"page_index":8,"viewing_time":507.70000000298023},{"page_index":9,"viewing_time":588.2999999970198},{"page_index":10,"viewing_time":853},{"page_index":11,"viewing_time":1115.8999999910593},{"page_index":12,"viewing_time":1490.9000000059605},{"page_index":13,"viewing_time":987.0999999940395},{"page_index":14,"viewing_time":725.1000000089407}],"rt":48374.09999999404,"trial_type":"instructions","trial_index":7,"time_elapsed":119846,"internal_node_id":"0.0-3.0-4.0-0.0","subject_id":"615f8c8d45198ac90f82d89e","study_id":"6197b3f67c2b5cd3b6d9596a","session_id":"6197b9e543f66f8a2cbb79e0","condition":"contingent","relevant_dimensions":["antennae","legs"],"bee_group":{"antennae":"A","wings":"X","pattern":"X","legs":"F"},"bonus":0.02},{"rt":9697.90000000596,"response":{"Q0":["Two or six legs","Stripes or spots on body","Single or double wings","Antennae or no antennae"]},"question_order":[0],"trial_type":"survey-multi-select","trial_index":8,"time_elapsed":129548,"internal_node_id":"0.0-3.0-4.0-1.0","subject_id":"615f8c8d45198ac90f82d89e","study_id":"6197b3f67c2b5cd3b6d9596a","session_id":"6197b9e543f66f8a2cbb79e0","condition":"contingent","relevant_dimensions":["antennae","legs"],"bee_group":{"antennae":"A","wings":"X","pattern":"X","legs":"F"},"correct":true,"bonus":0.02},{"rt":20570.10000000894,"response":{"Q1":"No.","Q2":"Based on the four features of the bee.","Q3":"You do not learn if it was friendly or dangerous, and do not alter your bonus."},"question_order":[0,1,2],"trial_type":"survey-multi-choice","trial_index":9,"time_elapsed":150122,"internal_node_id":"0.0-3.0-4.0-2.0","subject_id":"615f8c8d45198ac90f82d89e","study_id":"6197b3f67c2b5cd3b6d9596a","session_id":"6197b9e543f66f8a2cbb79e0","condition":"contingent","relevant_dimensions":["antennae","legs"],"bee_group":{"antennae":"A","wings":"X","pattern":"X","legs":"F"},"correct":true,"bonus":0.02},{"rt":2577,"stimulus":"<p>Congrats, you got everything right<br>When you're ready, click the button below to continue to the experiment.</p>","response":0,"trial_type":"html-button-response","trial_index":10,"time_elapsed":152702,"internal_node_id":"0.0-3.0-4.0-3.0","subject_id":"615f8c8d45198ac90f82d89e","study_id":"6197b3f67c2b5cd3b6d9596a","session_id":"6197b9e543f66f8a2cbb79e0","condition":"contingent","relevant_dimensions":["antennae","legs"],"bee_group":{"antennae":"A","wings":"X","pattern":"X","legs":"F"},"bonus":0.02},{"rt":8914.800000011921,"stimulus":"bees-with-color/bee-A2SM.svg","response":0,"trial_type":"image-button-response","trial_index":11,"time_elapsed":161621,"internal_node_id":"0.0-4.0-0.0","subject_id":"615f8c8d45198ac90f82d89e","study_id":"6197b3f67c2b5cd3b6d9596a","session_id":"6197b9e543f66f8a2cbb79e0","condition":"contingent","relevant_dimensions":["antennae","legs"],"bee_group":{"antennae":"A","wings":"X","pattern":"X","legs":"F"},"action":"harvest","summary":"good-harvest","bonus":0.02},{"rt":5792.5999999940395,"stimulus":"\n                    <p><b>Action: <em>harvest</em></b></p>\n                    <p>This is the bee that you just saw.</p>\n                    <img src=\"bees-with-color/bee-A2SM.svg\" width=\"200\">\n                    <p><span class=\"greenText\"><b>Successful harvest!</b></span><br>Your pay has increased by $0.02. Your bonus pay is now $0.56.</p>\n            ","response":0,"trial_type":"html-button-response","trial_index":12,"time_elapsed":167416,"internal_node_id":"0.0-4.0-1.0","subject_id":"615f8c8d45198ac90f82d89e","study_id":"6197b3f67c2b5cd3b6d9596a","session_id":"6197b9e543f66f8a2cbb79e0","condition":"contingent","relevant_dimensions":["antennae","legs"],"bee_group":{"antennae":"A","wings":"X","pattern":"X","legs":"F"},"bonus":0.02},{"rt":3247.3999999910593,"stimulus":"bees-with-color/bee-A2DF.svg","response":1,"trial_type":"image-button-response","trial_index":13,"time_elapsed":170666,"internal_node_id":"0.0-4.0-0.1","subject_id":"615f8c8d45198ac90f82d89e","study_id":"6197b3f67c2b5cd3b6d9596a","session_id":"6197b9e543f66f8a2cbb79e0","condition":"contingent","relevant_dimensions":["antennae","legs"],"bee_group":{"antennae":"A","wings":"X","pattern":"X","legs":"F"},"action":"avoid","summary":"good-avoid","bonus":0.02},{"rt":9326,"stimulus":"\n                    <p><b>Action: <em>avoid</em></b></p>\n                    <p>This is the bee that you just saw.</p>\n                    <img src=\"bees-with-color/bee-A2DF.svg\" width=\"200\">\n                    <p><br>Your bonus pay is unchanged, and remains at $0.56.</p>\n            ","response":0,"trial_type":"html-button-response","trial_index":14,"time_elapsed":179994,"internal_node_id":"0.0-4.0-1.1","subject_id":"615f8c8d45198ac90f82d89e","study_id":"6197b3f67c2b5cd3b6d9596a","session_id":"6197b9e543f66f8a2cbb79e0","condition":"contingent","relevant_dimensions":["antennae","legs"],"bee_group":{"antennae":"A","wings":"X","pattern":"X","legs":"F"},"bonus":0.02},{"rt":3523.5,"stimulus":"bees-with-color/bee-A1SM.svg","response":0,"trial_type":"image-button-response","trial_index":15,"time_elapsed":183520,"internal_node_id":"0.0-4.0-0.2","subject_id":"615f8c8d45198ac90f82d89e","study_id":"6197b3f67c2b5cd3b6d9596a","session_id":"6197b9e543f66f8a2cbb79e0","condition":"contingent","relevant_dimensions":["antennae","legs"],"bee_group":{"antennae":"A","wings":"X","pattern":"X","legs":"F"},"action":"harvest","summary":"good-harvest","bonus":0.02},{"rt":4119,"stimulus":"\n                    <p><b>Action: <em>harvest</em></b></p>\n                    <p>This is the bee that you just saw.</p>\n                    <img src=\"bees-with-color/bee-A1SM.svg\" width=\"200\">\n                    <p><span class=\"greenText\"><b>Successful harvest!</b></span><br>Your pay has increased by $0.02. Your bonus pay is now $0.58.</p>\n            ","response":0,"trial_type":"html-button-response","trial_index":16,"time_elapsed":187641,"internal_node_id":"0.0-4.0-1.2","subject_id":"615f8c8d45198ac90f82d89e","study_id":"6197b3f67c2b5cd3b6d9596a","session_id":"6197b9e543f66f8a2cbb79e0","condition":"contingent","relevant_dimensions":["antennae","legs"],"bee_group":{"antennae":"A","wings":"X","pattern":"X","legs":"F"},"bonus":0.02},{"rt":4796.9000000059605,"stimulus":"bees-with-color/bee-B1SF.svg","response":0,"trial_type":"image-button-response","trial_index":17,"time_elapsed":192440,"internal_node_id":"0.0-4.0-0.3","subject_id":"615f8c8d45198ac90f82d89e","study_id":"6197b3f67c2b5cd3b6d9596a","session_id":"6197b9e543f66f8a2cbb79e0","condition":"contingent","relevant_dimensions":["antennae","legs"],"bee_group":{"antennae":"A","wings":"X","pattern":"X","legs":"F"},"action":"harvest","summary":"good-harvest","bonus":0.02},{"rt":2039.0999999940395,"stimulus":"\n                    <p><b>Action: <em>harvest</em></b></p>\n                    <p>This is the bee that you just saw.</p>\n                    <img src=\"bees-with-color/bee-B1SF.svg\" width=\"200\">\n                    <p><span class=\"greenText\"><b>Successful harvest!</b></span><br>Your pay has increased by $0.02. Your bonus pay is now $0.60.</p>\n            ","response":0,"trial_type":"html-button-response","trial_index":18,"time_elapsed":194481,"internal_node_id":"0.0-4.0-1.3","subject_id":"615f8c8d45198ac90f82d89e","study_id":"6197b3f67c2b5cd3b6d9596a","session_id":"6197b9e543f66f8a2cbb79e0","condition":"contingent","relevant_dimensions":["antennae","legs"],"bee_group":{"antennae":"A","wings":"X","pattern":"X","legs":"F"},"bonus":0.02},{"rt":4711,"stimulus":"bees-with-color/bee-B2SM.svg","response":1,"trial_type":"image-button-response","trial_index":19,"time_elapsed":199194,"internal_node_id":"0.0-4.0-0.4","subject_id":"615f8c8d45198ac90f82d89e","study_id":"6197b3f67c2b5cd3b6d9596a","session_id":"6197b9e543f66f8a2cbb79e0","condition":"contingent","relevant_dimensions":["antennae","legs"],"bee_group":{"antennae":"A","wings":"X","pattern":"X","legs":"F"},"action":"avoid","summary":"bad-avoid","bonus":0.02},{"rt":4401.4000000059605,"stimulus":"\n                    <p><b>Action: <em>avoid</em></b></p>\n                    <p>This is the bee that you just saw.</p>\n                    <img src=\"bees-with-color/bee-B2SM.svg\" width=\"200\">\n                    <p><br>Your bonus pay is unchanged, and remains at $0.60.</p>\n            ","response":0,"trial_type":"html-button-response","trial_index":20,"time_elapsed":203598,"internal_node_id":"0.0-4.0-1.4","subject_id":"615f8c8d45198ac90f82d89e","study_id":"6197b3f67c2b5cd3b6d9596a","session_id":"6197b9e543f66f8a2cbb79e0","condition":"contingent","relevant_dimensions":["antennae","legs"],"bee_group":{"antennae":"A","wings":"X","pattern":"X","legs":"F"},"bonus":0.02},{"rt":7156.4000000059605,"stimulus":"bees-with-color/bee-B2DM.svg","response":1,"trial_type":"image-button-response","trial_index":21,"time_elapsed":210756,"internal_node_id":"0.0-4.0-0.5","subject_id":"615f8c8d45198ac90f82d89e","study_id":"6197b3f67c2b5cd3b6d9596a","session_id":"6197b9e543f66f8a2cbb79e0","condition":"contingent","relevant_dimensions":["antennae","legs"],"bee_group":{"antennae":"A","wings":"X","pattern":"X","legs":"F"},"action":"avoid","summary":"bad-avoid","bonus":0.02},{"rt":1512.0999999940395,"stimulus":"\n                    <p><b>Action: <em>avoid</em></b></p>\n                    <p>This is the bee that you just saw.</p>\n                    <img src=\"bees-with-color/bee-B2DM.svg\" width=\"200\">\n                    <p><br>Your bonus pay is unchanged, and remains at $0.60.</p>\n            ","response":0,"trial_type":"html-button-response","trial_index":22,"time_elapsed":212270,"internal_node_id":"0.0-4.0-1.5","subject_id":"615f8c8d45198ac90f82d89e","study_id":"6197b3f67c2b5cd3b6d9596a","session_id":"6197b9e543f66f8a2cbb79e0","condition":"contingent","relevant_dimensions":["antennae","legs"],"bee_group":{"antennae":"A","wings":"X","pattern":"X","legs":"F"},"bonus":0.02},{"rt":2913.6000000089407,"stimulus":"bees-with-color/bee-A1SF.svg","response":0,"trial_type":"image-button-response","trial_index":23,"time_elapsed":215186,"internal_node_id":"0.0-4.0-0.6","subject_id":"615f8c8d45198ac90f82d89e","study_id":"6197b3f67c2b5cd3b6d9596a","session_id":"6197b9e543f66f8a2cbb79e0","condition":"contingent","relevant_dimensions":["antennae","legs"],"bee_group":{"antennae":"A","wings":"X","pattern":"X","legs":"F"},"action":"harvest","summary":"bad-harvest","bonus":0.02},{"rt":4904.29999999702,"stimulus":"\n                    <p><b>Action: <em>harvest</em></b></p>\n                    <p>This is the bee that you just saw.</p>\n                    <img src=\"bees-with-color/bee-A1SF.svg\" width=\"200\">\n                    <p><span class=\"redText\">Bad choice, the bee was angry.</span><br><b>You have been stung!</b><br>Your pay has been decreased by $0.10. Your bonus pay is now $0.50.</p>\n            ","response":0,"trial_type":"html-button-response","trial_index":24,"time_elapsed":220093,"internal_node_id":"0.0-4.0-1.6","subject_id":"615f8c8d45198ac90f82d89e","study_id":"6197b3f67c2b5cd3b6d9596a","session_id":"6197b9e543f66f8a2cbb79e0","condition":"contingent","relevant_dimensions":["antennae","legs"],"bee_group":{"antennae":"A","wings":"X","pattern":"X","legs":"F"},"bonus":0.02},{"rt":2329.4000000059605,"stimulus":"bees-with-color/bee-B1DM.svg","response":1,"trial_type":"image-button-response","trial_index":25,"time_elapsed":222424,"internal_node_id":"0.0-4.0-0.7","subject_id":"615f8c8d45198ac90f82d89e","study_id":"6197b3f67c2b5cd3b6d9596a","session_id":"6197b9e543f66f8a2cbb79e0","condition":"contingent","relevant_dimensions":["antennae","legs"],"bee_group":{"antennae":"A","wings":"X","pattern":"X","legs":"F"},"action":"avoid","summary":"bad-avoid","bonus":0.02},{"rt":865.2999999970198,"stimulus":"\n                    <p><b>Action: <em>avoid</em></b></p>\n                    <p>This is the bee that you just saw.</p>\n                    <img src=\"bees-with-color/bee-B1DM.svg\" width=\"200\">\n                    <p><br>Your bonus pay is unchanged, and remains at $0.50.</p>\n            ","response":0,"trial_type":"html-button-response","trial_index":26,"time_elapsed":223292,"internal_node_id":"0.0-4.0-1.7","subject_id":"615f8c8d45198ac90f82d89e","study_id":"6197b3f67c2b5cd3b6d9596a","session_id":"6197b9e543f66f8a2cbb79e0","condition":"contingent","relevant_dimensions":["antennae","legs"],"bee_group":{"antennae":"A","wings":"X","pattern":"X","legs":"F"},"bonus":0.02},{"rt":4602.600000008941,"stimulus":"bees-with-color/bee-A1DF.svg","response":1,"trial_type":"image-button-response","trial_index":27,"time_elapsed":227898,"internal_node_id":"0.0-4.0-0.8","subject_id":"615f8c8d45198ac90f82d89e","study_id":"6197b3f67c2b5cd3b6d9596a","session_id":"6197b9e543f66f8a2cbb79e0","condition":"contingent","relevant_dimensions":["antennae","legs"],"bee_group":{"antennae":"A","wings":"X","pattern":"X","legs":"F"},"action":"avoid","summary":"good-avoid","bonus":0.02},{"rt":1356.7999999970198,"stimulus":"\n                    <p><b>Action: <em>avoid</em></b></p>\n                    <p>This is the bee that you just saw.</p>\n                    <img src=\"bees-with-color/bee-A1DF.svg\" width=\"200\">\n                    <p><br>Your bonus pay is unchanged, and remains at $0.50.</p>\n            ","response":0,"trial_type":"html-button-response","trial_index":28,"time_elapsed":229257,"internal_node_id":"0.0-4.0-1.8","subject_id":"615f8c8d45198ac90f82d89e","study_id":"6197b3f67c2b5cd3b6d9596a","session_id":"6197b9e543f66f8a2cbb79e0","condition":"contingent","relevant_dimensions":["antennae","legs"],"bee_group":{"antennae":"A","wings":"X","pattern":"X","legs":"F"},"bonus":0.02},{"rt":2885.6000000089407,"stimulus":"bees-with-color/bee-A2DM.svg","response":1,"trial_type":"image-button-response","trial_index":29,"time_elapsed":232145,"internal_node_id":"0.0-4.0-0.9","subject_id":"615f8c8d45198ac90f82d89e","study_id":"6197b3f67c2b5cd3b6d9596a","session_id":"6197b9e543f66f8a2cbb79e0","condition":"contingent","relevant_dimensions":["antennae","legs"],"bee_group":{"antennae":"A","wings":"X","pattern":"X","legs":"F"},"action":"avoid","summary":"bad-avoid","bonus":0.02},{"rt":736.2999999970198,"stimulus":"\n                    <p><b>Action: <em>avoid</em></b></p>\n                    <p>This is the bee that you just saw.</p>\n                    <img src=\"bees-with-color/bee-A2DM.svg\" width=\"200\">\n                    <p><br>Your bonus pay is unchanged, and remains at $0.50.</p>\n            ","response":0,"trial_type":"html-button-response","trial_index":30,"time_elapsed":232884,"internal_node_id":"0.0-4.0-1.9","subject_id":"615f8c8d45198ac90f82d89e","study_id":"6197b3f67c2b5cd3b6d9596a","session_id":"6197b9e543f66f8a2cbb79e0","condition":"contingent","relevant_dimensions":["antennae","legs"],"bee_group":{"antennae":"A","wings":"X","pattern":"X","legs":"F"},"bonus":0.02},{"rt":3578,"stimulus":"bees-with-color/bee-A1DM.svg","response":0,"trial_type":"image-button-response","trial_index":31,"time_elapsed":236464,"internal_node_id":"0.0-4.0-0.10","subject_id":"615f8c8d45198ac90f82d89e","study_id":"6197b3f67c2b5cd3b6d9596a","session_id":"6197b9e543f66f8a2cbb79e0","condition":"contingent","relevant_dimensions":["antennae","legs"],"bee_group":{"antennae":"A","wings":"X","pattern":"X","legs":"F"},"action":"harvest","summary":"good-harvest","bonus":0.02},{"rt":3619.9000000059605,"stimulus":"\n                    <p><b>Action: <em>harvest</em></b></p>\n                    <p>This is the bee that you just saw.</p>\n                    <img src=\"bees-with-color/bee-A1DM.svg\" width=\"200\">\n                    <p><span class=\"greenText\"><b>Successful harvest!</b></span><br>Your pay has increased by $0.02. Your bonus pay is now $0.52.</p>\n            ","response":0,"trial_type":"html-button-response","trial_index":32,"time_elapsed":240086,"internal_node_id":"0.0-4.0-1.10","subject_id":"615f8c8d45198ac90f82d89e","study_id":"6197b3f67c2b5cd3b6d9596a","session_id":"6197b9e543f66f8a2cbb79e0","condition":"contingent","relevant_dimensions":["antennae","legs"],"bee_group":{"antennae":"A","wings":"X","pattern":"X","legs":"F"},"bonus":0.02},{"rt":2775.6000000089407,"stimulus":"bees-with-color/bee-B2SF.svg","response":0,"trial_type":"image-button-response","trial_index":33,"time_elapsed":242864,"internal_node_id":"0.0-4.0-0.11","subject_id":"615f8c8d45198ac90f82d89e","study_id":"6197b3f67c2b5cd3b6d9596a","session_id":"6197b9e543f66f8a2cbb79e0","condition":"contingent","relevant_dimensions":["antennae","legs"],"bee_group":{"antennae":"A","wings":"X","pattern":"X","legs":"F"},"action":"harvest","summary":"good-harvest","bonus":0.02},{"rt":2673.0999999940395,"stimulus":"\n                    <p><b>Action: <em>harvest</em></b></p>\n                    <p>This is the bee that you just saw.</p>\n                    <img src=\"bees-with-color/bee-B2SF.svg\" width=\"200\">\n                    <p><span class=\"greenText\"><b>Successful harvest!</b></span><br>Your pay has increased by $0.02. Your bonus pay is now $0.54.</p>\n            ","response":0,"trial_type":"html-button-response","trial_index":34,"time_elapsed":245539,"internal_node_id":"0.0-4.0-1.11","subject_id":"615f8c8d45198ac90f82d89e","study_id":"6197b3f67c2b5cd3b6d9596a","session_id":"6197b9e543f66f8a2cbb79e0","condition":"contingent","relevant_dimensions":["antennae","legs"],"bee_group":{"antennae":"A","wings":"X","pattern":"X","legs":"F"},"bonus":0.02},{"rt":2860.8999999910593,"stimulus":"bees-with-color/bee-B2DF.svg","response":0,"trial_type":"image-button-response","trial_index":35,"time_elapsed":248402,"internal_node_id":"0.0-4.0-0.12","subject_id":"615f8c8d45198ac90f82d89e","study_id":"6197b3f67c2b5cd3b6d9596a","session_id":"6197b9e543f66f8a2cbb79e0","condition":"contingent","relevant_dimensions":["antennae","legs"],"bee_group":{"antennae":"A","wings":"X","pattern":"X","legs":"F"},"action":"harvest","summary":"good-harvest","bonus":0.02},{"rt":5288.5,"stimulus":"\n                    <p><b>Action: <em>harvest</em></b></p>\n                    <p>This is the bee that you just saw.</p>\n                    <img src=\"bees-with-color/bee-B2DF.svg\" width=\"200\">\n                    <p><span class=\"greenText\"><b>Successful harvest!</b></span><br>Your pay has increased by $0.02. Your bonus pay is now $0.56.</p>\n            ","response":0,"trial_type":"html-button-response","trial_index":36,"time_elapsed":253692,"internal_node_id":"0.0-4.0-1.12","subject_id":"615f8c8d45198ac90f82d89e","study_id":"6197b3f67c2b5cd3b6d9596a","session_id":"6197b9e543f66f8a2cbb79e0","condition":"contingent","relevant_dimensions":["antennae","legs"],"bee_group":{"antennae":"A","wings":"X","pattern":"X","legs":"F"},"bonus":0.02},{"rt":4236.70000000298,"stimulus":"bees-with-color/bee-B1SM.svg","response":0,"trial_type":"image-button-response","trial_index":37,"time_elapsed":257931,"internal_node_id":"0.0-4.0-0.13","subject_id":"615f8c8d45198ac90f82d89e","study_id":"6197b3f67c2b5cd3b6d9596a","session_id":"6197b9e543f66f8a2cbb79e0","condition":"contingent","relevant_dimensions":["antennae","legs"],"bee_group":{"antennae":"A","wings":"X","pattern":"X","legs":"F"},"action":"harvest","summary":"good-harvest","bonus":0.02},{"rt":2400.4000000059605,"stimulus":"\n                    <p><b>Action: <em>harvest</em></b></p>\n                    <p>This is the bee that you just saw.</p>\n                    <img src=\"bees-with-color/bee-B1SM.svg\" width=\"200\">\n                    <p><span class=\"greenText\"><b>Successful harvest!</b></span><br>Your pay has increased by $0.02. Your bonus pay is now $0.58.</p>\n            ","response":0,"trial_type":"html-button-response","trial_index":38,"time_elapsed":260334,"internal_node_id":"0.0-4.0-1.13","subject_id":"615f8c8d45198ac90f82d89e","study_id":"6197b3f67c2b5cd3b6d9596a","session_id":"6197b9e543f66f8a2cbb79e0","condition":"contingent","relevant_dimensions":["antennae","legs"],"bee_group":{"antennae":"A","wings":"X","pattern":"X","legs":"F"},"bonus":0.02},{"rt":5187.79999999702,"stimulus":"bees-with-color/bee-B1DF.svg","response":0,"trial_type":"image-button-response","trial_index":39,"time_elapsed":265523,"internal_node_id":"0.0-4.0-0.14","subject_id":"615f8c8d45198ac90f82d89e","study_id":"6197b3f67c2b5cd3b6d9596a","session_id":"6197b9e543f66f8a2cbb79e0","condition":"contingent","relevant_dimensions":["antennae","legs"],"bee_group":{"antennae":"A","wings":"X","pattern":"X","legs":"F"},"action":"harvest","summary":"good-harvest","bonus":0.02},{"rt":1742.2000000029802,"stimulus":"\n                    <p><b>Action: <em>harvest</em></b></p>\n                    <p>This is the bee that you just saw.</p>\n                    <img src=\"bees-with-color/bee-B1DF.svg\" width=\"200\">\n                    <p><span class=\"greenText\"><b>Successful harvest!</b></span><br>Your pay has increased by $0.02. Your bonus pay is now $0.60.</p>\n            ","response":0,"trial_type":"html-button-response","trial_index":40,"time_elapsed":267267,"internal_node_id":"0.0-4.0-1.14","subject_id":"615f8c8d45198ac90f82d89e","study_id":"6197b3f67c2b5cd3b6d9596a","session_id":"6197b9e543f66f8a2cbb79e0","condition":"contingent","relevant_dimensions":["antennae","legs"],"bee_group":{"antennae":"A","wings":"X","pattern":"X","legs":"F"},"bonus":0.02},{"rt":2831.9000000059605,"stimulus":"bees-with-color/bee-A2SF.svg","response":1,"trial_type":"image-button-response","trial_index":41,"time_elapsed":270101,"internal_node_id":"0.0-4.0-0.15","subject_id":"615f8c8d45198ac90f82d89e","study_id":"6197b3f67c2b5cd3b6d9596a","session_id":"6197b9e543f66f8a2cbb79e0","condition":"contingent","relevant_dimensions":["antennae","legs"],"bee_group":{"antennae":"A","wings":"X","pattern":"X","legs":"F"},"action":"avoid","summary":"good-avoid","bonus":0.02},{"rt":2485.4000000059605,"stimulus":"\n                    <p><b>Action: <em>avoid</em></b></p>\n                    <p>This is the bee that you just saw.</p>\n                    <img src=\"bees-with-color/bee-A2SF.svg\" width=\"200\">\n                    <p><br>Your bonus pay is unchanged, and remains at $0.60.</p>\n            ","response":0,"trial_type":"html-button-response","trial_index":42,"time_elapsed":272589,"internal_node_id":"0.0-4.0-1.15","subject_id":"615f8c8d45198ac90f82d89e","study_id":"6197b3f67c2b5cd3b6d9596a","session_id":"6197b9e543f66f8a2cbb79e0","condition":"contingent","relevant_dimensions":["antennae","legs"],"bee_group":{"antennae":"A","wings":"X","pattern":"X","legs":"F"},"bonus":0.02},{"rt":4489.79999999702,"stimulus":"bees-with-color/bee-A1SM.svg","response":1,"trial_type":"image-button-response","trial_index":43,"time_elapsed":277080,"internal_node_id":"0.0-4.0-0.16","subject_id":"615f8c8d45198ac90f82d89e","study_id":"6197b3f67c2b5cd3b6d9596a","session_id":"6197b9e543f66f8a2cbb79e0","condition":"contingent","relevant_dimensions":["antennae","legs"],"bee_group":{"antennae":"A","wings":"X","pattern":"X","legs":"F"},"action":"avoid","summary":"bad-avoid","bonus":0.02},{"rt":1706.1000000089407,"stimulus":"\n                    <p><b>Action: <em>avoid</em></b></p>\n                    <p>This is the bee that you just saw.</p>\n                    <img src=\"bees-with-color/bee-A1SM.svg\" width=\"200\">\n                    <p><br>Your bonus pay is unchanged, and remains at $0.60.</p>\n            ","response":0,"trial_type":"html-button-response","trial_index":44,"time_elapsed":278788,"internal_node_id":"0.0-4.0-1.16","subject_id":"615f8c8d45198ac90f82d89e","study_id":"6197b3f67c2b5cd3b6d9596a","session_id":"6197b9e543f66f8a2cbb79e0","condition":"contingent","relevant_dimensions":["antennae","legs"],"bee_group":{"antennae":"A","wings":"X","pattern":"X","legs":"F"},"bonus":0.02},{"rt":3956.2000000029802,"stimulus":"bees-with-color/bee-B2SM.svg","response":0,"trial_type":"image-button-response","trial_index":45,"time_elapsed":282746,"internal_node_id":"0.0-4.0-0.17","subject_id":"615f8c8d45198ac90f82d89e","study_id":"6197b3f67c2b5cd3b6d9596a","session_id":"6197b9e543f66f8a2cbb79e0","condition":"contingent","relevant_dimensions":["antennae","legs"],"bee_group":{"antennae":"A","wings":"X","pattern":"X","legs":"F"},"action":"harvest","summary":"good-harvest","bonus":0.02},{"rt":3050.2000000029802,"stimulus":"\n                    <p><b>Action: <em>harvest</em></b></p>\n                    <p>This is the bee that you just saw.</p>\n                    <img src=\"bees-with-color/bee-B2SM.svg\" width=\"200\">\n                    <p><span class=\"greenText\"><b>Successful harvest!</b></span><br>Your pay has increased by $0.02. Your bonus pay is now $0.62.</p>\n            ","response":0,"trial_type":"html-button-response","trial_index":46,"time_elapsed":285798,"internal_node_id":"0.0-4.0-1.17","subject_id":"615f8c8d45198ac90f82d89e","study_id":"6197b3f67c2b5cd3b6d9596a","session_id":"6197b9e543f66f8a2cbb79e0","condition":"contingent","relevant_dimensions":["antennae","legs"],"bee_group":{"antennae":"A","wings":"X","pattern":"X","legs":"F"},"bonus":0.02},{"rt":3926.9000000059605,"stimulus":"bees-with-color/bee-B1SF.svg","response":0,"trial_type":"image-button-response","trial_index":47,"time_elapsed":289727,"internal_node_id":"0.0-4.0-0.18","subject_id":"615f8c8d45198ac90f82d89e","study_id":"6197b3f67c2b5cd3b6d9596a","session_id":"6197b9e543f66f8a2cbb79e0","condition":"contingent","relevant_dimensions":["antennae","legs"],"bee_group":{"antennae":"A","wings":"X","pattern":"X","legs":"F"},"action":"harvest","summary":"good-harvest","bonus":0.02},{"rt":2355.2000000029802,"stimulus":"\n                    <p><b>Action: <em>harvest</em></b></p>\n                    <p>This is the bee that you just saw.</p>\n                    <img src=\"bees-with-color/bee-B1SF.svg\" width=\"200\">\n                    <p><span class=\"greenText\"><b>Successful harvest!</b></span><br>Your pay has increased by $0.02. Your bonus pay is now $0.64.</p>\n            ","response":0,"trial_type":"html-button-response","trial_index":48,"time_elapsed":292084,"internal_node_id":"0.0-4.0-1.18","subject_id":"615f8c8d45198ac90f82d89e","study_id":"6197b3f67c2b5cd3b6d9596a","session_id":"6197b9e543f66f8a2cbb79e0","condition":"contingent","relevant_dimensions":["antennae","legs"],"bee_group":{"antennae":"A","wings":"X","pattern":"X","legs":"F"},"bonus":0.02},{"rt":3093,"stimulus":"bees-with-color/bee-A2SF.svg","response":1,"trial_type":"image-button-response","trial_index":49,"time_elapsed":295179,"internal_node_id":"0.0-4.0-0.19","subject_id":"615f8c8d45198ac90f82d89e","study_id":"6197b3f67c2b5cd3b6d9596a","session_id":"6197b9e543f66f8a2cbb79e0","condition":"contingent","relevant_dimensions":["antennae","legs"],"bee_group":{"antennae":"A","wings":"X","pattern":"X","legs":"F"},"action":"avoid","summary":"good-avoid","bonus":0.02},{"rt":1081,"stimulus":"\n                    <p><b>Action: <em>avoid</em></b></p>\n                    <p>This is the bee that you just saw.</p>\n                    <img src=\"bees-with-color/bee-A2SF.svg\" width=\"200\">\n                    <p><br>Your bonus pay is unchanged, and remains at $0.64.</p>\n            ","response":0,"trial_type":"html-button-response","trial_index":50,"time_elapsed":296262,"internal_node_id":"0.0-4.0-1.19","subject_id":"615f8c8d45198ac90f82d89e","study_id":"6197b3f67c2b5cd3b6d9596a","session_id":"6197b9e543f66f8a2cbb79e0","condition":"contingent","relevant_dimensions":["antennae","legs"],"bee_group":{"antennae":"A","wings":"X","pattern":"X","legs":"F"},"bonus":0.02},{"rt":3039.199999988079,"stimulus":"bees-with-color/bee-A1SF.svg","response":1,"trial_type":"image-button-response","trial_index":51,"time_elapsed":299304,"internal_node_id":"0.0-4.0-0.20","subject_id":"615f8c8d45198ac90f82d89e","study_id":"6197b3f67c2b5cd3b6d9596a","session_id":"6197b9e543f66f8a2cbb79e0","condition":"contingent","relevant_dimensions":["antennae","legs"],"bee_group":{"antennae":"A","wings":"X","pattern":"X","legs":"F"},"action":"avoid","summary":"good-avoid","bonus":0.02},{"rt":3356.7999999970198,"stimulus":"\n                    <p><b>Action: <em>avoid</em></b></p>\n                    <p>This is the bee that you just saw.</p>\n                    <img src=\"bees-with-color/bee-A1SF.svg\" width=\"200\">\n                    <p><br>Your bonus pay is unchanged, and remains at $0.64.</p>\n            ","response":0,"trial_type":"html-button-response","trial_index":52,"time_elapsed":302663,"internal_node_id":"0.0-4.0-1.20","subject_id":"615f8c8d45198ac90f82d89e","study_id":"6197b3f67c2b5cd3b6d9596a","session_id":"6197b9e543f66f8a2cbb79e0","condition":"contingent","relevant_dimensions":["antennae","legs"],"bee_group":{"antennae":"A","wings":"X","pattern":"X","legs":"F"},"bonus":0.02},{"rt":4808.399999991059,"stimulus":"bees-with-color/bee-A1DM.svg","response":0,"trial_type":"image-button-response","trial_index":53,"time_elapsed":307474,"internal_node_id":"0.0-4.0-0.21","subject_id":"615f8c8d45198ac90f82d89e","study_id":"6197b3f67c2b5cd3b6d9596a","session_id":"6197b9e543f66f8a2cbb79e0","condition":"contingent","relevant_dimensions":["antennae","legs"],"bee_group":{"antennae":"A","wings":"X","pattern":"X","legs":"F"},"action":"harvest","summary":"good-harvest","bonus":0.02},{"rt":2013.1000000089407,"stimulus":"\n                    <p><b>Action: <em>harvest</em></b></p>\n                    <p>This is the bee that you just saw.</p>\n                    <img src=\"bees-with-color/bee-A1DM.svg\" width=\"200\">\n                    <p><span class=\"greenText\"><b>Successful harvest!</b></span><br>Your pay has increased by $0.02. Your bonus pay is now $0.66.</p>\n            ","response":0,"trial_type":"html-button-response","trial_index":54,"time_elapsed":309489,"internal_node_id":"0.0-4.0-1.21","subject_id":"615f8c8d45198ac90f82d89e","study_id":"6197b3f67c2b5cd3b6d9596a","session_id":"6197b9e543f66f8a2cbb79e0","condition":"contingent","relevant_dimensions":["antennae","legs"],"bee_group":{"antennae":"A","wings":"X","pattern":"X","legs":"F"},"bonus":0.02},{"rt":2820.6000000089407,"stimulus":"bees-with-color/bee-B2DF.svg","response":1,"trial_type":"image-button-response","trial_index":55,"time_elapsed":312312,"internal_node_id":"0.0-4.0-0.22","subject_id":"615f8c8d45198ac90f82d89e","study_id":"6197b3f67c2b5cd3b6d9596a","session_id":"6197b9e543f66f8a2cbb79e0","condition":"contingent","relevant_dimensions":["antennae","legs"],"bee_group":{"antennae":"A","wings":"X","pattern":"X","legs":"F"},"action":"avoid","summary":"bad-avoid","bonus":0.02},{"rt":2118.800000011921,"stimulus":"\n                    <p><b>Action: <em>avoid</em></b></p>\n                    <p>This is the bee that you just saw.</p>\n                    <img src=\"bees-with-color/bee-B2DF.svg\" width=\"200\">\n                    <p><br>Your bonus pay is unchanged, and remains at $0.66.</p>\n            ","response":0,"trial_type":"html-button-response","trial_index":56,"time_elapsed":314433,"internal_node_id":"0.0-4.0-1.22","subject_id":"615f8c8d45198ac90f82d89e","study_id":"6197b3f67c2b5cd3b6d9596a","session_id":"6197b9e543f66f8a2cbb79e0","condition":"contingent","relevant_dimensions":["antennae","legs"],"bee_group":{"antennae":"A","wings":"X","pattern":"X","legs":"F"},"bonus":0.02},{"rt":2903.9000000059605,"stimulus":"bees-with-color/bee-B1DF.svg","response":1,"trial_type":"image-button-response","trial_index":57,"time_elapsed":317339,"internal_node_id":"0.0-4.0-0.23","subject_id":"615f8c8d45198ac90f82d89e","study_id":"6197b3f67c2b5cd3b6d9596a","session_id":"6197b9e543f66f8a2cbb79e0","condition":"contingent","relevant_dimensions":["antennae","legs"],"bee_group":{"antennae":"A","wings":"X","pattern":"X","legs":"F"},"action":"avoid","summary":"bad-avoid","bonus":0.02},{"rt":1034.2000000029802,"stimulus":"\n                    <p><b>Action: <em>avoid</em></b></p>\n                    <p>This is the bee that you just saw.</p>\n                    <img src=\"bees-with-color/bee-B1DF.svg\" width=\"200\">\n                    <p><br>Your bonus pay is unchanged, and remains at $0.66.</p>\n            ","response":0,"trial_type":"html-button-response","trial_index":58,"time_elapsed":318375,"internal_node_id":"0.0-4.0-1.23","subject_id":"615f8c8d45198ac90f82d89e","study_id":"6197b3f67c2b5cd3b6d9596a","session_id":"6197b9e543f66f8a2cbb79e0","condition":"contingent","relevant_dimensions":["antennae","legs"],"bee_group":{"antennae":"A","wings":"X","pattern":"X","legs":"F"},"bonus":0.02},{"rt":2945.2000000029802,"stimulus":"bees-with-color/bee-B2SF.svg","response":0,"trial_type":"image-button-response","trial_index":59,"time_elapsed":321322,"internal_node_id":"0.0-4.0-0.24","subject_id":"615f8c8d45198ac90f82d89e","study_id":"6197b3f67c2b5cd3b6d9596a","session_id":"6197b9e543f66f8a2cbb79e0","condition":"contingent","relevant_dimensions":["antennae","legs"],"bee_group":{"antennae":"A","wings":"X","pattern":"X","legs":"F"},"action":"harvest","summary":"good-harvest","bonus":0.02},{"rt":3845.2999999970198,"stimulus":"\n                    <p><b>Action: <em>harvest</em></b></p>\n                    <p>This is the bee that you just saw.</p>\n                    <img src=\"bees-with-color/bee-B2SF.svg\" width=\"200\">\n                    <p><span class=\"greenText\"><b>Successful harvest!</b></span><br>Your pay has increased by $0.02. Your bonus pay is now $0.68.</p>\n            ","response":0,"trial_type":"html-button-response","trial_index":60,"time_elapsed":325169,"internal_node_id":"0.0-4.0-1.24","subject_id":"615f8c8d45198ac90f82d89e","study_id":"6197b3f67c2b5cd3b6d9596a","session_id":"6197b9e543f66f8a2cbb79e0","condition":"contingent","relevant_dimensions":["antennae","legs"],"bee_group":{"antennae":"A","wings":"X","pattern":"X","legs":"F"},"bonus":0.02},{"rt":3141.8999999910593,"stimulus":"bees-with-color/bee-A1DF.svg","response":1,"trial_type":"image-button-response","trial_index":61,"time_elapsed":328313,"internal_node_id":"0.0-4.0-0.25","subject_id":"615f8c8d45198ac90f82d89e","study_id":"6197b3f67c2b5cd3b6d9596a","session_id":"6197b9e543f66f8a2cbb79e0","condition":"contingent","relevant_dimensions":["antennae","legs"],"bee_group":{"antennae":"A","wings":"X","pattern":"X","legs":"F"},"action":"avoid","summary":"good-avoid","bonus":0.02},{"rt":1273.7999999970198,"stimulus":"\n                    <p><b>Action: <em>avoid</em></b></p>\n                    <p>This is the bee that you just saw.</p>\n                    <img src=\"bees-with-color/bee-A1DF.svg\" width=\"200\">\n                    <p><br>Your bonus pay is unchanged, and remains at $0.68.</p>\n            ","response":0,"trial_type":"html-button-response","trial_index":62,"time_elapsed":329589,"internal_node_id":"0.0-4.0-1.25","subject_id":"615f8c8d45198ac90f82d89e","study_id":"6197b3f67c2b5cd3b6d9596a","session_id":"6197b9e543f66f8a2cbb79e0","condition":"contingent","relevant_dimensions":["antennae","legs"],"bee_group":{"antennae":"A","wings":"X","pattern":"X","legs":"F"},"bonus":0.02},{"rt":3936,"stimulus":"bees-with-color/bee-A2DM.svg","response":0,"trial_type":"image-button-response","trial_index":63,"time_elapsed":333527,"internal_node_id":"0.0-4.0-0.26","subject_id":"615f8c8d45198ac90f82d89e","study_id":"6197b3f67c2b5cd3b6d9596a","session_id":"6197b9e543f66f8a2cbb79e0","condition":"contingent","relevant_dimensions":["antennae","legs"],"bee_group":{"antennae":"A","wings":"X","pattern":"X","legs":"F"},"action":"harvest","summary":"good-harvest","bonus":0.02},{"rt":1502.300000011921,"stimulus":"\n                    <p><b>Action: <em>harvest</em></b></p>\n                    <p>This is the bee that you just saw.</p>\n                    <img src=\"bees-with-color/bee-A2DM.svg\" width=\"200\">\n                    <p><span class=\"greenText\"><b>Successful harvest!</b></span><br>Your pay has increased by $0.02. Your bonus pay is now $0.70.</p>\n            ","response":0,"trial_type":"html-button-response","trial_index":64,"time_elapsed":335031,"internal_node_id":"0.0-4.0-1.26","subject_id":"615f8c8d45198ac90f82d89e","study_id":"6197b3f67c2b5cd3b6d9596a","session_id":"6197b9e543f66f8a2cbb79e0","condition":"contingent","relevant_dimensions":["antennae","legs"],"bee_group":{"antennae":"A","wings":"X","pattern":"X","legs":"F"},"bonus":0.02},{"rt":4386.899999991059,"stimulus":"bees-with-color/bee-B1DM.svg","response":1,"trial_type":"image-button-response","trial_index":65,"time_elapsed":339420,"internal_node_id":"0.0-4.0-0.27","subject_id":"615f8c8d45198ac90f82d89e","study_id":"6197b3f67c2b5cd3b6d9596a","session_id":"6197b9e543f66f8a2cbb79e0","condition":"contingent","relevant_dimensions":["antennae","legs"],"bee_group":{"antennae":"A","wings":"X","pattern":"X","legs":"F"},"action":"avoid","summary":"bad-avoid","bonus":0.02},{"rt":1017.2999999970198,"stimulus":"\n                    <p><b>Action: <em>avoid</em></b></p>\n                    <p>This is the bee that you just saw.</p>\n                    <img src=\"bees-with-color/bee-B1DM.svg\" width=\"200\">\n                    <p><br>Your bonus pay is unchanged, and remains at $0.70.</p>\n            ","response":0,"trial_type":"html-button-response","trial_index":66,"time_elapsed":340439,"internal_node_id":"0.0-4.0-1.27","subject_id":"615f8c8d45198ac90f82d89e","study_id":"6197b3f67c2b5cd3b6d9596a","session_id":"6197b9e543f66f8a2cbb79e0","condition":"contingent","relevant_dimensions":["antennae","legs"],"bee_group":{"antennae":"A","wings":"X","pattern":"X","legs":"F"},"bonus":0.02},{"rt":2230,"stimulus":"bees-with-color/bee-B2DM.svg","response":1,"trial_type":"image-button-response","trial_index":67,"time_elapsed":342671,"internal_node_id":"0.0-4.0-0.28","subject_id":"615f8c8d45198ac90f82d89e","study_id":"6197b3f67c2b5cd3b6d9596a","session_id":"6197b9e543f66f8a2cbb79e0","condition":"contingent","relevant_dimensions":["antennae","legs"],"bee_group":{"antennae":"A","wings":"X","pattern":"X","legs":"F"},"action":"avoid","summary":"bad-avoid","bonus":0.02},{"rt":1421.2999999970198,"stimulus":"\n                    <p><b>Action: <em>avoid</em></b></p>\n                    <p>This is the bee that you just saw.</p>\n                    <img src=\"bees-with-color/bee-B2DM.svg\" width=\"200\">\n                    <p><br>Your bonus pay is unchanged, and remains at $0.70.</p>\n            ","response":0,"trial_type":"html-button-response","trial_index":68,"time_elapsed":344094,"internal_node_id":"0.0-4.0-1.28","subject_id":"615f8c8d45198ac90f82d89e","study_id":"6197b3f67c2b5cd3b6d9596a","session_id":"6197b9e543f66f8a2cbb79e0","condition":"contingent","relevant_dimensions":["antennae","legs"],"bee_group":{"antennae":"A","wings":"X","pattern":"X","legs":"F"},"bonus":0.02},{"rt":5108.70000000298,"stimulus":"bees-with-color/bee-A2DF.svg","response":0,"trial_type":"image-button-response","trial_index":69,"time_elapsed":349205,"internal_node_id":"0.0-4.0-0.29","subject_id":"615f8c8d45198ac90f82d89e","study_id":"6197b3f67c2b5cd3b6d9596a","session_id":"6197b9e543f66f8a2cbb79e0","condition":"contingent","relevant_dimensions":["antennae","legs"],"bee_group":{"antennae":"A","wings":"X","pattern":"X","legs":"F"},"action":"harvest","summary":"bad-harvest","bonus":0.02},{"rt":3473,"stimulus":"\n                    <p><b>Action: <em>harvest</em></b></p>\n                    <p>This is the bee that you just saw.</p>\n                    <img src=\"bees-with-color/bee-A2DF.svg\" width=\"200\">\n                    <p><span class=\"redText\">Bad choice, the bee was angry.</span><br><b>You have been stung!</b><br>Your pay has been decreased by $0.10. Your bonus pay is now $0.60.</p>\n            ","response":0,"trial_type":"html-button-response","trial_index":70,"time_elapsed":352680,"internal_node_id":"0.0-4.0-1.29","subject_id":"615f8c8d45198ac90f82d89e","study_id":"6197b3f67c2b5cd3b6d9596a","session_id":"6197b9e543f66f8a2cbb79e0","condition":"contingent","relevant_dimensions":["antennae","legs"],"bee_group":{"antennae":"A","wings":"X","pattern":"X","legs":"F"},"bonus":0.02},{"rt":4388.600000008941,"stimulus":"bees-with-color/bee-A2SM.svg","response":0,"trial_type":"image-button-response","trial_index":71,"time_elapsed":357071,"internal_node_id":"0.0-4.0-0.30","subject_id":"615f8c8d45198ac90f82d89e","study_id":"6197b3f67c2b5cd3b6d9596a","session_id":"6197b9e543f66f8a2cbb79e0","condition":"contingent","relevant_dimensions":["antennae","legs"],"bee_group":{"antennae":"A","wings":"X","pattern":"X","legs":"F"},"action":"harvest","summary":"good-harvest","bonus":0.02},{"rt":1583.2000000029802,"stimulus":"\n                    <p><b>Action: <em>harvest</em></b></p>\n                    <p>This is the bee that you just saw.</p>\n                    <img src=\"bees-with-color/bee-A2SM.svg\" width=\"200\">\n                    <p><span class=\"greenText\"><b>Successful harvest!</b></span><br>Your pay has increased by $0.02. Your bonus pay is now $0.62.</p>\n            ","response":0,"trial_type":"html-button-response","trial_index":72,"time_elapsed":358656,"internal_node_id":"0.0-4.0-1.30","subject_id":"615f8c8d45198ac90f82d89e","study_id":"6197b3f67c2b5cd3b6d9596a","session_id":"6197b9e543f66f8a2cbb79e0","condition":"contingent","relevant_dimensions":["antennae","legs"],"bee_group":{"antennae":"A","wings":"X","pattern":"X","legs":"F"},"bonus":0.02},{"rt":2545.7000000029802,"stimulus":"bees-with-color/bee-B1SM.svg","response":1,"trial_type":"image-button-response","trial_index":73,"time_elapsed":361204,"internal_node_id":"0.0-4.0-0.31","subject_id":"615f8c8d45198ac90f82d89e","study_id":"6197b3f67c2b5cd3b6d9596a","session_id":"6197b9e543f66f8a2cbb79e0","condition":"contingent","relevant_dimensions":["antennae","legs"],"bee_group":{"antennae":"A","wings":"X","pattern":"X","legs":"F"},"action":"avoid","summary":"bad-avoid","bonus":0.02},{"rt":1073.4000000059605,"stimulus":"\n                    <p><b>Action: <em>avoid</em></b></p>\n                    <p>This is the bee that you just saw.</p>\n                    <img src=\"bees-with-color/bee-B1SM.svg\" width=\"200\">\n                    <p><br>Your bonus pay is unchanged, and remains at $0.62.</p>\n            ","response":0,"trial_type":"html-button-response","trial_index":74,"time_elapsed":362279,"internal_node_id":"0.0-4.0-1.31","subject_id":"615f8c8d45198ac90f82d89e","study_id":"6197b3f67c2b5cd3b6d9596a","session_id":"6197b9e543f66f8a2cbb79e0","condition":"contingent","relevant_dimensions":["antennae","legs"],"bee_group":{"antennae":"A","wings":"X","pattern":"X","legs":"F"},"bonus":0.02},{"rt":4034.8999999910593,"stimulus":"bees-with-color/bee-B1DM.svg","response":0,"trial_type":"image-button-response","trial_index":75,"time_elapsed":366316,"internal_node_id":"0.0-4.0-0.32","subject_id":"615f8c8d45198ac90f82d89e","study_id":"6197b3f67c2b5cd3b6d9596a","session_id":"6197b9e543f66f8a2cbb79e0","condition":"contingent","relevant_dimensions":["antennae","legs"],"bee_group":{"antennae":"A","wings":"X","pattern":"X","legs":"F"},"action":"harvest","summary":"good-harvest","bonus":0.02},{"rt":1868.3999999910593,"stimulus":"\n                    <p><b>Action: <em>harvest</em></b></p>\n                    <p>This is the bee that you just saw.</p>\n                    <img src=\"bees-with-color/bee-B1DM.svg\" width=\"200\">\n                    <p><span class=\"greenText\"><b>Successful harvest!</b></span><br>Your pay has increased by $0.02. Your bonus pay is now $0.64.</p>\n            ","response":0,"trial_type":"html-button-response","trial_index":76,"time_elapsed":368187,"internal_node_id":"0.0-4.0-1.32","subject_id":"615f8c8d45198ac90f82d89e","study_id":"6197b3f67c2b5cd3b6d9596a","session_id":"6197b9e543f66f8a2cbb79e0","condition":"contingent","relevant_dimensions":["antennae","legs"],"bee_group":{"antennae":"A","wings":"X","pattern":"X","legs":"F"},"bonus":0.02},{"rt":4551.70000000298,"stimulus":"bees-with-color/bee-A1DF.svg","response":0,"trial_type":"image-button-response","trial_index":77,"time_elapsed":372741,"internal_node_id":"0.0-4.0-0.33","subject_id":"615f8c8d45198ac90f82d89e","study_id":"6197b3f67c2b5cd3b6d9596a","session_id":"6197b9e543f66f8a2cbb79e0","condition":"contingent","relevant_dimensions":["antennae","legs"],"bee_group":{"antennae":"A","wings":"X","pattern":"X","legs":"F"},"action":"harvest","summary":"bad-harvest","bonus":0.02},{"rt":2741,"stimulus":"\n                    <p><b>Action: <em>harvest</em></b></p>\n                    <p>This is the bee that you just saw.</p>\n                    <img src=\"bees-with-color/bee-A1DF.svg\" width=\"200\">\n                    <p><span class=\"redText\">Bad choice, the bee was angry.</span><br><b>You have been stung!</b><br>Your pay has been decreased by $0.10. Your bonus pay is now $0.54.</p>\n            ","response":0,"trial_type":"html-button-response","trial_index":78,"time_elapsed":375484,"internal_node_id":"0.0-4.0-1.33","subject_id":"615f8c8d45198ac90f82d89e","study_id":"6197b3f67c2b5cd3b6d9596a","session_id":"6197b9e543f66f8a2cbb79e0","condition":"contingent","relevant_dimensions":["antennae","legs"],"bee_group":{"antennae":"A","wings":"X","pattern":"X","legs":"F"},"bonus":0.02},{"rt":6151.5999999940395,"stimulus":"bees-with-color/bee-B2SF.svg","response":0,"trial_type":"image-button-response","trial_index":79,"time_elapsed":381638,"internal_node_id":"0.0-4.0-0.34","subject_id":"615f8c8d45198ac90f82d89e","study_id":"6197b3f67c2b5cd3b6d9596a","session_id":"6197b9e543f66f8a2cbb79e0","condition":"contingent","relevant_dimensions":["antennae","legs"],"bee_group":{"antennae":"A","wings":"X","pattern":"X","legs":"F"},"action":"harvest","summary":"good-harvest","bonus":0.02},{"rt":2086.4000000059605,"stimulus":"\n                    <p><b>Action: <em>harvest</em></b></p>\n                    <p>This is the bee that you just saw.</p>\n                    <img src=\"bees-with-color/bee-B2SF.svg\" width=\"200\">\n                    <p><span class=\"greenText\"><b>Successful harvest!</b></span><br>Your pay has increased by $0.02. Your bonus pay is now $0.56.</p>\n            ","response":0,"trial_type":"html-button-response","trial_index":80,"time_elapsed":383726,"internal_node_id":"0.0-4.0-1.34","subject_id":"615f8c8d45198ac90f82d89e","study_id":"6197b3f67c2b5cd3b6d9596a","session_id":"6197b9e543f66f8a2cbb79e0","condition":"contingent","relevant_dimensions":["antennae","legs"],"bee_group":{"antennae":"A","wings":"X","pattern":"X","legs":"F"},"bonus":0.02},{"rt":5068.800000011921,"stimulus":"bees-with-color/bee-A2SM.svg","response":0,"trial_type":"image-button-response","trial_index":81,"time_elapsed":388797,"internal_node_id":"0.0-4.0-0.35","subject_id":"615f8c8d45198ac90f82d89e","study_id":"6197b3f67c2b5cd3b6d9596a","session_id":"6197b9e543f66f8a2cbb79e0","condition":"contingent","relevant_dimensions":["antennae","legs"],"bee_group":{"antennae":"A","wings":"X","pattern":"X","legs":"F"},"action":"harvest","summary":"good-harvest","bonus":0.02},{"rt":1261.2000000029802,"stimulus":"\n                    <p><b>Action: <em>harvest</em></b></p>\n                    <p>This is the bee that you just saw.</p>\n                    <img src=\"bees-with-color/bee-A2SM.svg\" width=\"200\">\n                    <p><span class=\"greenText\"><b>Successful harvest!</b></span><br>Your pay has increased by $0.02. Your bonus pay is now $0.58.</p>\n            ","response":0,"trial_type":"html-button-response","trial_index":82,"time_elapsed":390060,"internal_node_id":"0.0-4.0-1.35","subject_id":"615f8c8d45198ac90f82d89e","study_id":"6197b3f67c2b5cd3b6d9596a","session_id":"6197b9e543f66f8a2cbb79e0","condition":"contingent","relevant_dimensions":["antennae","legs"],"bee_group":{"antennae":"A","wings":"X","pattern":"X","legs":"F"},"bonus":0.02},{"rt":2672.5,"stimulus":"bees-with-color/bee-B1SF.svg","response":0,"trial_type":"image-button-response","trial_index":83,"time_elapsed":392735,"internal_node_id":"0.0-4.0-0.36","subject_id":"615f8c8d45198ac90f82d89e","study_id":"6197b3f67c2b5cd3b6d9596a","session_id":"6197b9e543f66f8a2cbb79e0","condition":"contingent","relevant_dimensions":["antennae","legs"],"bee_group":{"antennae":"A","wings":"X","pattern":"X","legs":"F"},"action":"harvest","summary":"good-harvest","bonus":0.02},{"rt":1533.4000000059605,"stimulus":"\n                    <p><b>Action: <em>harvest</em></b></p>\n                    <p>This is the bee that you just saw.</p>\n                    <img src=\"bees-with-color/bee-B1SF.svg\" width=\"200\">\n                    <p><span class=\"greenText\"><b>Successful harvest!</b></span><br>Your pay has increased by $0.02. Your bonus pay is now $0.60.</p>\n            ","response":0,"trial_type":"html-button-response","trial_index":84,"time_elapsed":394270,"internal_node_id":"0.0-4.0-1.36","subject_id":"615f8c8d45198ac90f82d89e","study_id":"6197b3f67c2b5cd3b6d9596a","session_id":"6197b9e543f66f8a2cbb79e0","condition":"contingent","relevant_dimensions":["antennae","legs"],"bee_group":{"antennae":"A","wings":"X","pattern":"X","legs":"F"},"bonus":0.02},{"rt":2366.4000000059605,"stimulus":"bees-with-color/bee-A1SM.svg","response":0,"trial_type":"image-button-response","trial_index":85,"time_elapsed":396638,"internal_node_id":"0.0-4.0-0.37","subject_id":"615f8c8d45198ac90f82d89e","study_id":"6197b3f67c2b5cd3b6d9596a","session_id":"6197b9e543f66f8a2cbb79e0","condition":"contingent","relevant_dimensions":["antennae","legs"],"bee_group":{"antennae":"A","wings":"X","pattern":"X","legs":"F"},"action":"harvest","summary":"good-harvest","bonus":0.02},{"rt":1218.0999999940395,"stimulus":"\n                    <p><b>Action: <em>harvest</em></b></p>\n                    <p>This is the bee that you just saw.</p>\n                    <img src=\"bees-with-color/bee-A1SM.svg\" width=\"200\">\n                    <p><span class=\"greenText\"><b>Successful harvest!</b></span><br>Your pay has increased by $0.02. Your bonus pay is now $0.62.</p>\n            ","response":0,"trial_type":"html-button-response","trial_index":86,"time_elapsed":397858,"internal_node_id":"0.0-4.0-1.37","subject_id":"615f8c8d45198ac90f82d89e","study_id":"6197b3f67c2b5cd3b6d9596a","session_id":"6197b9e543f66f8a2cbb79e0","condition":"contingent","relevant_dimensions":["antennae","legs"],"bee_group":{"antennae":"A","wings":"X","pattern":"X","legs":"F"},"bonus":0.02},{"rt":2290.7999999970198,"stimulus":"bees-with-color/bee-A2SF.svg","response":1,"trial_type":"image-button-response","trial_index":87,"time_elapsed":400151,"internal_node_id":"0.0-4.0-0.38","subject_id":"615f8c8d45198ac90f82d89e","study_id":"6197b3f67c2b5cd3b6d9596a","session_id":"6197b9e543f66f8a2cbb79e0","condition":"contingent","relevant_dimensions":["antennae","legs"],"bee_group":{"antennae":"A","wings":"X","pattern":"X","legs":"F"},"action":"avoid","summary":"good-avoid","bonus":0.02},{"rt":1136.2000000029802,"stimulus":"\n                    <p><b>Action: <em>avoid</em></b></p>\n                    <p>This is the bee that you just saw.</p>\n                    <img src=\"bees-with-color/bee-A2SF.svg\" width=\"200\">\n                    <p><br>Your bonus pay is unchanged, and remains at $0.62.</p>\n            ","response":0,"trial_type":"html-button-response","trial_index":88,"time_elapsed":401289,"internal_node_id":"0.0-4.0-1.38","subject_id":"615f8c8d45198ac90f82d89e","study_id":"6197b3f67c2b5cd3b6d9596a","session_id":"6197b9e543f66f8a2cbb79e0","condition":"contingent","relevant_dimensions":["antennae","legs"],"bee_group":{"antennae":"A","wings":"X","pattern":"X","legs":"F"},"bonus":0.02},{"rt":3474,"stimulus":"bees-with-color/bee-B2DF.svg","response":1,"trial_type":"image-button-response","trial_index":89,"time_elapsed":404765,"internal_node_id":"0.0-4.0-0.39","subject_id":"615f8c8d45198ac90f82d89e","study_id":"6197b3f67c2b5cd3b6d9596a","session_id":"6197b9e543f66f8a2cbb79e0","condition":"contingent","relevant_dimensions":["antennae","legs"],"bee_group":{"antennae":"A","wings":"X","pattern":"X","legs":"F"},"action":"avoid","summary":"bad-avoid","bonus":0.02},{"rt":841.2999999970198,"stimulus":"\n                    <p><b>Action: <em>avoid</em></b></p>\n                    <p>This is the bee that you just saw.</p>\n                    <img src=\"bees-with-color/bee-B2DF.svg\" width=\"200\">\n                    <p><br>Your bonus pay is unchanged, and remains at $0.62.</p>\n            ","response":0,"trial_type":"html-button-response","trial_index":90,"time_elapsed":405608,"internal_node_id":"0.0-4.0-1.39","subject_id":"615f8c8d45198ac90f82d89e","study_id":"6197b3f67c2b5cd3b6d9596a","session_id":"6197b9e543f66f8a2cbb79e0","condition":"contingent","relevant_dimensions":["antennae","legs"],"bee_group":{"antennae":"A","wings":"X","pattern":"X","legs":"F"},"bonus":0.02},{"rt":1617.5,"stimulus":"bees-with-color/bee-A1SF.svg","response":0,"trial_type":"image-button-response","trial_index":91,"time_elapsed":407228,"internal_node_id":"0.0-4.0-0.40","subject_id":"615f8c8d45198ac90f82d89e","study_id":"6197b3f67c2b5cd3b6d9596a","session_id":"6197b9e543f66f8a2cbb79e0","condition":"contingent","relevant_dimensions":["antennae","legs"],"bee_group":{"antennae":"A","wings":"X","pattern":"X","legs":"F"},"action":"harvest","summary":"bad-harvest","bonus":0.02},{"rt":4593.9000000059605,"stimulus":"\n                    <p><b>Action: <em>harvest</em></b></p>\n                    <p>This is the bee that you just saw.</p>\n                    <img src=\"bees-with-color/bee-A1SF.svg\" width=\"200\">\n                    <p><span class=\"redText\">Bad choice, the bee was angry.</span><br><b>You have been stung!</b><br>Your pay has been decreased by $0.10. Your bonus pay is now $0.52.</p>\n            ","response":0,"trial_type":"html-button-response","trial_index":92,"time_elapsed":411824,"internal_node_id":"0.0-4.0-1.40","subject_id":"615f8c8d45198ac90f82d89e","study_id":"6197b3f67c2b5cd3b6d9596a","session_id":"6197b9e543f66f8a2cbb79e0","condition":"contingent","relevant_dimensions":["antennae","legs"],"bee_group":{"antennae":"A","wings":"X","pattern":"X","legs":"F"},"bonus":0.02},{"rt":2078,"stimulus":"bees-with-color/bee-A2DF.svg","response":0,"trial_type":"image-button-response","trial_index":93,"time_elapsed":413904,"internal_node_id":"0.0-4.0-0.41","subject_id":"615f8c8d45198ac90f82d89e","study_id":"6197b3f67c2b5cd3b6d9596a","session_id":"6197b9e543f66f8a2cbb79e0","condition":"contingent","relevant_dimensions":["antennae","legs"],"bee_group":{"antennae":"A","wings":"X","pattern":"X","legs":"F"},"action":"harvest","summary":"bad-harvest","bonus":0.02},{"rt":2402.9000000059605,"stimulus":"\n                    <p><b>Action: <em>harvest</em></b></p>\n                    <p>This is the bee that you just saw.</p>\n                    <img src=\"bees-with-color/bee-A2DF.svg\" width=\"200\">\n                    <p><span class=\"redText\">Bad choice, the bee was angry.</span><br><b>You have been stung!</b><br>Your pay has been decreased by $0.10. Your bonus pay is now $0.42.</p>\n            ","response":0,"trial_type":"html-button-response","trial_index":94,"time_elapsed":416309,"internal_node_id":"0.0-4.0-1.41","subject_id":"615f8c8d45198ac90f82d89e","study_id":"6197b3f67c2b5cd3b6d9596a","session_id":"6197b9e543f66f8a2cbb79e0","condition":"contingent","relevant_dimensions":["antennae","legs"],"bee_group":{"antennae":"A","wings":"X","pattern":"X","legs":"F"},"bonus":0.02},{"rt":1771.0999999940395,"stimulus":"bees-with-color/bee-B1DF.svg","response":0,"trial_type":"image-button-response","trial_index":95,"time_elapsed":418082,"internal_node_id":"0.0-4.0-0.42","subject_id":"615f8c8d45198ac90f82d89e","study_id":"6197b3f67c2b5cd3b6d9596a","session_id":"6197b9e543f66f8a2cbb79e0","condition":"contingent","relevant_dimensions":["antennae","legs"],"bee_group":{"antennae":"A","wings":"X","pattern":"X","legs":"F"},"action":"harvest","summary":"good-harvest","bonus":0.02},{"rt":2025.2000000029802,"stimulus":"\n                    <p><b>Action: <em>harvest</em></b></p>\n                    <p>This is the bee that you just saw.</p>\n                    <img src=\"bees-with-color/bee-B1DF.svg\" width=\"200\">\n                    <p><span class=\"greenText\"><b>Successful harvest!</b></span><br>Your pay has increased by $0.02. Your bonus pay is now $0.44.</p>\n            ","response":0,"trial_type":"html-button-response","trial_index":96,"time_elapsed":420109,"internal_node_id":"0.0-4.0-1.42","subject_id":"615f8c8d45198ac90f82d89e","study_id":"6197b3f67c2b5cd3b6d9596a","session_id":"6197b9e543f66f8a2cbb79e0","condition":"contingent","relevant_dimensions":["antennae","legs"],"bee_group":{"antennae":"A","wings":"X","pattern":"X","legs":"F"},"bonus":0.02},{"rt":10005.59999999404,"stimulus":"bees-with-color/bee-B2SM.svg","response":0,"trial_type":"image-button-response","trial_index":97,"time_elapsed":430117,"internal_node_id":"0.0-4.0-0.43","subject_id":"615f8c8d45198ac90f82d89e","study_id":"6197b3f67c2b5cd3b6d9596a","session_id":"6197b9e543f66f8a2cbb79e0","condition":"contingent","relevant_dimensions":["antennae","legs"],"bee_group":{"antennae":"A","wings":"X","pattern":"X","legs":"F"},"action":"harvest","summary":"good-harvest","bonus":0.02},{"rt":1384.5,"stimulus":"\n                    <p><b>Action: <em>harvest</em></b></p>\n                    <p>This is the bee that you just saw.</p>\n                    <img src=\"bees-with-color/bee-B2SM.svg\" width=\"200\">\n                    <p><span class=\"greenText\"><b>Successful harvest!</b></span><br>Your pay has increased by $0.02. Your bonus pay is now $0.46.</p>\n            ","response":0,"trial_type":"html-button-response","trial_index":98,"time_elapsed":431504,"internal_node_id":"0.0-4.0-1.43","subject_id":"615f8c8d45198ac90f82d89e","study_id":"6197b3f67c2b5cd3b6d9596a","session_id":"6197b9e543f66f8a2cbb79e0","condition":"contingent","relevant_dimensions":["antennae","legs"],"bee_group":{"antennae":"A","wings":"X","pattern":"X","legs":"F"},"bonus":0.02},{"rt":1790.4000000059605,"stimulus":"bees-with-color/bee-B2DM.svg","response":1,"trial_type":"image-button-response","trial_index":99,"time_elapsed":433297,"internal_node_id":"0.0-4.0-0.44","subject_id":"615f8c8d45198ac90f82d89e","study_id":"6197b3f67c2b5cd3b6d9596a","session_id":"6197b9e543f66f8a2cbb79e0","condition":"contingent","relevant_dimensions":["antennae","legs"],"bee_group":{"antennae":"A","wings":"X","pattern":"X","legs":"F"},"action":"avoid","summary":"bad-avoid","bonus":0.02},{"rt":1509.2000000029802,"stimulus":"\n                    <p><b>Action: <em>avoid</em></b></p>\n                    <p>This is the bee that you just saw.</p>\n                    <img src=\"bees-with-color/bee-B2DM.svg\" width=\"200\">\n                    <p><br>Your bonus pay is unchanged, and remains at $0.46.</p>\n            ","response":0,"trial_type":"html-button-response","trial_index":100,"time_elapsed":434808,"internal_node_id":"0.0-4.0-1.44","subject_id":"615f8c8d45198ac90f82d89e","study_id":"6197b3f67c2b5cd3b6d9596a","session_id":"6197b9e543f66f8a2cbb79e0","condition":"contingent","relevant_dimensions":["antennae","legs"],"bee_group":{"antennae":"A","wings":"X","pattern":"X","legs":"F"},"bonus":0.02},{"rt":1677,"stimulus":"bees-with-color/bee-B1SM.svg","response":1,"trial_type":"image-button-response","trial_index":101,"time_elapsed":436487,"internal_node_id":"0.0-4.0-0.45","subject_id":"615f8c8d45198ac90f82d89e","study_id":"6197b3f67c2b5cd3b6d9596a","session_id":"6197b9e543f66f8a2cbb79e0","condition":"contingent","relevant_dimensions":["antennae","legs"],"bee_group":{"antennae":"A","wings":"X","pattern":"X","legs":"F"},"action":"avoid","summary":"bad-avoid","bonus":0.02},{"rt":1084.9000000059605,"stimulus":"\n                    <p><b>Action: <em>avoid</em></b></p>\n                    <p>This is the bee that you just saw.</p>\n                    <img src=\"bees-with-color/bee-B1SM.svg\" width=\"200\">\n                    <p><br>Your bonus pay is unchanged, and remains at $0.46.</p>\n            ","response":0,"trial_type":"html-button-response","trial_index":102,"time_elapsed":437574,"internal_node_id":"0.0-4.0-1.45","subject_id":"615f8c8d45198ac90f82d89e","study_id":"6197b3f67c2b5cd3b6d9596a","session_id":"6197b9e543f66f8a2cbb79e0","condition":"contingent","relevant_dimensions":["antennae","legs"],"bee_group":{"antennae":"A","wings":"X","pattern":"X","legs":"F"},"bonus":0.02},{"rt":2849.300000011921,"stimulus":"bees-with-color/bee-A1DM.svg","response":1,"trial_type":"image-button-response","trial_index":103,"time_elapsed":440425,"internal_node_id":"0.0-4.0-0.46","subject_id":"615f8c8d45198ac90f82d89e","study_id":"6197b3f67c2b5cd3b6d9596a","session_id":"6197b9e543f66f8a2cbb79e0","condition":"contingent","relevant_dimensions":["antennae","legs"],"bee_group":{"antennae":"A","wings":"X","pattern":"X","legs":"F"},"action":"avoid","summary":"bad-avoid","bonus":0.02},{"rt":968.6000000089407,"stimulus":"\n                    <p><b>Action: <em>avoid</em></b></p>\n                    <p>This is the bee that you just saw.</p>\n                    <img src=\"bees-with-color/bee-A1DM.svg\" width=\"200\">\n                    <p><br>Your bonus pay is unchanged, and remains at $0.46.</p>\n            ","response":0,"trial_type":"html-button-response","trial_index":104,"time_elapsed":441395,"internal_node_id":"0.0-4.0-1.46","subject_id":"615f8c8d45198ac90f82d89e","study_id":"6197b3f67c2b5cd3b6d9596a","session_id":"6197b9e543f66f8a2cbb79e0","condition":"contingent","relevant_dimensions":["antennae","legs"],"bee_group":{"antennae":"A","wings":"X","pattern":"X","legs":"F"},"bonus":0.02},{"rt":1684.9000000059605,"stimulus":"bees-with-color/bee-A2DM.svg","response":0,"trial_type":"image-button-response","trial_index":105,"time_elapsed":443082,"internal_node_id":"0.0-4.0-0.47","subject_id":"615f8c8d45198ac90f82d89e","study_id":"6197b3f67c2b5cd3b6d9596a","session_id":"6197b9e543f66f8a2cbb79e0","condition":"contingent","relevant_dimensions":["antennae","legs"],"bee_group":{"antennae":"A","wings":"X","pattern":"X","legs":"F"},"action":"harvest","summary":"good-harvest","bonus":0.02},{"rt":1373.5,"stimulus":"\n                    <p><b>Action: <em>harvest</em></b></p>\n                    <p>This is the bee that you just saw.</p>\n                    <img src=\"bees-with-color/bee-A2DM.svg\" width=\"200\">\n                    <p><span class=\"greenText\"><b>Successful harvest!</b></span><br>Your pay has increased by $0.02. Your bonus pay is now $0.48.</p>\n            ","response":0,"trial_type":"html-button-response","trial_index":106,"time_elapsed":444457,"internal_node_id":"0.0-4.0-1.47","subject_id":"615f8c8d45198ac90f82d89e","study_id":"6197b3f67c2b5cd3b6d9596a","session_id":"6197b9e543f66f8a2cbb79e0","condition":"contingent","relevant_dimensions":["antennae","legs"],"bee_group":{"antennae":"A","wings":"X","pattern":"X","legs":"F"},"bonus":0.02},{"rt":3255.1000000089407,"stimulus":"bees-with-color/bee-A2DF.svg","response":1,"trial_type":"image-button-response","trial_index":107,"time_elapsed":447714,"internal_node_id":"0.0-4.0-0.48","subject_id":"615f8c8d45198ac90f82d89e","study_id":"6197b3f67c2b5cd3b6d9596a","session_id":"6197b9e543f66f8a2cbb79e0","condition":"contingent","relevant_dimensions":["antennae","legs"],"bee_group":{"antennae":"A","wings":"X","pattern":"X","legs":"F"},"action":"avoid","summary":"good-avoid","bonus":0.02},{"rt":1254.5999999940395,"stimulus":"\n                    <p><b>Action: <em>avoid</em></b></p>\n                    <p>This is the bee that you just saw.</p>\n                    <img src=\"bees-with-color/bee-A2DF.svg\" width=\"200\">\n                    <p><br>Your bonus pay is unchanged, and remains at $0.48.</p>\n            ","response":0,"trial_type":"html-button-response","trial_index":108,"time_elapsed":448970,"internal_node_id":"0.0-4.0-1.48","subject_id":"615f8c8d45198ac90f82d89e","study_id":"6197b3f67c2b5cd3b6d9596a","session_id":"6197b9e543f66f8a2cbb79e0","condition":"contingent","relevant_dimensions":["antennae","legs"],"bee_group":{"antennae":"A","wings":"X","pattern":"X","legs":"F"},"bonus":0.02},{"rt":2420.800000011921,"stimulus":"bees-with-color/bee-A1SF.svg","response":0,"trial_type":"image-button-response","trial_index":109,"time_elapsed":451392,"internal_node_id":"0.0-4.0-0.49","subject_id":"615f8c8d45198ac90f82d89e","study_id":"6197b3f67c2b5cd3b6d9596a","session_id":"6197b9e543f66f8a2cbb79e0","condition":"contingent","relevant_dimensions":["antennae","legs"],"bee_group":{"antennae":"A","wings":"X","pattern":"X","legs":"F"},"action":"harvest","summary":"bad-harvest","bonus":0.02},{"rt":2067.5999999940395,"stimulus":"\n                    <p><b>Action: <em>harvest</em></b></p>\n                    <p>This is the bee that you just saw.</p>\n                    <img src=\"bees-with-color/bee-A1SF.svg\" width=\"200\">\n                    <p><span class=\"redText\">Bad choice, the bee was angry.</span><br><b>You have been stung!</b><br>Your pay has been decreased by $0.10. Your bonus pay is now $0.38.</p>\n            ","response":0,"trial_type":"html-button-response","trial_index":110,"time_elapsed":453462,"internal_node_id":"0.0-4.0-1.49","subject_id":"615f8c8d45198ac90f82d89e","study_id":"6197b3f67c2b5cd3b6d9596a","session_id":"6197b9e543f66f8a2cbb79e0","condition":"contingent","relevant_dimensions":["antennae","legs"],"bee_group":{"antennae":"A","wings":"X","pattern":"X","legs":"F"},"bonus":0.02},{"rt":1443,"stimulus":"bees-with-color/bee-A2DM.svg","response":0,"trial_type":"image-button-response","trial_index":111,"time_elapsed":454907,"internal_node_id":"0.0-4.0-0.50","subject_id":"615f8c8d45198ac90f82d89e","study_id":"6197b3f67c2b5cd3b6d9596a","session_id":"6197b9e543f66f8a2cbb79e0","condition":"contingent","relevant_dimensions":["antennae","legs"],"bee_group":{"antennae":"A","wings":"X","pattern":"X","legs":"F"},"action":"harvest","summary":"good-harvest","bonus":0.02},{"rt":1194.2999999970198,"stimulus":"\n                    <p><b>Action: <em>harvest</em></b></p>\n                    <p>This is the bee that you just saw.</p>\n                    <img src=\"bees-with-color/bee-A2DM.svg\" width=\"200\">\n                    <p><span class=\"greenText\"><b>Successful harvest!</b></span><br>Your pay has increased by $0.02. Your bonus pay is now $0.40.</p>\n            ","response":0,"trial_type":"html-button-response","trial_index":112,"time_elapsed":456103,"internal_node_id":"0.0-4.0-1.50","subject_id":"615f8c8d45198ac90f82d89e","study_id":"6197b3f67c2b5cd3b6d9596a","session_id":"6197b9e543f66f8a2cbb79e0","condition":"contingent","relevant_dimensions":["antennae","legs"],"bee_group":{"antennae":"A","wings":"X","pattern":"X","legs":"F"},"bonus":0.02},{"rt":1848.0999999940395,"stimulus":"bees-with-color/bee-B1DF.svg","response":1,"trial_type":"image-button-response","trial_index":113,"time_elapsed":457953,"internal_node_id":"0.0-4.0-0.51","subject_id":"615f8c8d45198ac90f82d89e","study_id":"6197b3f67c2b5cd3b6d9596a","session_id":"6197b9e543f66f8a2cbb79e0","condition":"contingent","relevant_dimensions":["antennae","legs"],"bee_group":{"antennae":"A","wings":"X","pattern":"X","legs":"F"},"action":"avoid","summary":"bad-avoid","bonus":0.02},{"rt":921.2999999970198,"stimulus":"\n                    <p><b>Action: <em>avoid</em></b></p>\n                    <p>This is the bee that you just saw.</p>\n                    <img src=\"bees-with-color/bee-B1DF.svg\" width=\"200\">\n                    <p><br>Your bonus pay is unchanged, and remains at $0.40.</p>\n            ","response":0,"trial_type":"html-button-response","trial_index":114,"time_elapsed":458875,"internal_node_id":"0.0-4.0-1.51","subject_id":"615f8c8d45198ac90f82d89e","study_id":"6197b3f67c2b5cd3b6d9596a","session_id":"6197b9e543f66f8a2cbb79e0","condition":"contingent","relevant_dimensions":["antennae","legs"],"bee_group":{"antennae":"A","wings":"X","pattern":"X","legs":"F"},"bonus":0.02},{"rt":2225.5,"stimulus":"bees-with-color/bee-A1DM.svg","response":0,"trial_type":"image-button-response","trial_index":115,"time_elapsed":461103,"internal_node_id":"0.0-4.0-0.52","subject_id":"615f8c8d45198ac90f82d89e","study_id":"6197b3f67c2b5cd3b6d9596a","session_id":"6197b9e543f66f8a2cbb79e0","condition":"contingent","relevant_dimensions":["antennae","legs"],"bee_group":{"antennae":"A","wings":"X","pattern":"X","legs":"F"},"action":"harvest","summary":"good-harvest","bonus":0.02},{"rt":1622.7000000029802,"stimulus":"\n                    <p><b>Action: <em>harvest</em></b></p>\n                    <p>This is the bee that you just saw.</p>\n                    <img src=\"bees-with-color/bee-A1DM.svg\" width=\"200\">\n                    <p><span class=\"greenText\"><b>Successful harvest!</b></span><br>Your pay has increased by $0.02. Your bonus pay is now $0.42.</p>\n            ","response":0,"trial_type":"html-button-response","trial_index":116,"time_elapsed":462727,"internal_node_id":"0.0-4.0-1.52","subject_id":"615f8c8d45198ac90f82d89e","study_id":"6197b3f67c2b5cd3b6d9596a","session_id":"6197b9e543f66f8a2cbb79e0","condition":"contingent","relevant_dimensions":["antennae","legs"],"bee_group":{"antennae":"A","wings":"X","pattern":"X","legs":"F"},"bonus":0.02},{"rt":1663.7000000029802,"stimulus":"bees-with-color/bee-B2SM.svg","response":1,"trial_type":"image-button-response","trial_index":117,"time_elapsed":464393,"internal_node_id":"0.0-4.0-0.53","subject_id":"615f8c8d45198ac90f82d89e","study_id":"6197b3f67c2b5cd3b6d9596a","session_id":"6197b9e543f66f8a2cbb79e0","condition":"contingent","relevant_dimensions":["antennae","legs"],"bee_group":{"antennae":"A","wings":"X","pattern":"X","legs":"F"},"action":"avoid","summary":"bad-avoid","bonus":0.02},{"rt":2169.2000000029802,"stimulus":"\n                    <p><b>Action: <em>avoid</em></b></p>\n                    <p>This is the bee that you just saw.</p>\n                    <img src=\"bees-with-color/bee-B2SM.svg\" width=\"200\">\n                    <p><br>Your bonus pay is unchanged, and remains at $0.42.</p>\n            ","response":0,"trial_type":"html-button-response","trial_index":118,"time_elapsed":466564,"internal_node_id":"0.0-4.0-1.53","subject_id":"615f8c8d45198ac90f82d89e","study_id":"6197b3f67c2b5cd3b6d9596a","session_id":"6197b9e543f66f8a2cbb79e0","condition":"contingent","relevant_dimensions":["antennae","legs"],"bee_group":{"antennae":"A","wings":"X","pattern":"X","legs":"F"},"bonus":0.02},{"rt":1339.0999999940395,"stimulus":"bees-with-color/bee-B2DM.svg","response":1,"trial_type":"image-button-response","trial_index":119,"time_elapsed":467905,"internal_node_id":"0.0-4.0-0.54","subject_id":"615f8c8d45198ac90f82d89e","study_id":"6197b3f67c2b5cd3b6d9596a","session_id":"6197b9e543f66f8a2cbb79e0","condition":"contingent","relevant_dimensions":["antennae","legs"],"bee_group":{"antennae":"A","wings":"X","pattern":"X","legs":"F"},"action":"avoid","summary":"bad-avoid","bonus":0.02},{"rt":785.2999999970198,"stimulus":"\n                    <p><b>Action: <em>avoid</em></b></p>\n                    <p>This is the bee that you just saw.</p>\n                    <img src=\"bees-with-color/bee-B2DM.svg\" width=\"200\">\n                    <p><br>Your bonus pay is unchanged, and remains at $0.42.</p>\n            ","response":0,"trial_type":"html-button-response","trial_index":120,"time_elapsed":468692,"internal_node_id":"0.0-4.0-1.54","subject_id":"615f8c8d45198ac90f82d89e","study_id":"6197b3f67c2b5cd3b6d9596a","session_id":"6197b9e543f66f8a2cbb79e0","condition":"contingent","relevant_dimensions":["antennae","legs"],"bee_group":{"antennae":"A","wings":"X","pattern":"X","legs":"F"},"bonus":0.02},{"rt":2216.9000000059605,"stimulus":"bees-with-color/bee-A2SM.svg","response":0,"trial_type":"image-button-response","trial_index":121,"time_elapsed":470910,"internal_node_id":"0.0-4.0-0.55","subject_id":"615f8c8d45198ac90f82d89e","study_id":"6197b3f67c2b5cd3b6d9596a","session_id":"6197b9e543f66f8a2cbb79e0","condition":"contingent","relevant_dimensions":["antennae","legs"],"bee_group":{"antennae":"A","wings":"X","pattern":"X","legs":"F"},"action":"harvest","summary":"good-harvest","bonus":0.02},{"rt":1161.7000000029802,"stimulus":"\n                    <p><b>Action: <em>harvest</em></b></p>\n                    <p>This is the bee that you just saw.</p>\n                    <img src=\"bees-with-color/bee-A2SM.svg\" width=\"200\">\n                    <p><span class=\"greenText\"><b>Successful harvest!</b></span><br>Your pay has increased by $0.02. Your bonus pay is now $0.44.</p>\n            ","response":0,"trial_type":"html-button-response","trial_index":122,"time_elapsed":472074,"internal_node_id":"0.0-4.0-1.55","subject_id":"615f8c8d45198ac90f82d89e","study_id":"6197b3f67c2b5cd3b6d9596a","session_id":"6197b9e543f66f8a2cbb79e0","condition":"contingent","relevant_dimensions":["antennae","legs"],"bee_group":{"antennae":"A","wings":"X","pattern":"X","legs":"F"},"bonus":0.02},{"rt":1506.5,"stimulus":"bees-with-color/bee-B2SF.svg","response":1,"trial_type":"image-button-response","trial_index":123,"time_elapsed":473583,"internal_node_id":"0.0-4.0-0.56","subject_id":"615f8c8d45198ac90f82d89e","study_id":"6197b3f67c2b5cd3b6d9596a","session_id":"6197b9e543f66f8a2cbb79e0","condition":"contingent","relevant_dimensions":["antennae","legs"],"bee_group":{"antennae":"A","wings":"X","pattern":"X","legs":"F"},"action":"avoid","summary":"bad-avoid","bonus":0.02},{"rt":896.3999999910593,"stimulus":"\n                    <p><b>Action: <em>avoid</em></b></p>\n                    <p>This is the bee that you just saw.</p>\n                    <img src=\"bees-with-color/bee-B2SF.svg\" width=\"200\">\n                    <p><br>Your bonus pay is unchanged, and remains at $0.44.</p>\n            ","response":0,"trial_type":"html-button-response","trial_index":124,"time_elapsed":474481,"internal_node_id":"0.0-4.0-1.56","subject_id":"615f8c8d45198ac90f82d89e","study_id":"6197b3f67c2b5cd3b6d9596a","session_id":"6197b9e543f66f8a2cbb79e0","condition":"contingent","relevant_dimensions":["antennae","legs"],"bee_group":{"antennae":"A","wings":"X","pattern":"X","legs":"F"},"bonus":0.02},{"rt":1527.5999999940395,"stimulus":"bees-with-color/bee-B1SM.svg","response":1,"trial_type":"image-button-response","trial_index":125,"time_elapsed":476010,"internal_node_id":"0.0-4.0-0.57","subject_id":"615f8c8d45198ac90f82d89e","study_id":"6197b3f67c2b5cd3b6d9596a","session_id":"6197b9e543f66f8a2cbb79e0","condition":"contingent","relevant_dimensions":["antennae","legs"],"bee_group":{"antennae":"A","wings":"X","pattern":"X","legs":"F"},"action":"avoid","summary":"bad-avoid","bonus":0.02},{"rt":709.0999999940395,"stimulus":"\n                    <p><b>Action: <em>avoid</em></b></p>\n                    <p>This is the bee that you just saw.</p>\n                    <img src=\"bees-with-color/bee-B1SM.svg\" width=\"200\">\n                    <p><br>Your bonus pay is unchanged, and remains at $0.44.</p>\n            ","response":0,"trial_type":"html-button-response","trial_index":126,"time_elapsed":476721,"internal_node_id":"0.0-4.0-1.57","subject_id":"615f8c8d45198ac90f82d89e","study_id":"6197b3f67c2b5cd3b6d9596a","session_id":"6197b9e543f66f8a2cbb79e0","condition":"contingent","relevant_dimensions":["antennae","legs"],"bee_group":{"antennae":"A","wings":"X","pattern":"X","legs":"F"},"bonus":0.02},{"rt":1554.5,"stimulus":"bees-with-color/bee-B2DF.svg","response":1,"trial_type":"image-button-response","trial_index":127,"time_elapsed":478277,"internal_node_id":"0.0-4.0-0.58","subject_id":"615f8c8d45198ac90f82d89e","study_id":"6197b3f67c2b5cd3b6d9596a","session_id":"6197b9e543f66f8a2cbb79e0","condition":"contingent","relevant_dimensions":["antennae","legs"],"bee_group":{"antennae":"A","wings":"X","pattern":"X","legs":"F"},"action":"avoid","summary":"bad-avoid","bonus":0.02},{"rt":864.9000000059605,"stimulus":"\n                    <p><b>Action: <em>avoid</em></b></p>\n                    <p>This is the bee that you just saw.</p>\n                    <img src=\"bees-with-color/bee-B2DF.svg\" width=\"200\">\n                    <p><br>Your bonus pay is unchanged, and remains at $0.44.</p>\n            ","response":0,"trial_type":"html-button-response","trial_index":128,"time_elapsed":479144,"internal_node_id":"0.0-4.0-1.58","subject_id":"615f8c8d45198ac90f82d89e","study_id":"6197b3f67c2b5cd3b6d9596a","session_id":"6197b9e543f66f8a2cbb79e0","condition":"contingent","relevant_dimensions":["antennae","legs"],"bee_group":{"antennae":"A","wings":"X","pattern":"X","legs":"F"},"bonus":0.02},{"rt":1659.5,"stimulus":"bees-with-color/bee-B1SF.svg","response":0,"trial_type":"image-button-response","trial_index":129,"time_elapsed":480805,"internal_node_id":"0.0-4.0-0.59","subject_id":"615f8c8d45198ac90f82d89e","study_id":"6197b3f67c2b5cd3b6d9596a","session_id":"6197b9e543f66f8a2cbb79e0","condition":"contingent","relevant_dimensions":["antennae","legs"],"bee_group":{"antennae":"A","wings":"X","pattern":"X","legs":"F"},"action":"harvest","summary":"good-harvest","bonus":0.02},{"rt":1125,"stimulus":"\n                    <p><b>Action: <em>harvest</em></b></p>\n                    <p>This is the bee that you just saw.</p>\n                    <img src=\"bees-with-color/bee-B1SF.svg\" width=\"200\">\n                    <p><span class=\"greenText\"><b>Successful harvest!</b></span><br>Your pay has increased by $0.02. Your bonus pay is now $0.46.</p>\n            ","response":0,"trial_type":"html-button-response","trial_index":130,"time_elapsed":481932,"internal_node_id":"0.0-4.0-1.59","subject_id":"615f8c8d45198ac90f82d89e","study_id":"6197b3f67c2b5cd3b6d9596a","session_id":"6197b9e543f66f8a2cbb79e0","condition":"contingent","relevant_dimensions":["antennae","legs"],"bee_group":{"antennae":"A","wings":"X","pattern":"X","legs":"F"},"bonus":0.02},{"rt":2070.7999999970198,"stimulus":"bees-with-color/bee-A1SM.svg","response":1,"trial_type":"image-button-response","trial_index":131,"time_elapsed":484005,"internal_node_id":"0.0-4.0-0.60","subject_id":"615f8c8d45198ac90f82d89e","study_id":"6197b3f67c2b5cd3b6d9596a","session_id":"6197b9e543f66f8a2cbb79e0","condition":"contingent","relevant_dimensions":["antennae","legs"],"bee_group":{"antennae":"A","wings":"X","pattern":"X","legs":"F"},"action":"avoid","summary":"bad-avoid","bonus":0.02},{"rt":1626.1000000089407,"stimulus":"\n                    <p><b>Action: <em>avoid</em></b></p>\n                    <p>This is the bee that you just saw.</p>\n                    <img src=\"bees-with-color/bee-A1SM.svg\" width=\"200\">\n                    <p><br>Your bonus pay is unchanged, and remains at $0.46.</p>\n            ","response":0,"trial_type":"html-button-response","trial_index":132,"time_elapsed":485633,"internal_node_id":"0.0-4.0-1.60","subject_id":"615f8c8d45198ac90f82d89e","study_id":"6197b3f67c2b5cd3b6d9596a","session_id":"6197b9e543f66f8a2cbb79e0","condition":"contingent","relevant_dimensions":["antennae","legs"],"bee_group":{"antennae":"A","wings":"X","pattern":"X","legs":"F"},"bonus":0.02},{"rt":1345.199999988079,"stimulus":"bees-with-color/bee-B1DM.svg","response":1,"trial_type":"image-button-response","trial_index":133,"time_elapsed":486982,"internal_node_id":"0.0-4.0-0.61","subject_id":"615f8c8d45198ac90f82d89e","study_id":"6197b3f67c2b5cd3b6d9596a","session_id":"6197b9e543f66f8a2cbb79e0","condition":"contingent","relevant_dimensions":["antennae","legs"],"bee_group":{"antennae":"A","wings":"X","pattern":"X","legs":"F"},"action":"avoid","summary":"bad-avoid","bonus":0.02},{"rt":641.2999999970198,"stimulus":"\n                    <p><b>Action: <em>avoid</em></b></p>\n                    <p>This is the bee that you just saw.</p>\n                    <img src=\"bees-with-color/bee-B1DM.svg\" width=\"200\">\n                    <p><br>Your bonus pay is unchanged, and remains at $0.46.</p>\n            ","response":0,"trial_type":"html-button-response","trial_index":134,"time_elapsed":487625,"internal_node_id":"0.0-4.0-1.61","subject_id":"615f8c8d45198ac90f82d89e","study_id":"6197b3f67c2b5cd3b6d9596a","session_id":"6197b9e543f66f8a2cbb79e0","condition":"contingent","relevant_dimensions":["antennae","legs"],"bee_group":{"antennae":"A","wings":"X","pattern":"X","legs":"F"},"bonus":0.02},{"rt":1403.0999999940395,"stimulus":"bees-with-color/bee-A2SF.svg","response":0,"trial_type":"image-button-response","trial_index":135,"time_elapsed":489030,"internal_node_id":"0.0-4.0-0.62","subject_id":"615f8c8d45198ac90f82d89e","study_id":"6197b3f67c2b5cd3b6d9596a","session_id":"6197b9e543f66f8a2cbb79e0","condition":"contingent","relevant_dimensions":["antennae","legs"],"bee_group":{"antennae":"A","wings":"X","pattern":"X","legs":"F"},"action":"harvest","summary":"bad-harvest","bonus":0.02},{"rt":2483,"stimulus":"\n                    <p><b>Action: <em>harvest</em></b></p>\n                    <p>This is the bee that you just saw.</p>\n                    <img src=\"bees-with-color/bee-A2SF.svg\" width=\"200\">\n                    <p><span class=\"redText\">Bad choice, the bee was angry.</span><br><b>You have been stung!</b><br>Your pay has been decreased by $0.10. Your bonus pay is now $0.36.</p>\n            ","response":0,"trial_type":"html-button-response","trial_index":136,"time_elapsed":491515,"internal_node_id":"0.0-4.0-1.62","subject_id":"615f8c8d45198ac90f82d89e","study_id":"6197b3f67c2b5cd3b6d9596a","session_id":"6197b9e543f66f8a2cbb79e0","condition":"contingent","relevant_dimensions":["antennae","legs"],"bee_group":{"antennae":"A","wings":"X","pattern":"X","legs":"F"},"bonus":0.02},{"rt":2241.2999999970198,"stimulus":"bees-with-color/bee-A1DF.svg","response":0,"trial_type":"image-button-response","trial_index":137,"time_elapsed":493758,"internal_node_id":"0.0-4.0-0.63","subject_id":"615f8c8d45198ac90f82d89e","study_id":"6197b3f67c2b5cd3b6d9596a","session_id":"6197b9e543f66f8a2cbb79e0","condition":"contingent","relevant_dimensions":["antennae","legs"],"bee_group":{"antennae":"A","wings":"X","pattern":"X","legs":"F"},"action":"harvest","summary":"bad-harvest","bonus":0.02},{"rt":1073.9000000059605,"stimulus":"\n                    <p><b>Action: <em>harvest</em></b></p>\n                    <p>This is the bee that you just saw.</p>\n                    <img src=\"bees-with-color/bee-A1DF.svg\" width=\"200\">\n                    <p><span class=\"redText\">Bad choice, the bee was angry.</span><br><b>You have been stung!</b><br>Your pay has been decreased by $0.10. Your bonus pay is now $0.26.</p>\n            ","response":0,"trial_type":"html-button-response","trial_index":138,"time_elapsed":494834,"internal_node_id":"0.0-4.0-1.63","subject_id":"615f8c8d45198ac90f82d89e","study_id":"6197b3f67c2b5cd3b6d9596a","session_id":"6197b9e543f66f8a2cbb79e0","condition":"contingent","relevant_dimensions":["antennae","legs"],"bee_group":{"antennae":"A","wings":"X","pattern":"X","legs":"F"},"bonus":0.02},{"rt":3211.300000011921,"stimulus":"You have completed the first part of this experiment.<br><br>You will now begin a shorter second part, in which you will receive no feedback.<br>The same rules regarding bonus pay apply.<br><br>Press any key to begin.","response":" ","trial_type":"html-keyboard-response","trial_index":139,"time_elapsed":498048,"internal_node_id":"0.0-5.0","subject_id":"615f8c8d45198ac90f82d89e","study_id":"6197b3f67c2b5cd3b6d9596a","session_id":"6197b9e543f66f8a2cbb79e0","condition":"contingent","relevant_dimensions":["antennae","legs"],"bee_group":{"antennae":"A","wings":"X","pattern":"X","legs":"F"},"bonus":0.02},{"rt":5892.0999999940395,"stimulus":"bees-with-color/bee-A2DM.svg","response":0,"trial_type":"image-button-response","trial_index":140,"time_elapsed":503952,"internal_node_id":"0.0-6.0-0.0","subject_id":"615f8c8d45198ac90f82d89e","study_id":"6197b3f67c2b5cd3b6d9596a","session_id":"6197b9e543f66f8a2cbb79e0","condition":"contingent","relevant_dimensions":["antennae","legs"],"bee_group":{"antennae":"A","wings":"X","pattern":"X","legs":"F"},"bonus":0.02},{"rt":3875.4000000059605,"stimulus":"bees-with-color/bee-B2DF.svg","response":0,"trial_type":"image-button-response","trial_index":141,"time_elapsed":507830,"internal_node_id":"0.0-6.0-0.1","subject_id":"615f8c8d45198ac90f82d89e","study_id":"6197b3f67c2b5cd3b6d9596a","session_id":"6197b9e543f66f8a2cbb79e0","condition":"contingent","relevant_dimensions":["antennae","legs"],"bee_group":{"antennae":"A","wings":"X","pattern":"X","legs":"F"},"bonus":0.02},{"rt":1886.6000000089407,"stimulus":"bees-with-color/bee-A2SF.svg","response":1,"trial_type":"image-button-response","trial_index":142,"time_elapsed":509719,"internal_node_id":"0.0-6.0-0.2","subject_id":"615f8c8d45198ac90f82d89e","study_id":"6197b3f67c2b5cd3b6d9596a","session_id":"6197b9e543f66f8a2cbb79e0","condition":"contingent","relevant_dimensions":["antennae","legs"],"bee_group":{"antennae":"A","wings":"X","pattern":"X","legs":"F"},"bonus":0.02},{"rt":2256.199999988079,"stimulus":"bees-with-color/bee-B1DF.svg","response":1,"trial_type":"image-button-response","trial_index":143,"time_elapsed":511978,"internal_node_id":"0.0-6.0-0.3","subject_id":"615f8c8d45198ac90f82d89e","study_id":"6197b3f67c2b5cd3b6d9596a","session_id":"6197b9e543f66f8a2cbb79e0","condition":"contingent","relevant_dimensions":["antennae","legs"],"bee_group":{"antennae":"A","wings":"X","pattern":"X","legs":"F"},"bonus":0.02},{"rt":1468.8999999910593,"stimulus":"bees-with-color/bee-A2DF.svg","response":0,"trial_type":"image-button-response","trial_index":144,"time_elapsed":513449,"internal_node_id":"0.0-6.0-0.4","subject_id":"615f8c8d45198ac90f82d89e","study_id":"6197b3f67c2b5cd3b6d9596a","session_id":"6197b9e543f66f8a2cbb79e0","condition":"contingent","relevant_dimensions":["antennae","legs"],"bee_group":{"antennae":"A","wings":"X","pattern":"X","legs":"F"},"bonus":0.02},{"rt":1003.7000000029802,"stimulus":"bees-with-color/bee-A2SM.svg","response":0,"trial_type":"image-button-response","trial_index":145,"time_elapsed":514455,"internal_node_id":"0.0-6.0-0.5","subject_id":"615f8c8d45198ac90f82d89e","study_id":"6197b3f67c2b5cd3b6d9596a","session_id":"6197b9e543f66f8a2cbb79e0","condition":"contingent","relevant_dimensions":["antennae","legs"],"bee_group":{"antennae":"A","wings":"X","pattern":"X","legs":"F"},"bonus":0.02},{"rt":1726.7999999970198,"stimulus":"bees-with-color/bee-B2SM.svg","response":1,"trial_type":"image-button-response","trial_index":146,"time_elapsed":516184,"internal_node_id":"0.0-6.0-0.6","subject_id":"615f8c8d45198ac90f82d89e","study_id":"6197b3f67c2b5cd3b6d9596a","session_id":"6197b9e543f66f8a2cbb79e0","condition":"contingent","relevant_dimensions":["antennae","legs"],"bee_group":{"antennae":"A","wings":"X","pattern":"X","legs":"F"},"bonus":0.02},{"rt":1019.5999999940395,"stimulus":"bees-with-color/bee-B1DM.svg","response":1,"trial_type":"image-button-response","trial_index":147,"time_elapsed":517206,"internal_node_id":"0.0-6.0-0.7","subject_id":"615f8c8d45198ac90f82d89e","study_id":"6197b3f67c2b5cd3b6d9596a","session_id":"6197b9e543f66f8a2cbb79e0","condition":"contingent","relevant_dimensions":["antennae","legs"],"bee_group":{"antennae":"A","wings":"X","pattern":"X","legs":"F"},"bonus":0.02},{"rt":1631.7999999970198,"stimulus":"bees-with-color/bee-B2DM.svg","response":1,"trial_type":"image-button-response","trial_index":148,"time_elapsed":518840,"internal_node_id":"0.0-6.0-0.8","subject_id":"615f8c8d45198ac90f82d89e","study_id":"6197b3f67c2b5cd3b6d9596a","session_id":"6197b9e543f66f8a2cbb79e0","condition":"contingent","relevant_dimensions":["antennae","legs"],"bee_group":{"antennae":"A","wings":"X","pattern":"X","legs":"F"},"bonus":0.02},{"rt":1064.7000000029802,"stimulus":"bees-with-color/bee-A1SF.svg","response":0,"trial_type":"image-button-response","trial_index":149,"time_elapsed":519907,"internal_node_id":"0.0-6.0-0.9","subject_id":"615f8c8d45198ac90f82d89e","study_id":"6197b3f67c2b5cd3b6d9596a","session_id":"6197b9e543f66f8a2cbb79e0","condition":"contingent","relevant_dimensions":["antennae","legs"],"bee_group":{"antennae":"A","wings":"X","pattern":"X","legs":"F"},"bonus":0.02},{"rt":2064.7999999970198,"stimulus":"bees-with-color/bee-A1DM.svg","response":1,"trial_type":"image-button-response","trial_index":150,"time_elapsed":521974,"internal_node_id":"0.0-6.0-0.10","subject_id":"615f8c8d45198ac90f82d89e","study_id":"6197b3f67c2b5cd3b6d9596a","session_id":"6197b9e543f66f8a2cbb79e0","condition":"contingent","relevant_dimensions":["antennae","legs"],"bee_group":{"antennae":"A","wings":"X","pattern":"X","legs":"F"},"bonus":0.02},{"rt":768.6999999880791,"stimulus":"bees-with-color/bee-B2SF.svg","response":0,"trial_type":"image-button-response","trial_index":151,"time_elapsed":522745,"internal_node_id":"0.0-6.0-0.11","subject_id":"615f8c8d45198ac90f82d89e","study_id":"6197b3f67c2b5cd3b6d9596a","session_id":"6197b9e543f66f8a2cbb79e0","condition":"contingent","relevant_dimensions":["antennae","legs"],"bee_group":{"antennae":"A","wings":"X","pattern":"X","legs":"F"},"bonus":0.02},{"rt":859.2999999970198,"stimulus":"bees-with-color/bee-B1SF.svg","response":0,"trial_type":"image-button-response","trial_index":152,"time_elapsed":523607,"internal_node_id":"0.0-6.0-0.12","subject_id":"615f8c8d45198ac90f82d89e","study_id":"6197b3f67c2b5cd3b6d9596a","session_id":"6197b9e543f66f8a2cbb79e0","condition":"contingent","relevant_dimensions":["antennae","legs"],"bee_group":{"antennae":"A","wings":"X","pattern":"X","legs":"F"},"bonus":0.02},{"rt":1211.699999988079,"stimulus":"bees-with-color/bee-A1DF.svg","response":1,"trial_type":"image-button-response","trial_index":153,"time_elapsed":524821,"internal_node_id":"0.0-6.0-0.13","subject_id":"615f8c8d45198ac90f82d89e","study_id":"6197b3f67c2b5cd3b6d9596a","session_id":"6197b9e543f66f8a2cbb79e0","condition":"contingent","relevant_dimensions":["antennae","legs"],"bee_group":{"antennae":"A","wings":"X","pattern":"X","legs":"F"},"bonus":0.02},{"rt":1217.7000000029802,"stimulus":"bees-with-color/bee-B1SM.svg","response":0,"trial_type":"image-button-response","trial_index":154,"time_elapsed":526041,"internal_node_id":"0.0-6.0-0.14","subject_id":"615f8c8d45198ac90f82d89e","study_id":"6197b3f67c2b5cd3b6d9596a","session_id":"6197b9e543f66f8a2cbb79e0","condition":"contingent","relevant_dimensions":["antennae","legs"],"bee_group":{"antennae":"A","wings":"X","pattern":"X","legs":"F"},"bonus":0.02},{"rt":593.7000000029802,"stimulus":"bees-with-color/bee-A1SM.svg","response":0,"trial_type":"image-button-response","trial_index":155,"time_elapsed":526637,"internal_node_id":"0.0-6.0-0.15","subject_id":"615f8c8d45198ac90f82d89e","study_id":"6197b3f67c2b5cd3b6d9596a","session_id":"6197b9e543f66f8a2cbb79e0","condition":"contingent","relevant_dimensions":["antennae","legs"],"bee_group":{"antennae":"A","wings":"X","pattern":"X","legs":"F"},"bonus":0.02},{"rt":956.7000000029802,"stimulus":"bees-with-color/bee-A2SF.svg","response":1,"trial_type":"image-button-response","trial_index":156,"time_elapsed":527596,"internal_node_id":"0.0-6.0-0.16","subject_id":"615f8c8d45198ac90f82d89e","study_id":"6197b3f67c2b5cd3b6d9596a","session_id":"6197b9e543f66f8a2cbb79e0","condition":"contingent","relevant_dimensions":["antennae","legs"],"bee_group":{"antennae":"A","wings":"X","pattern":"X","legs":"F"},"bonus":0.02},{"rt":1051.7999999970198,"stimulus":"bees-with-color/bee-A1DM.svg","response":1,"trial_type":"image-button-response","trial_index":157,"time_elapsed":528650,"internal_node_id":"0.0-6.0-0.17","subject_id":"615f8c8d45198ac90f82d89e","study_id":"6197b3f67c2b5cd3b6d9596a","session_id":"6197b9e543f66f8a2cbb79e0","condition":"contingent","relevant_dimensions":["antennae","legs"],"bee_group":{"antennae":"A","wings":"X","pattern":"X","legs":"F"},"bonus":0.02},{"rt":689,"stimulus":"bees-with-color/bee-B2SF.svg","response":0,"trial_type":"image-button-response","trial_index":158,"time_elapsed":529341,"internal_node_id":"0.0-6.0-0.18","subject_id":"615f8c8d45198ac90f82d89e","study_id":"6197b3f67c2b5cd3b6d9596a","session_id":"6197b9e543f66f8a2cbb79e0","condition":"contingent","relevant_dimensions":["antennae","legs"],"bee_group":{"antennae":"A","wings":"X","pattern":"X","legs":"F"},"bonus":0.02},{"rt":1298.9000000059605,"stimulus":"bees-with-color/bee-B2DF.svg","response":1,"trial_type":"image-button-response","trial_index":159,"time_elapsed":530642,"internal_node_id":"0.0-6.0-0.19","subject_id":"615f8c8d45198ac90f82d89e","study_id":"6197b3f67c2b5cd3b6d9596a","session_id":"6197b9e543f66f8a2cbb79e0","condition":"contingent","relevant_dimensions":["antennae","legs"],"bee_group":{"antennae":"A","wings":"X","pattern":"X","legs":"F"},"bonus":0.02},{"rt":721.2999999970198,"stimulus":"bees-with-color/bee-A1DF.svg","response":0,"trial_type":"image-button-response","trial_index":160,"time_elapsed":531365,"internal_node_id":"0.0-6.0-0.20","subject_id":"615f8c8d45198ac90f82d89e","study_id":"6197b3f67c2b5cd3b6d9596a","session_id":"6197b9e543f66f8a2cbb79e0","condition":"contingent","relevant_dimensions":["antennae","legs"],"bee_group":{"antennae":"A","wings":"X","pattern":"X","legs":"F"},"bonus":0.02},{"rt":1260.199999988079,"stimulus":"bees-with-color/bee-B1DM.svg","response":1,"trial_type":"image-button-response","trial_index":161,"time_elapsed":532627,"internal_node_id":"0.0-6.0-0.21","subject_id":"615f8c8d45198ac90f82d89e","study_id":"6197b3f67c2b5cd3b6d9596a","session_id":"6197b9e543f66f8a2cbb79e0","condition":"contingent","relevant_dimensions":["antennae","legs"],"bee_group":{"antennae":"A","wings":"X","pattern":"X","legs":"F"},"bonus":0.02},{"rt":1067.9000000059605,"stimulus":"bees-with-color/bee-B1SM.svg","response":1,"trial_type":"image-button-response","trial_index":162,"time_elapsed":533697,"internal_node_id":"0.0-6.0-0.22","subject_id":"615f8c8d45198ac90f82d89e","study_id":"6197b3f67c2b5cd3b6d9596a","session_id":"6197b9e543f66f8a2cbb79e0","condition":"contingent","relevant_dimensions":["antennae","legs"],"bee_group":{"antennae":"A","wings":"X","pattern":"X","legs":"F"},"bonus":0.02},{"rt":697,"stimulus":"bees-with-color/bee-A2DM.svg","response":0,"trial_type":"image-button-response","trial_index":163,"time_elapsed":534396,"internal_node_id":"0.0-6.0-0.23","subject_id":"615f8c8d45198ac90f82d89e","study_id":"6197b3f67c2b5cd3b6d9596a","session_id":"6197b9e543f66f8a2cbb79e0","condition":"contingent","relevant_dimensions":["antennae","legs"],"bee_group":{"antennae":"A","wings":"X","pattern":"X","legs":"F"},"bonus":0.02},{"rt":664.7999999970198,"stimulus":"bees-with-color/bee-B1DF.svg","response":1,"trial_type":"image-button-response","trial_index":164,"time_elapsed":535063,"internal_node_id":"0.0-6.0-0.24","subject_id":"615f8c8d45198ac90f82d89e","study_id":"6197b3f67c2b5cd3b6d9596a","session_id":"6197b9e543f66f8a2cbb79e0","condition":"contingent","relevant_dimensions":["antennae","legs"],"bee_group":{"antennae":"A","wings":"X","pattern":"X","legs":"F"},"bonus":0.02},{"rt":594.0999999940395,"stimulus":"bees-with-color/bee-A1SM.svg","response":1,"trial_type":"image-button-response","trial_index":165,"time_elapsed":535659,"internal_node_id":"0.0-6.0-0.25","subject_id":"615f8c8d45198ac90f82d89e","study_id":"6197b3f67c2b5cd3b6d9596a","session_id":"6197b9e543f66f8a2cbb79e0","condition":"contingent","relevant_dimensions":["antennae","legs"],"bee_group":{"antennae":"A","wings":"X","pattern":"X","legs":"F"},"bonus":0.02},{"rt":1194.7000000029802,"stimulus":"bees-with-color/bee-B2SM.svg","response":0,"trial_type":"image-button-response","trial_index":166,"time_elapsed":536856,"internal_node_id":"0.0-6.0-0.26","subject_id":"615f8c8d45198ac90f82d89e","study_id":"6197b3f67c2b5cd3b6d9596a","session_id":"6197b9e543f66f8a2cbb79e0","condition":"contingen