[{"success":true,"trial_type":"fullscreen","trial_index":0,"time_elapsed":5573,"internal_node_id":"0.0-0.0","subject_id":"613a87fca7079e9109d15f66","study_id":"60edd13110225f80f9f3709b","session_id":"6196c4a76d32cc75560f0cb3","condition":"contingent","relevant_dimensions":["antennae","legs"],"bee_group":{"antennae":"A","wings":"X","pattern":"X","legs":"F"},"bonus":1.2000000000000008},{"success":true,"timeout":false,"failed_images":[],"failed_audio":[],"failed_video":[],"trial_type":"preload","trial_index":1,"time_elapsed":10532,"internal_node_id":"0.0-1.0","subject_id":"613a87fca7079e9109d15f66","study_id":"60edd13110225f80f9f3709b","session_id":"6196c4a76d32cc75560f0cb3","condition":"contingent","relevant_dimensions":["antennae","legs"],"bee_group":{"antennae":"A","wings":"X","pattern":"X","legs":"F"},"bonus":1.2000000000000008},{"rt":1367.699999988079,"stimulus":"Welcome! Press any key to begin.","response":" ","trial_type":"html-keyboard-response","trial_index":2,"time_elapsed":11900,"internal_node_id":"0.0-2.0","subject_id":"613a87fca7079e9109d15f66","study_id":"60edd13110225f80f9f3709b","session_id":"6196c4a76d32cc75560f0cb3","condition":"contingent","relevant_dimensions":["antennae","legs"],"bee_group":{"antennae":"A","wings":"X","pattern":"X","legs":"F"},"bonus":1.2000000000000008},{"view_history":[{"page_index":0,"viewing_time":5710.899999976158},{"page_index":1,"viewing_time":19906.80000001192},{"page_index":2,"viewing_time":15768.5},{"page_index":3,"viewing_time":31340.80000001192},{"page_index":4,"viewing_time":11682.100000023842},{"page_index":5,"viewing_time":15796.299999952316},{"page_index":6,"viewing_time":20443.80000001192},{"page_index":7,"viewing_time":13712.199999988079},{"page_index":6,"viewing_time":4733.200000047684},{"page_index":7,"viewing_time":5344.899999976158},{"page_index":8,"viewing_time":4990.100000023842},{"page_index":9,"viewing_time":5745.5},{"page_index":10,"viewing_time":3630.5},{"page_index":11,"viewing_time":12216.899999976158},{"page_index":10,"viewing_time":1435.3999999761581},{"page_index":9,"viewing_time":3527.300000011921},{"page_index":8,"viewing_time":649.9000000357628},{"page_index":7,"viewing_time":2366.699999988079},{"page_index":6,"viewing_time":1710.800000011921},{"page_index":7,"viewing_time":3799.699999988079},{"page_index":8,"viewing_time":2980.800000011921},{"page_index":9,"viewing_time":1658.199999988079},{"page_index":10,"viewing_time":1588.199999988079},{"page_index":11,"viewing_time":3302.399999976158},{"page_index":12,"viewing_time":20475.5},{"page_index":13,"viewing_time":2112.800000011921},{"page_index":14,"viewing_time":3419.100000023842}],"rt":220049.80000001192,"trial_type":"instructions","trial_index":3,"time_elapsed":231952,"internal_node_id":"0.0-3.0-0.0","subject_id":"613a87fca7079e9109d15f66","study_id":"60edd13110225f80f9f3709b","session_id":"6196c4a76d32cc75560f0cb3","condition":"contingent","relevant_dimensions":["antennae","legs"],"bee_group":{"antennae":"A","wings":"X","pattern":"X","legs":"F"},"bonus":1.2000000000000008},{"rt":20625.399999976158,"response":{"Q0":["Two or six legs","Stripes or spots on body","Single or double wings","Antennae or no antennae"]},"question_order":[0],"trial_type":"survey-multi-select","trial_index":4,"time_elapsed":253316,"internal_node_id":"0.0-3.0-1.0","subject_id":"613a87fca7079e9109d15f66","study_id":"60edd13110225f80f9f3709b","session_id":"6196c4a76d32cc75560f0cb3","condition":"contingent","relevant_dimensions":["antennae","legs"],"bee_group":{"antennae":"A","wings":"X","pattern":"X","legs":"F"},"correct":true,"bonus":1.2000000000000008},{"rt":38985.5,"response":{"Q1":"No.","Q2":"Based on the four features of the bee.","Q3":"You do not learn if it was friendly or dangerous, and do not alter your bonus."},"question_order":[0,1,2],"trial_type":"survey-multi-choice","trial_index":5,"time_elapsed":292821,"internal_node_id":"0.0-3.0-2.0","subject_id":"613a87fca7079e9109d15f66","study_id":"60edd13110225f80f9f3709b","session_id":"6196c4a76d32cc75560f0cb3","condition":"contingent","relevant_dimensions":["antennae","legs"],"bee_group":{"antennae":"A","wings":"X","pattern":"X","legs":"F"},"correct":true,"bonus":1.2000000000000008},{"rt":3749.300000011921,"stimulus":"<p>Congrats, you got everything right<br>When you're ready, click the button below to continue to the experiment.</p>","response":0,"trial_type":"html-button-response","trial_index":6,"time_elapsed":296573,"internal_node_id":"0.0-3.0-3.0","subject_id":"613a87fca7079e9109d15f66","study_id":"60edd13110225f80f9f3709b","session_id":"6196c4a76d32cc75560f0cb3","condition":"contingent","relevant_dimensions":["antennae","legs"],"bee_group":{"antennae":"A","wings":"X","pattern":"X","legs":"F"},"bonus":1.2000000000000008},{"rt":13455.199999988079,"stimulus":"bees-with-color/bee-B2DM.svg","response":0,"trial_type":"image-button-response","trial_index":7,"time_elapsed":310033,"internal_node_id":"0.0-4.0-0.0","subject_id":"613a87fca7079e9109d15f66","study_id":"60edd13110225f80f9f3709b","session_id":"6196c4a76d32cc75560f0cb3","condition":"contingent","relevant_dimensions":["antennae","legs"],"bee_group":{"antennae":"A","wings":"X","pattern":"X","legs":"F"},"action":"harvest","summary":"good-harvest","bonus":1.2000000000000008},{"rt":6414.699999988079,"stimulus":"\n                    <p><b>Action: <em>harvest</em></b></p>\n                    <p>This is the bee that you just saw.</p>\n                    <img src=\"bees-with-color/bee-B2DM.svg\" width=\"200\">\n                    <p><span class=\"greenText\"><b>Successful harvest!</b></span><br>Your pay has increased by $0.02. Your bonus pay is now $0.56.</p>\n            ","response":0,"trial_type":"html-button-response","trial_index":8,"time_elapsed":316561,"internal_node_id":"0.0-4.0-1.0","subject_id":"613a87fca7079e9109d15f66","study_id":"60edd13110225f80f9f3709b","session_id":"6196c4a76d32cc75560f0cb3","condition":"contingent","relevant_dimensions":["antennae","legs"],"bee_group":{"antennae":"A","wings":"X","pattern":"X","legs":"F"},"bonus":1.2000000000000008},{"rt":4098.100000023842,"stimulus":"bees-with-color/bee-A1DM.svg","response":0,"trial_type":"image-button-response","trial_index":9,"time_elapsed":320662,"internal_node_id":"0.0-4.0-0.1","subject_id":"613a87fca7079e9109d15f66","study_id":"60edd13110225f80f9f3709b","session_id":"6196c4a76d32cc75560f0cb3","condition":"contingent","relevant_dimensions":["antennae","legs"],"bee_group":{"antennae":"A","wings":"X","pattern":"X","legs":"F"},"action":"harvest","summary":"good-harvest","bonus":1.2000000000000008},{"rt":3874.699999988079,"stimulus":"\n                    <p><b>Action: <em>harvest</em></b></p>\n                    <p>This is the bee that you just saw.</p>\n                    <img src=\"bees-with-color/bee-A1DM.svg\" width=\"200\">\n                    <p><span class=\"greenText\"><b>Successful harvest!</b></span><br>Your pay has increased by $0.02. Your bonus pay is now $0.58.</p>\n            ","response":0,"trial_type":"html-button-response","trial_index":10,"time_elapsed":324539,"internal_node_id":"0.0-4.0-1.1","subject_id":"613a87fca7079e9109d15f66","study_id":"60edd13110225f80f9f3709b","session_id":"6196c4a76d32cc75560f0cb3","condition":"contingent","relevant_dimensions":["antennae","legs"],"bee_group":{"antennae":"A","wings":"X","pattern":"X","legs":"F"},"bonus":1.2000000000000008},{"rt":3548.699999988079,"stimulus":"bees-with-color/bee-B2DF.svg","response":0,"trial_type":"image-button-response","trial_index":11,"time_elapsed":328091,"internal_node_id":"0.0-4.0-0.2","subject_id":"613a87fca7079e9109d15f66","study_id":"60edd13110225f80f9f3709b","session_id":"6196c4a76d32cc75560f0cb3","condition":"contingent","relevant_dimensions":["antennae","legs"],"bee_group":{"antennae":"A","wings":"X","pattern":"X","legs":"F"},"action":"harvest","summary":"good-harvest","bonus":1.2000000000000008},{"rt":2921.100000023842,"stimulus":"\n                    <p><b>Action: <em>harvest</em></b></p>\n                    <p>This is the bee that you just saw.</p>\n                    <img src=\"bees-with-color/bee-B2DF.svg\" width=\"200\">\n                    <p><span class=\"greenText\"><b>Successful harvest!</b></span><br>Your pay has increased by $0.02. Your bonus pay is now $0.60.</p>\n            ","response":0,"trial_type":"html-button-response","trial_index":12,"time_elapsed":331014,"internal_node_id":"0.0-4.0-1.2","subject_id":"613a87fca7079e9109d15f66","study_id":"60edd13110225f80f9f3709b","session_id":"6196c4a76d32cc75560f0cb3","condition":"contingent","relevant_dimensions":["antennae","legs"],"bee_group":{"antennae":"A","wings":"X","pattern":"X","legs":"F"},"bonus":1.2000000000000008},{"rt":11707.5,"stimulus":"bees-with-color/bee-B2SM.svg","response":1,"trial_type":"image-button-response","trial_index":13,"time_elapsed":342724,"internal_node_id":"0.0-4.0-0.3","subject_id":"613a87fca7079e9109d15f66","study_id":"60edd13110225f80f9f3709b","session_id":"6196c4a76d32cc75560f0cb3","condition":"contingent","relevant_dimensions":["antennae","legs"],"bee_group":{"antennae":"A","wings":"X","pattern":"X","legs":"F"},"action":"avoid","summary":"bad-avoid","bonus":1.2000000000000008},{"rt":6381.300000011921,"stimulus":"\n                    <p><b>Action: <em>avoid</em></b></p>\n                    <p>This is the bee that you just saw.</p>\n                    <img src=\"bees-with-color/bee-B2SM.svg\" width=\"200\">\n                    <p><br>Your bonus pay is unchanged, and remains at $0.60.</p>\n            ","response":0,"trial_type":"html-button-response","trial_index":14,"time_elapsed":349108,"internal_node_id":"0.0-4.0-1.3","subject_id":"613a87fca7079e9109d15f66","study_id":"60edd13110225f80f9f3709b","session_id":"6196c4a76d32cc75560f0cb3","condition":"contingent","relevant_dimensions":["antennae","legs"],"bee_group":{"antennae":"A","wings":"X","pattern":"X","legs":"F"},"bonus":1.2000000000000008},{"rt":3230,"stimulus":"bees-with-color/bee-A1DF.svg","response":0,"trial_type":"image-button-response","trial_index":15,"time_elapsed":352343,"internal_node_id":"0.0-4.0-0.4","subject_id":"613a87fca7079e9109d15f66","study_id":"60edd13110225f80f9f3709b","session_id":"6196c4a76d32cc75560f0cb3","condition":"contingent","relevant_dimensions":["antennae","legs"],"bee_group":{"antennae":"A","wings":"X","pattern":"X","legs":"F"},"action":"harvest","summary":"bad-harvest","bonus":1.2000000000000008},{"rt":4534.800000011921,"stimulus":"\n                    <p><b>Action: <em>harvest</em></b></p>\n                    <p>This is the bee that you just saw.</p>\n                    <img src=\"bees-with-color/bee-A1DF.svg\" width=\"200\">\n                    <p><span class=\"redText\">Bad choice, the bee was angry.</span><br><b>You have been stung!</b><br>Your pay has been decreased by $0.10. Your bonus pay is now $0.50.</p>\n            ","response":0,"trial_type":"html-button-response","trial_index":16,"time_elapsed":356880,"internal_node_id":"0.0-4.0-1.4","subject_id":"613a87fca7079e9109d15f66","study_id":"60edd13110225f80f9f3709b","session_id":"6196c4a76d32cc75560f0cb3","condition":"contingent","relevant_dimensions":["antennae","legs"],"bee_group":{"antennae":"A","wings":"X","pattern":"X","legs":"F"},"bonus":1.2000000000000008},{"rt":5940.399999976158,"stimulus":"bees-with-color/bee-B1DF.svg","response":1,"trial_type":"image-button-response","trial_index":17,"time_elapsed":362824,"internal_node_id":"0.0-4.0-0.5","subject_id":"613a87fca7079e9109d15f66","study_id":"60edd13110225f80f9f3709b","session_id":"6196c4a76d32cc75560f0cb3","condition":"contingent","relevant_dimensions":["antennae","legs"],"bee_group":{"antennae":"A","wings":"X","pattern":"X","legs":"F"},"action":"avoid","summary":"bad-avoid","bonus":1.2000000000000008},{"rt":2923.699999988079,"stimulus":"\n                    <p><b>Action: <em>avoid</em></b></p>\n                    <p>This is the bee that you just saw.</p>\n                    <img src=\"bees-with-color/bee-B1DF.svg\" width=\"200\">\n                    <p><br>Your bonus pay is unchanged, and remains at $0.50.</p>\n            ","response":0,"trial_type":"html-button-response","trial_index":18,"time_elapsed":365751,"internal_node_id":"0.0-4.0-1.5","subject_id":"613a87fca7079e9109d15f66","study_id":"60edd13110225f80f9f3709b","session_id":"6196c4a76d32cc75560f0cb3","condition":"contingent","relevant_dimensions":["antennae","legs"],"bee_group":{"antennae":"A","wings":"X","pattern":"X","legs":"F"},"bonus":1.2000000000000008},{"rt":7580.699999988079,"stimulus":"bees-with-color/bee-A1SM.svg","response":0,"trial_type":"image-button-response","trial_index":19,"time_elapsed":373335,"internal_node_id":"0.0-4.0-0.6","subject_id":"613a87fca7079e9109d15f66","study_id":"60edd13110225f80f9f3709b","session_id":"6196c4a76d32cc75560f0cb3","condition":"contingent","relevant_dimensions":["antennae","legs"],"bee_group":{"antennae":"A","wings":"X","pattern":"X","legs":"F"},"action":"harvest","summary":"good-harvest","bonus":1.2000000000000008},{"rt":3656.300000011921,"stimulus":"\n                    <p><b>Action: <em>harvest</em></b></p>\n                    <p>This is the bee that you just saw.</p>\n                    <img src=\"bees-with-color/bee-A1SM.svg\" width=\"200\">\n                    <p><span class=\"greenText\"><b>Successful harvest!</b></span><br>Your pay has increased by $0.02. Your bonus pay is now $0.52.</p>\n            ","response":0,"trial_type":"html-button-response","trial_index":20,"time_elapsed":376993,"internal_node_id":"0.0-4.0-1.6","subject_id":"613a87fca7079e9109d15f66","study_id":"60edd13110225f80f9f3709b","session_id":"6196c4a76d32cc75560f0cb3","condition":"contingent","relevant_dimensions":["antennae","legs"],"bee_group":{"antennae":"A","wings":"X","pattern":"X","legs":"F"},"bonus":1.2000000000000008},{"rt":10165.199999988079,"stimulus":"bees-with-color/bee-A2SF.svg","response":1,"trial_type":"image-button-response","trial_index":21,"time_elapsed":387162,"internal_node_id":"0.0-4.0-0.7","subject_id":"613a87fca7079e9109d15f66","study_id":"60edd13110225f80f9f3709b","session_id":"6196c4a76d32cc75560f0cb3","condition":"contingent","relevant_dimensions":["antennae","legs"],"bee_group":{"antennae":"A","wings":"X","pattern":"X","legs":"F"},"action":"avoid","summary":"good-avoid","bonus":1.2000000000000008},{"rt":2837.800000011921,"stimulus":"\n                    <p><b>Action: <em>avoid</em></b></p>\n                    <p>This is the bee that you just saw.</p>\n                    <img src=\"bees-with-color/bee-A2SF.svg\" width=\"200\">\n                    <p><br>Your bonus pay is unchanged, and remains at $0.52.</p>\n            ","response":0,"trial_type":"html-button-response","trial_index":22,"time_elapsed":390002,"internal_node_id":"0.0-4.0-1.7","subject_id":"613a87fca7079e9109d15f66","study_id":"60edd13110225f80f9f3709b","session_id":"6196c4a76d32cc75560f0cb3","condition":"contingent","relevant_dimensions":["antennae","legs"],"bee_group":{"antennae":"A","wings":"X","pattern":"X","legs":"F"},"bonus":1.2000000000000008},{"rt":3310.300000011921,"stimulus":"bees-with-color/bee-A1SF.svg","response":1,"trial_type":"image-button-response","trial_index":23,"time_elapsed":393317,"internal_node_id":"0.0-4.0-0.8","subject_id":"613a87fca7079e9109d15f66","study_id":"60edd13110225f80f9f3709b","session_id":"6196c4a76d32cc75560f0cb3","condition":"contingent","relevant_dimensions":["antennae","legs"],"bee_group":{"antennae":"A","wings":"X","pattern":"X","legs":"F"},"action":"avoid","summary":"good-avoid","bonus":1.2000000000000008},{"rt":3615.5,"stimulus":"\n                    <p><b>Action: <em>avoid</em></b></p>\n                    <p>This is the bee that you just saw.</p>\n                    <img src=\"bees-with-color/bee-A1SF.svg\" width=\"200\">\n                    <p><br>Your bonus pay is unchanged, and remains at $0.52.</p>\n            ","response":0,"trial_type":"html-button-response","trial_index":24,"time_elapsed":396936,"internal_node_id":"0.0-4.0-1.8","subject_id":"613a87fca7079e9109d15f66","study_id":"60edd13110225f80f9f3709b","session_id":"6196c4a76d32cc75560f0cb3","condition":"contingent","relevant_dimensions":["antennae","legs"],"bee_group":{"antennae":"A","wings":"X","pattern":"X","legs":"F"},"bonus":1.2000000000000008},{"rt":4311.5,"stimulus":"bees-with-color/bee-B1SF.svg","response":0,"trial_type":"image-button-response","trial_index":25,"time_elapsed":401250,"internal_node_id":"0.0-4.0-0.9","subject_id":"613a87fca7079e9109d15f66","study_id":"60edd13110225f80f9f3709b","session_id":"6196c4a76d32cc75560f0cb3","condition":"contingent","relevant_dimensions":["antennae","legs"],"bee_group":{"antennae":"A","wings":"X","pattern":"X","legs":"F"},"action":"harvest","summary":"good-harvest","bonus":1.2000000000000008},{"rt":3490.400000035763,"stimulus":"\n                    <p><b>Action: <em>harvest</em></b></p>\n                    <p>This is the bee that you just saw.</p>\n                    <img src=\"bees-with-color/bee-B1SF.svg\" width=\"200\">\n                    <p><span class=\"greenText\"><b>Successful harvest!</b></span><br>Your pay has increased by $0.02. Your bonus pay is now $0.54.</p>\n            ","response":0,"trial_type":"html-button-response","trial_index":26,"time_elapsed":404743,"internal_node_id":"0.0-4.0-1.9","subject_id":"613a87fca7079e9109d15f66","study_id":"60edd13110225f80f9f3709b","session_id":"6196c4a76d32cc75560f0cb3","condition":"contingent","relevant_dimensions":["antennae","legs"],"bee_group":{"antennae":"A","wings":"X","pattern":"X","legs":"F"},"bonus":1.2000000000000008},{"rt":5152.299999952316,"stimulus":"bees-with-color/bee-A2SM.svg","response":1,"trial_type":"image-button-response","trial_index":27,"time_elapsed":409898,"internal_node_id":"0.0-4.0-0.10","subject_id":"613a87fca7079e9109d15f66","study_id":"60edd13110225f80f9f3709b","session_id":"6196c4a76d32cc75560f0cb3","condition":"contingent","relevant_dimensions":["antennae","legs"],"bee_group":{"antennae":"A","wings":"X","pattern":"X","legs":"F"},"action":"avoid","summary":"bad-avoid","bonus":1.2000000000000008},{"rt":3439.300000011921,"stimulus":"\n                    <p><b>Action: <em>avoid</em></b></p>\n                    <p>This is the bee that you just saw.</p>\n                    <img src=\"bees-with-color/bee-A2SM.svg\" width=\"200\">\n                    <p><br>Your bonus pay is unchanged, and remains at $0.54.</p>\n            ","response":0,"trial_type":"html-button-response","trial_index":28,"time_elapsed":413341,"internal_node_id":"0.0-4.0-1.10","subject_id":"613a87fca7079e9109d15f66","study_id":"60edd13110225f80f9f3709b","session_id":"6196c4a76d32cc75560f0cb3","condition":"contingent","relevant_dimensions":["antennae","legs"],"bee_group":{"antennae":"A","wings":"X","pattern":"X","legs":"F"},"bonus":1.2000000000000008},{"rt":3872.100000023842,"stimulus":"bees-with-color/bee-B2SF.svg","response":0,"trial_type":"image-button-response","trial_index":29,"time_elapsed":417216,"internal_node_id":"0.0-4.0-0.11","subject_id":"613a87fca7079e9109d15f66","study_id":"60edd13110225f80f9f3709b","session_id":"6196c4a76d32cc75560f0cb3","condition":"contingent","relevant_dimensions":["antennae","legs"],"bee_group":{"antennae":"A","wings":"X","pattern":"X","legs":"F"},"action":"harvest","summary":"good-harvest","bonus":1.2000000000000008},{"rt":3321.599999964237,"stimulus":"\n                    <p><b>Action: <em>harvest</em></b></p>\n                    <p>This is the bee that you just saw.</p>\n                    <img src=\"bees-with-color/bee-B2SF.svg\" width=\"200\">\n                    <p><span class=\"greenText\"><b>Successful harvest!</b></span><br>Your pay has increased by $0.02. Your bonus pay is now $0.56.</p>\n            ","response":0,"trial_type":"html-button-response","trial_index":30,"time_elapsed":420541,"internal_node_id":"0.0-4.0-1.11","subject_id":"613a87fca7079e9109d15f66","study_id":"60edd13110225f80f9f3709b","session_id":"6196c4a76d32cc75560f0cb3","condition":"contingent","relevant_dimensions":["antennae","legs"],"bee_group":{"antennae":"A","wings":"X","pattern":"X","legs":"F"},"bonus":1.2000000000000008},{"rt":6803.5,"stimulus":"bees-with-color/bee-A2DF.svg","response":0,"trial_type":"image-button-response","trial_index":31,"time_elapsed":427349,"internal_node_id":"0.0-4.0-0.12","subject_id":"613a87fca7079e9109d15f66","study_id":"60edd13110225f80f9f3709b","session_id":"6196c4a76d32cc75560f0cb3","condition":"contingent","relevant_dimensions":["antennae","legs"],"bee_group":{"antennae":"A","wings":"X","pattern":"X","legs":"F"},"action":"harvest","summary":"bad-harvest","bonus":1.2000000000000008},{"rt":4051.5,"stimulus":"\n                    <p><b>Action: <em>harvest</em></b></p>\n                    <p>This is the bee that you just saw.</p>\n                    <img src=\"bees-with-color/bee-A2DF.svg\" width=\"200\">\n                    <p><span class=\"redText\">Bad choice, the bee was angry.</span><br><b>You have been stung!</b><br>Your pay has been decreased by $0.10. Your bonus pay is now $0.46.</p>\n            ","response":0,"trial_type":"html-button-response","trial_index":32,"time_elapsed":431403,"internal_node_id":"0.0-4.0-1.12","subject_id":"613a87fca7079e9109d15f66","study_id":"60edd13110225f80f9f3709b","session_id":"6196c4a76d32cc75560f0cb3","condition":"contingent","relevant_dimensions":["antennae","legs"],"bee_group":{"antennae":"A","wings":"X","pattern":"X","legs":"F"},"bonus":1.2000000000000008},{"rt":4425.600000023842,"stimulus":"bees-with-color/bee-B1SM.svg","response":0,"trial_type":"image-button-response","trial_index":33,"time_elapsed":435831,"internal_node_id":"0.0-4.0-0.13","subject_id":"613a87fca7079e9109d15f66","study_id":"60edd13110225f80f9f3709b","session_id":"6196c4a76d32cc75560f0cb3","condition":"contingent","relevant_dimensions":["antennae","legs"],"bee_group":{"antennae":"A","wings":"X","pattern":"X","legs":"F"},"action":"harvest","summary":"good-harvest","bonus":1.2000000000000008},{"rt":3327.5,"stimulus":"\n                    <p><b>Action: <em>harvest</em></b></p>\n                    <p>This is the bee that you just saw.</p>\n                    <img src=\"bees-with-color/bee-B1SM.svg\" width=\"200\">\n                    <p><span class=\"greenText\"><b>Successful harvest!</b></span><br>Your pay has increased by $0.02. Your bonus pay is now $0.48.</p>\n            ","response":0,"trial_type":"html-button-response","trial_index":34,"time_elapsed":439161,"internal_node_id":"0.0-4.0-1.13","subject_id":"613a87fca7079e9109d15f66","study_id":"60edd13110225f80f9f3709b","session_id":"6196c4a76d32cc75560f0cb3","condition":"contingent","relevant_dimensions":["antennae","legs"],"bee_group":{"antennae":"A","wings":"X","pattern":"X","legs":"F"},"bonus":1.2000000000000008},{"rt":3436.699999988079,"stimulus":"bees-with-color/bee-B1DM.svg","response":0,"trial_type":"image-button-response","trial_index":35,"time_elapsed":442601,"internal_node_id":"0.0-4.0-0.14","subject_id":"613a87fca7079e9109d15f66","study_id":"60edd13110225f80f9f3709b","session_id":"6196c4a76d32cc75560f0cb3","condition":"contingent","relevant_dimensions":["antennae","legs"],"bee_group":{"antennae":"A","wings":"X","pattern":"X","legs":"F"},"action":"harvest","summary":"good-harvest","bonus":1.2000000000000008},{"rt":3612.100000023842,"stimulus":"\n                    <p><b>Action: <em>harvest</em></b></p>\n                    <p>This is the bee that you just saw.</p>\n                    <img src=\"bees-with-color/bee-B1DM.svg\" width=\"200\">\n                    <p><span class=\"greenText\"><b>Successful harvest!</b></span><br>Your pay has increased by $0.02. Your bonus pay is now $0.50.</p>\n            ","response":0,"trial_type":"html-button-response","trial_index":36,"time_elapsed":446215,"internal_node_id":"0.0-4.0-1.14","subject_id":"613a87fca7079e9109d15f66","study_id":"60edd13110225f80f9f3709b","session_id":"6196c4a76d32cc75560f0cb3","condition":"contingent","relevant_dimensions":["antennae","legs"],"bee_group":{"antennae":"A","wings":"X","pattern":"X","legs":"F"},"bonus":1.2000000000000008},{"rt":3720.7000000476837,"stimulus":"bees-with-color/bee-A2DM.svg","response":1,"trial_type":"image-button-response","trial_index":37,"time_elapsed":449938,"internal_node_id":"0.0-4.0-0.15","subject_id":"613a87fca7079e9109d15f66","study_id":"60edd13110225f80f9f3709b","session_id":"6196c4a76d32cc75560f0cb3","condition":"contingent","relevant_dimensions":["antennae","legs"],"bee_group":{"antennae":"A","wings":"X","pattern":"X","legs":"F"},"action":"avoid","summary":"bad-avoid","bonus":1.2000000000000008},{"rt":3532.199999988079,"stimulus":"\n                    <p><b>Action: <em>avoid</em></b></p>\n                    <p>This is the bee that you just saw.</p>\n                    <img src=\"bees-with-color/bee-A2DM.svg\" width=\"200\">\n                    <p><br>Your bonus pay is unchanged, and remains at $0.50.</p>\n            ","response":0,"trial_type":"html-button-response","trial_index":38,"time_elapsed":453473,"internal_node_id":"0.0-4.0-1.15","subject_id":"613a87fca7079e9109d15f66","study_id":"60edd13110225f80f9f3709b","session_id":"6196c4a76d32cc75560f0cb3","condition":"contingent","relevant_dimensions":["antennae","legs"],"bee_group":{"antennae":"A","wings":"X","pattern":"X","legs":"F"},"bonus":1.2000000000000008},{"rt":3916,"stimulus":"bees-with-color/bee-A2DM.svg","response":1,"trial_type":"image-button-response","trial_index":39,"time_elapsed":457391,"internal_node_id":"0.0-4.0-0.16","subject_id":"613a87fca7079e9109d15f66","study_id":"60edd13110225f80f9f3709b","session_id":"6196c4a76d32cc75560f0cb3","condition":"contingent","relevant_dimensions":["antennae","legs"],"bee_group":{"antennae":"A","wings":"X","pattern":"X","legs":"F"},"action":"avoid","summary":"bad-avoid","bonus":1.2000000000000008},{"rt":4907.5,"stimulus":"\n                    <p><b>Action: <em>avoid</em></b></p>\n                    <p>This is the bee that you just saw.</p>\n                    <img src=\"bees-with-color/bee-A2DM.svg\" width=\"200\">\n                    <p><br>Your bonus pay is unchanged, and remains at $0.50.</p>\n            ","response":0,"trial_type":"html-button-response","trial_index":40,"time_elapsed":462301,"internal_node_id":"0.0-4.0-1.16","subject_id":"613a87fca7079e9109d15f66","study_id":"60edd13110225f80f9f3709b","session_id":"6196c4a76d32cc75560f0cb3","condition":"contingent","relevant_dimensions":["antennae","legs"],"bee_group":{"antennae":"A","wings":"X","pattern":"X","legs":"F"},"bonus":1.2000000000000008},{"rt":2835.900000035763,"stimulus":"bees-with-color/bee-B1DM.svg","response":0,"trial_type":"image-button-response","trial_index":41,"time_elapsed":465139,"internal_node_id":"0.0-4.0-0.17","subject_id":"613a87fca7079e9109d15f66","study_id":"60edd13110225f80f9f3709b","session_id":"6196c4a76d32cc75560f0cb3","condition":"contingent","relevant_dimensions":["antennae","legs"],"bee_group":{"antennae":"A","wings":"X","pattern":"X","legs":"F"},"action":"harvest","summary":"good-harvest","bonus":1.2000000000000008},{"rt":2873.300000011921,"stimulus":"\n                    <p><b>Action: <em>harvest</em></b></p>\n                    <p>This is the bee that you just saw.</p>\n                    <img src=\"bees-with-color/bee-B1DM.svg\" width=\"200\">\n                    <p><span class=\"greenText\"><b>Successful harvest!</b></span><br>Your pay has increased by $0.02. Your bonus pay is now $0.52.</p>\n            ","response":0,"trial_type":"html-button-response","trial_index":42,"time_elapsed":468014,"internal_node_id":"0.0-4.0-1.17","subject_id":"613a87fca7079e9109d15f66","study_id":"60edd13110225f80f9f3709b","session_id":"6196c4a76d32cc75560f0cb3","condition":"contingent","relevant_dimensions":["antennae","legs"],"bee_group":{"antennae":"A","wings":"X","pattern":"X","legs":"F"},"bonus":1.2000000000000008},{"rt":4231,"stimulus":"bees-with-color/bee-A2DF.svg","response":1,"trial_type":"image-button-response","trial_index":43,"time_elapsed":472247,"internal_node_id":"0.0-4.0-0.18","subject_id":"613a87fca7079e9109d15f66","study_id":"60edd13110225f80f9f3709b","session_id":"6196c4a76d32cc75560f0cb3","condition":"contingent","relevant_dimensions":["antennae","legs"],"bee_group":{"antennae":"A","wings":"X","pattern":"X","legs":"F"},"action":"avoid","summary":"good-avoid","bonus":1.2000000000000008},{"rt":3555.199999988079,"stimulus":"\n                    <p><b>Action: <em>avoid</em></b></p>\n                    <p>This is the bee that you just saw.</p>\n                    <img src=\"bees-with-color/bee-A2DF.svg\" width=\"200\">\n                    <p><br>Your bonus pay is unchanged, and remains at $0.52.</p>\n            ","response":0,"trial_type":"html-button-response","trial_index":44,"time_elapsed":475804,"internal_node_id":"0.0-4.0-1.18","subject_id":"613a87fca7079e9109d15f66","study_id":"60edd13110225f80f9f3709b","session_id":"6196c4a76d32cc75560f0cb3","condition":"contingent","relevant_dimensions":["antennae","legs"],"bee_group":{"antennae":"A","wings":"X","pattern":"X","legs":"F"},"bonus":1.2000000000000008},{"rt":3901.400000035763,"stimulus":"bees-with-color/bee-B2DF.svg","response":0,"trial_type":"image-button-response","trial_index":45,"time_elapsed":479708,"internal_node_id":"0.0-4.0-0.19","subject_id":"613a87fca7079e9109d15f66","study_id":"60edd13110225f80f9f3709b","session_id":"6196c4a76d32cc75560f0cb3","condition":"contingent","relevant_dimensions":["antennae","legs"],"bee_group":{"antennae":"A","wings":"X","pattern":"X","legs":"F"},"action":"harvest","summary":"good-harvest","bonus":1.2000000000000008},{"rt":4637.199999988079,"stimulus":"\n                    <p><b>Action: <em>harvest</em></b></p>\n                    <p>This is the bee that you just saw.</p>\n                    <img src=\"bees-with-color/bee-B2DF.svg\" width=\"200\">\n                    <p><span class=\"greenText\"><b>Successful harvest!</b></span><br>Your pay has increased by $0.02. Your bonus pay is now $0.54.</p>\n            ","response":0,"trial_type":"html-button-response","trial_index":46,"time_elapsed":484347,"internal_node_id":"0.0-4.0-1.19","subject_id":"613a87fca7079e9109d15f66","study_id":"60edd13110225f80f9f3709b","session_id":"6196c4a76d32cc75560f0cb3","condition":"contingent","relevant_dimensions":["antennae","legs"],"bee_group":{"antennae":"A","wings":"X","pattern":"X","legs":"F"},"bonus":1.2000000000000008},{"rt":3364.600000023842,"stimulus":"bees-with-color/bee-A2SM.svg","response":1,"trial_type":"image-button-response","trial_index":47,"time_elapsed":487714,"internal_node_id":"0.0-4.0-0.20","subject_id":"613a87fca7079e9109d15f66","study_id":"60edd13110225f80f9f3709b","session_id":"6196c4a76d32cc75560f0cb3","condition":"contingent","relevant_dimensions":["antennae","legs"],"bee_group":{"antennae":"A","wings":"X","pattern":"X","legs":"F"},"action":"avoid","summary":"bad-avoid","bonus":1.2000000000000008},{"rt":2944.300000011921,"stimulus":"\n                    <p><b>Action: <em>avoid</em></b></p>\n                    <p>This is the bee that you just saw.</p>\n                    <img src=\"bees-with-color/bee-A2SM.svg\" width=\"200\">\n                    <p><br>Your bonus pay is unchanged, and remains at $0.54.</p>\n            ","response":0,"trial_type":"html-button-response","trial_index":48,"time_elapsed":490661,"internal_node_id":"0.0-4.0-1.20","subject_id":"613a87fca7079e9109d15f66","study_id":"60edd13110225f80f9f3709b","session_id":"6196c4a76d32cc75560f0cb3","condition":"contingent","relevant_dimensions":["antennae","legs"],"bee_group":{"antennae":"A","wings":"X","pattern":"X","legs":"F"},"bonus":1.2000000000000008},{"rt":4031.800000011921,"stimulus":"bees-with-color/bee-A1SM.svg","response":1,"trial_type":"image-button-response","trial_index":49,"time_elapsed":494695,"internal_node_id":"0.0-4.0-0.21","subject_id":"613a87fca7079e9109d15f66","study_id":"60edd13110225f80f9f3709b","session_id":"6196c4a76d32cc75560f0cb3","condition":"contingent","relevant_dimensions":["antennae","legs"],"bee_group":{"antennae":"A","wings":"X","pattern":"X","legs":"F"},"action":"avoid","summary":"bad-avoid","bonus":1.2000000000000008},{"rt":2936.199999988079,"stimulus":"\n                    <p><b>Action: <em>avoid</em></b></p>\n                    <p>This is the bee that you just saw.</p>\n                    <img src=\"bees-with-color/bee-A1SM.svg\" width=\"200\">\n                    <p><br>Your bonus pay is unchanged, and remains at $0.54.</p>\n            ","response":0,"trial_type":"html-button-response","trial_index":50,"time_elapsed":497633,"internal_node_id":"0.0-4.0-1.21","subject_id":"613a87fca7079e9109d15f66","study_id":"60edd13110225f80f9f3709b","session_id":"6196c4a76d32cc75560f0cb3","condition":"contingent","relevant_dimensions":["antennae","legs"],"bee_group":{"antennae":"A","wings":"X","pattern":"X","legs":"F"},"bonus":1.2000000000000008},{"rt":4044.599999964237,"stimulus":"bees-with-color/bee-A1SF.svg","response":1,"trial_type":"image-button-response","trial_index":51,"time_elapsed":501680,"internal_node_id":"0.0-4.0-0.22","subject_id":"613a87fca7079e9109d15f66","study_id":"60edd13110225f80f9f3709b","session_id":"6196c4a76d32cc75560f0cb3","condition":"contingent","relevant_dimensions":["antennae","legs"],"bee_group":{"antennae":"A","wings":"X","pattern":"X","legs":"F"},"action":"avoid","summary":"good-avoid","bonus":1.2000000000000008},{"rt":2899.099999964237,"stimulus":"\n                    <p><b>Action: <em>avoid</em></b></p>\n                    <p>This is the bee that you just saw.</p>\n                    <img src=\"bees-with-color/bee-A1SF.svg\" width=\"200\">\n                    <p><br>Your bonus pay is unchanged, and remains at $0.54.</p>\n            ","response":0,"trial_type":"html-button-response","trial_index":52,"time_elapsed":504582,"internal_node_id":"0.0-4.0-1.22","subject_id":"613a87fca7079e9109d15f66","study_id":"60edd13110225f80f9f3709b","session_id":"6196c4a76d32cc75560f0cb3","condition":"contingent","relevant_dimensions":["antennae","legs"],"bee_group":{"antennae":"A","wings":"X","pattern":"X","legs":"F"},"bonus":1.2000000000000008},{"rt":3747.7000000476837,"stimulus":"bees-with-color/bee-B2DM.svg","response":0,"trial_type":"image-button-response","trial_index":53,"time_elapsed":508332,"internal_node_id":"0.0-4.0-0.23","subject_id":"613a87fca7079e9109d15f66","study_id":"60edd13110225f80f9f3709b","session_id":"6196c4a76d32cc75560f0cb3","condition":"contingent","relevant_dimensions":["antennae","legs"],"bee_group":{"antennae":"A","wings":"X","pattern":"X","legs":"F"},"action":"harvest","summary":"good-harvest","bonus":1.2000000000000008},{"rt":2639.099999964237,"stimulus":"\n                    <p><b>Action: <em>harvest</em></b></p>\n                    <p>This is the bee that you just saw.</p>\n                    <img src=\"bees-with-color/bee-B2DM.svg\" width=\"200\">\n                    <p><span class=\"greenText\"><b>Successful harvest!</b></span><br>Your pay has increased by $0.02. Your bonus pay is now $0.56.</p>\n            ","response":0,"trial_type":"html-button-response","trial_index":54,"time_elapsed":510973,"internal_node_id":"0.0-4.0-1.23","subject_id":"613a87fca7079e9109d15f66","study_id":"60edd13110225f80f9f3709b","session_id":"6196c4a76d32cc75560f0cb3","condition":"contingent","relevant_dimensions":["antennae","legs"],"bee_group":{"antennae":"A","wings":"X","pattern":"X","legs":"F"},"bonus":1.2000000000000008},{"rt":6563.399999976158,"stimulus":"bees-with-color/bee-B1DF.svg","response":0,"trial_type":"image-button-response","trial_index":55,"time_elapsed":517539,"internal_node_id":"0.0-4.0-0.24","subject_id":"613a87fca7079e9109d15f66","study_id":"60edd13110225f80f9f3709b","session_id":"6196c4a76d32cc75560f0cb3","condition":"contingent","relevant_dimensions":["antennae","legs"],"bee_group":{"antennae":"A","wings":"X","pattern":"X","legs":"F"},"action":"harvest","summary":"good-harvest","bonus":1.2000000000000008},{"rt":3574.199999988079,"stimulus":"\n                    <p><b>Action: <em>harvest</em></b></p>\n                    <p>This is the bee that you just saw.</p>\n                    <img src=\"bees-with-color/bee-B1DF.svg\" width=\"200\">\n                    <p><span class=\"greenText\"><b>Successful harvest!</b></span><br>Your pay has increased by $0.02. Your bonus pay is now $0.58.</p>\n            ","response":0,"trial_type":"html-button-response","trial_index":56,"time_elapsed":521116,"internal_node_id":"0.0-4.0-1.24","subject_id":"613a87fca7079e9109d15f66","study_id":"60edd13110225f80f9f3709b","session_id":"6196c4a76d32cc75560f0cb3","condition":"contingent","relevant_dimensions":["antennae","legs"],"bee_group":{"antennae":"A","wings":"X","pattern":"X","legs":"F"},"bonus":1.2000000000000008},{"rt":4537.599999964237,"stimulus":"bees-with-color/bee-B2SM.svg","response":1,"trial_type":"image-button-response","trial_index":57,"time_elapsed":525656,"internal_node_id":"0.0-4.0-0.25","subject_id":"613a87fca7079e9109d15f66","study_id":"60edd13110225f80f9f3709b","session_id":"6196c4a76d32cc75560f0cb3","condition":"contingent","relevant_dimensions":["antennae","legs"],"bee_group":{"antennae":"A","wings":"X","pattern":"X","legs":"F"},"action":"avoid","summary":"bad-avoid","bonus":1.2000000000000008},{"rt":3032.699999988079,"stimulus":"\n                    <p><b>Action: <em>avoid</em></b></p>\n                    <p>This is the bee that you just saw.</p>\n                    <img src=\"bees-with-color/bee-B2SM.svg\" width=\"200\">\n                    <p><br>Your bonus pay is unchanged, and remains at $0.58.</p>\n            ","response":0,"trial_type":"html-button-response","trial_index":58,"time_elapsed":528691,"internal_node_id":"0.0-4.0-1.25","subject_id":"613a87fca7079e9109d15f66","study_id":"60edd13110225f80f9f3709b","session_id":"6196c4a76d32cc75560f0cb3","condition":"contingent","relevant_dimensions":["antennae","legs"],"bee_group":{"antennae":"A","wings":"X","pattern":"X","legs":"F"},"bonus":1.2000000000000008},{"rt":3454.400000035763,"stimulus":"bees-with-color/bee-A2SF.svg","response":1,"trial_type":"image-button-response","trial_index":59,"time_elapsed":532148,"internal_node_id":"0.0-4.0-0.26","subject_id":"613a87fca7079e9109d15f66","study_id":"60edd13110225f80f9f3709b","session_id":"6196c4a76d32cc75560f0cb3","condition":"contingent","relevant_dimensions":["antennae","legs"],"bee_group":{"antennae":"A","wings":"X","pattern":"X","legs":"F"},"action":"avoid","summary":"good-avoid","bonus":1.2000000000000008},{"rt":3368.800000011921,"stimulus":"\n                    <p><b>Action: <em>avoid</em></b></p>\n                    <p>This is the bee that you just saw.</p>\n                    <img src=\"bees-with-color/bee-A2SF.svg\" width=\"200\">\n                    <p><br>Your bonus pay is unchanged, and remains at $0.58.</p>\n            ","response":0,"trial_type":"html-button-response","trial_index":60,"time_elapsed":535517,"internal_node_id":"0.0-4.0-1.26","subject_id":"613a87fca7079e9109d15f66","study_id":"60edd13110225f80f9f3709b","session_id":"6196c4a76d32cc75560f0cb3","condition":"contingent","relevant_dimensions":["antennae","legs"],"bee_group":{"antennae":"A","wings":"X","pattern":"X","legs":"F"},"bonus":1.2000000000000008},{"rt":3391.800000011921,"stimulus":"bees-with-color/bee-B2SF.svg","response":0,"trial_type":"image-button-response","trial_index":61,"time_elapsed":538912,"internal_node_id":"0.0-4.0-0.27","subject_id":"613a87fca7079e9109d15f66","study_id":"60edd13110225f80f9f3709b","session_id":"6196c4a76d32cc75560f0cb3","condition":"contingent","relevant_dimensions":["antennae","legs"],"bee_group":{"antennae":"A","wings":"X","pattern":"X","legs":"F"},"action":"harvest","summary":"good-harvest","bonus":1.2000000000000008},{"rt":2897.2000000476837,"stimulus":"\n                    <p><b>Action: <em>harvest</em></b></p>\n                    <p>This is the bee that you just saw.</p>\n                    <img src=\"bees-with-color/bee-B2SF.svg\" width=\"200\">\n                    <p><span class=\"greenText\"><b>Successful harvest!</b></span><br>Your pay has increased by $0.02. Your bonus pay is now $0.60.</p>\n            ","response":0,"trial_type":"html-button-response","trial_index":62,"time_elapsed":541811,"internal_node_id":"0.0-4.0-1.27","subject_id":"613a87fca7079e9109d15f66","study_id":"60edd13110225f80f9f3709b","session_id":"6196c4a76d32cc75560f0cb3","condition":"contingent","relevant_dimensions":["antennae","legs"],"bee_group":{"antennae":"A","wings":"X","pattern":"X","legs":"F"},"bonus":1.2000000000000008},{"rt":2875,"stimulus":"bees-with-color/bee-B1SM.svg","response":0,"trial_type":"image-button-response","trial_index":63,"time_elapsed":544689,"internal_node_id":"0.0-4.0-0.28","subject_id":"613a87fca7079e9109d15f66","study_id":"60edd13110225f80f9f3709b","session_id":"6196c4a76d32cc75560f0cb3","condition":"contingent","relevant_dimensions":["antennae","legs"],"bee_group":{"antennae":"A","wings":"X","pattern":"X","legs":"F"},"action":"harvest","summary":"good-harvest","bonus":1.2000000000000008},{"rt":4731.5,"stimulus":"\n                    <p><b>Action: <em>harvest</em></b></p>\n                    <p>This is the bee that you just saw.</p>\n                    <img src=\"bees-with-color/bee-B1SM.svg\" width=\"200\">\n                    <p><span class=\"greenText\"><b>Successful harvest!</b></span><br>Your pay has increased by $0.02. Your bonus pay is now $0.62.</p>\n            ","response":0,"trial_type":"html-button-response","trial_index":64,"time_elapsed":549422,"internal_node_id":"0.0-4.0-1.28","subject_id":"613a87fca7079e9109d15f66","study_id":"60edd13110225f80f9f3709b","session_id":"6196c4a76d32cc75560f0cb3","condition":"contingent","relevant_dimensions":["antennae","legs"],"bee_group":{"antennae":"A","wings":"X","pattern":"X","legs":"F"},"bonus":1.2000000000000008},{"rt":3230.2999999523163,"stimulus":"bees-with-color/bee-A1DF.svg","response":1,"trial_type":"image-button-response","trial_index":65,"time_elapsed":552655,"internal_node_id":"0.0-4.0-0.29","subject_id":"613a87fca7079e9109d15f66","study_id":"60edd13110225f80f9f3709b","session_id":"6196c4a76d32cc75560f0cb3","condition":"contingent","relevant_dimensions":["antennae","legs"],"bee_group":{"antennae":"A","wings":"X","pattern":"X","legs":"F"},"action":"avoid","summary":"good-avoid","bonus":1.2000000000000008},{"rt":2841.199999988079,"stimulus":"\n                    <p><b>Action: <em>avoid</em></b></p>\n                    <p>This is the bee that you just saw.</p>\n                    <img src=\"bees-with-color/bee-A1DF.svg\" width=\"200\">\n                    <p><br>Your bonus pay is unchanged, and remains at $0.62.</p>\n            ","response":0,"trial_type":"html-button-response","trial_index":66,"time_elapsed":555500,"internal_node_id":"0.0-4.0-1.29","subject_id":"613a87fca7079e9109d15f66","study_id":"60edd13110225f80f9f3709b","session_id":"6196c4a76d32cc75560f0cb3","condition":"contingent","relevant_dimensions":["antennae","legs"],"bee_group":{"antennae":"A","wings":"X","pattern":"X","legs":"F"},"bonus":1.2000000000000008},{"rt":5375.899999976158,"stimulus":"bees-with-color/bee-B1SF.svg","response":1,"trial_type":"image-button-response","trial_index":67,"time_elapsed":560878,"internal_node_id":"0.0-4.0-0.30","subject_id":"613a87fca7079e9109d15f66","study_id":"60edd13110225f80f9f3709b","session_id":"6196c4a76d32cc75560f0cb3","condition":"contingent","relevant_dimensions":["antennae","legs"],"bee_group":{"antennae":"A","wings":"X","pattern":"X","legs":"F"},"action":"avoid","summary":"bad-avoid","bonus":1.2000000000000008},{"rt":2921.199999988079,"stimulus":"\n                    <p><b>Action: <em>avoid</em></b></p>\n                    <p>This is the bee that you just saw.</p>\n                    <img src=\"bees-with-color/bee-B1SF.svg\" width=\"200\">\n                    <p><br>Your bonus pay is unchanged, and remains at $0.62.</p>\n            ","response":0,"trial_type":"html-button-response","trial_index":68,"time_elapsed":563801,"internal_node_id":"0.0-4.0-1.30","subject_id":"613a87fca7079e9109d15f66","study_id":"60edd13110225f80f9f3709b","session_id":"6196c4a76d32cc75560f0cb3","condition":"contingent","relevant_dimensions":["antennae","legs"],"bee_group":{"antennae":"A","wings":"X","pattern":"X","legs":"F"},"bonus":1.2000000000000008},{"rt":3142.900000035763,"stimulus":"bees-with-color/bee-A1DM.svg","response":1,"trial_type":"image-button-response","trial_index":69,"time_elapsed":566947,"internal_node_id":"0.0-4.0-0.31","subject_id":"613a87fca7079e9109d15f66","study_id":"60edd13110225f80f9f3709b","session_id":"6196c4a76d32cc75560f0cb3","condition":"contingent","relevant_dimensions":["antennae","legs"],"bee_group":{"antennae":"A","wings":"X","pattern":"X","legs":"F"},"action":"avoid","summary":"bad-avoid","bonus":1.2000000000000008},{"rt":2662.600000023842,"stimulus":"\n                    <p><b>Action: <em>avoid</em></b></p>\n                    <p>This is the bee that you just saw.</p>\n                    <img src=\"bees-with-color/bee-A1DM.svg\" width=\"200\">\n                    <p><br>Your bonus pay is unchanged, and remains at $0.62.</p>\n            ","response":0,"trial_type":"html-button-response","trial_index":70,"time_elapsed":569612,"internal_node_id":"0.0-4.0-1.31","subject_id":"613a87fca7079e9109d15f66","study_id":"60edd13110225f80f9f3709b","session_id":"6196c4a76d32cc75560f0cb3","condition":"contingent","relevant_dimensions":["antennae","legs"],"bee_group":{"antennae":"A","wings":"X","pattern":"X","legs":"F"},"bonus":1.2000000000000008},{"rt":2739.5,"stimulus":"bees-with-color/bee-B1DM.svg","response":0,"trial_type":"image-button-response","trial_index":71,"time_elapsed":572354,"internal_node_id":"0.0-4.0-0.32","subject_id":"613a87fca7079e9109d15f66","study_id":"60edd13110225f80f9f3709b","session_id":"6196c4a76d32cc75560f0cb3","condition":"contingent","relevant_dimensions":["antennae","legs"],"bee_group":{"antennae":"A","wings":"X","pattern":"X","legs":"F"},"action":"harvest","summary":"good-harvest","bonus":1.2000000000000008},{"rt":2850.899999976158,"stimulus":"\n                    <p><b>Action: <em>harvest</em></b></p>\n                    <p>This is the bee that you just saw.</p>\n                    <img src=\"bees-with-color/bee-B1DM.svg\" width=\"200\">\n                    <p><span class=\"greenText\"><b>Successful harvest!</b></span><br>Your pay has increased by $0.02. Your bonus pay is now $0.64.</p>\n            ","response":0,"trial_type":"html-button-response","trial_index":72,"time_elapsed":575208,"internal_node_id":"0.0-4.0-1.32","subject_id":"613a87fca7079e9109d15f66","study_id":"60edd13110225f80f9f3709b","session_id":"6196c4a76d32cc75560f0cb3","condition":"contingent","relevant_dimensions":["antennae","legs"],"bee_group":{"antennae":"A","wings":"X","pattern":"X","legs":"F"},"bonus":1.2000000000000008},{"rt":2877.899999976158,"stimulus":"bees-with-color/bee-A1SM.svg","response":1,"trial_type":"image-button-response","trial_index":73,"time_elapsed":578088,"internal_node_id":"0.0-4.0-0.33","subject_id":"613a87fca7079e9109d15f66","study_id":"60edd13110225f80f9f3709b","session_id":"6196c4a76d32cc75560f0cb3","condition":"contingent","relevant_dimensions":["antennae","legs"],"bee_group":{"antennae":"A","wings":"X","pattern":"X","legs":"F"},"action":"avoid","summary":"bad-avoid","bonus":1.2000000000000008},{"rt":2810.899999976158,"stimulus":"\n                    <p><b>Action: <em>avoid</em></b></p>\n                    <p>This is the bee that you just saw.</p>\n                    <img src=\"bees-with-color/bee-A1SM.svg\" width=\"200\">\n                    <p><br>Your bonus pay is unchanged, and remains at $0.64.</p>\n            ","response":0,"trial_type":"html-button-response","trial_index":74,"time_elapsed":580901,"internal_node_id":"0.0-4.0-1.33","subject_id":"613a87fca7079e9109d15f66","study_id":"60edd13110225f80f9f3709b","session_id":"6196c4a76d32cc75560f0cb3","condition":"contingent","relevant_dimensions":["antennae","legs"],"bee_group":{"antennae":"A","wings":"X","pattern":"X","legs":"F"},"bonus":1.2000000000000008},{"rt":4912.099999964237,"stimulus":"bees-with-color/bee-A2DF.svg","response":1,"trial_type":"image-button-response","trial_index":75,"time_elapsed":585816,"internal_node_id":"0.0-4.0-0.34","subject_id":"613a87fca7079e9109d15f66","study_id":"60edd13110225f80f9f3709b","session_id":"6196c4a76d32cc75560f0cb3","condition":"contingent","relevant_dimensions":["antennae","legs"],"bee_group":{"antennae":"A","wings":"X","pattern":"X","legs":"F"},"action":"avoid","summary":"good-avoid","bonus":1.2000000000000008},{"rt":3473.800000011921,"stimulus":"\n                    <p><b>Action: <em>avoid</em></b></p>\n                    <p>This is the bee that you just saw.</p>\n                    <img src=\"bees-with-color/bee-A2DF.svg\" width=\"200\">\n                    <p><br>Your bonus pay is unchanged, and remains at $0.64.</p>\n            ","response":0,"trial_type":"html-button-response","trial_index":76,"time_elapsed":589292,"internal_node_id":"0.0-4.0-1.34","subject_id":"613a87fca7079e9109d15f66","study_id":"60edd13110225f80f9f3709b","session_id":"6196c4a76d32cc75560f0cb3","condition":"contingent","relevant_dimensions":["antennae","legs"],"bee_group":{"antennae":"A","wings":"X","pattern":"X","legs":"F"},"bonus":1.2000000000000008},{"rt":2916.199999988079,"stimulus":"bees-with-color/bee-A1DF.svg","response":1,"trial_type":"image-button-response","trial_index":77,"time_elapsed":592211,"internal_node_id":"0.0-4.0-0.35","subject_id":"613a87fca7079e9109d15f66","study_id":"60edd13110225f80f9f3709b","session_id":"6196c4a76d32cc75560f0cb3","condition":"contingent","relevant_dimensions":["antennae","legs"],"bee_group":{"antennae":"A","wings":"X","pattern":"X","legs":"F"},"action":"avoid","summary":"good-avoid","bonus":1.2000000000000008},{"rt":3018.600000023842,"stimulus":"\n                    <p><b>Action: <em>avoid</em></b></p>\n                    <p>This is the bee that you just saw.</p>\n                    <img src=\"bees-with-color/bee-A1DF.svg\" width=\"200\">\n                    <p><br>Your bonus pay is unchanged, and remains at $0.64.</p>\n            ","response":0,"trial_type":"html-button-response","trial_index":78,"time_elapsed":595231,"internal_node_id":"0.0-4.0-1.35","subject_id":"613a87fca7079e9109d15f66","study_id":"60edd13110225f80f9f3709b","session_id":"6196c4a76d32cc75560f0cb3","condition":"contingent","relevant_dimensions":["antennae","legs"],"bee_group":{"antennae":"A","wings":"X","pattern":"X","legs":"F"},"bonus":1.2000000000000008},{"rt":3108.099999964237,"stimulus":"bees-with-color/bee-A2SM.svg","response":1,"trial_type":"image-button-response","trial_index":79,"time_elapsed":598345,"internal_node_id":"0.0-4.0-0.36","subject_id":"613a87fca7079e9109d15f66","study_id":"60edd13110225f80f9f3709b","session_id":"6196c4a76d32cc75560f0cb3","condition":"contingent","relevant_dimensions":["antennae","legs"],"bee_group":{"antennae":"A","wings":"X","pattern":"X","legs":"F"},"action":"avoid","summary":"bad-avoid","bonus":1.2000000000000008},{"rt":2766.100000023842,"stimulus":"\n                    <p><b>Action: <em>avoid</em></b></p>\n                    <p>This is the bee that you just saw.</p>\n                    <img src=\"bees-with-color/bee-A2SM.svg\" width=\"200\">\n                    <p><br>Your bonus pay is unchanged, and remains at $0.64.</p>\n            ","response":0,"trial_type":"html-button-response","trial_index":80,"time_elapsed":601113,"internal_node_id":"0.0-4.0-1.36","subject_id":"613a87fca7079e9109d15f66","study_id":"60edd13110225f80f9f3709b","session_id":"6196c4a76d32cc75560f0cb3","condition":"contingent","relevant_dimensions":["antennae","legs"],"bee_group":{"antennae":"A","wings":"X","pattern":"X","legs":"F"},"bonus":1.2000000000000008},{"rt":2496.2999999523163,"stimulus":"bees-with-color/bee-B2DF.svg","response":0,"trial_type":"image-button-response","trial_index":81,"time_elapsed":603614,"internal_node_id":"0.0-4.0-0.37","subject_id":"613a87fca7079e9109d15f66","study_id":"60edd13110225f80f9f3709b","session_id":"6196c4a76d32cc75560f0cb3","condition":"contingent","relevant_dimensions":["antennae","legs"],"bee_group":{"antennae":"A","wings":"X","pattern":"X","legs":"F"},"action":"harvest","summary":"good-harvest","bonus":1.2000000000000008},{"rt":2946.300000011921,"stimulus":"\n                    <p><b>Action: <em>harvest</em></b></p>\n                    <p>This is the bee that you just saw.</p>\n                    <img src=\"bees-with-color/bee-B2DF.svg\" width=\"200\">\n                    <p><span class=\"greenText\"><b>Successful harvest!</b></span><br>Your pay has increased by $0.02. Your bonus pay is now $0.66.</p>\n            ","response":0,"trial_type":"html-button-response","trial_index":82,"time_elapsed":606563,"internal_node_id":"0.0-4.0-1.37","subject_id":"613a87fca7079e9109d15f66","study_id":"60edd13110225f80f9f3709b","session_id":"6196c4a76d32cc75560f0cb3","condition":"contingent","relevant_dimensions":["antennae","legs"],"bee_group":{"antennae":"A","wings":"X","pattern":"X","legs":"F"},"bonus":1.2000000000000008},{"rt":3676,"stimulus":"bees-with-color/bee-B1SM.svg","response":0,"trial_type":"image-button-response","trial_index":83,"time_elapsed":610242,"internal_node_id":"0.0-4.0-0.38","subject_id":"613a87fca7079e9109d15f66","study_id":"60edd13110225f80f9f3709b","session_id":"6196c4a76d32cc75560f0cb3","condition":"contingent","relevant_dimensions":["antennae","legs"],"bee_group":{"antennae":"A","wings":"X","pattern":"X","legs":"F"},"action":"harvest","summary":"good-harvest","bonus":1.2000000000000008},{"rt":3570.599999964237,"stimulus":"\n                    <p><b>Action: <em>harvest</em></b></p>\n                    <p>This is the bee that you just saw.</p>\n                    <img src=\"bees-with-color/bee-B1SM.svg\" width=\"200\">\n                    <p><span class=\"greenText\"><b>Successful harvest!</b></span><br>Your pay has increased by $0.02. Your bonus pay is now $0.68.</p>\n            ","response":0,"trial_type":"html-button-response","trial_index":84,"time_elapsed":613814,"internal_node_id":"0.0-4.0-1.38","subject_id":"613a87fca7079e9109d15f66","study_id":"60edd13110225f80f9f3709b","session_id":"6196c4a76d32cc75560f0cb3","condition":"contingent","relevant_dimensions":["antennae","legs"],"bee_group":{"antennae":"A","wings":"X","pattern":"X","legs":"F"},"bonus":1.2000000000000008},{"rt":6063.899999976158,"stimulus":"bees-with-color/bee-B2DM.svg","response":0,"trial_type":"image-button-response","trial_index":85,"time_elapsed":619881,"internal_node_id":"0.0-4.0-0.39","subject_id":"613a87fca7079e9109d15f66","study_id":"60edd13110225f80f9f3709b","session_id":"6196c4a76d32cc75560f0cb3","condition":"contingent","relevant_dimensions":["antennae","legs"],"bee_group":{"antennae":"A","wings":"X","pattern":"X","legs":"F"},"action":"harvest","summary":"good-harvest","bonus":1.2000000000000008},{"rt":3940.599999964237,"stimulus":"\n                    <p><b>Action: <em>harvest</em></b></p>\n                    <p>This is the bee that you just saw.</p>\n                    <img src=\"bees-with-color/bee-B2DM.svg\" width=\"200\">\n                    <p><span class=\"greenText\"><b>Successful harvest!</b></span><br>Your pay has increased by $0.02. Your bonus pay is now $0.70.</p>\n            ","response":0,"trial_type":"html-button-response","trial_index":86,"time_elapsed":623823,"internal_node_id":"0.0-4.0-1.39","subject_id":"613a87fca7079e9109d15f66","study_id":"60edd13110225f80f9f3709b","session_id":"6196c4a76d32cc75560f0cb3","condition":"contingent","relevant_dimensions":["antennae","legs"],"bee_group":{"antennae":"A","wings":"X","pattern":"X","legs":"F"},"bonus":1.2000000000000008},{"rt":2857.300000011921,"stimulus":"bees-with-color/bee-B1SF.svg","response":0,"trial_type":"image-button-response","trial_index":87,"time_elapsed":626683,"internal_node_id":"0.0-4.0-0.40","subject_id":"613a87fca7079e9109d15f66","study_id":"60edd13110225f80f9f3709b","session_id":"6196c4a76d32cc75560f0cb3","condition":"contingent","relevant_dimensions":["antennae","legs"],"bee_group":{"antennae":"A","wings":"X","pattern":"X","legs":"F"},"action":"harvest","summary":"good-harvest","bonus":1.2000000000000008},{"rt":2770.300000011921,"stimulus":"\n                    <p><b>Action: <em>harvest</em></b></p>\n                    <p>This is the bee that you just saw.</p>\n                    <img src=\"bees-with-color/bee-B1SF.svg\" width=\"200\">\n                    <p><span class=\"greenText\"><b>Successful harvest!</b></span><br>Your pay has increased by $0.02. Your bonus pay is now $0.72.</p>\n            ","response":0,"trial_type":"html-button-response","trial_index":88,"time_elapsed":629455,"internal_node_id":"0.0-4.0-1.40","subject_id":"613a87fca7079e9109d15f66","study_id":"60edd13110225f80f9f3709b","session_id":"6196c4a76d32cc75560f0cb3","condition":"contingent","relevant_dimensions":["antennae","legs"],"bee_group":{"antennae":"A","wings":"X","pattern":"X","legs":"F"},"bonus":1.2000000000000008},{"rt":2922.800000011921,"stimulus":"bees-with-color/bee-A1DM.svg","response":1,"trial_type":"image-button-response","trial_index":89,"time_elapsed":632380,"internal_node_id":"0.0-4.0-0.41","subject_id":"613a87fca7079e9109d15f66","study_id":"60edd13110225f80f9f3709b","session_id":"6196c4a76d32cc75560f0cb3","condition":"contingent","relevant_dimensions":["antennae","legs"],"bee_group":{"antennae":"A","wings":"X","pattern":"X","legs":"F"},"action":"avoid","summary":"bad-avoid","bonus":1.2000000000000008},{"rt":2707,"stimulus":"\n                    <p><b>Action: <em>avoid</em></b></p>\n                    <p>This is the bee that you just saw.</p>\n                    <img src=\"bees-with-color/bee-A1DM.svg\" width=\"200\">\n                    <p><br>Your bonus pay is unchanged, and remains at $0.72.</p>\n            ","response":0,"trial_type":"html-button-response","trial_index":90,"time_elapsed":635089,"internal_node_id":"0.0-4.0-1.41","subject_id":"613a87fca7079e9109d15f66","study_id":"60edd13110225f80f9f3709b","session_id":"6196c4a76d32cc75560f0cb3","condition":"contingent","relevant_dimensions":["antennae","legs"],"bee_group":{"antennae":"A","wings":"X","pattern":"X","legs":"F"},"bonus":1.2000000000000008},{"rt":3285.699999988079,"stimulus":"bees-with-color/bee-B1DF.svg","response":0,"trial_type":"image-button-response","trial_index":91,"time_elapsed":638378,"internal_node_id":"0.0-4.0-0.42","subject_id":"613a87fca7079e9109d15f66","study_id":"60edd13110225f80f9f3709b","session_id":"6196c4a76d32cc75560f0cb3","condition":"contingent","relevant_dimensions":["antennae","legs"],"bee_group":{"antennae":"A","wings":"X","pattern":"X","legs":"F"},"action":"harvest","summary":"good-harvest","bonus":1.2000000000000008},{"rt":3033.400000035763,"stimulus":"\n                    <p><b>Action: <em>harvest</em></b></p>\n                    <p>This is the bee that you just saw.</p>\n                    <img src=\"bees-with-color/bee-B1DF.svg\" width=\"200\">\n                    <p><span class=\"greenText\"><b>Successful harvest!</b></span><br>Your pay has increased by $0.02. Your bonus pay is now $0.74.</p>\n            ","response":0,"trial_type":"html-button-response","trial_index":92,"time_elapsed":641414,"internal_node_id":"0.0-4.0-1.42","subject_id":"613a87fca7079e9109d15f66","study_id":"60edd13110225f80f9f3709b","session_id":"6196c4a76d32cc75560f0cb3","condition":"contingent","relevant_dimensions":["antennae","legs"],"bee_group":{"antennae":"A","wings":"X","pattern":"X","legs":"F"},"bonus":1.2000000000000008},{"rt":3363.300000011921,"stimulus":"bees-with-color/bee-A2DM.svg","response":1,"trial_type":"image-button-response","trial_index":93,"time_elapsed":644781,"internal_node_id":"0.0-4.0-0.43","subject_id":"613a87fca7079e9109d15f66","study_id":"60edd13110225f80f9f3709b","session_id":"6196c4a76d32cc75560f0cb3","condition":"contingent","relevant_dimensions":["antennae","legs"],"bee_group":{"antennae":"A","wings":"X","pattern":"X","legs":"F"},"action":"avoid","summary":"bad-avoid","bonus":1.2000000000000008},{"rt":3042.5,"stimulus":"\n                    <p><b>Action: <em>avoid</em></b></p>\n                    <p>This is the bee that you just saw.</p>\n                    <img src=\"bees-with-color/bee-A2DM.svg\" width=\"200\">\n                    <p><br>Your bonus pay is unchanged, and remains at $0.74.</p>\n            ","response":0,"trial_type":"html-button-response","trial_index":94,"time_elapsed":647826,"internal_node_id":"0.0-4.0-1.43","subject_id":"613a87fca7079e9109d15f66","study_id":"60edd13110225f80f9f3709b","session_id":"6196c4a76d32cc75560f0cb3","condition":"contingent","relevant_dimensions":["antennae","legs"],"bee_group":{"antennae":"A","wings":"X","pattern":"X","legs":"F"},"bonus":1.2000000000000008},{"rt":2830,"stimulus":"bees-with-color/bee-B2SM.svg","response":0,"trial_type":"image-button-response","trial_index":95,"time_elapsed":650666,"internal_node_id":"0.0-4.0-0.44","subject_id":"613a87fca7079e9109d15f66","study_id":"60edd13110225f80f9f3709b","session_id":"6196c4a76d32cc75560f0cb3","condition":"contingent","relevant_dimensions":["antennae","legs"],"bee_group":{"antennae":"A","wings":"X","pattern":"X","legs":"F"},"action":"harvest","summary":"good-harvest","bonus":1.2000000000000008},{"rt":3210.5,"stimulus":"\n                    <p><b>Action: <em>harvest</em></b></p>\n                    <p>This is the bee that you just saw.</p>\n                    <img src=\"bees-with-color/bee-B2SM.svg\" width=\"200\">\n                    <p><span class=\"greenText\"><b>Successful harvest!</b></span><br>Your pay has increased by $0.02. Your bonus pay is now $0.76.</p>\n            ","response":0,"trial_type":"html-button-response","trial_index":96,"time_elapsed":653879,"internal_node_id":"0.0-4.0-1.44","subject_id":"613a87fca7079e9109d15f66","study_id":"60edd13110225f80f9f3709b","session_id":"6196c4a76d32cc75560f0cb3","condition":"contingent","relevant_dimensions":["antennae","legs"],"bee_group":{"antennae":"A","wings":"X","pattern":"X","legs":"F"},"bonus":1.2000000000000008},{"rt":2994.600000023842,"stimulus":"bees-with-color/bee-B2SF.svg","response":0,"trial_type":"image-button-response","trial_index":97,"time_elapsed":656873,"internal_node_id":"0.0-4.0-0.45","subject_id":"613a87fca7079e9109d15f66","study_id":"60edd13110225f80f9f3709b","session_id":"6196c4a76d32cc75560f0cb3","condition":"contingent","relevant_dimensions":["antennae","legs"],"bee_group":{"antennae":"A","wings":"X","pattern":"X","legs":"F"},"action":"harvest","summary":"good-harvest","bonus":1.2000000000000008},{"rt":2946.100000023842,"stimulus":"\n                    <p><b>Action: <em>harvest</em></b></p>\n                    <p>This is the bee that you just saw.</p>\n                    <img src=\"bees-with-color/bee-B2SF.svg\" width=\"200\">\n                    <p><span class=\"greenText\"><b>Successful harvest!</b></span><br>Your pay has increased by $0.02. Your bonus pay is now $0.78.</p>\n            ","response":0,"trial_type":"html-button-response","trial_index":98,"time_elapsed":659821,"internal_node_id":"0.0-4.0-1.45","subject_id":"613a87fca7079e9109d15f66","study_id":"60edd13110225f80f9f3709b","session_id":"6196c4a76d32cc75560f0cb3","condition":"contingent","relevant_dimensions":["antennae","legs"],"bee_group":{"antennae":"A","wings":"X","pattern":"X","legs":"F"},"bonus":1.2000000000000008},{"rt":2964.300000011921,"stimulus":"bees-with-color/bee-A1SF.svg","response":1,"trial_type":"image-button-response","trial_index":99,"time_elapsed":662788,"internal_node_id":"0.0-4.0-0.46","subject_id":"613a87fca7079e9109d15f66","study_id":"60edd13110225f80f9f3709b","session_id":"6196c4a76d32cc75560f0cb3","condition":"contingent","relevant_dimensions":["antennae","legs"],"bee_group":{"antennae":"A","wings":"X","pattern":"X","legs":"F"},"action":"avoid","summary":"good-avoid","bonus":1.2000000000000008},{"rt":2886.199999988079,"stimulus":"\n                    <p><b>Action: <em>avoid</em></b></p>\n                    <p>This is the bee that you just saw.</p>\n                    <img src=\"bees-with-color/bee-A1SF.svg\" width=\"200\">\n                    <p><br>Your bonus pay is unchanged, and remains at $0.78.</p>\n            ","response":0,"trial_type":"html-button-response","trial_index":100,"time_elapsed":665676,"internal_node_id":"0.0-4.0-1.46","subject_id":"613a87fca7079e9109d15f66","study_id":"60edd13110225f80f9f3709b","session_id":"6196c4a76d32cc75560f0cb3","condition":"contingent","relevant_dimensions":["antennae","legs"],"bee_group":{"antennae":"A","wings":"X","pattern":"X","legs":"F"},"bonus":1.2000000000000008},{"rt":3611.199999988079,"stimulus":"bees-with-color/bee-A2SF.svg","response":1,"trial_type":"image-button-response","trial_index":101,"time_elapsed":669289,"internal_node_id":"0.0-4.0-0.47","subject_id":"613a87fca7079e9109d15f66","study_id":"60edd13110225f80f9f3709b","session_id":"6196c4a76d32cc75560f0cb3","condition":"contingent","relevant_dimensions":["antennae","legs"],"bee_group":{"antennae":"A","wings":"X","pattern":"X","legs":"F"},"action":"avoid","summary":"good-avoid","bonus":1.2000000000000008},{"rt":2678.5,"stimulus":"\n                    <p><b>Action: <em>avoid</em></b></p>\n                    <p>This is the bee that you just saw.</p>\n                    <img src=\"bees-with-color/bee-A2SF.svg\" width=\"200\">\n                    <p><br>Your bonus pay is unchanged, and remains at $0.78.</p>\n            ","response":0,"trial_type":"html-button-response","trial_index":102,"time_elapsed":671970,"internal_node_id":"0.0-4.0-1.47","subject_id":"613a87fca7079e9109d15f66","study_id":"60edd13110225f80f9f3709b","session_id":"6196c4a76d32cc75560f0cb3","condition":"contingent","relevant_dimensions":["antennae","legs"],"bee_group":{"antennae":"A","wings":"X","pattern":"X","legs":"F"},"bonus":1.2000000000000008},{"rt":2700.5,"stimulus":"bees-with-color/bee-A1DF.svg","response":1,"trial_type":"image-button-response","trial_index":103,"time_elapsed":674673,"internal_node_id":"0.0-4.0-0.48","subject_id":"613a87fca7079e9109d15f66","study_id":"60edd13110225f80f9f3709b","session_id":"6196c4a76d32cc75560f0cb3","condition":"contingent","relevant_dimensions":["antennae","legs"],"bee_group":{"antennae":"A","wings":"X","pattern":"X","legs":"F"},"action":"avoid","summary":"good-avoid","bonus":1.2000000000000008},{"rt":2965.7000000476837,"stimulus":"\n                    <p><b>Action: <em>avoid</em></b></p>\n                    <p>This is the bee that you just saw.</p>\n                    <img src=\"bees-with-color/bee-A1DF.svg\" width=\"200\">\n                    <p><br>Your bonus pay is unchanged, and remains at $0.78.</p>\n            ","response":0,"trial_type":"html-button-response","trial_index":104,"time_elapsed":677640,"internal_node_id":"0.0-4.0-1.48","subject_id":"613a87fca7079e9109d15f66","study_id":"60edd13110225f80f9f3709b","session_id":"6196c4a76d32cc75560f0cb3","condition":"contingent","relevant_dimensions":["antennae","legs"],"bee_group":{"antennae":"A","wings":"X","pattern":"X","legs":"F"},"bonus":1.2000000000000008},{"rt":3088.199999988079,"stimulus":"bees-with-color/bee-B1SM.svg","response":0,"trial_type":"image-button-response","trial_index":105,"time_elapsed":680731,"internal_node_id":"0.0-4.0-0.49","subject_id":"613a87fca7079e9109d15f66","study_id":"60edd13110225f80f9f3709b","session_id":"6196c4a76d32cc75560f0cb3","condition":"contingent","relevant_dimensions":["antennae","legs"],"bee_group":{"antennae":"A","wings":"X","pattern":"X","legs":"F"},"action":"harvest","summary":"good-harvest","bonus":1.2000000000000008},{"rt":2754,"stimulus":"\n                    <p><b>Action: <em>harvest</em></b></p>\n                    <p>This is the bee that you just saw.</p>\n                    <img src=\"bees-with-color/bee-B1SM.svg\" width=\"200\">\n                    <p><span class=\"greenText\"><b>Successful harvest!</b></span><br>Your pay has increased by $0.02. Your bonus pay is now $0.80.</p>\n            ","response":0,"trial_type":"html-button-response","trial_index":106,"time_elapsed":683488,"internal_node_id":"0.0-4.0-1.49","subject_id":"613a87fca7079e9109d15f66","study_id":"60edd13110225f80f9f3709b","session_id":"6196c4a76d32cc75560f0cb3","condition":"contingent","relevant_dimensions":["antennae","legs"],"bee_group":{"antennae":"A","wings":"X","pattern":"X","legs":"F"},"bonus":1.2000000000000008},{"rt":2786.300000011921,"stimulus":"bees-with-color/bee-A2SM.svg","response":1,"trial_type":"image-button-response","trial_index":107,"time_elapsed":686278,"internal_node_id":"0.0-4.0-0.50","subject_id":"613a87fca7079e9109d15f66","study_id":"60edd13110225f80f9f3709b","session_id":"6196c4a76d32cc75560f0cb3","condition":"contingent","relevant_dimensions":["antennae","legs"],"bee_group":{"antennae":"A","wings":"X","pattern":"X","legs":"F"},"action":"avoid","summary":"bad-avoid","bonus":1.2000000000000008},{"rt":2887.5,"stimulus":"\n                    <p><b>Action: <em>avoid</em></b></p>\n                    <p>This is the bee that you just saw.</p>\n                    <img src=\"bees-with-color/bee-A2SM.svg\" width=\"200\">\n                    <p><br>Your bonus pay is unchanged, and remains at $0.80.</p>\n            ","response":0,"trial_type":"html-button-response","trial_index":108,"time_elapsed":689168,"internal_node_id":"0.0-4.0-1.50","subject_id":"613a87fca7079e9109d15f66","study_id":"60edd13110225f80f9f3709b","session_id":"6196c4a76d32cc75560f0cb3","condition":"contingent","relevant_dimensions":["antennae","legs"],"bee_group":{"antennae":"A","wings":"X","pattern":"X","legs":"F"},"bonus":1.2000000000000008},{"rt":3008.7999999523163,"stimulus":"bees-with-color/bee-B1SF.svg","response":0,"trial_type":"image-button-response","trial_index":109,"time_elapsed":692179,"internal_node_id":"0.0-4.0-0.51","subject_id":"613a87fca7079e9109d15f66","study_id":"60edd13110225f80f9f3709b","session_id":"6196c4a76d32cc75560f0cb3","condition":"contingent","relevant_dimensions":["antennae","legs"],"bee_group":{"antennae":"A","wings":"X","pattern":"X","legs":"F"},"action":"harvest","summary":"good-harvest","bonus":1.2000000000000008},{"rt":2860.899999976158,"stimulus":"\n                    <p><b>Action: <em>harvest</em></b></p>\n                    <p>This is the bee that you just saw.</p>\n                    <img src=\"bees-with-color/bee-B1SF.svg\" width=\"200\">\n                    <p><span class=\"greenText\"><b>Successful harvest!</b></span><br>Your pay has increased by $0.02. Your bonus pay is now $0.82.</p>\n            ","response":0,"trial_type":"html-button-response","trial_index":110,"time_elapsed":695043,"internal_node_id":"0.0-4.0-1.51","subject_id":"613a87fca7079e9109d15f66","study_id":"60edd13110225f80f9f3709b","session_id":"6196c4a76d32cc75560f0cb3","condition":"contingent","relevant_dimensions":["antennae","legs"],"bee_group":{"antennae":"A","wings":"X","pattern":"X","legs":"F"},"bonus":1.2000000000000008},{"rt":2836.699999988079,"stimulus":"bees-with-color/bee-B2SF.svg","response":0,"trial_type":"image-button-response","trial_index":111,"time_elapsed":697885,"internal_node_id":"0.0-4.0-0.52","subject_id":"613a87fca7079e9109d15f66","study_id":"60edd13110225f80f9f3709b","session_id":"6196c4a76d32cc75560f0cb3","condition":"contingent","relevant_dimensions":["antennae","legs"],"bee_group":{"antennae":"A","wings":"X","pattern":"X","legs":"F"},"action":"harvest","summary":"good-harvest","bonus":1.2000000000000008},{"rt":2479.099999964237,"stimulus":"\n                    <p><b>Action: <em>harvest</em></b></p>\n                    <p>This is the bee that you just saw.</p>\n                    <img src=\"bees-with-color/bee-B2SF.svg\" width=\"200\">\n                    <p><span class=\"greenText\"><b>Successful harvest!</b></span><br>Your pay has increased by $0.02. Your bonus pay is now $0.84.</p>\n            ","response":0,"trial_type":"html-button-response","trial_index":112,"time_elapsed":700366,"internal_node_id":"0.0-4.0-1.52","subject_id":"613a87fca7079e9109d15f66","study_id":"60edd13110225f80f9f3709b","session_id":"6196c4a76d32cc75560f0cb3","condition":"contingent","relevant_dimensions":["antennae","legs"],"bee_group":{"antennae":"A","wings":"X","pattern":"X","legs":"F"},"bonus":1.2000000000000008},{"rt":3074.199999988079,"stimulus":"bees-with-color/bee-A1SF.svg","response":1,"trial_type":"image-button-response","trial_index":113,"time_elapsed":703443,"internal_node_id":"0.0-4.0-0.53","subject_id":"613a87fca7079e9109d15f66","study_id":"60edd13110225f80f9f3709b","session_id":"6196c4a76d32cc75560f0cb3","condition":"contingent","relevant_dimensions":["antennae","legs"],"bee_group":{"antennae":"A","wings":"X","pattern":"X","legs":"F"},"action":"avoid","summary":"good-avoid","bonus":1.2000000000000008},{"rt":3844.2000000476837,"stimulus":"\n                    <p><b>Action: <em>avoid</em></b></p>\n                    <p>This is the bee that you just saw.</p>\n                    <img src=\"bees-with-color/bee-A1SF.svg\" width=\"200\">\n                    <p><br>Your bonus pay is unchanged, and remains at $0.84.</p>\n            ","response":0,"trial_type":"html-button-response","trial_index":114,"time_elapsed":707289,"internal_node_id":"0.0-4.0-1.53","subject_id":"613a87fca7079e9109d15f66","study_id":"60edd13110225f80f9f3709b","session_id":"6196c4a76d32cc75560f0cb3","condition":"contingent","relevant_dimensions":["antennae","legs"],"bee_group":{"antennae":"A","wings":"X","pattern":"X","legs":"F"},"bonus":1.2000000000000008},{"rt":3432.100000023842,"stimulus":"bees-with-color/bee-B1DM.svg","response":0,"trial_type":"image-button-response","trial_index":115,"time_elapsed":710723,"internal_node_id":"0.0-4.0-0.54","subject_id":"613a87fca7079e9109d15f66","study_id":"60edd13110225f80f9f3709b","session_id":"6196c4a76d32cc75560f0cb3","condition":"contingent","relevant_dimensions":["antennae","legs"],"bee_group":{"antennae":"A","wings":"X","pattern":"X","legs":"F"},"action":"harvest","summary":"good-harvest","bonus":1.2000000000000008},{"rt":2919.599999964237,"stimulus":"\n                    <p><b>Action: <em>harvest</em></b></p>\n                    <p>This is the bee that you just saw.</p>\n                    <img src=\"bees-with-color/bee-B1DM.svg\" width=\"200\">\n                    <p><span class=\"greenText\"><b>Successful harvest!</b></span><br>Your pay has increased by $0.02. Your bonus pay is now $0.86.</p>\n            ","response":0,"trial_type":"html-button-response","trial_index":116,"time_elapsed":713645,"internal_node_id":"0.0-4.0-1.54","subject_id":"613a87fca7079e9109d15f66","study_id":"60edd13110225f80f9f3709b","session_id":"6196c4a76d32cc75560f0cb3","condition":"contingent","relevant_dimensions":["antennae","legs"],"bee_group":{"antennae":"A","wings":"X","pattern":"X","legs":"F"},"bonus":1.2000000000000008},{"rt":3133.400000035763,"stimulus":"bees-with-color/bee-A2DM.svg","response":1,"trial_type":"image-button-response","trial_index":117,"time_elapsed":716784,"internal_node_id":"0.0-4.0-0.55","subject_id":"613a87fca7079e9109d15f66","study_id":"60edd13110225f80f9f3709b","session_id":"6196c4a76d32cc75560f0cb3","condition":"contingent","relevant_dimensions":["antennae","legs"],"bee_group":{"antennae":"A","wings":"X","pattern":"X","legs":"F"},"action":"avoid","summary":"bad-avoid","bonus":1.2000000000000008},{"rt":3080.900000035763,"stimulus":"\n                    <p><b>Action: <em>avoid</em></b></p>\n                    <p>This is the bee that you just saw.</p>\n                    <img src=\"bees-with-color/bee-A2DM.svg\" width=\"200\">\n                    <p><br>Your bonus pay is unchanged, and remains at $0.86.</p>\n            ","response":0,"trial_type":"html-button-response","trial_index":118,"time_elapsed":719867,"internal_node_id":"0.0-4.0-1.55","subject_id":"613a87fca7079e9109d15f66","study_id":"60edd13110225f80f9f3709b","session_id":"6196c4a76d32cc75560f0cb3","condition":"contingent","relevant_dimensions":["antennae","legs"],"bee_group":{"antennae":"A","wings":"X","pattern":"X","legs":"F"},"bonus":1.2000000000000008},{"rt":2679.5,"stimulus":"bees-with-color/bee-A1DM.svg","response":1,"trial_type":"image-button-response","trial_index":119,"time_elapsed":722549,"internal_node_id":"0.0-4.0-0.56","subject_id":"613a87fca7079e9109d15f66","study_id":"60edd13110225f80f9f3709b","session_id":"6196c4a76d32cc75560f0cb3","condition":"contingent","relevant_dimensions":["antennae","legs"],"bee_group":{"antennae":"A","wings":"X","pattern":"X","legs":"F"},"action":"avoid","summary":"bad-avoid","bonus":1.2000000000000008},{"rt":2544.599999964237,"stimulus":"\n                    <p><b>Action: <em>avoid</em></b></p>\n                    <p>This is the bee that you just saw.</p>\n                    <img src=\"bees-with-color/bee-A1DM.svg\" width=\"200\">\n                    <p><br>Your bonus pay is unchanged, and remains at $0.86.</p>\n            ","response":0,"trial_type":"html-button-response","trial_index":120,"time_elapsed":725096,"internal_node_id":"0.0-4.0-1.56","subject_id":"613a87fca7079e9109d15f66","study_id":"60edd13110225f80f9f3709b","session_id":"6196c4a76d32cc75560f0cb3","condition":"contingent","relevant_dimensions":["antennae","legs"],"bee_group":{"antennae":"A","wings":"X","pattern":"X","legs":"F"},"bonus":1.2000000000000008},{"rt":2527.199999988079,"stimulus":"bees-with-color/bee-A1SM.svg","response":1,"trial_type":"image-button-response","trial_index":121,"time_elapsed":727626,"internal_node_id":"0.0-4.0-0.57","subject_id":"613a87fca7079e9109d15f66","study_id":"60edd13110225f80f9f3709b","session_id":"6196c4a76d32cc75560f0cb3","condition":"contingent","relevant_dimensions":["antennae","legs"],"bee_group":{"antennae":"A","wings":"X","pattern":"X","legs":"F"},"action":"avoid","summary":"bad-avoid","bonus":1.2000000000000008},{"rt":3048.800000011921,"stimulus":"\n                    <p><b>Action: <em>avoid</em></b></p>\n                    <p>This is the bee that you just saw.</p>\n                    <img src=\"bees-with-color/bee-A1SM.svg\" width=\"200\">\n                    <p><br>Your bonus pay is unchanged, and remains at $0.86.</p>\n            ","response":0,"trial_type":"html-button-response","trial_index":122,"time_elapsed":730678,"internal_node_id":"0.0-4.0-1.57","subject_id":"613a87fca7079e9109d15f66","study_id":"60edd13110225f80f9f3709b","session_id":"6196c4a76d32cc75560f0cb3","condition":"contingent","relevant_dimensions":["antennae","legs"],"bee_group":{"antennae":"A","wings":"X","pattern":"X","legs":"F"},"bonus":1.2000000000000008},{"rt":3100.5,"stimulus":"bees-with-color/bee-A2SF.svg","response":1,"trial_type":"image-button-response","trial_index":123,"time_elapsed":733782,"internal_node_id":"0.0-4.0-0.58","subject_id":"613a87fca7079e9109d15f66","study_id":"60edd13110225f80f9f3709b","session_id":"6196c4a76d32cc75560f0cb3","condition":"contingent","relevant_dimensions":["antennae","legs"],"bee_group":{"antennae":"A","wings":"X","pattern":"X","legs":"F"},"action":"avoid","summary":"good-avoid","bonus":1.2000000000000008},{"rt":2817,"stimulus":"\n                    <p><b>Action: <em>avoid</em></b></p>\n                    <p>This is the bee that you just saw.</p>\n                    <img src=\"bees-with-color/bee-A2SF.svg\" width=\"200\">\n                    <p><br>Your bonus pay is unchanged, and remains at $0.86.</p>\n            ","response":0,"trial_type":"html-button-response","trial_index":124,"time_elapsed":736601,"internal_node_id":"0.0-4.0-1.58","subject_id":"613a87fca7079e9109d15f66","study_id":"60edd13110225f80f9f3709b","session_id":"6196c4a76d32cc75560f0cb3","condition":"contingent","relevant_dimensions":["antennae","legs"],"bee_group":{"antennae":"A","wings":"X","pattern":"X","legs":"F"},"bonus":1.2000000000000008},{"rt":2758.900000035763,"stimulus":"bees-with-color/bee-B2DF.svg","response":0,"trial_type":"image-button-response","trial_index":125,"time_elapsed":739362,"internal_node_id":"0.0-4.0-0.59","subject_id":"613a87fca7079e9109d15f66","study_id":"60edd13110225f80f9f3709b","session_id":"6196c4a76d32cc75560f0cb3","condition":"contingent","relevant_dimensions":["antennae","legs"],"bee_group":{"antennae":"A","wings":"X","pattern":"X","legs":"F"},"action":"harvest","summary":"good-harvest","bonus":1.2000000000000008},{"rt":2748.699999988079,"stimulus":"\n                    <p><b>Action: <em>harvest</em></b></p>\n                    <p>This is the bee that you just saw.</p>\n                    <img src=\"bees-with-color/bee-B2DF.svg\" width=\"200\">\n                    <p><span class=\"greenText\"><b>Successful harvest!</b></span><br>Your pay has increased by $0.02. Your bonus pay is now $0.88.</p>\n            ","response":0,"trial_type":"html-button-response","trial_index":126,"time_elapsed":742113,"internal_node_id":"0.0-4.0-1.59","subject_id":"613a87fca7079e9109d15f66","study_id":"60edd13110225f80f9f3709b","session_id":"6196c4a76d32cc75560f0cb3","condition":"contingent","relevant_dimensions":["antennae","legs"],"bee_group":{"antennae":"A","wings":"X","pattern":"X","legs":"F"},"bonus":1.2000000000000008},{"rt":3020,"stimulus":"bees-with-color/bee-B2SM.svg","response":0,"trial_type":"image-button-response","trial_index":127,"time_elapsed":745136,"internal_node_id":"0.0-4.0-0.60","subject_id":"613a87fca7079e9109d15f66","study_id":"60edd13110225f80f9f3709b","session_id":"6196c4a76d32cc75560f0cb3","condition":"contingent","relevant_dimensions":["antennae","legs"],"bee_group":{"antennae":"A","wings":"X","pattern":"X","legs":"F"},"action":"harvest","summary":"good-harvest","bonus":1.2000000000000008},{"rt":2741.600000023842,"stimulus":"\n                    <p><b>Action: <em>harvest</em></b></p>\n                    <p>This is the bee that you just saw.</p>\n                    <img src=\"bees-with-color/bee-B2SM.svg\" width=\"200\">\n                    <p><span class=\"greenText\"><b>Successful harvest!</b></span><br>Your pay has increased by $0.02. Your bonus pay is now $0.90.</p>\n            ","response":0,"trial_type":"html-button-response","trial_index":128,"time_elapsed":747880,"internal_node_id":"0.0-4.0-1.60","subject_id":"613a87fca7079e9109d15f66","study_id":"60edd13110225f80f9f3709b","session_id":"6196c4a76d32cc75560f0cb3","condition":"contingent","relevant_dimensions":["antennae","legs"],"bee_group":{"antennae":"A","wings":"X","pattern":"X","legs":"F"},"bonus":1.2000000000000008},{"rt":2525.599999964237,"stimulus":"bees-with-color/bee-B2DM.svg","response":0,"trial_type":"image-button-response","trial_index":129,"time_elapsed":750409,"internal_node_id":"0.0-4.0-0.61","subject_id":"613a87fca7079e9109d15f66","study_id":"60edd13110225f80f9f3709b","session_id":"6196c4a76d32cc75560f0cb3","condition":"contingent","relevant_dimensions":["antennae","legs"],"bee_group":{"antennae":"A","wings":"X","pattern":"X","legs":"F"},"action":"harvest","summary":"good-harvest","bonus":1.2000000000000008},{"rt":2640.900000035763,"stimulus":"\n                    <p><b>Action: <em>harvest</em></b></p>\n                    <p>This is the bee that you just saw.</p>\n                    <img src=\"bees-with-color/bee-B2DM.svg\" width=\"200\">\n                    <p><span class=\"greenText\"><b>Successful harvest!</b></span><br>Your pay has increased by $0.02. Your bonus pay is now $0.92.</p>\n            ","response":0,"trial_type":"html-button-response","trial_index":130,"time_elapsed":753054,"internal_node_id":"0.0-4.0-1.61","subject_id":"613a87fca7079e9109d15f66","study_id":"60edd13110225f80f9f3709b","session_id":"6196c4a76d32cc75560f0cb3","condition":"contingent","relevant_dimensions":["antennae","legs"],"bee_group":{"antennae":"A","wings":"X","pattern":"X","legs":"F"},"bonus":1.2000000000000008},{"rt":2852,"stimulus":"bees-with-color/bee-A2DF.svg","response":1,"trial_type":"image-button-response","trial_index":131,"time_elapsed":755909,"internal_node_id":"0.0-4.0-0.62","subject_id":"613a87fca7079e9109d15f66","study_id":"60edd13110225f80f9f3709b","session_id":"6196c4a76d32cc75560f0cb3","condition":"contingent","relevant_dimensions":["antennae","legs"],"bee_group":{"antennae":"A","wings":"X","pattern":"X","legs":"F"},"action":"avoid","summary":"good-avoid","bonus":1.2000000000000008},{"rt":3812.099999964237,"stimulus":"\n                    <p><b>Action: <em>avoid</em></b></p>\n                    <p>This is the bee that you just saw.</p>\n                    <img src=\"bees-with-color/bee-A2DF.svg\" width=\"200\">\n                    <p><br>Your bonus pay is unchanged, and remains at $0.92.</p>\n            ","response":0,"trial_type":"html-button-response","trial_index":132,"time_elapsed":759724,"internal_node_id":"0.0-4.0-1.62","subject_id":"613a87fca7079e9109d15f66","study_id":"60edd13110225f80f9f3709b","session_id":"6196c4a76d32cc75560f0cb3","condition":"contingent","relevant_dimensions":["antennae","legs"],"bee_group":{"antennae":"A","wings":"X","pattern":"X","legs":"F"},"bonus":1.2000000000000008},{"rt":3881.5,"stimulus":"bees-with-color/bee-B1DF.svg","response":0,"trial_type":"image-button-response","trial_index":133,"time_elapsed":763608,"internal_node_id":"0.0-4.0-0.63","subject_id":"613a87fca7079e9109d15f66","study_id":"60edd13110225f80f9f3709b","session_id":"6196c4a76d32cc75560f0cb3","condition":"contingent","relevant_dimensions":["antennae","legs"],"bee_group":{"antennae":"A","wings":"X","pattern":"X","legs":"F"},"action":"harvest","summary":"good-harvest","bonus":1.2000000000000008},{"rt":4599.300000011921,"stimulus":"\n                    <p><b>Action: <em>harvest</em></b></p>\n                    <p>This is the bee that you just saw.</p>\n                    <img src=\"bees-with-color/bee-B1DF.svg\" width=\"200\">\n                    <p><span class=\"greenText\"><b>Successful harvest!</b></span><br>Your pay has increased by $0.02. Your bonus pay is now $0.94.</p>\n            ","response":0,"trial_type":"html-button-response","trial_index":134,"time_elapsed":768210,"internal_node_id":"0.0-4.0-1.63","subject_id":"613a87fca7079e9109d15f66","study_id":"60edd13110225f80f9f3709b","session_id":"6196c4a76d32cc75560f0cb3","condition":"contingent","relevant_dimensions":["antennae","legs"],"bee_group":{"antennae":"A","wings":"X","pattern":"X","legs":"F"},"bonus":1.2000000000000008},{"rt":3633.899999976158,"stimulus":"You have completed the first part of this experiment.<br><br>You will now begin a shorter second part, in which you will receive no feedback.<br>The same rules regarding bonus pay apply.<br><br>Press any key to begin.","response":" ","trial_type":"html-keyboard-response","trial_index":135,"time_elapsed":771847,"internal_node_id":"0.0-5.0","subject_id":"613a87fca7079e9109d15f66","study_id":"60edd13110225f80f9f3709b","session_id":"6196c4a76d32cc75560f0cb3","condition":"contingent","relevant_dimensions":["antennae","legs"],"bee_group":{"antennae":"A","wings":"X","pattern":"X","legs":"F"},"bonus":1.2000000000000008},{"rt":6850.300000011921,"stimulus":"bees-with-color/bee-A2DF.svg","response":1,"trial_type":"image-button-response","trial_index":136,"time_elapsed":778933,"internal_node_id":"0.0-6.0-0.0","subject_id":"613a87fca7079e9109d15f66","study_id":"60edd13110225f80f9f3709b","session_id":"6196c4a76d32cc75560f0cb3","condition":"contingent","relevant_dimensions":["antennae","legs"],"bee_group":{"antennae":"A","wings":"X","pattern":"X","legs":"F"},"bonus":1.2000000000000008},{"rt":5604.400000035763,"stimulus":"bees-with-color/bee-A2SF.svg","response":1,"trial_type":"image-button-response","trial_index":137,"time_elapsed":784541,"internal_node_id":"0.0-6.0-0.1","subject_id":"613a87fca7079e9109d15f66","study_id":"60edd13110225f80f9f3709b","session_id":"6196c4a76d32cc75560f0cb3","condition":"contingent","relevant_dimensions":["antennae","legs"],"bee_group":{"antennae":"A","wings":"X","pattern":"X","legs":"F"},"bonus":1.2000000000000008},{"rt":4354.099999964237,"stimulus":"bees-with-color/bee-B2SF.svg","response":0,"trial_type":"image-button-response","trial_index":138,"time_elapsed":788898,"internal_node_id":"0.0-6.0-0.2","subject_id":"613a87fca7079e9109d15f66","study_id":"60edd13110225f80f9f3709b","session_id":"6196c4a76d32cc75560f0cb3","condition":"contingent","relevant_dimensions":["antennae","legs"],"bee_group":{"antennae":"A","wings":"X","pattern":"X","legs":"F"},"bonus":1.2000000000000008},{"rt":3881.100000023842,"stimulus":"bees-with-color/bee-B1SM.svg","response":0,"trial_type":"image-button-response","trial_index":139,"time_elapsed":792783,"internal_node_id":"0.0-6.0-0.3","subject_id":"613a87fca7079e9109d15f66","study_id":"60edd13110225f80f9f3709b","session_id":"6196c4a76d32cc75560f0cb3","condition":"contingent","relevant_dimensions":["antennae","legs"],"bee_group":{"antennae":"A","wings":"X","pattern":"X","legs":"F"},"bonus":1.2000000000000008},{"rt":3362.7000000476837,"stimulus":"bees-with-color/bee-A1DM.svg","response":1,"trial_type":"image-button-response","trial_index":140,"time_elapsed":796149,"internal_node_id":"0.0-6.0-0.4","subject_id":"613a87fca7079e9109d15f66","study_id":"60edd13110225f80f9f3709b","session_id":"6196c4a76d32cc75560f0cb3","condition":"contingent","relevant_dimensions":["antennae","legs"],"bee_group":{"antennae":"A","wings":"X","pattern":"X","legs":"F"},"bonus":1.2000000000000008},{"rt":2917.599999964237,"stimulus":"bees-with-color/bee-B2SM.svg","response":0,"trial_type":"image-button-response","trial_index":141,"time_elapsed":799070,"internal_node_id":"0.0-6.0-0.5","subject_id":"613a87fca7079e9109d15f66","study_id":"60edd13110225f80f9f3709b","session_id":"6196c4a76d32cc75560f0cb3","condition":"contingent","relevant_dimensions":["antennae","legs"],"bee_group":{"antennae":"A","wings":"X","pattern":"X","legs":"F"},"bonus":1.2000000000000008},{"rt":2730.899999976158,"stimulus":"bees-with-color/bee-B1SF.svg","response":0,"trial_type":"image-button-response","trial_index":142,"time_elapsed":801805,"internal_node_id":"0.0-6.0-0.6","subject_id":"613a87fca7079e9109d15f66","study_id":"60edd13110225f80f9f3709b","session_id":"6196c4a76d32cc75560f0cb3","condition":"contingent","relevant_dimensions":["antennae","legs"],"bee_group":{"antennae":"A","wings":"X","pattern":"X","legs":"F"},"bonus":1.2000000000000008},{"rt":3512.300000011921,"stimulus":"bees-with-color/bee-B2DF.svg","response":1,"trial_type":"image-button-response","trial_index":143,"time_elapsed":805320,"internal_node_id":"0.0-6.0-0.7","subject_id":"613a87fca7079e9109d15f66","study_id":"60edd13110225f80f9f3709b","session_id":"6196c4a76d32cc75560f0cb3","condition":"contingent","relevant_dimensions":["antennae","legs"],"bee_group":{"antennae":"A","wings":"X","pattern":"X","legs":"F"},"bonus":1.2000000000000008},{"rt":3475.800000011921,"stimulus":"bees-with-color/bee-A1DF.svg","response":1,"trial_type":"image-button-response","trial_index":144,"time_elapsed":808799,"internal_node_id":"0.0-6.0-0.8","subject_id":"613a87fca7079e9109d15f66","study_id":"60edd13110225f80f9f3709b","session_id":"6196c4a76d32cc75560f0cb3","condition":"contingent","relevant_dimensions":["antennae","legs"],"bee_group":{"antennae":"A","wings":"X","pattern":"X","legs":"F"},"bonus":1.2000000000000008},{"rt":2661.5,"stimulus":"bees-with-color/bee-B1DF.svg","response":0,"trial_type":"image-button-response","trial_index":145,"time_elapsed":811464,"internal_node_id":"0.0-6.0-0.9","subject_id":"613a87fca7079e9109d15f66","study_id":"60edd13110225f80f9f3709b","session_id":"6196c4a76d32cc75560f0cb3","condition":"contingent","relevant_dimensions":["antennae","legs"],"bee_group":{"antennae":"A","wings":"X","pattern":"X","legs":"F"},"bonus":1.2000000000000008},{"rt":2677.400000035763,"stimulus":"bees-with-color/bee-A2SM.svg","response":1,"trial_type":"image-button-response","trial_index":146,"time_elapsed":814144,"internal_node_id":"0.0-6.0-0.10","subject_id":"613a87fca7079e9109d15f66","study_id":"60edd13110225f80f9f3709b","session_id":"6196c4a76d32cc75560f0cb3","condition":"contingent","relevant_dimensions":["antennae","legs"],"bee_group":{"antennae":"A","wings":"X","pattern":"X","legs":"F"},"bonus":1.2000000000000008},{"rt":2781.199999988079,"stimulus":"bees-with-color/bee-A1SF.svg","response":1,"trial_type":"image-button-response","trial_index":147,"time_elapsed":816928,"internal_node_id":"0.0-6.0-0.11","subject_id":"613a87fca7079e9109d15f66","study_id":"60edd13110225f80f9f3709b","session_id":"6196c4a76d32cc75560f0cb3","condition":"contingent","relevant_dimensions":["antennae","legs"],"bee_group":{"antennae":"A","wings":"X","pattern":"X","legs":"F"},"bonus":1.2000000000000008},{"rt":2689.400000035763,"stimulus":"bees-with-color/bee-A2DM.svg","response":1,"trial_type":"image-button-response","trial_index":148,"time_elapsed":819620,"internal_node_id":"0.0-6.0-0.12","subject_id":"613a87fca7079e9109d15f66","study_id":"60edd13110225f80f9f3709b","session_id":"6196c4a76d32cc75560f0cb3","condition":"contingent","relevant_dimensions":["antennae","legs"],"bee_group":{"antennae":"A","wings":"X","pattern":"X","legs":"F"},"bonus":1.2000000000000008},{"rt":3418.699999988079,"stimulus":"bees-with-color/bee-B1DM.svg","response":0,"trial_type":"image-button-response","trial_index":149,"time_elapsed":823042,"internal_node_id":"0.0-6.0-0.13","subject_id":"613a87fca7079e9109d15f66","study_id":"60edd13110225f80f9f3709b","session_id":"6196c4a76d32cc75560f0cb3","condition":"contingent","relevant_dimensions":["antennae","legs"],"bee_group":{"antennae":"A","wings":"X","pattern":"X","legs":"F"},"bonus":1.2000000000000008},{"rt":2892.5,"stimulus":"bees-with-color/bee-B2DM.svg","response":1,"trial_type":"image-button-response","trial_index":150,"time_elapsed":825939,"internal_node_id":"0.0-6.0-0.14","subject_id":"613a87fca7079e9109d15f66","study_id":"60edd13110225f80f9f3709b","session_id":"6196c4a76d32cc75560f0cb3","condition":"contingent","relevant_dimensions":["antennae","legs"],"bee_group":{"antennae":"A","wings":"X","pattern":"X","legs":"F"},"bonus":1.2000000000000008},{"rt":2602.699999988079,"stimulus":"bees-with-color/bee-A1SM.svg","response":1,"trial_type":"image-button-response","trial_index":151,"time_elapsed":828546,"internal_node_id":"0.0-6.0-0.15","subject_id":"613a87fca7079e9109d15f66","study_id":"60edd13110225f80f9f3709b","session_id":"6196c4a76d32cc75560f0cb3","condition":"contingent","relevant_dimensions":["antennae","legs"],"bee_group":{"antennae":"A","wings":"X","pattern":"X","legs":"F"},"bonus":1.2000000000000008},{"rt":1917.2999999523163,"stimulus":"bees-with-color/bee-B2DM.svg","response":1,"trial_type":"image-button-response","trial_index":152,"time_elapsed":830466,"internal_node_id":"0.0-6.0-0.16","subject_id":"613a87fca7079e9109d15f66","study_id":"60edd13110225f80f9f3709b","session_id":"6196c4a76d32cc75560f0cb3","condition":"contingent","relevant_dimensions":["antennae","legs"],"bee_group":{"antennae":"A","wings":"X","pattern":"X","legs":"F"},"bonus":1.2000000000000008},{"rt":2952.099999964237,"stimulus":"bees-with-color/bee-B2DF.svg","response":0,"trial_type":"image-button-response","trial_index":153,"time_elapsed":833421,"internal_node_id":"0.0-6.0-0.17","subject_id":"613a87fca7079e9109d15f66","study_id":"60edd13110225f80f9f3709b","session_id":"6196c4a76d32cc75560f0cb3","condition":"contingent","relevant_dimensions":["antennae","legs"],"bee_group":{"antennae":"A","wings":"X","pattern":"X","legs":"F"},"bonus":1.2000000000000008},{"rt":2664.699999988079,"stimulus":"bees-with-color/bee-A2DF.svg","response":1,"trial_type":"image-button-response","trial_index":154,"time_elapsed":836091,"internal_node_id":"0.0-6.0-0.18","subject_id":"613a87fca7079e9109d15f66","study_id":"60edd13110225f80f9f3709b","session_id":"6196c4a76d32cc75560f0cb3","condition":"contingent","relevant_dimensions":["antennae","legs"],"bee_group":{"antennae":"A","wings":"X","pattern":"X","legs":"F"},"bonus":1.2000000000000008},{"rt":2742.7000000476837,"stimulus":"bees-with-color/bee-A1SF.svg","response":1,"trial_type":"image-button-response","trial_index":155,"time_elapsed":838836,"internal_node_id":"0.0-6.0-0.19","subject_id":"613a87fca7079e9109d15f66","study_id":"60edd13110225f80f9f3709b","session_id":"6196c4a76d32cc75560f0cb3","condition":"contingent","relevant_dimensions":["antennae","legs"],"bee_group":{"antennae":"A","wings":"X","pattern":"X","legs":"F"},"bonus":1.2000000000000008},{"rt":2895.199999988079,"stimulus":"bees-with-color/bee-A2DM.svg","response":1,"trial_type":"image-button-response","trial_index":156,"time_elapsed":841734,"internal_node_id":"0.0-6.0-0.20","subject_id":"613a87fca7079e9109d15f66","study_id":"60edd13110225f80f9f3709b","session_id":"6196c4a76d32cc75560f0cb3","condition":"contingent","relevant_dimensions":["antennae","legs"],"bee_group":{"antennae":"A","wings":"X","pattern":"X","legs":"F"},"bonus":1.2000000000000008},{"rt":3573.800000011921,"stimulus":"bees-with-color/bee-B1DM.svg","response":0,"trial_type":"image-button-response","trial_index":157,"time_elapsed":845311,"internal_node_id":"0.0-6.0-0.21","subject_id":"613a87fca7079e9109d15f66","study_id":"60edd13110225f80f9f3709b","session_id":"6196c4a76d32cc75560f0cb3","condition":"contingent","relevant_dimensions":["antennae","legs"],"bee_group":{"antennae":"A","wings":"X","pattern":"X","legs":"F"},"bonus":1.2000000000000008},{"rt":3482.199999988079,"stimulus":"bees-with-color/bee-B1SF.svg","response":0,"trial_type":"image-button-response","trial_index":158,"time_elapsed":848796,"internal_node_id":"0.0-6.0-0.22","subject_id":"613a87fca7079e9109d15f66","study_id":"60edd13110225f80f9f3709b","session_id":"6196c4a76d32cc75560f0cb3","condition":"contingent","relevant_dimensions":["antennae","legs"],"bee_group":{"antennae":"A","wings":"X","pattern":"X","legs":"F"},"bonus":1.2000000000000008},{"rt":2708.399999976158,"stimulus":"bees-with-color/bee-B1DF.svg","response":0,"trial_type":"image-button-response","trial_index":159,"time_elapsed":851507,"internal_node_id":"0.0-6.0-0.23","subject_id":"613a87fca7079e9109d15f66","study_id":"60edd13110225f80f9f3709b","session_id":"6196c4a76d32cc75560f0cb3","condition":"contingent","relevant_dimensions":["antennae","legs"],"bee_group":{"antennae":"A","wings":"X","pattern":"X","legs":"F"},"bonus":1.2000000000000008},{"rt":2860.699999988079,"stimulus":"bees-with-color/bee-B1SM.svg","response":0,"trial_type":"image-button-response","trial_index":160,"time_elapsed":854371,"internal_node_id":"0.0-6.0-0.24","subject_id":"613a87fca7079e9109d15f66","study_id":"60edd13110225f80f9f3709b","session_id":"6196c4a76d32cc75560f0cb3","condition":"contingent","relevant_dimensions":["antennae","legs"],"bee_group":{"antennae":"A","wings":"X","pattern":"X","legs":"F"},"bonus":1.2000000000000008},{"rt":5631.099999964237,"stimulus":"bees-with-color/bee-B2SF.svg","response":0,"trial_type":"image-button-response","trial_index":161,"time_elapsed":860004,"internal_node_id":"0.0-6.0-0.25","subject_id":"613a87fca7079e9109d15f66","study_id":"60edd13110225f80f9f3709b","session_id":"6196c4a76d32cc75560f0cb3","condition":"contingent","relevant_dimensions":["antennae","legs"],"bee_group":{"antennae":"A","wings":"X","pattern":"X","legs":"F"},"bonus":1.2000000000000008},{"rt":3304.2999999523163,"stimulus":"bees-with-color/bee-A2SF.svg","response":1,"trial_type":"image-button-response","trial_index":162,"time_elapsed":863312,"internal_node_id":"0.0-6.0-0.26","subject_id":"613a87fca7079e9109d15f66","study_id":"60edd13110225f80f9f3709b","session_id":"6196c4a76d32cc75560f0cb3","condition":"contingent","relevant_dimensions":["antennae","legs"],"bee_group":{"antennae":"A","wings":"X","pattern":"X","legs":"F"},"bonus":1.2000000000000008},{"rt":3578.5,"stimulus":"bees-with-color/bee-A1SM.svg","response":1,"trial_type":"image-button-response","trial_index":163,"time_elapsed":866893,"internal_node_id":"0.0-6.0-0.27","subject_id":"613a87fca7079e9109d15