[{"success":true,"trial_type":"fullscreen","trial_index":0,"time_elapsed":3114,"internal_node_id":"0.0-0.0","subject_id":"5f5f72d80c064e02b8662ced","study_id":"60edd13110225f80f9f3709b","session_id":"6196c7022e2ad1368624c85f","condition":"full-information","relevant_dimensions":["wings","legs"],"bee_group":{"antennae":"X","wings":"2","pattern":"X","legs":"F"},"bonus":0.48000000000000076},{"success":true,"timeout":false,"failed_images":[],"failed_audio":[],"failed_video":[],"trial_type":"preload","trial_index":1,"time_elapsed":3164,"internal_node_id":"0.0-1.0","subject_id":"5f5f72d80c064e02b8662ced","study_id":"60edd13110225f80f9f3709b","session_id":"6196c7022e2ad1368624c85f","condition":"full-information","relevant_dimensions":["wings","legs"],"bee_group":{"antennae":"X","wings":"2","pattern":"X","legs":"F"},"bonus":0.48000000000000076},{"rt":1871.7000000476837,"stimulus":"Welcome! Press any key to begin.","response":"n","trial_type":"html-keyboard-response","trial_index":2,"time_elapsed":5036,"internal_node_id":"0.0-2.0","subject_id":"5f5f72d80c064e02b8662ced","study_id":"60edd13110225f80f9f3709b","session_id":"6196c7022e2ad1368624c85f","condition":"full-information","relevant_dimensions":["wings","legs"],"bee_group":{"antennae":"X","wings":"2","pattern":"X","legs":"F"},"bonus":0.48000000000000076},{"view_history":[{"page_index":0,"viewing_time":1601.1999999284744},{"page_index":1,"viewing_time":3131.8000000715256},{"page_index":2,"viewing_time":1228.6000000238419},{"page_index":3,"viewing_time":1332.1999999284744},{"page_index":4,"viewing_time":2571.399999976158},{"page_index":5,"viewing_time":3516.2000000476837},{"page_index":6,"viewing_time":4124.100000023842},{"page_index":5,"viewing_time":824},{"page_index":4,"viewing_time":8492.5},{"page_index":5,"viewing_time":775.3999999761581},{"page_index":6,"viewing_time":860.1000000238419},{"page_index":7,"viewing_time":1335.8999999761581},{"page_index":8,"viewing_time":1723.5},{"page_index":9,"viewing_time":1804.5},{"page_index":10,"viewing_time":1400.1000000238419},{"page_index":11,"viewing_time":1856.1000000238419},{"page_index":12,"viewing_time":1276.5},{"page_index":13,"viewing_time":1071.3999999761581},{"page_index":14,"viewing_time":1127.2999999523163}],"rt":40053,"trial_type":"instructions","trial_index":3,"time_elapsed":45090,"internal_node_id":"0.0-3.0-0.0","subject_id":"5f5f72d80c064e02b8662ced","study_id":"60edd13110225f80f9f3709b","session_id":"6196c7022e2ad1368624c85f","condition":"full-information","relevant_dimensions":["wings","legs"],"bee_group":{"antennae":"X","wings":"2","pattern":"X","legs":"F"},"bonus":0.48000000000000076},{"rt":7251,"response":{"Q0":["Two or six legs","Stripes or spots on body","Single or double wings","Antennae or no antennae"]},"question_order":[0],"trial_type":"survey-multi-select","trial_index":4,"time_elapsed":52344,"internal_node_id":"0.0-3.0-1.0","subject_id":"5f5f72d80c064e02b8662ced","study_id":"60edd13110225f80f9f3709b","session_id":"6196c7022e2ad1368624c85f","condition":"full-information","relevant_dimensions":["wings","legs"],"bee_group":{"antennae":"X","wings":"2","pattern":"X","legs":"F"},"correct":true,"bonus":0.48000000000000076},{"rt":16217.299999952316,"response":{"Q1":"Yes.","Q2":"Based on the four features of the bee.","Q3":"You learn if it was friendly or dangerous, but do not alter your bonus."},"question_order":[0,1,2],"trial_type":"survey-multi-choice","trial_index":5,"time_elapsed":68558,"internal_node_id":"0.0-3.0-2.0","subject_id":"5f5f72d80c064e02b8662ced","study_id":"60edd13110225f80f9f3709b","session_id":"6196c7022e2ad1368624c85f","condition":"full-information","relevant_dimensions":["wings","legs"],"bee_group":{"antennae":"X","wings":"2","pattern":"X","legs":"F"},"correct":false,"bonus":0.48000000000000076},{"rt":6110.399999976158,"stimulus":"<p>You did not answer all comprehension questions correctly.<br>Press <b>continue</b> to review the instructions again.</p>","response":0,"trial_type":"html-button-response","trial_index":6,"time_elapsed":74670,"internal_node_id":"0.0-3.0-3.0","subject_id":"5f5f72d80c064e02b8662ced","study_id":"60edd13110225f80f9f3709b","session_id":"6196c7022e2ad1368624c85f","condition":"full-information","relevant_dimensions":["wings","legs"],"bee_group":{"antennae":"X","wings":"2","pattern":"X","legs":"F"},"bonus":0.48000000000000076},{"view_history":[{"page_index":0,"viewing_time":1934.6000000238419},{"page_index":1,"viewing_time":11780.5},{"page_index":2,"viewing_time":5992},{"page_index":3,"viewing_time":10659},{"page_index":4,"viewing_time":7260.5},{"page_index":5,"viewing_time":6172},{"page_index":6,"viewing_time":1671.7999999523163},{"page_index":7,"viewing_time":952.1000000238419},{"page_index":8,"viewing_time":360},{"page_index":9,"viewing_time":336},{"page_index":10,"viewing_time":412},{"page_index":11,"viewing_time":900},{"page_index":12,"viewing_time":1080.2000000476837},{"page_index":13,"viewing_time":811.7999999523163},{"page_index":14,"viewing_time":803.8999999761581}],"rt":51126.89999997616,"trial_type":"instructions","trial_index":7,"time_elapsed":125802,"internal_node_id":"0.0-3.0-4.0-0.0","subject_id":"5f5f72d80c064e02b8662ced","study_id":"60edd13110225f80f9f3709b","session_id":"6196c7022e2ad1368624c85f","condition":"full-information","relevant_dimensions":["wings","legs"],"bee_group":{"antennae":"X","wings":"2","pattern":"X","legs":"F"},"bonus":0.48000000000000076},{"rt":6002.699999928474,"response":{"Q0":["Two or six legs","Stripes or spots on body","Single or double wings","Antennae or no antennae"]},"question_order":[0],"trial_type":"survey-multi-select","trial_index":8,"time_elapsed":131810,"internal_node_id":"0.0-3.0-4.0-1.0","subject_id":"5f5f72d80c064e02b8662ced","study_id":"60edd13110225f80f9f3709b","session_id":"6196c7022e2ad1368624c85f","condition":"full-information","relevant_dimensions":["wings","legs"],"bee_group":{"antennae":"X","wings":"2","pattern":"X","legs":"F"},"correct":true,"bonus":0.48000000000000076},{"rt":17278.799999952316,"response":{"Q1":"No.","Q2":"Based on the four features of the bee.","Q3":"You learn if it was friendly or dangerous, but do not alter your bonus."},"question_order":[0,1,2],"trial_type":"survey-multi-choice","trial_index":9,"time_elapsed":149090,"internal_node_id":"0.0-3.0-4.0-2.0","subject_id":"5f5f72d80c064e02b8662ced","study_id":"60edd13110225f80f9f3709b","session_id":"6196c7022e2ad1368624c85f","condition":"full-information","relevant_dimensions":["wings","legs"],"bee_group":{"antennae":"X","wings":"2","pattern":"X","legs":"F"},"correct":true,"bonus":0.48000000000000076},{"rt":6634.600000023842,"stimulus":"<p>Congrats, you got everything right<br>When you're ready, click the button below to continue to the experiment.</p>","response":0,"trial_type":"html-button-response","trial_index":10,"time_elapsed":155726,"internal_node_id":"0.0-3.0-4.0-3.0","subject_id":"5f5f72d80c064e02b8662ced","study_id":"60edd13110225f80f9f3709b","session_id":"6196c7022e2ad1368624c85f","condition":"full-information","relevant_dimensions":["wings","legs"],"bee_group":{"antennae":"X","wings":"2","pattern":"X","legs":"F"},"bonus":0.48000000000000076},{"rt":10137.899999976158,"stimulus":"bees-with-color/bee-B2DF.svg","response":0,"trial_type":"image-button-response","trial_index":11,"time_elapsed":165866,"internal_node_id":"0.0-4.0-0.0","subject_id":"5f5f72d80c064e02b8662ced","study_id":"60edd13110225f80f9f3709b","session_id":"6196c7022e2ad1368624c85f","condition":"full-information","relevant_dimensions":["wings","legs"],"bee_group":{"antennae":"X","wings":"2","pattern":"X","legs":"F"},"action":"harvest","summary":"bad-harvest","bonus":0.48000000000000076},{"rt":16845.200000047684,"stimulus":"\n                    <p><b>Action: <em>harvest</em></b></p>\n                    <p>This is the bee that you just saw.</p>\n                    <img src=\"bees-with-color/bee-B2DF.svg\" width=\"200\">\n                    <p><span class=\"redText\">Bad choice, the bee was angry.</span><br><b>You have been stung!</b><br>Your pay has been decreased by $0.10. Your bonus pay is now $0.44.</p>\n            ","response":0,"trial_type":"html-button-response","trial_index":12,"time_elapsed":182714,"internal_node_id":"0.0-4.0-1.0","subject_id":"5f5f72d80c064e02b8662ced","study_id":"60edd13110225f80f9f3709b","session_id":"6196c7022e2ad1368624c85f","condition":"full-information","relevant_dimensions":["wings","legs"],"bee_group":{"antennae":"X","wings":"2","pattern":"X","legs":"F"},"bonus":0.48000000000000076},{"rt":3473.100000023842,"stimulus":"bees-with-color/bee-A1SM.svg","response":1,"trial_type":"image-button-response","trial_index":13,"time_elapsed":186190,"internal_node_id":"0.0-4.0-0.1","subject_id":"5f5f72d80c064e02b8662ced","study_id":"60edd13110225f80f9f3709b","session_id":"6196c7022e2ad1368624c85f","condition":"full-information","relevant_dimensions":["wings","legs"],"bee_group":{"antennae":"X","wings":"2","pattern":"X","legs":"F"},"action":"avoid","summary":"bad-avoid","bonus":0.48000000000000076},{"rt":39046.39999997616,"stimulus":"\n                    <p><b>Action: <em>avoid</em></b></p>\n                    <p>This is the bee that you just saw.</p>\n                    <img src=\"bees-with-color/bee-A1SM.svg\" width=\"200\">\n                    <p><span class=\"redText\">Bad choice,</span> the bee was friendly.<br>Your bonus pay is unchanged, and remains at $0.44.</p>\n            ","response":0,"trial_type":"html-button-response","trial_index":14,"time_elapsed":225238,"internal_node_id":"0.0-4.0-1.1","subject_id":"5f5f72d80c064e02b8662ced","study_id":"60edd13110225f80f9f3709b","session_id":"6196c7022e2ad1368624c85f","condition":"full-information","relevant_dimensions":["wings","legs"],"bee_group":{"antennae":"X","wings":"2","pattern":"X","legs":"F"},"bonus":0.48000000000000076},{"rt":1874.1000000238419,"stimulus":"bees-with-color/bee-A1DM.svg","response":1,"trial_type":"image-button-response","trial_index":15,"time_elapsed":227114,"internal_node_id":"0.0-4.0-0.2","subject_id":"5f5f72d80c064e02b8662ced","study_id":"60edd13110225f80f9f3709b","session_id":"6196c7022e2ad1368624c85f","condition":"full-information","relevant_dimensions":["wings","legs"],"bee_group":{"antennae":"X","wings":"2","pattern":"X","legs":"F"},"action":"avoid","summary":"bad-avoid","bonus":0.48000000000000076},{"rt":14102.799999952316,"stimulus":"\n                    <p><b>Action: <em>avoid</em></b></p>\n                    <p>This is the bee that you just saw.</p>\n                    <img src=\"bees-with-color/bee-A1DM.svg\" width=\"200\">\n                    <p><span class=\"redText\">Bad choice,</span> the bee was friendly.<br>Your bonus pay is unchanged, and remains at $0.44.</p>\n            ","response":0,"trial_type":"html-button-response","trial_index":16,"time_elapsed":241218,"internal_node_id":"0.0-4.0-1.2","subject_id":"5f5f72d80c064e02b8662ced","study_id":"60edd13110225f80f9f3709b","session_id":"6196c7022e2ad1368624c85f","condition":"full-information","relevant_dimensions":["wings","legs"],"bee_group":{"antennae":"X","wings":"2","pattern":"X","legs":"F"},"bonus":0.48000000000000076},{"rt":3310.100000023842,"stimulus":"bees-with-color/bee-B1DF.svg","response":0,"trial_type":"image-button-response","trial_index":17,"time_elapsed":244530,"internal_node_id":"0.0-4.0-0.3","subject_id":"5f5f72d80c064e02b8662ced","study_id":"60edd13110225f80f9f3709b","session_id":"6196c7022e2ad1368624c85f","condition":"full-information","relevant_dimensions":["wings","legs"],"bee_group":{"antennae":"X","wings":"2","pattern":"X","legs":"F"},"action":"harvest","summary":"good-harvest","bonus":0.48000000000000076},{"rt":18127,"stimulus":"\n                    <p><b>Action: <em>harvest</em></b></p>\n                    <p>This is the bee that you just saw.</p>\n                    <img src=\"bees-with-color/bee-B1DF.svg\" width=\"200\">\n                    <p><span class=\"greenText\"><b>Successful harvest!</b></span><br>Your pay has increased by $0.02. Your bonus pay is now $0.46.</p>\n            ","response":0,"trial_type":"html-button-response","trial_index":18,"time_elapsed":262658,"internal_node_id":"0.0-4.0-1.3","subject_id":"5f5f72d80c064e02b8662ced","study_id":"60edd13110225f80f9f3709b","session_id":"6196c7022e2ad1368624c85f","condition":"full-information","relevant_dimensions":["wings","legs"],"bee_group":{"antennae":"X","wings":"2","pattern":"X","legs":"F"},"bonus":0.48000000000000076},{"rt":2633.7000000476837,"stimulus":"bees-with-color/bee-A2SM.svg","response":1,"trial_type":"image-button-response","trial_index":19,"time_elapsed":265294,"internal_node_id":"0.0-4.0-0.4","subject_id":"5f5f72d80c064e02b8662ced","study_id":"60edd13110225f80f9f3709b","session_id":"6196c7022e2ad1368624c85f","condition":"full-information","relevant_dimensions":["wings","legs"],"bee_group":{"antennae":"X","wings":"2","pattern":"X","legs":"F"},"action":"avoid","summary":"bad-avoid","bonus":0.48000000000000076},{"rt":65343.89999997616,"stimulus":"\n                    <p><b>Action: <em>avoid</em></b></p>\n                    <p>This is the bee that you just saw.</p>\n                    <img src=\"bees-with-color/bee-A2SM.svg\" width=\"200\">\n                    <p><span class=\"redText\">Bad choice,</span> the bee was friendly.<br>Your bonus pay is unchanged, and remains at $0.46.</p>\n            ","response":0,"trial_type":"html-button-response","trial_index":20,"time_elapsed":330638,"internal_node_id":"0.0-4.0-1.4","subject_id":"5f5f72d80c064e02b8662ced","study_id":"60edd13110225f80f9f3709b","session_id":"6196c7022e2ad1368624c85f","condition":"full-information","relevant_dimensions":["wings","legs"],"bee_group":{"antennae":"X","wings":"2","pattern":"X","legs":"F"},"bonus":0.48000000000000076},{"rt":4481.100000023842,"stimulus":"bees-with-color/bee-B2SF.svg","response":1,"trial_type":"image-button-response","trial_index":21,"time_elapsed":335121,"internal_node_id":"0.0-4.0-0.5","subject_id":"5f5f72d80c064e02b8662ced","study_id":"60edd13110225f80f9f3709b","session_id":"6196c7022e2ad1368624c85f","condition":"full-information","relevant_dimensions":["wings","legs"],"bee_group":{"antennae":"X","wings":"2","pattern":"X","legs":"F"},"action":"avoid","summary":"good-avoid","bonus":0.48000000000000076},{"rt":11435.200000047684,"stimulus":"\n                    <p><b>Action: <em>avoid</em></b></p>\n                    <p>This is the bee that you just saw.</p>\n                    <img src=\"bees-with-color/bee-B2SF.svg\" width=\"200\">\n                    <p><span class=\"greenText\">Good choice!</span>  This bee would have stung you.<br>Your bonus pay is unchanged, and remains at $0.46.</p>\n            ","response":0,"trial_type":"html-button-response","trial_index":22,"time_elapsed":346558,"internal_node_id":"0.0-4.0-1.5","subject_id":"5f5f72d80c064e02b8662ced","study_id":"60edd13110225f80f9f3709b","session_id":"6196c7022e2ad1368624c85f","condition":"full-information","relevant_dimensions":["wings","legs"],"bee_group":{"antennae":"X","wings":"2","pattern":"X","legs":"F"},"bonus":0.48000000000000076},{"rt":5441.200000047684,"stimulus":"bees-with-color/bee-B2SM.svg","response":0,"trial_type":"image-button-response","trial_index":23,"time_elapsed":352001,"internal_node_id":"0.0-4.0-0.6","subject_id":"5f5f72d80c064e02b8662ced","study_id":"60edd13110225f80f9f3709b","session_id":"6196c7022e2ad1368624c85f","condition":"full-information","relevant_dimensions":["wings","legs"],"bee_group":{"antennae":"X","wings":"2","pattern":"X","legs":"F"},"action":"harvest","summary":"good-harvest","bonus":0.48000000000000076},{"rt":45661.89999997616,"stimulus":"\n                    <p><b>Action: <em>harvest</em></b></p>\n                    <p>This is the bee that you just saw.</p>\n                    <img src=\"bees-with-color/bee-B2SM.svg\" width=\"200\">\n                    <p><span class=\"greenText\"><b>Successful harvest!</b></span><br>Your pay has increased by $0.02. Your bonus pay is now $0.48.</p>\n            ","response":0,"trial_type":"html-button-response","trial_index":24,"time_elapsed":397666,"internal_node_id":"0.0-4.0-1.6","subject_id":"5f5f72d80c064e02b8662ced","study_id":"60edd13110225f80f9f3709b","session_id":"6196c7022e2ad1368624c85f","condition":"full-information","relevant_dimensions":["wings","legs"],"bee_group":{"antennae":"X","wings":"2","pattern":"X","legs":"F"},"bonus":0.48000000000000076},{"rt":5790.5,"stimulus":"bees-with-color/bee-A1SF.svg","response":1,"trial_type":"image-button-response","trial_index":25,"time_elapsed":403458,"internal_node_id":"0.0-4.0-0.7","subject_id":"5f5f72d80c064e02b8662ced","study_id":"60edd13110225f80f9f3709b","session_id":"6196c7022e2ad1368624c85f","condition":"full-information","relevant_dimensions":["wings","legs"],"bee_group":{"antennae":"X","wings":"2","pattern":"X","legs":"F"},"action":"avoid","summary":"bad-avoid","bonus":0.48000000000000076},{"rt":26050.600000023842,"stimulus":"\n                    <p><b>Action: <em>avoid</em></b></p>\n                    <p>This is the bee that you just saw.</p>\n                    <img src=\"bees-with-color/bee-A1SF.svg\" width=\"200\">\n                    <p><span class=\"redText\">Bad choice,</span> the bee was friendly.<br>Your bonus pay is unchanged, and remains at $0.48.</p>\n            ","response":0,"trial_type":"html-button-response","trial_index":26,"time_elapsed":429510,"internal_node_id":"0.0-4.0-1.7","subject_id":"5f5f72d80c064e02b8662ced","study_id":"60edd13110225f80f9f3709b","session_id":"6196c7022e2ad1368624c85f","condition":"full-information","relevant_dimensions":["wings","legs"],"bee_group":{"antennae":"X","wings":"2","pattern":"X","legs":"F"},"bonus":0.48000000000000076},{"rt":3041.899999976158,"stimulus":"bees-with-color/bee-B1SM.svg","response":0,"trial_type":"image-button-response","trial_index":27,"time_elapsed":432554,"internal_node_id":"0.0-4.0-0.8","subject_id":"5f5f72d80c064e02b8662ced","study_id":"60edd13110225f80f9f3709b","session_id":"6196c7022e2ad1368624c85f","condition":"full-information","relevant_dimensions":["wings","legs"],"bee_group":{"antennae":"X","wings":"2","pattern":"X","legs":"F"},"action":"harvest","summary":"good-harvest","bonus":0.48000000000000076},{"rt":1638.7999999523163,"stimulus":"\n                    <p><b>Action: <em>harvest</em></b></p>\n                    <p>This is the bee that you just saw.</p>\n                    <img src=\"bees-with-color/bee-B1SM.svg\" width=\"200\">\n                    <p><span class=\"greenText\"><b>Successful harvest!</b></span><br>Your pay has increased by $0.02. Your bonus pay is now $0.50.</p>\n            ","response":0,"trial_type":"html-button-response","trial_index":28,"time_elapsed":434194,"internal_node_id":"0.0-4.0-1.8","subject_id":"5f5f72d80c064e02b8662ced","study_id":"60edd13110225f80f9f3709b","session_id":"6196c7022e2ad1368624c85f","condition":"full-information","relevant_dimensions":["wings","legs"],"bee_group":{"antennae":"X","wings":"2","pattern":"X","legs":"F"},"bonus":0.48000000000000076},{"rt":5030.100000023842,"stimulus":"bees-with-color/bee-A2SF.svg","response":0,"trial_type":"image-button-response","trial_index":29,"time_elapsed":439226,"internal_node_id":"0.0-4.0-0.9","subject_id":"5f5f72d80c064e02b8662ced","study_id":"60edd13110225f80f9f3709b","session_id":"6196c7022e2ad1368624c85f","condition":"full-information","relevant_dimensions":["wings","legs"],"bee_group":{"antennae":"X","wings":"2","pattern":"X","legs":"F"},"action":"harvest","summary":"bad-harvest","bonus":0.48000000000000076},{"rt":14054.799999952316,"stimulus":"\n                    <p><b>Action: <em>harvest</em></b></p>\n                    <p>This is the bee that you just saw.</p>\n                    <img src=\"bees-with-color/bee-A2SF.svg\" width=\"200\">\n                    <p><span class=\"redText\">Bad choice, the bee was angry.</span><br><b>You have been stung!</b><br>Your pay has been decreased by $0.10. Your bonus pay is now $0.40.</p>\n            ","response":0,"trial_type":"html-button-response","trial_index":30,"time_elapsed":453283,"internal_node_id":"0.0-4.0-1.9","subject_id":"5f5f72d80c064e02b8662ced","study_id":"60edd13110225f80f9f3709b","session_id":"6196c7022e2ad1368624c85f","condition":"full-information","relevant_dimensions":["wings","legs"],"bee_group":{"antennae":"X","wings":"2","pattern":"X","legs":"F"},"bonus":0.48000000000000076},{"rt":2357.5,"stimulus":"bees-with-color/bee-B1SF.svg","response":1,"trial_type":"image-button-response","trial_index":31,"time_elapsed":455642,"internal_node_id":"0.0-4.0-0.10","subject_id":"5f5f72d80c064e02b8662ced","study_id":"60edd13110225f80f9f3709b","session_id":"6196c7022e2ad1368624c85f","condition":"full-information","relevant_dimensions":["wings","legs"],"bee_group":{"antennae":"X","wings":"2","pattern":"X","legs":"F"},"action":"avoid","summary":"bad-avoid","bonus":0.48000000000000076},{"rt":14642.5,"stimulus":"\n                    <p><b>Action: <em>avoid</em></b></p>\n                    <p>This is the bee that you just saw.</p>\n                    <img src=\"bees-with-color/bee-B1SF.svg\" width=\"200\">\n                    <p><span class=\"redText\">Bad choice,</span> the bee was friendly.<br>Your bonus pay is unchanged, and remains at $0.40.</p>\n            ","response":0,"trial_type":"html-button-response","trial_index":32,"time_elapsed":470286,"internal_node_id":"0.0-4.0-1.10","subject_id":"5f5f72d80c064e02b8662ced","study_id":"60edd13110225f80f9f3709b","session_id":"6196c7022e2ad1368624c85f","condition":"full-information","relevant_dimensions":["wings","legs"],"bee_group":{"antennae":"X","wings":"2","pattern":"X","legs":"F"},"bonus":0.48000000000000076},{"rt":7994.100000023842,"stimulus":"bees-with-color/bee-A2DM.svg","response":0,"trial_type":"image-button-response","trial_index":33,"time_elapsed":478282,"internal_node_id":"0.0-4.0-0.11","subject_id":"5f5f72d80c064e02b8662ced","study_id":"60edd13110225f80f9f3709b","session_id":"6196c7022e2ad1368624c85f","condition":"full-information","relevant_dimensions":["wings","legs"],"bee_group":{"antennae":"X","wings":"2","pattern":"X","legs":"F"},"action":"harvest","summary":"good-harvest","bonus":0.48000000000000076},{"rt":5987.699999928474,"stimulus":"\n                    <p><b>Action: <em>harvest</em></b></p>\n                    <p>This is the bee that you just saw.</p>\n                    <img src=\"bees-with-color/bee-A2DM.svg\" width=\"200\">\n                    <p><span class=\"greenText\"><b>Successful harvest!</b></span><br>Your pay has increased by $0.02. Your bonus pay is now $0.42.</p>\n            ","response":0,"trial_type":"html-button-response","trial_index":34,"time_elapsed":484271,"internal_node_id":"0.0-4.0-1.11","subject_id":"5f5f72d80c064e02b8662ced","study_id":"60edd13110225f80f9f3709b","session_id":"6196c7022e2ad1368624c85f","condition":"full-information","relevant_dimensions":["wings","legs"],"bee_group":{"antennae":"X","wings":"2","pattern":"X","legs":"F"},"bonus":0.48000000000000076},{"rt":1953.6000000238419,"stimulus":"bees-with-color/bee-B2DM.svg","response":1,"trial_type":"image-button-response","trial_index":35,"time_elapsed":486226,"internal_node_id":"0.0-4.0-0.12","subject_id":"5f5f72d80c064e02b8662ced","study_id":"60edd13110225f80f9f3709b","session_id":"6196c7022e2ad1368624c85f","condition":"full-information","relevant_dimensions":["wings","legs"],"bee_group":{"antennae":"X","wings":"2","pattern":"X","legs":"F"},"action":"avoid","summary":"bad-avoid","bonus":0.48000000000000076},{"rt":10543.600000023842,"stimulus":"\n                    <p><b>Action: <em>avoid</em></b></p>\n                    <p>This is the bee that you just saw.</p>\n                    <img src=\"bees-with-color/bee-B2DM.svg\" width=\"200\">\n                    <p><span class=\"redText\">Bad choice,</span> the bee was friendly.<br>Your bonus pay is unchanged, and remains at $0.42.</p>\n            ","response":0,"trial_type":"html-button-response","trial_index":36,"time_elapsed":496771,"internal_node_id":"0.0-4.0-1.12","subject_id":"5f5f72d80c064e02b8662ced","study_id":"60edd13110225f80f9f3709b","session_id":"6196c7022e2ad1368624c85f","condition":"full-information","relevant_dimensions":["wings","legs"],"bee_group":{"antennae":"X","wings":"2","pattern":"X","legs":"F"},"bonus":0.48000000000000076},{"rt":1285.3000000715256,"stimulus":"bees-with-color/bee-B1DM.svg","response":0,"trial_type":"image-button-response","trial_index":37,"time_elapsed":498058,"internal_node_id":"0.0-4.0-0.13","subject_id":"5f5f72d80c064e02b8662ced","study_id":"60edd13110225f80f9f3709b","session_id":"6196c7022e2ad1368624c85f","condition":"full-information","relevant_dimensions":["wings","legs"],"bee_group":{"antennae":"X","wings":"2","pattern":"X","legs":"F"},"action":"harvest","summary":"good-harvest","bonus":0.48000000000000076},{"rt":13816,"stimulus":"\n                    <p><b>Action: <em>harvest</em></b></p>\n                    <p>This is the bee that you just saw.</p>\n                    <img src=\"bees-with-color/bee-B1DM.svg\" width=\"200\">\n                    <p><span class=\"greenText\"><b>Successful harvest!</b></span><br>Your pay has increased by $0.02. Your bonus pay is now $0.44.</p>\n            ","response":0,"trial_type":"html-button-response","trial_index":38,"time_elapsed":511875,"internal_node_id":"0.0-4.0-1.13","subject_id":"5f5f72d80c064e02b8662ced","study_id":"60edd13110225f80f9f3709b","session_id":"6196c7022e2ad1368624c85f","condition":"full-information","relevant_dimensions":["wings","legs"],"bee_group":{"antennae":"X","wings":"2","pattern":"X","legs":"F"},"bonus":0.48000000000000076},{"rt":1253.3999999761581,"stimulus":"bees-with-color/bee-A2DF.svg","response":1,"trial_type":"image-button-response","trial_index":39,"time_elapsed":513130,"internal_node_id":"0.0-4.0-0.14","subject_id":"5f5f72d80c064e02b8662ced","study_id":"60edd13110225f80f9f3709b","session_id":"6196c7022e2ad1368624c85f","condition":"full-information","relevant_dimensions":["wings","legs"],"bee_group":{"antennae":"X","wings":"2","pattern":"X","legs":"F"},"action":"avoid","summary":"good-avoid","bonus":0.48000000000000076},{"rt":16518.700000047684,"stimulus":"\n                    <p><b>Action: <em>avoid</em></b></p>\n                    <p>This is the bee that you just saw.</p>\n                    <img src=\"bees-with-color/bee-A2DF.svg\" width=\"200\">\n                    <p><span class=\"greenText\">Good choice!</span>  This bee would have stung you.<br>Your bonus pay is unchanged, and remains at $0.44.</p>\n            ","response":0,"trial_type":"html-button-response","trial_index":40,"time_elapsed":529650,"internal_node_id":"0.0-4.0-1.14","subject_id":"5f5f72d80c064e02b8662ced","study_id":"60edd13110225f80f9f3709b","session_id":"6196c7022e2ad1368624c85f","condition":"full-information","relevant_dimensions":["wings","legs"],"bee_group":{"antennae":"X","wings":"2","pattern":"X","legs":"F"},"bonus":0.48000000000000076},{"rt":3470.2999999523163,"stimulus":"bees-with-color/bee-A1DF.svg","response":0,"trial_type":"image-button-response","trial_index":41,"time_elapsed":533122,"internal_node_id":"0.0-4.0-0.15","subject_id":"5f5f72d80c064e02b8662ced","study_id":"60edd13110225f80f9f3709b","session_id":"6196c7022e2ad1368624c85f","condition":"full-information","relevant_dimensions":["wings","legs"],"bee_group":{"antennae":"X","wings":"2","pattern":"X","legs":"F"},"action":"harvest","summary":"good-harvest","bonus":0.48000000000000076},{"rt":36259.200000047684,"stimulus":"\n                    <p><b>Action: <em>harvest</em></b></p>\n                    <p>This is the bee that you just saw.</p>\n                    <img src=\"bees-with-color/bee-A1DF.svg\" width=\"200\">\n                    <p><span class=\"greenText\"><b>Successful harvest!</b></span><br>Your pay has increased by $0.02. Your bonus pay is now $0.46.</p>\n            ","response":0,"trial_type":"html-button-response","trial_index":42,"time_elapsed":569378,"internal_node_id":"0.0-4.0-1.15","subject_id":"5f5f72d80c064e02b8662ced","study_id":"60edd13110225f80f9f3709b","session_id":"6196c7022e2ad1368624c85f","condition":"full-information","relevant_dimensions":["wings","legs"],"bee_group":{"antennae":"X","wings":"2","pattern":"X","legs":"F"},"bonus":0.48000000000000076},{"rt":12625.799999952316,"stimulus":"bees-with-color/bee-A1DM.svg","response":1,"trial_type":"image-button-response","trial_index":43,"time_elapsed":582005,"internal_node_id":"0.0-4.0-0.16","subject_id":"5f5f72d80c064e02b8662ced","study_id":"60edd13110225f80f9f3709b","session_id":"6196c7022e2ad1368624c85f","condition":"full-information","relevant_dimensions":["wings","legs"],"bee_group":{"antennae":"X","wings":"2","pattern":"X","legs":"F"},"action":"avoid","summary":"bad-avoid","bonus":0.48000000000000076},{"rt":4934.5,"stimulus":"\n                    <p><b>Action: <em>avoid</em></b></p>\n                    <p>This is the bee that you just saw.</p>\n                    <img src=\"bees-with-color/bee-A1DM.svg\" width=\"200\">\n                    <p><span class=\"redText\">Bad choice,</span> the bee was friendly.<br>Your bonus pay is unchanged, and remains at $0.46.</p>\n            ","response":0,"trial_type":"html-button-response","trial_index":44,"time_elapsed":586941,"internal_node_id":"0.0-4.0-1.16","subject_id":"5f5f72d80c064e02b8662ced","study_id":"60edd13110225f80f9f3709b","session_id":"6196c7022e2ad1368624c85f","condition":"full-information","relevant_dimensions":["wings","legs"],"bee_group":{"antennae":"X","wings":"2","pattern":"X","legs":"F"},"bonus":0.48000000000000076},{"rt":2070.399999976158,"stimulus":"bees-with-color/bee-B2SM.svg","response":1,"trial_type":"image-button-response","trial_index":45,"time_elapsed":589013,"internal_node_id":"0.0-4.0-0.17","subject_id":"5f5f72d80c064e02b8662ced","study_id":"60edd13110225f80f9f3709b","session_id":"6196c7022e2ad1368624c85f","condition":"full-information","relevant_dimensions":["wings","legs"],"bee_group":{"antennae":"X","wings":"2","pattern":"X","legs":"F"},"action":"avoid","summary":"bad-avoid","bonus":0.48000000000000076},{"rt":27310.899999976158,"stimulus":"\n                    <p><b>Action: <em>avoid</em></b></p>\n                    <p>This is the bee that you just saw.</p>\n                    <img src=\"bees-with-color/bee-B2SM.svg\" width=\"200\">\n                    <p><span class=\"redText\">Bad choice,</span> the bee was friendly.<br>Your bonus pay is unchanged, and remains at $0.46.</p>\n            ","response":0,"trial_type":"html-button-response","trial_index":46,"time_elapsed":616326,"internal_node_id":"0.0-4.0-1.17","subject_id":"5f5f72d80c064e02b8662ced","study_id":"60edd13110225f80f9f3709b","session_id":"6196c7022e2ad1368624c85f","condition":"full-information","relevant_dimensions":["wings","legs"],"bee_group":{"antennae":"X","wings":"2","pattern":"X","legs":"F"},"bonus":0.48000000000000076},{"rt":4533.5,"stimulus":"bees-with-color/bee-B2SF.svg","response":0,"trial_type":"image-button-response","trial_index":47,"time_elapsed":620861,"internal_node_id":"0.0-4.0-0.18","subject_id":"5f5f72d80c064e02b8662ced","study_id":"60edd13110225f80f9f3709b","session_id":"6196c7022e2ad1368624c85f","condition":"full-information","relevant_dimensions":["wings","legs"],"bee_group":{"antennae":"X","wings":"2","pattern":"X","legs":"F"},"action":"harvest","summary":"bad-harvest","bonus":0.48000000000000076},{"rt":4311.899999976158,"stimulus":"\n                    <p><b>Action: <em>harvest</em></b></p>\n                    <p>This is the bee that you just saw.</p>\n                    <img src=\"bees-with-color/bee-B2SF.svg\" width=\"200\">\n                    <p><span class=\"redText\">Bad choice, the bee was angry.</span><br><b>You have been stung!</b><br>Your pay has been decreased by $0.10. Your bonus pay is now $0.36.</p>\n            ","response":0,"trial_type":"html-button-response","trial_index":48,"time_elapsed":625175,"internal_node_id":"0.0-4.0-1.18","subject_id":"5f5f72d80c064e02b8662ced","study_id":"60edd13110225f80f9f3709b","session_id":"6196c7022e2ad1368624c85f","condition":"full-information","relevant_dimensions":["wings","legs"],"bee_group":{"antennae":"X","wings":"2","pattern":"X","legs":"F"},"bonus":0.48000000000000076},{"rt":1597,"stimulus":"bees-with-color/bee-B1SM.svg","response":1,"trial_type":"image-button-response","trial_index":49,"time_elapsed":626773,"internal_node_id":"0.0-4.0-0.19","subject_id":"5f5f72d80c064e02b8662ced","study_id":"60edd13110225f80f9f3709b","session_id":"6196c7022e2ad1368624c85f","condition":"full-information","relevant_dimensions":["wings","legs"],"bee_group":{"antennae":"X","wings":"2","pattern":"X","legs":"F"},"action":"avoid","summary":"bad-avoid","bonus":0.48000000000000076},{"rt":6422.5,"stimulus":"\n                    <p><b>Action: <em>avoid</em></b></p>\n                    <p>This is the bee that you just saw.</p>\n                    <img src=\"bees-with-color/bee-B1SM.svg\" width=\"200\">\n                    <p><span class=\"redText\">Bad choice,</span> the bee was friendly.<br>Your bonus pay is unchanged, and remains at $0.36.</p>\n            ","response":0,"trial_type":"html-button-response","trial_index":50,"time_elapsed":633197,"internal_node_id":"0.0-4.0-1.19","subject_id":"5f5f72d80c064e02b8662ced","study_id":"60edd13110225f80f9f3709b","session_id":"6196c7022e2ad1368624c85f","condition":"full-information","relevant_dimensions":["wings","legs"],"bee_group":{"antennae":"X","wings":"2","pattern":"X","legs":"F"},"bonus":0.48000000000000076},{"rt":1445.7999999523163,"stimulus":"bees-with-color/bee-A1DF.svg","response":0,"trial_type":"image-button-response","trial_index":51,"time_elapsed":634645,"internal_node_id":"0.0-4.0-0.20","subject_id":"5f5f72d80c064e02b8662ced","study_id":"60edd13110225f80f9f3709b","session_id":"6196c7022e2ad1368624c85f","condition":"full-information","relevant_dimensions":["wings","legs"],"bee_group":{"antennae":"X","wings":"2","pattern":"X","legs":"F"},"action":"harvest","summary":"good-harvest","bonus":0.48000000000000076},{"rt":10727.600000023842,"stimulus":"\n                    <p><b>Action: <em>harvest</em></b></p>\n                    <p>This is the bee that you just saw.</p>\n                    <img src=\"bees-with-color/bee-A1DF.svg\" width=\"200\">\n                    <p><span class=\"greenText\"><b>Successful harvest!</b></span><br>Your pay has increased by $0.02. Your bonus pay is now $0.38.</p>\n            ","response":0,"trial_type":"html-button-response","trial_index":52,"time_elapsed":645374,"internal_node_id":"0.0-4.0-1.20","subject_id":"5f5f72d80c064e02b8662ced","study_id":"60edd13110225f80f9f3709b","session_id":"6196c7022e2ad1368624c85f","condition":"full-information","relevant_dimensions":["wings","legs"],"bee_group":{"antennae":"X","wings":"2","pattern":"X","legs":"F"},"bonus":0.48000000000000076},{"rt":10190.100000023842,"stimulus":"bees-with-color/bee-A1SM.svg","response":0,"trial_type":"image-button-response","trial_index":53,"time_elapsed":655566,"internal_node_id":"0.0-4.0-0.21","subject_id":"5f5f72d80c064e02b8662ced","study_id":"60edd13110225f80f9f3709b","session_id":"6196c7022e2ad1368624c85f","condition":"full-information","relevant_dimensions":["wings","legs"],"bee_group":{"antennae":"X","wings":"2","pattern":"X","legs":"F"},"action":"harvest","summary":"good-harvest","bonus":0.48000000000000076},{"rt":3703.1999999284744,"stimulus":"\n                    <p><b>Action: <em>harvest</em></b></p>\n                    <p>This is the bee that you just saw.</p>\n                    <img src=\"bees-with-color/bee-A1SM.svg\" width=\"200\">\n                    <p><span class=\"greenText\"><b>Successful harvest!</b></span><br>Your pay has increased by $0.02. Your bonus pay is now $0.40.</p>\n            ","response":0,"trial_type":"html-button-response","trial_index":54,"time_elapsed":659275,"internal_node_id":"0.0-4.0-1.21","subject_id":"5f5f72d80c064e02b8662ced","study_id":"60edd13110225f80f9f3709b","session_id":"6196c7022e2ad1368624c85f","condition":"full-information","relevant_dimensions":["wings","legs"],"bee_group":{"antennae":"X","wings":"2","pattern":"X","legs":"F"},"bonus":0.48000000000000076},{"rt":9398.100000023842,"stimulus":"bees-with-color/bee-B2DM.svg","response":1,"trial_type":"image-button-response","trial_index":55,"time_elapsed":668675,"internal_node_id":"0.0-4.0-0.22","subject_id":"5f5f72d80c064e02b8662ced","study_id":"60edd13110225f80f9f3709b","session_id":"6196c7022e2ad1368624c85f","condition":"full-information","relevant_dimensions":["wings","legs"],"bee_group":{"antennae":"X","wings":"2","pattern":"X","legs":"F"},"action":"avoid","summary":"bad-avoid","bonus":0.48000000000000076},{"rt":12330.200000047684,"stimulus":"\n                    <p><b>Action: <em>avoid</em></b></p>\n                    <p>This is the bee that you just saw.</p>\n                    <img src=\"bees-with-color/bee-B2DM.svg\" width=\"200\">\n                    <p><span class=\"redText\">Bad choice,</span> the bee was friendly.<br>Your bonus pay is unchanged, and remains at $0.40.</p>\n            ","response":0,"trial_type":"html-button-response","trial_index":56,"time_elapsed":681006,"internal_node_id":"0.0-4.0-1.22","subject_id":"5f5f72d80c064e02b8662ced","study_id":"60edd13110225f80f9f3709b","session_id":"6196c7022e2ad1368624c85f","condition":"full-information","relevant_dimensions":["wings","legs"],"bee_group":{"antennae":"X","wings":"2","pattern":"X","legs":"F"},"bonus":0.48000000000000076},{"rt":7354.699999928474,"stimulus":"bees-with-color/bee-A2DF.svg","response":0,"trial_type":"image-button-response","trial_index":57,"time_elapsed":688363,"internal_node_id":"0.0-4.0-0.23","subject_id":"5f5f72d80c064e02b8662ced","study_id":"60edd13110225f80f9f3709b","session_id":"6196c7022e2ad1368624c85f","condition":"full-information","relevant_dimensions":["wings","legs"],"bee_group":{"antennae":"X","wings":"2","pattern":"X","legs":"F"},"action":"harvest","summary":"bad-harvest","bonus":0.48000000000000076},{"rt":2551.100000023842,"stimulus":"\n                    <p><b>Action: <em>harvest</em></b></p>\n                    <p>This is the bee that you just saw.</p>\n                    <img src=\"bees-with-color/bee-A2DF.svg\" width=\"200\">\n                    <p><span class=\"redText\">Bad choice, the bee was angry.</span><br><b>You have been stung!</b><br>Your pay has been decreased by $0.10. Your bonus pay is now $0.30.</p>\n            ","response":0,"trial_type":"html-button-response","trial_index":58,"time_elapsed":690915,"internal_node_id":"0.0-4.0-1.23","subject_id":"5f5f72d80c064e02b8662ced","study_id":"60edd13110225f80f9f3709b","session_id":"6196c7022e2ad1368624c85f","condition":"full-information","relevant_dimensions":["wings","legs"],"bee_group":{"antennae":"X","wings":"2","pattern":"X","legs":"F"},"bonus":0.48000000000000076},{"rt":1390.1999999284744,"stimulus":"bees-with-color/bee-B1SF.svg","response":0,"trial_type":"image-button-response","trial_index":59,"time_elapsed":692307,"internal_node_id":"0.0-4.0-0.24","subject_id":"5f5f72d80c064e02b8662ced","study_id":"60edd13110225f80f9f3709b","session_id":"6196c7022e2ad1368624c85f","condition":"full-information","relevant_dimensions":["wings","legs"],"bee_group":{"antennae":"X","wings":"2","pattern":"X","legs":"F"},"action":"harvest","summary":"good-harvest","bonus":0.48000000000000076},{"rt":742.2000000476837,"stimulus":"\n                    <p><b>Action: <em>harvest</em></b></p>\n                    <p>This is the bee that you just saw.</p>\n                    <img src=\"bees-with-color/bee-B1SF.svg\" width=\"200\">\n                    <p><span class=\"greenText\"><b>Successful harvest!</b></span><br>Your pay has increased by $0.02. Your bonus pay is now $0.32.</p>\n            ","response":0,"trial_type":"html-button-response","trial_index":60,"time_elapsed":693051,"internal_node_id":"0.0-4.0-1.24","subject_id":"5f5f72d80c064e02b8662ced","study_id":"60edd13110225f80f9f3709b","session_id":"6196c7022e2ad1368624c85f","condition":"full-information","relevant_dimensions":["wings","legs"],"bee_group":{"antennae":"X","wings":"2","pattern":"X","legs":"F"},"bonus":0.48000000000000076},{"rt":5005.900000095367,"stimulus":"bees-with-color/bee-A2SF.svg","response":0,"trial_type":"image-button-response","trial_index":61,"time_elapsed":698058,"internal_node_id":"0.0-4.0-0.25","subject_id":"5f5f72d80c064e02b8662ced","study_id":"60edd13110225f80f9f3709b","session_id":"6196c7022e2ad1368624c85f","condition":"full-information","relevant_dimensions":["wings","legs"],"bee_group":{"antennae":"X","wings":"2","pattern":"X","legs":"F"},"action":"harvest","summary":"bad-harvest","bonus":0.48000000000000076},{"rt":1215.1000000238419,"stimulus":"\n                    <p><b>Action: <em>harvest</em></b></p>\n                    <p>This is the bee that you just saw.</p>\n                    <img src=\"bees-with-color/bee-A2SF.svg\" width=\"200\">\n                    <p><span class=\"redText\">Bad choice, the bee was angry.</span><br><b>You have been stung!</b><br>Your pay has been decreased by $0.10. Your bonus pay is now $0.22.</p>\n            ","response":0,"trial_type":"html-button-response","trial_index":62,"time_elapsed":699274,"internal_node_id":"0.0-4.0-1.25","subject_id":"5f5f72d80c064e02b8662ced","study_id":"60edd13110225f80f9f3709b","session_id":"6196c7022e2ad1368624c85f","condition":"full-information","relevant_dimensions":["wings","legs"],"bee_group":{"antennae":"X","wings":"2","pattern":"X","legs":"F"},"bonus":0.48000000000000076},{"rt":1982,"stimulus":"bees-with-color/bee-B2DF.svg","response":0,"trial_type":"image-button-response","trial_index":63,"time_elapsed":701258,"internal_node_id":"0.0-4.0-0.26","subject_id":"5f5f72d80c064e02b8662ced","study_id":"60edd13110225f80f9f3709b","session_id":"6196c7022e2ad1368624c85f","condition":"full-information","relevant_dimensions":["wings","legs"],"bee_group":{"antennae":"X","wings":"2","pattern":"X","legs":"F"},"action":"harvest","summary":"bad-harvest","bonus":0.48000000000000076},{"rt":1062.2000000476837,"stimulus":"\n                    <p><b>Action: <em>harvest</em></b></p>\n                    <p>This is the bee that you just saw.</p>\n                    <img src=\"bees-with-color/bee-B2DF.svg\" width=\"200\">\n                    <p><span class=\"redText\">Bad choice, the bee was angry.</span><br><b>You have been stung!</b><br>Your pay has been decreased by $0.10. Your bonus pay is now $0.12.</p>\n            ","response":0,"trial_type":"html-button-response","trial_index":64,"time_elapsed":702322,"internal_node_id":"0.0-4.0-1.26","subject_id":"5f5f72d80c064e02b8662ced","study_id":"60edd13110225f80f9f3709b","session_id":"6196c7022e2ad1368624c85f","condition":"full-information","relevant_dimensions":["wings","legs"],"bee_group":{"antennae":"X","wings":"2","pattern":"X","legs":"F"},"bonus":0.48000000000000076},{"rt":607.1000000238419,"stimulus":"bees-with-color/bee-A1SF.svg","response":0,"trial_type":"image-button-response","trial_index":65,"time_elapsed":702930,"internal_node_id":"0.0-4.0-0.27","subject_id":"5f5f72d80c064e02b8662ced","study_id":"60edd13110225f80f9f3709b","session_id":"6196c7022e2ad1368624c85f","condition":"full-information","relevant_dimensions":["wings","legs"],"bee_group":{"antennae":"X","wings":"2","pattern":"X","legs":"F"},"action":"harvest","summary":"good-harvest","bonus":0.48000000000000076},{"rt":694.3999999761581,"stimulus":"\n                    <p><b>Action: <em>harvest</em></b></p>\n                    <p>This is the bee that you just saw.</p>\n                    <img src=\"bees-with-color/bee-A1SF.svg\" width=\"200\">\n                    <p><span class=\"greenText\"><b>Successful harvest!</b></span><br>Your pay has increased by $0.02. Your bonus pay is now $0.14.</p>\n            ","response":0,"trial_type":"html-button-response","trial_index":66,"time_elapsed":703626,"internal_node_id":"0.0-4.0-1.27","subject_id":"5f5f72d80c064e02b8662ced","study_id":"60edd13110225f80f9f3709b","session_id":"6196c7022e2ad1368624c85f","condition":"full-information","relevant_dimensions":["wings","legs"],"bee_group":{"antennae":"X","wings":"2","pattern":"X","legs":"F"},"bonus":0.48000000000000076},{"rt":958.3000000715256,"stimulus":"bees-with-color/bee-B1DM.svg","response":0,"trial_type":"image-button-response","trial_index":67,"time_elapsed":704586,"internal_node_id":"0.0-4.0-0.28","subject_id":"5f5f72d80c064e02b8662ced","study_id":"60edd13110225f80f9f3709b","session_id":"6196c7022e2ad1368624c85f","condition":"full-information","relevant_dimensions":["wings","legs"],"bee_group":{"antennae":"X","wings":"2","pattern":"X","legs":"F"},"action":"harvest","summary":"good-harvest","bonus":0.48000000000000076},{"rt":1423.5,"stimulus":"\n                    <p><b>Action: <em>harvest</em></b></p>\n                    <p>This is the bee that you just saw.</p>\n                    <img src=\"bees-with-color/bee-B1DM.svg\" width=\"200\">\n                    <p><span class=\"greenText\"><b>Successful harvest!</b></span><br>Your pay has increased by $0.02. Your bonus pay is now $0.16.</p>\n            ","response":0,"trial_type":"html-button-response","trial_index":68,"time_elapsed":706010,"internal_node_id":"0.0-4.0-1.28","subject_id":"5f5f72d80c064e02b8662ced","study_id":"60edd13110225f80f9f3709b","session_id":"6196c7022e2ad1368624c85f","condition":"full-information","relevant_dimensions":["wings","legs"],"bee_group":{"antennae":"X","wings":"2","pattern":"X","legs":"F"},"bonus":0.48000000000000076},{"rt":482.60000002384186,"stimulus":"bees-with-color/bee-A2SM.svg","response":0,"trial_type":"image-button-response","trial_index":69,"time_elapsed":706494,"internal_node_id":"0.0-4.0-0.29","subject_id":"5f5f72d80c064e02b8662ced","study_id":"60edd13110225f80f9f3709b","session_id":"6196c7022e2ad1368624c85f","condition":"full-information","relevant_dimensions":["wings","legs"],"bee_group":{"antennae":"X","wings":"2","pattern":"X","legs":"F"},"action":"harvest","summary":"good-harvest","bonus":0.48000000000000076},{"rt":635.2999999523163,"stimulus":"\n                    <p><b>Action: <em>harvest</em></b></p>\n                    <p>This is the bee that you just saw.</p>\n                    <img src=\"bees-with-color/bee-A2SM.svg\" width=\"200\">\n                    <p><span class=\"greenText\"><b>Successful harvest!</b></span><br>Your pay has increased by $0.02. Your bonus pay is now $0.18.</p>\n            ","response":0,"trial_type":"html-button-response","trial_index":70,"time_elapsed":707130,"internal_node_id":"0.0-4.0-1.29","subject_id":"5f5f72d80c064e02b8662ced","study_id":"60edd13110225f80f9f3709b","session_id":"6196c7022e2ad1368624c85f","condition":"full-information","relevant_dimensions":["wings","legs"],"bee_group":{"antennae":"X","wings":"2","pattern":"X","legs":"F"},"bonus":0.48000000000000076},{"rt":1014.3999999761581,"stimulus":"bees-with-color/bee-A2DM.svg","response":0,"trial_type":"image-button-response","trial_index":71,"time_elapsed":708146,"internal_node_id":"0.0-4.0-0.30","subject_id":"5f5f72d80c064e02b8662ced","study_id":"60edd13110225f80f9f3709b","session_id":"6196c7022e2ad1368624c85f","condition":"full-information","relevant_dimensions":["wings","legs"],"bee_group":{"antennae":"X","wings":"2","pattern":"X","legs":"F"},"action":"harvest","summary":"good-harvest","bonus":0.48000000000000076},{"rt":910.8999999761581,"stimulus":"\n                    <p><b>Action: <em>harvest</em></b></p>\n                    <p>This is the bee that you just saw.</p>\n                    <img src=\"bees-with-color/bee-A2DM.svg\" width=\"200\">\n                    <p><span class=\"greenText\"><b>Successful harvest!</b></span><br>Your pay has increased by $0.02. Your bonus pay is now $0.20.</p>\n            ","response":0,"trial_type":"html-button-response","trial_index":72,"time_elapsed":709058,"internal_node_id":"0.0-4.0-1.30","subject_id":"5f5f72d80c064e02b8662ced","study_id":"60edd13110225f80f9f3709b","session_id":"6196c7022e2ad1368624c85f","condition":"full-information","relevant_dimensions":["wings","legs"],"bee_group":{"antennae":"X","wings":"2","pattern":"X","legs":"F"},"bonus":0.48000000000000076},{"rt":5375.100000023842,"stimulus":"bees-with-color/bee-B1DF.svg","response":1,"trial_type":"image-button-response","trial_index":73,"time_elapsed":714434,"internal_node_id":"0.0-4.0-0.31","subject_id":"5f5f72d80c064e02b8662ced","study_id":"60edd13110225f80f9f3709b","session_id":"6196c7022e2ad1368624c85f","condition":"full-information","relevant_dimensions":["wings","legs"],"bee_group":{"antennae":"X","wings":"2","pattern":"X","legs":"F"},"action":"avoid","summary":"bad-avoid","bonus":0.48000000000000076},{"rt":654.1999999284744,"stimulus":"\n                    <p><b>Action: <em>avoid</em></b></p>\n                    <p>This is the bee that you just saw.</p>\n                    <img src=\"bees-with-color/bee-B1DF.svg\" width=\"200\">\n                    <p><span class=\"redText\">Bad choice,</span> the bee was friendly.<br>Your bonus pay is unchanged, and remains at $0.20.</p>\n            ","response":0,"trial_type":"html-button-response","trial_index":74,"time_elapsed":715089,"internal_node_id":"0.0-4.0-1.31","subject_id":"5f5f72d80c064e02b8662ced","study_id":"60edd13110225f80f9f3709b","session_id":"6196c7022e2ad1368624c85f","condition":"full-information","relevant_dimensions":["wings","legs"],"bee_group":{"antennae":"X","wings":"2","pattern":"X","legs":"F"},"bonus":0.48000000000000076},{"rt":4111.800000071526,"stimulus":"bees-with-color/bee-A2DF.svg","response":0,"trial_type":"image-button-response","trial_index":75,"time_elapsed":719203,"internal_node_id":"0.0-4.0-0.32","subject_id":"5f5f72d80c064e02b8662ced","study_id":"60edd13110225f80f9f3709b","session_id":"6196c7022e2ad1368624c85f","condition":"full-information","relevant_dimensions":["wings","legs"],"bee_group":{"antennae":"X","wings":"2","pattern":"X","legs":"F"},"action":"harvest","summary":"bad-harvest","bonus":0.48000000000000076},{"rt":27342.600000023842,"stimulus":"\n                    <p><b>Action: <em>harvest</em></b></p>\n                    <p>This is the bee that you just saw.</p>\n                    <img src=\"bees-with-color/bee-A2DF.svg\" width=\"200\">\n                    <p><span class=\"redText\">Bad choice, the bee was angry.</span><br><b>You have been stung!</b><br>Your pay has been decreased by $0.10. Your bonus pay is now $0.10.</p>\n            ","response":0,"trial_type":"html-button-response","trial_index":76,"time_elapsed":746546,"internal_node_id":"0.0-4.0-1.32","subject_id":"5f5f72d80c064e02b8662ced","study_id":"60edd13110225f80f9f3709b","session_id":"6196c7022e2ad1368624c85f","condition":"full-information","relevant_dimensions":["wings","legs"],"bee_group":{"antennae":"X","wings":"2","pattern":"X","legs":"F"},"bonus":0.48000000000000076},{"rt":1189.8999999761581,"stimulus":"bees-with-color/bee-B1DM.svg","response":0,"trial_type":"image-button-response","trial_index":77,"time_elapsed":747738,"internal_node_id":"0.0-4.0-0.33","subject_id":"5f5f72d80c064e02b8662ced","study_id":"60edd13110225f80f9f3709b","session_id":"6196c7022e2ad1368624c85f","condition":"full-information","relevant_dimensions":["wings","legs"],"bee_group":{"antennae":"X","wings":"2","pattern":"X","legs":"F"},"action":"harvest","summary":"good-harvest","bonus":0.48000000000000076},{"rt":6231.399999976158,"stimulus":"\n                    <p><b>Action: <em>harvest</em></b></p>\n                    <p>This is the bee that you just saw.</p>\n                    <img src=\"bees-with-color/bee-B1DM.svg\" width=\"200\">\n                    <p><span class=\"greenText\"><b>Successful harvest!</b></span><br>Your pay has increased by $0.02. Your bonus pay is now $0.12.</p>\n            ","response":0,"trial_type":"html-button-response","trial_index":78,"time_elapsed":753971,"internal_node_id":"0.0-4.0-1.33","subject_id":"5f5f72d80c064e02b8662ced","study_id":"60edd13110225f80f9f3709b","session_id":"6196c7022e2ad1368624c85f","condition":"full-information","relevant_dimensions":["wings","legs"],"bee_group":{"antennae":"X","wings":"2","pattern":"X","legs":"F"},"bonus":0.48000000000000076},{"rt":7530,"stimulus":"bees-with-color/bee-B1DF.svg","response":0,"trial_type":"image-button-response","trial_index":79,"time_elapsed":761503,"internal_node_id":"0.0-4.0-0.34","subject_id":"5f5f72d80c064e02b8662ced","study_id":"60edd13110225f80f9f3709b","session_id":"6196c7022e2ad1368624c85f","condition":"full-information","relevant_dimensions":["wings","legs"],"bee_group":{"antennae":"X","wings":"2","pattern":"X","legs":"F"},"action":"harvest","summary":"good-harvest","bonus":0.48000000000000076},{"rt":1057.5,"stimulus":"\n                    <p><b>Action: <em>harvest</em></b></p>\n                    <p>This is the bee that you just saw.</p>\n                    <img src=\"bees-with-color/bee-B1DF.svg\" width=\"200\">\n                    <p><span class=\"greenText\"><b>Successful harvest!</b></span><br>Your pay has increased by $0.02. Your bonus pay is now $0.14.</p>\n            ","response":0,"trial_type":"html-button-response","trial_index":80,"time_elapsed":762562,"internal_node_id":"0.0-4.0-1.34","subject_id":"5f5f72d80c064e02b8662ced","study_id":"60edd13110225f80f9f3709b","session_id":"6196c7022e2ad1368624c85f","condition":"full-information","relevant_dimensions":["wings","legs"],"bee_group":{"antennae":"X","wings":"2","pattern":"X","legs":"F"},"bonus":0.48000000000000076},{"rt":2335.0999999046326,"stimulus":"bees-with-color/bee-B2SF.svg","response":1,"trial_type":"image-button-response","trial_index":81,"time_elapsed":764899,"internal_node_id":"0.0-4.0-0.35","subject_id":"5f5f72d80c064e02b8662ced","study_id":"60edd13110225f80f9f3709b","session_id":"6196c7022e2ad1368624c85f","condition":"full-information","relevant_dimensions":["wings","legs"],"bee_group":{"antennae":"X","wings":"2","pattern":"X","legs":"F"},"action":"avoid","summary":"good-avoid","bonus":0.48000000000000076},{"rt":18766.300000071526,"stimulus":"\n                    <p><b>Action: <em>avoid</em></b></p>\n                    <p>This is the bee that you just saw.</p>\n                    <img src=\"bees-with-color/bee-B2SF.svg\" width=\"200\">\n                    <p><span class=\"greenText\">Good choice!</span>  This bee would have stung you.<br>Your bonus pay is unchanged, and remains at $0.14.</p>\n            ","response":0,"trial_type":"html-button-response","trial_index":82,"time_elapsed":783666,"internal_node_id":"0.0-4.0-1.35","subject_id":"5f5f72d80c064e02b8662ced","study_id":"60edd13110225f80f9f3709b","session_id":"6196c7022e2ad1368624c85f","condition":"full-information","relevant_dimensions":["wings","legs"],"bee_group":{"antennae":"X","wings":"2","pattern":"X","legs":"F"},"bonus":0.48000000000000076},{"rt":8146.300000071526,"stimulus":"bees-with-color/bee-B1SM.svg","response":0,"trial_type":"image-button-response","trial_index":83,"time_elapsed":791814,"internal_node_id":"0.0-4.0-0.36","subject_id":"5f5f72d80c064e02b8662ced","study_id":"60edd13110225f80f9f3709b","session_id":"6196c7022e2ad1368624c85f","condition":"full-information","relevant_dimensions":["wings","legs"],"bee_group":{"antennae":"X","wings":"2","pattern":"X","legs":"F"},"action":"harvest","summary":"good-harvest","bonus":0.48000000000000076},{"rt":1570.7000000476837,"stimulus":"\n                    <p><b>Action: <em>harvest</em></b></p>\n                    <p>This is the bee that you just saw.</p>\n                    <img src=\"bees-with-color/bee-B1SM.svg\" width=\"200\">\n                    <p><span class=\"greenText\"><b>Successful harvest!</b></span><br>Your pay has increased by $0.02. Your bonus pay is now $0.16.</p>\n            ","response":0,"trial_type":"html-button-response","trial_index":84,"time_elapsed":793386,"internal_node_id":"0.0-4.0-1.36","subject_id":"5f5f72d80c064e02b8662ced","study_id":"60edd13110225f80f9f3709b","session_id":"6196c7022e2ad1368624c85f","condition":"full-information","relevant_dimensions":["wings","legs"],"bee_group":{"antennae":"X","wings":"2","pattern":"X","legs":"F"},"bonus":0.48000000000000076},{"rt":17962.300000071526,"stimulus":"bees-with-color/bee-A2SM.svg","response":0,"trial_type":"image-button-response","trial_index":85,"time_elapsed":811350,"internal_node_id":"0.0-4.0-0.37","subject_id":"5f5f72d80c064e02b8662ced","study_id":"60edd13110225f80f9f3709b","session_id":"6196c7022e2ad1368624c85f","condition":"full-information","relevant_dimensions":["wings","legs"],"bee_group":{"antennae":"X","wings":"2","pattern":"X","legs":"F"},"action":"harvest","summary":"good-harvest","bonus":0.48000000000000076},{"rt":1667.1000000238419,"stimulus":"\n                    <p><b>Action: <em>harvest</em></b></p>\n                    <p>This is the bee that you just saw.</p>\n                    <img src=\"bees-with-color/bee-A2SM.svg\" width=\"200\">\n                    <p><span class=\"greenText\"><b>Successful harvest!</b></span><br>Your pay has increased by $0.02. Your bonus pay is now $0.18.</p>\n            ","response":0,"trial_type":"html-button-response","trial_index":86,"time_elapsed":813018,"internal_node_id":"0.0-4.0-1.37","subject_id":"5f5f72d80c064e02b8662ced","study_id":"60edd13110225f80f9f3709b","session_id":"6196c7022e2ad1368624c85f","condition":"full-information","relevant_dimensions":["wings","legs"],"bee_group":{"antennae":"X","wings":"2","pattern":"X","legs":"F"},"bonus":0.48000000000000076},{"rt":24602.300000071526,"stimulus":"bees-with-color/bee-B2DM.svg","response":0,"trial_type":"image-button-response","trial_index":87,"time_elapsed":837622,"internal_node_id":"0.0-4.0-0.38","subject_id":"5f5f72d80c064e02b8662ced","study_id":"60edd13110225f80f9f3709b","session_id":"6196c7022e2ad1368624c85f","condition":"full-information","relevant_dimensions":["wings","legs"],"bee_group":{"antennae":"X","wings":"2","pattern":"X","legs":"F"},"action":"harvest","summary":"good-harvest","bonus":0.48000000000000076},{"rt":1610.7000000476837,"stimulus":"\n                    <p><b>Action: <em>harvest</em></b></p>\n                    <p>This is the bee that you just saw.</p>\n                    <img src=\"bees-with-color/bee-B2DM.svg\" width=\"200\">\n                    <p><span class=\"greenText\"><b>Successful harvest!</b></span><br>Your pay has increased by $0.02. Your bonus pay is now $0.20.</p>\n            ","response":0,"trial_type":"html-button-response","trial_index":88,"time_elapsed":839234,"internal_node_id":"0.0-4.0-1.38","subject_id":"5f5f72d80c064e02b8662ced","study_id":"60edd13110225f80f9f3709b","session_id":"6196c7022e2ad1368624c85f","condition":"full-information","relevant_dimensions":["wings","legs"],"bee_group":{"antennae":"X","wings":"2","pattern":"X","legs":"F"},"bonus":0.48000000000000076},{"rt":9687.099999904633,"stimulus":"bees-with-color/bee-A2DM.svg","response":1,"trial_type":"image-button-response","trial_index":89,"time_elapsed":848923,"internal_node_id":"0.0-4.0-0.39","subject_id":"5f5f72d80c064e02b8662ced","study_id":"60edd13110225f80f9f3709b","session_id":"6196c7022e2ad1368624c85f","condition":"full-information","relevant_dimensions":["wings","legs"],"bee_group":{"antennae":"X","wings":"2","pattern":"X","legs":"F"},"action":"avoid","summary":"bad-avoid","bonus":0.48000000000000076},{"rt":15857.800000071526,"stimulus":"\n                    <p><b>Action: <em>avoid</em></b></p>\n                    <p>This is the bee that you just saw.</p>\n                    <img src=\"bees-with-color/bee-A2DM.svg\" width=\"200\">\n                    <p><span class=\"redText\">Bad choice,</span> the bee was friendly.<br>Your bonus pay is unchanged, and remains at $0.20.</p>\n            ","response":0,"trial_type":"html-button-response","trial_index":90,"time_elapsed":864783,"internal_node_id":"0.0-4.0-1.39","subject_id":"5f5f72d80c064e02b8662ced","study_id":"60edd13110225f80f9f3709b","session_id":"6196c7022e2ad1368624c85f","condition":"full-information","relevant_dimensions":["wings","legs"],"bee_group":{"antennae":"X","wings":"2","pattern":"X","legs":"F"},"bonus":0.48000000000000076},{"rt":15953.100000023842,"stimulus":"bees-with-color/bee-A1DF.svg","response":0,"trial_type":"image-button-response","trial_index":91,"time_elapsed":880738,"internal_node_id":"0.0-4.0-0.40","subject_id":"5f5f72d80c064e02b8662ced","study_id":"60edd13110225f80f9f3709b","session_id":"6196c7022e2ad1368624c85f","condition":"full-information","relevant_dimensions":["wings","legs"],"bee_group":{"antennae":"X","wings":"2","pattern":"X","legs":"F"},"action":"harvest","summary":"good-harvest","bonus":0.48000000000000076},{"rt":29559,"stimulus":"\n                    <p><b>Action: <em>harvest</em></b></p>\n                    <p>This is the bee that you just saw.</p>\n                    <img src=\"bees-with-color/bee-A1DF.svg\" width=\"200\">\n                    <p><span class=\"greenText\"><b>Successful harvest!</b></span><br>Your pay has increased by $0.02. Your bonus pay is now $0.22.</p>\n            ","response":0,"trial_type":"html-button-response","trial_index":92,"time_elapsed":910298,"internal_node_id":"0.0-4.0-1.40","subject_id":"5f5f72d80c064e02b8662ced","study_id":"60edd13110225f80f9f3709b","session_id":"6196c7022e2ad1368624c85f","condition":"full-information","relevant_dimensions":["wings","legs"],"bee_group":{"antennae":"X","wings":"2","pattern":"X","legs":"F"},"bonus":0.48000000000000076},{"rt":11254.099999904633,"stimulus":"bees-with-color/bee-A1DM.svg","response":1,"trial_type":"image-button-response","trial_index":93,"time_elapsed":921554,"internal_node_id":"0.0-4.0-0.41","subject_id":"5f5f72d80c064e02b8662ced","study_id":"60edd13110225f80f9f3709b","session_id":"6196c7022e2ad1368624c85f","condition":"full-information","relevant_dimensions":["wings","legs"],"bee_group":{"antennae":"X","wings":"2","pattern":"X","legs":"F"},"action":"avoid","summary":"bad-avoid","bonus":0.48000000000000076},{"rt":13038.5,"stimulus":"\n                    <p><b>Action: <em>avoid</em></b></p>\n                    <p>This is the bee that you just saw.</p>\n                    <img src=\"bees-with-color/bee-A1DM.svg\" width=\"200\">\n                    <p><span class=\"redText\">Bad choice,</span> the bee was friendly.<br>Your bonus pay is unchanged, and remains at $0.22.</p>\n            ","response":0,"trial_type":"html-button-response","trial_index":94,"time_elapsed":934594,"internal_node_id":"0.0-4.0-1.41","subject_id":"5f5f72d80c064e02b8662ced","study_id":"60edd13110225f80f9f3709b","session_id":"6196c7022e2ad1368624c85f","condition":"full-information","relevant_dimensions":["wings","legs"],"bee_group":{"antennae":"X","wings":"2","pattern":"X","legs":"F"},"bonus":0.48000000000000076},{"rt":13686.100000023842,"stimulus":"bees-with-color/bee-B2SM.svg","response":1,"trial_type":"image-button-response","trial_index":95,"time_elapsed":948282,"internal_node_id":"0.0-4.0-0.42","subject_id":"5f5f72d80c064e02b8662ced","study_id":"60edd13110225f80f9f3709b","session_id":"6196c7022e2ad1368624c85f","condition":"full-information","relevant_dimensions":["wings","legs"],"bee_group":{"antennae":"X","wings":"2","pattern":"X","legs":"F"},"action":"avoid","summary":"bad-avoid","bonus":0.48000000000000076},{"rt":15162.600000023842,"stimulus":"\n                    <p><b>Action: <em>avoid</em></b></p>\n                    <p>This is the bee that you just saw.</p>\n                    <img src=\"bees-with-color/bee-B2SM.svg\" width=\"200\">\n                    <p><span class=\"redText\">Bad choice,</span> the bee was friendly.<br>Your bonus pay is unchanged, and remains at $0.22.</p>\n            ","response":0,"trial_type":"html-button-response","trial_index":96,"time_elapsed":963446,"internal_node_id":"0.0-4.0-1.42","subject_id":"5f5f72d80c064e02b8662ced","study_id":"60edd13110225f80f9f3709b","session_id":"6196c7022e2ad1368624c85f","condition":"full-information","relevant_dimensions":["wings","legs"],"bee_group":{"antennae":"X","wings":"2","pattern":"X","legs":"F"},"bonus":0.48000000000000076},{"rt":3323.100000023842,"stimulus":"bees-with-color/bee-B1SF.svg","response":0,"trial_type":"image-button-response","trial_index":97,"time_elapsed":966771,"internal_node_id":"0.0-4.0-0.43","subject_id":"5f5f72d80c064e02b8662ced","study_id":"60edd13110225f80f9f3709b","session_id":"6196c7022e2ad1368624c85f","condition":"full-information","relevant_dimensions":["wings","legs"],"bee_group":{"antennae":"X","wings":"2","pattern":"X","legs":"F"},"action":"harvest","summary":"good-harvest","bonus":0.48000000000000076},{"rt":24837.899999976158,"stimulus":"\n                    <p><b>Action: <em>harvest</em></b></p>\n                    <p>This is the bee that you just saw.</p>\n                    <img src=\"bees-with-color/bee-B1SF.svg\" width=\"200\">\n                    <p><span class=\"greenText\"><b>Successful harvest!</b></span><br>Your pay has increased by $0.02. Your bonus pay is now $0.24.</p>\n            ","response":0,"trial_type":"html-button-response","trial_index":98,"time_elapsed":991610,"internal_node_id":"0.0-4.0-1.43","subject_id":"5f5f72d80c064e02b8662ced","study_id":"60edd13110225f80f9f3709b","session_id":"6196c7022e2ad1368624c85f","condition":"full-information","relevant_dimensions":["wings","legs"],"bee_group":{"antennae":"X","wings":"2","pattern":"X","legs":"F"},"bonus":0.48000000000000076},{"rt":14678.299999952316,"stimulus":"bees-with-color/bee-A1SM.svg","response":0,"trial_type":"image-button-response","trial_index":99,"time_elapsed":1006290,"internal_node_id":"0.0-4.0-0.44","subject_id":"5f5f72d80c064e02b8662ced","study_id":"60edd13110225f80f9f3709b","session_id":"6196c7022e2ad1368624c85f","condition":"full-information","relevant_dimensions":["wings","legs"],"bee_group":{"antennae":"X","wings":"2","pattern":"X","legs":"F"},"action":"harvest","summary":"good-harvest","bonus":0.48000000000000076},{"rt":2366.7999999523163,"stimulus":"\n                    <p><b>Action: <em>harvest</em></b></p>\n                    <p>This is the bee that you just saw.</p>\n                    <img src=\"bees-with-color/bee-A1SM.svg\" width=\"200\">\n                    <p><span class=\"greenText\"><b>Successful harvest!</b></span><br>Your pay has increased by $0.02. Your bonus pay is now $0.26.</p>\n            ","response":0,"trial_type":"html-button-response","trial_index":100,"time_elapsed":1008659,"internal_node_id":"0.0-4.0-1.44","subject_id":"5f5f72d80c064e02b8662ced","study_id":"60edd13110225f80f9f3709b","session_id":"6196c7022e2ad1368624c85f","condition":"full-information","relevant_dimensions":["wings","legs"],"bee_group":{"antennae":"X","wings":"2","pattern":"X","legs":"F"},"bonus":0.48000000000000076},{"rt":20118.300000071526,"stimulus":"bees-with-color/bee-B2DF.svg","response":1,"trial_type":"image-button-response","trial_index":101,"time_elapsed":1028776,"internal_node_id":"0.0-4.0-0.45","subject_id":"5f5f72d80c064e02b8662ced","study_id":"60edd13110225f80f9f3709b","session_id":"6196c7022e2ad1368624c85f","condition":"full-information","relevant_dimensions":["wings","legs"],"bee_group":{"antennae":"X","wings":"2","pattern":"X","legs":"F"},"action":"avoid","summary":"good-avoid","bonus":0.48000000000000076},{"rt":29733.899999976158,"stimulus":"\n                    <p><b>Action: <em>avoid</em></b></p>\n                    <p>This is the bee that you just saw.</p>\n                    <img src=\"bees-with-color/bee-B2DF.svg\" width=\"200\">\n                    <p><span class=\"greenText\">Good choice!</span>  This bee would have stung you.<br>Your bonus pay is unchanged, and remains at $0.26.</p>\n            ","response":0,"trial_type":"html-button-response","trial_index":102,"time_elapsed":1058511,"internal_node_id":"0.0-4.0-1.45","subject_id":"5f5f72d80c064e02b8662ced","study_id":"60edd13110225f80f9f3709b","session_id":"6196c7022e2ad1368624c85f","condition":"full-information","relevant_dimensions":["wings","legs"],"bee_group":{"antennae":"X","wings":"2","pattern":"X","legs":"F"},"bonus":0.48000000000000076},{"rt":16597.600000023842,"stimulus":"bees-with-color/bee-A2SF.svg","response":1,"trial_type":"image-button-response","trial_index":103,"time_elapsed":1075111,"internal_node_id":"0.0-4.0-0.46","subject_id":"5f5f72d80c064e02b8662ced","study_id":"60edd13110225f80f9f3709b","session_id":"6196c7022e2ad1368624c85f","condition":"full-information","relevant_dimensions":["wings","legs"],"bee_group":{"antennae":"X","wings":"2","pattern":"X","legs":"F"},"action":"avoid","summary":"good-avoid","bonus":0.48000000000000076},{"rt":1743.7000000476837,"stimulus":"\n                    <p><b>Action: <em>avoid</em></b></p>\n                    <p>This is the bee that you just saw.</p>\n                    <img src=\"bees-with-color/bee-A2SF.svg\" width=\"200\">\n                    <p><span class=\"greenText\">Good choice!</span>  This bee would have stung you.<br>Your bonus pay is unchanged, and remains at $0.26.</p>\n            ","response":0,"trial_type":"html-button-response","trial_index":104,"time_elapsed":1076856,"internal_node_id":"0.0-4.0-1.46","subject_id":"5f5f72d80c064e02b8662ced","study_id":"60edd13110225f80f9f3709b","session_id":"6196c7022e2ad1368624c85f","condition":"full-information","relevant_dimensions":["wings","legs"],"bee_group":{"antennae":"X","wings":"2","pattern":"X","legs":"F"},"bonus":0.48000000000000076},{"rt":11325.899999976158,"stimulus":"bees-with-color/bee-A1SF.svg","response":0,"trial_type":"image-button-response","trial_index":105,"time_elapsed":1088186,"internal_node_id":"0.0-4.0-0.47","subject_id":"5f5f72d80c064e02b8662ced","study_id":"60edd13110225f80f9f3709b","session_id":"6196c7022e2ad1368624c85f","condition":"full-information","relevant_dimensions":["wings","legs"],"bee_group":{"antennae":"X","wings":"2","pattern":"X","legs":"F"},"action":"harvest","summary":"good-harvest","bonus":0.48000000000000076},{"rt":39590.10000002384,"stimulus":"\n                    <p><b>Action: <em>harvest</em></b></p>\n                    <p>This is the bee that you just saw.</p>\n                    <img src=\"bees-with-color/bee-A1SF.svg\" width=\"200\">\n                    <p><span class=\"greenText\"><b>Successful harvest!</b></span><br>Your pay has increased by $0.02. Your bonus pay is now $0.28.</p>\n            ","response":0,"trial_type":"html-button-response","trial_index":106,"time_elapsed":1127778,"internal_node_id":"0.0-4.0-1.47","subject_id":"5f5f72d80c064e02b8662ced","study_id":"60edd13110225f80f9f3709b","session_id":"6196c7022e2ad1368624c85f","condition":"full-information","relevant_dimensions":["wings","legs"],"bee_group":{"antennae":"X","wings":"2","pattern":"X","legs":"F"},"bonus":0.48000000000000076},{"rt":22533.899999976158,"stimulus":"bees-with-color/bee-B1SM.svg","response":0,"trial_type":"image-button-response","trial_index":107,"time_elapsed":1150315,"internal_node_id":"0.0-4.0-0.48","subject_id":"5f5f72d80c064e02b8662ced","study_id":"60edd13110225f80f9f3709b","session_id":"6196c7022e2ad1368624c85f","condition":"full-information","relevant_dimensions":["wings","legs"],"bee_group":{"antennae":"X","wings":"2","pattern":"X","legs":"F"},"action":"harvest","summary":"good-harvest","bonus":0.48000000000000076},{"rt":38758.5,"stimulus":"\n                    <p><b>Action: <em>harvest</em></b></p>\n                    <p>This is the bee that you just saw.</p>\n                    <img src=\"bees-with-color/bee-B1SM.svg\" width=\"200\">\n                    <p><span class=\"greenText\"><b>Successful harvest!</b></span><br>Your pay has increased by $0.02. Your bonus pay is now $0.30.</p>\n            ","response":0,"trial_type":"html-button-response","trial_index":108,"time_elapsed":1189075,"internal_node_id":"0.0-4.0-1.48","subject_id":"5f5f72d80c064e02b8662ced","study_id":"60edd13110225f80f9f3709b","session_id":"6196c7022e2ad1368624c85f","condition":"full-information","relevant_dimensions":["wings","legs"],"bee_group":{"antennae":"X","wings":"2","pattern":"X","legs":"F"},"bonus":0.48000000000000076},{"rt":9566.100000023842,"stimulus":"bees-with-color/bee-A1SM.svg","response":0,"trial_type":"image-button-response","trial_index":109,"time_elapsed":1198641,"internal_node_id":"0.0-4.0-0.49","subject_id":"5f5f72d80c064e02b8662ced","study_id":"60edd13110225f80f9f3709b","session_id":"6196c7022e2ad1368624c85f","condition":"full-information","relevant_dimensions":["wings","legs"],"bee_group":{"antennae":"X","wings":"2","pattern":"X","legs":"F"},"action":"harvest","summary":"good-harvest","bonus":0.48000000000000076},{"rt":702.5,"stimulus":"\n                    <p><b>Action: <em>harvest</em></b></p>\n                    <p>This is the bee that you just saw.</p>\n                    <img src=\"bees-with-color/bee-A1SM.svg\" width=\"200\">\n                    <p><span class=\"greenText\"><b>Successful harvest!</b></span><br>Your pay has increased by $0.02. Your bonus pay is now $0.32.</p>\n            ","response":0,"trial_type":"html-button-response","trial_index":110,"time_elapsed":1199345,"internal_node_id":"0.0-4.0-1.49","subject_id":"5f5f72d80c064e02b8662ced","study_id":"60edd13110225f80f9f3709b","session_id":"6196c7022e2ad1368624c85f","condition":"full-information","relevant_dimensions":["wings","legs"],"bee_group":{"antennae":"X","wings":"2","pattern":"X","legs":"F"},"bonus":0.48000000000000076},{"rt":9766.700000047684,"stimulus":"bees-with-color/bee-B2DF.svg","response":1,"trial_type":"image-button-response","trial_index":111,"time_elapsed":1209113,"internal_node_id":"0.0-4.0-0.50","subject_id":"5f5f72d80c064e02b8662ced","study_id":"60edd13110225f80f9f3709b","session_id":"6196c7022e2ad1368624c85f","condition":"full-information","relevant_dimensions":["wings","legs"],"bee_group":{"antennae":"X","wings":"2","pattern":"X","legs":"F"},"action":"avoid","summary":"good-avoid","bonus":0.48000000000000076},{"rt":1590,"stimulus":"\n                    <p><b>Action: <em>avoid</em></b></p>\n                    <p>This is the bee that you just saw.</p>\n                    <img src=\"bees-with-color/bee-B2DF.svg\" width=\"200\">\n                    <p><span class=\"greenText\">Good choice!</span>  This bee would have stung you.<br>Your bonus pay is unchanged, and remains at $0.32.</p>\n            ","response":0,"trial_type":"html-button-response","trial_index":112,"time_elapsed":1210704,"internal_node_id":"0.0-4.0-1.50","subject_id":"5f5f72d80c064e02b8662ced","study_id":"60edd13110225f80f9f3709b","session_id":"6196c7022e2ad1368624c85f","condition":"full-information","relevant_dimensions":["wings","legs"],"bee_group":{"antennae":"X","wings":"2","pattern":"X","legs":"F"},"bonus":0.48000000000000076},{"rt":28919.100000023842,"stimulus":"bees-with-color/bee-B1DM.svg","response":0,"trial_type":"image-button-response","trial_index":113,"time_elapsed":1239625,"internal_node_id":"0.0-4.0-0.51","subject_id":"5f5f72d80c064e02b8662ced","study_id":"60edd13110225f80f9f3709b","session_id":"6196c7022e2ad1368624c85f","condition":"full-information","relevant_dimensions":["wings","legs"],"bee_group":{"antennae":"X","wings":"2","pattern":"X","legs":"F"},"action":"harvest","summary":"good-harvest","bonus":0.48000000000000076},{"rt":19174.399999976158,"stimulus":"\n                    <p><b>Action: <em>harvest</em></b></p>\n                    <p>This is the bee that you just saw.</p>\n                    <img src=\"bees-with-color/bee-B1DM.svg\" width=\"200\">\n                    <p><span class=\"greenText\"><b>Successful harvest!</b></span><br>Your pay has increased by $0.02. Your bonus pay is now $0.34.</p>\n            ","response":0,"trial_type":"html-button-response","trial_index":114,"time_elapsed":1258801,"internal_node_id":"0.0-4.0-1.51","subject_id":"5f5f72d80c064e02b8662ced","study_id":"60edd13110225f80f9f3709b","session_id":"6196c7022e2ad1368624c85f","condition":"full-information","relevant_dimensions":["wings","legs"],"bee_group":{"antennae":"X","wings":"2","pattern":"X","legs":"F"},"bonus":0.48000000000000076},{"rt":22485.899999976158,"stimulus":"bees-with-color/bee-A1DF.svg","response":0,"trial_type":"image-button-response","trial_index":115,"time_elapsed":1281288,"internal_node_id":"0.0-4.0-0.52","subject_id":"5f5f72d80c064e02b8662ced","study_id":"60edd13110225f80f9f3709b","session_id":"6196c7022e2ad1368624c85f","condition":"full-information","relevant_dimensions":["wings","legs"],"bee_group":{"antennae":"X","wings":"2","pattern":"X","legs":"F"},"action":"harvest","summary":"good-harvest","bonus":0.48000000000000076},{"rt":25543.299999952316,"stimulus":"\n                    <p><b>Action: <em>harvest</em></b></p>\n                    <p>This is the bee that you just saw.</p>\n                    <img src=\"bees-with-color/bee-A1DF.svg\" width=\"200\">\n                    <p><span class=\"greenText\"><b>Successful harvest!</b></span><br>Your pay has increased by $0.02. Your bonus pay is now $0.36.</p>\n            ","response":0,"trial_type":"html-button-response","trial_index":116,"time_elapsed":1306833,"internal_node_id":"0.0-4.0-1.52","subject_id":"5f5f72d80c064e02b8662ced","study_id":"60edd13110225f80f9f3709b","session_id":"6196c7022e2ad1368624c85f","condition":"full-information","relevant_dimensions":["wings","legs"],"bee_group":{"antennae":"X","wings":"2","pattern":"X","legs":"F"},"bonus":0.48000000000000076},{"rt":6598.599999904633,"stimulus":"bees-with-color/bee-A2SF.svg","response":1,"trial_type":"image-button-response","trial_index":117,"time_elapsed":1313433,"internal_node_id":"0.0-4.0-0.53","subject_id":"5f5f72d80c064e02b8662ced","study_id":"60edd13110225f80f9f3709b","session_id":"6196c7022e2ad1368624c85f","condition":"full-information","relevant_dimensions":["wings","legs"],"bee_group":{"antennae":"X","wings":"2","pattern":"X","legs":"F"},"action":"avoid","summary":"good-avoid","bonus":0.48000000000000076},{"rt":1390.7000000476837,"stimulus":"\n                    <p><b>Action: <em>avoid</em></b></p>\n                    <p>This is the bee that you just saw.</p>\n                    <img src=\"bees-with-color/bee-A2SF.svg\" width=\"200\">\n                    <p><span class=\"greenText\">Good choice!</span>  This bee would have stung you.<br>Your bonus pay is unchanged, and remains at $0.36.</p>\n            ","response":0,"trial_type":"html-button-response","trial_index":118,"time_elapsed":1314826,"internal_node_id":"0.0-4.0-1.53","subject_id":"5f5f72d80c064e02b8662ced","study_id":"60edd13110225f80f9f3709b","session_id":"6196c7022e2ad1368624c85f","condition":"full-information","relevant_dimensions":["wings","legs"],"bee_group":{"antennae":"X","wings":"2","pattern":"X","legs":"F"},"bonus":0.48000000000000076},{"rt":10029,"stimulus":"bees-with-color/bee-A2DM.svg","response":1,"trial_type":"image-button-response","trial_index":119,"time_elapsed":1324857,"internal_node_id":"0.0-4.0-0.54","subject_id":"5f5f72d80c064e02b8662ced","study_id":"60edd13110225f80f9f3709b","session_id":"6196c7022e2ad1368624c85f","condition":"full-information","relevant_dimensions":["wings","legs"],"bee_group":{"antennae":"X","wings":"2","pattern":"X","legs":"F"},"action":"avoid","summary":"bad-avoid","bonus":0.48000000000000076},{"rt":41623.39999997616,"stimulus":"\n                    <p><b>Action: <em>avoid</em></b></p>\n                    <p>This is the bee that you just saw.</p>\n                    <img src=\"bees-with-color/bee-A2DM.svg\" width=\"200\">\n                    <p><span class=\"redText\">Bad choice,</span> the bee was friendly.<br>Your bonus pay is unchanged, and remains at $0.36.</p>\n            ","response":0,"trial_type":"html-button-response","trial_index":120,"time_elapsed":1366482,"internal_node_id":"0.0-4.0-1.54","subject_id":"5f5f72d80c064e02b8662ced","study_id":"60edd13110225f80f9f3709b","session_id":"6196c7022e2ad1368624c85f","condition":"full-information","relevant_dimensions":["wings","legs"],"bee_group":{"antennae":"X","wings":"2","pattern":"X","legs":"F"},"bonus":0.48000000000000076},{"rt":20590,"stimulus":"bees-with-color/bee-A1DM.svg","response":0,"trial_type":"image-button-response","trial_index":121,"time_elapsed":1387074,"internal_node_id":"0.0-4.0-0.55","subject_id":"5f5f72d80c064e02b8662ced","study_id":"60edd13110225f80f9f3709b","session_id":"6196c7022e2ad1368624c85f","condition":"full-information","relevant_dimensions":["wings","legs"],"bee_group":{"antennae":"X","wings":"2","pattern":"X","legs":"F"},"action":"harvest","summary":"good-harvest","bonus":0.48000000000000076},{"rt":1182.5,"stimulus":"\n                    <p><b>Action: <em>harvest</em></b></p>\n                    <p>This is the bee that you just saw.</p>\n                    <img src=\"bees-with-color/bee-A1DM.svg\" width=\"200\">\n                    <p><span class=\"greenText\"><b>Successful harvest!</b></span><br>Your pay has increased by $0.02. Your bonus pay is now $0.38.</p>\n            ","response":0,"trial_type":"html-button-response","trial_index":122,"time_elapsed":1388258,"internal_node_id":"0.0-4.0-1.55","subject_id":"5f5f72d80c064e02b8662ced","study_id":"60edd13110225f80f9f3709b","session_id":"6196c7022e2ad1368624c85f","condition":"full-information","relevant_dimensions":["wings","legs"],"bee_group":{"antennae":"X","wings":"2","pattern":"X","legs":"F"},"bonus":0.48000000000000076},{"rt":17023.5,"stimulus":"bees-with-color/bee-B1SF.svg","response":0,"trial_type":"image-button-response","trial_index":123,"time_elapsed":1405283,"internal_node_id":"0.0-4.0-0.56","subject_id":"5f5f72d80c064e02b8662ced","study_id":"60edd13110225f80f9f3709b","session_id":"6196c7022e2ad1368624c85f","condition":"full-information","relevant_dimensions":["wings","legs"],"bee_group":{"antennae":"X","wings":"2","pattern":"X","legs":"F"},"action":"harvest","summary":"good-harvest","bonus":0.48000000000000076},{"rt":29186,"stimulus":"\n                    <p><b>Action: <em>harvest</em></b></p>\n                    <p>This is the bee that you just saw.</p>\n                    <img src=\"bees-with-color/bee-B1SF.svg\" width=\"200\">\n                    <p><span class=\"greenText\"><b>Successful harvest!</b></span><br>Your pay has increased by $0.02. Your bonus pay is now $0.40.</p>\n            ","response":0,"trial_type":"html-button-response","trial_index":124,"time_elapsed":1434471,"internal_node_id":"0.0-4.0-1.56","subject_id":"5f5f72d80c064e02b8662ced","study_id":"60edd13110225f80f9f3709b","session_id":"6196c7022e2ad1368624c85f","condition":"full-information","relevant_dimensions":["wings","legs"],"bee_group":{"antennae":"X","wings":"2","pattern":"X","legs":"F"},"bonus":0.48000000000000076},{"rt":6769.800000071526,"stimulus":"bees-with-color/bee-B2SF.svg","response":1,"trial_type":"image-button-response","trial_index":125,"time_elapsed":1441242,"internal_node_id":"0.0-4.0-0.57","subject_id":"5f5f72d80c064e02b8662ced","study_id":"60edd13110225f80f9f3709b","session_id":"6196c7022e2ad1368624c85f","condition":"full-information","relevant_dimensions":["wings","legs"],"bee_group":{"antennae":"X","wings":"2","pattern":"X","legs":"F"},"action":"avoid","summary":"good-avoid","bonus":0.48000000000000076},{"rt":3925.600000023842,"stimulus":"\n                    <p><b>Action: <em>avoid</em></b></p>\n                    <p>This is the bee that you just saw.</p>\n                    <img src=\"bees-with-color/bee-B2SF.svg\" width=\"200\">\n                    <p><span class=\"greenText\">Good choice!</span>  This bee would have stung you.<br>Your bonus pay is unchanged, and remains at $0.40.</p>\n            ","response":0,"trial_type":"html-button-response","trial_index":126,"time_elapsed":1445169,"internal_node_id":"0.0-4.0-1.57","subject_id":"5f5f72d80c064e02b8662ced","study_id":"60edd13110225f80f9f3709b","session_id":"6196c7022e2ad1368624c85f","condition":"full-information","relevant_dimensions":["wings","legs"],"bee_group":{"antennae":"X","wings":"2","pattern":"X","legs":"F"},"bonus":0.48000000000000076},{"rt":17551.5,"stimulus":"bees-with-color/bee-B1DF.svg","response":0,"trial_type":"image-button-response","trial_index":127,"time_elapsed":1462723,"internal_node_id":"0.0-4.0-0.58","subject_id":"5f5f72d80c064e02b8662ced","study_id":"60edd13110225f80f9f3709b","session_id":"6196c7022e2ad1368624c85f","condition":"full-information","relevant_dimensions":["wings","legs"],"bee_group":{"antennae":"X","wings":"2","pattern":"X","legs":"F"},"action":"harvest","summary":"good-harvest","bonus":0.48000000000000076},{"rt":1174.2000000476837,"stimulus":"\n                    <p><b>Action: <em>harvest</em></b></p>\n                    <p>This is the bee that you just saw.</p>\n                    <img src=\"bees-with-color/bee-B1DF.svg\" width=\"200\">\n                    <p><span class=\"greenText\"><b>Successful harvest!</b></span><br>Your pay has increased by $0.02. Your bonus pay is now $0.42.</p>\n            ","response":0,"trial_type":"html-button-response","trial_index":128,"time_elapsed":1463898,"internal_node_id":"0.0-4.0-1.58","subject_id":"5f5f72d80c064e02b8662ced","study_id":"60edd13110225f80f9f3709b","session_id":"6196c7022e2ad1368624c85f","condition":"full-information","relevant_dimensions":["wings","legs"],"bee_group":{"antennae":"X","wings":"2","pattern":"X","legs":"F"},"bonus":0.48000000000000076},{"rt":32022.399999976158,"stimulus":"bees-with-color/bee-A1SF.svg","response":0,"trial_type":"image-button-response","trial_index":129,"time_elapsed":1495922,"internal_node_id":"0.0-4.0-0.59","subject_id":"5f5f72d80c064e02b8662ced","study_id":"60edd13110225f80f9f3709b","session_id":"6196c7022e2ad1368624c85f","condition":"full-information","relevant_dimensions":["wings","legs"],"bee_group":{"antennae":"X","wings":"2","pattern":"X","legs":"F"},"action":"harvest","summary":"good-harvest","bonus":0.48000000000000076},{"rt":5182.399999976158,"stimulus":"\n                    <p><b>Action: <em>harvest</em></b></p>\n                    <p>This is the bee that you just saw.</p>\n                    <img src=\"bees-with-color/bee-A1SF.svg\" width=\"200\">\n                    <p><span class=\"greenText\"><b>Successful harvest!</b></span><br>Your pay has increased by $0.02. Your bonus pay is now $0.44.</p>\n            ","response":0,"trial_type":"html-button-response","trial_index":130,"time_elapsed":1501106,"internal_node_id":"0.0-4.0-1.59","subject_id":"5f5f72d80c064e02b8662ced","study_id":"60edd13110225f80f9f3709b","session_id":"6196c7022e2ad1368624c85f","condition":"full-information","relevant_dimensions":["wings","legs"],"bee_group":{"antennae":"X","wings":"2","pattern":"X","legs":"F"},"bonus":0.48000000000000076},{"rt":13854.099999904633,"stimulus":"bees-with-color/bee-B2SM.svg","response":1,"trial_type":"image-button-response","trial_index":131,"time_elapsed":1514962,"internal_node_id":"0.0-4.0-0.60","subject_id":"5f5f72d80c064e02b8662ced","study_id":"60edd13110225f80f9f3709b","session_id":"6196c7022e2ad1368624c85f","condition":"full-information","relevant_dimensions":["wings","legs"],"bee_group":{"antennae":"X","wings":"2","pattern":"X","legs":"F"},"action":"avoid","summary":"bad-avoid","bonus":0.48000000000000076},{"rt":22783.200000047684,"stimulus":"\n                    <p><b>Action: <em>avoid</em></b></p>\n                    <p>This is the bee that you just saw.</p>\n                    <img src=\"bees-with-color/bee-B2SM.svg\" width=\"200\">\n                    <p><span class=\"redText\">Bad choice,</span> the bee was friendly.<br>Your bonus pay is unchanged, and remains at $0.44.</p>\n            ","response":0,"trial_type":"html-button-response","trial_index":132,"time_elapsed":1537746,"internal_node_id":"0.0-4.0-1.60","subject_id":"5f5f72d80c064e02b8662ced","study_id":"60edd13110225f80f9f3709b","session_id":"6196c7022e2ad1368624c85f","condition":"full-information","relevant_dimensions":["wings","legs"],"bee_group":{"antennae":"X","wings":"2","pattern":"X","legs":"F"},"bonus":0.48000000000000076},{"rt":15602.299999952316,"stimulus":"bees-with-color/bee-B2DM.svg","response":1,"trial_type":"image-button-response","trial_index":133,"time_elapsed":1553351,"internal_node_id":"0.0-4.0-0.61","subject_id":"5f5f72d80c064e02b8662ced","study_id":"60edd13110225f80f9f3709b","session_id":"6196c7022e2ad1368624c85f","condition":"full-information","relevant_dimensions":["wings","legs"],"bee_group":{"antennae":"X","wings":"2","pattern":"X","legs":"F"},"action":"avoid","summary":"bad-avoid","bonus":0.48000000000000076},{"rt":2521.5,"stimulus":"\n                    <p><b>Action: <em>avoid</em></b></p>\n                    <p>This is the bee that you just saw.</p>\n                    <img src=\"bees-with-color/bee-B2DM.svg\" width=\"200\">\n                    <p><span class=\"redText\">Bad choice,</span> the bee was friendly.<br>Your bonus pay is unchanged, and remains at $0.44.</p>\n            ","response":0,"trial_type":"html-button-response","trial_index":134,"time_elapsed":1555874,"internal_node_id":"0.0-4.0-1.61","subject_id":"5f5f72d80c064e02b8662ced","study_id":"60edd13110225f80f9f3709b","session_id":"6196c7022e2ad1368624c85f","condition":"full-information","relevant_dimensions":["wings","legs"],"bee_group":{"antennae":"X","wings":"2","pattern":"X","legs":"F"},"bonus":0.48000000000000076},{"rt":2078.5,"stimulus":"bees-with-color/bee-A2DF.svg","response":0,"trial_type":"image-button-response","trial_index":135,"time_elapsed":1557954,"internal_node_id":"0.0-4.0-0.62","subject_id":"5f5f72d80c064e02b8662ced","study_id":"60edd13110225f80f9f3709b","session_id":"6196c7022e2ad1368624c85f","condition":"full-information","relevant_dimensions":["wings","legs"],"bee_group":{"antennae":"X","wings":"2","pattern":"X","legs":"F"},"action":"harvest","summary":"bad-harvest","bonus":0.48000000000000076},{"rt":1382.3999999761581,"stimulus":"\n                    <p><b>Action: <em>harvest</em></b></p>\n                    <p>This is the bee that you just saw.</p>\n                    <img src=\"bees-with-color/bee-A2DF.svg\" width=\"200\">\n                    <p><span class=\"redText\">Bad choice, the bee was angry.</span><br><b>You have been stung!</b><br>Your pay has been decreased by $0.10. Your bonus pay is now $0.34.</p>\n            ","response":0,"trial_type":"html-button-response","trial_index":136,"time_elapsed":1559338,"internal_node_id":"0.0-4.0-1.62","subject_id":"5f5f72d80c064e02b8662ced","study_id":"60edd13110225f80f9f3709b","session_id":"6196c7022e2ad1368624c85f","condition":"full-information","relevant_dimensions":["wings","legs"],"bee_group":{"antennae":"X","wings":"2","pattern":"X","legs":"F"},"bonus":0.48000000000000076},{"rt":3182.100000023842,"stimulus":"bees-with-color/bee-A2SM.svg","response":0,"trial_type":"image-button-response","trial_index":137,"time_elapsed":1562521,"internal_node_id":"0.0-4.0-0.63","subject_id":"5f5f72d80c064e02b8662ced","study_id":"60edd13110225f80f9f3709b","session_id":"6196c7022e2ad1368624c85f","condition":"full-information","relevant_dimensions":["wings","legs"],"bee_group":{"antennae":"X","wings":"2","pattern":"X","legs":"F"},"action":"harvest","summary":"good-harvest","bonus":0.48000000000000076},{"rt":782.6000000238419,"stimulus":"\n                    <p><b>Action: <em>harvest</em></b></p>\n                    <p>This is the bee that you just saw.</p>\n                    <img src=\"bees-with-color/bee-A2SM.svg\" width=\"200\">\n                    <p><span class=\"greenText\"><b>Successful harvest!</b></span><br>Your pay has increased by $0.02. Your bonus pay is now $0.36.</p>\n            ","response":0,"trial_type":"html-button-response","trial_index":138,"time_elapsed":1563305,"internal_node_id":"0.0-4.0-1.63","subject_id":"5f5f72d80c064e02b8662ced","study_id":"60edd13110225f80f9f3709b","session_id":"6196c7022e2ad1368624c85f","condition":"full-information","relevant_dimensions":["wings","legs"],"bee_group":{"antennae":"X","wings":"2","pattern":"X","legs":"F"},"bonus":0.48000000000000076},{"rt":1831.3000000715256,"stimulus":"You have completed the first part of this experiment.<br><br>You will now begin a shorter second part, in which you will receive no feedback.<br>The same rules regarding bonus pay apply.<br><br>Press any key to begin.","response":" ","trial_type":"html-keyboard-response","trial_index":139,"time_elapsed":1565138,"internal_node_id":"0.0-5.0","subject_id":"5f5f72d80c064e02b8662ced","study_id":"60edd13110225f80f9f3709b","session_id":"6196c7022e2ad1368624c85f","condition":"full-information","relevant_dimensions":["wings","legs"],"bee_group":{"antennae":"X","wings":"2","pattern":"X","legs":"F"},"bonus":0.48000000000000076},{"rt":12680.899999976158,"stimulus":"bees-with-color/bee-A1SF.svg","response":0,"trial_type":"image-button-response","trial_index":140,"time_elapsed":1577834,"internal_node_id":"0.0-6.0-0.0","subject_id":"5f5f72d80c064e02b8662ced","study_id":"60edd13110225f80f9f3709b","session_id":"6196c7022e2ad1368624c85f","condition":"full-information","relevant_dimensions":["wings","legs"],"bee_group":{"antennae":"X","wings":"2","pattern":"X","legs":"F"},"bonus":0.48000000000000076},{"rt":12500.899999976158,"stimulus":"bees-with-color/bee-B2DM.svg","response":1,"trial_type":"image-button-response","trial_index":141,"time_elapsed":1590338,"internal_node_id":"0.0-6.0-0.1","subject_id":"5f5f72d80c064e02b8662ced","study_id":"60edd13110225f80f9f3709b","session_id":"6196c7022e2ad1368624c85f","condition":"full-information","relevant_dimensions":["wings","legs"],"bee_group":{"antennae":"X","wings":"2","pattern":"X","legs":"F"},"bonus":0.48000000000000076},{"rt":17197,"stimulus":"bees-with-color/bee-A1DF.svg","response":0,"trial_type":"image-button-response","trial_index":142,"time_elapsed":1607538,"internal_node_id":"0.0-6.0-0.2","subject_id":"5f5f72d80c064e02b8662ced","study_id":"60edd13110225f80f9f3709b","session_id":"6196c7022e2ad1368624c85f","condition":"full-information","relevant_dimensions":["wings","legs"],"bee_group":{"antennae":"X","wings":"2","pattern":"X","legs":"F"},"bonus":0.48000000000000076},{"rt":5189,"stimulus":"bees-with-color/bee-A1DM.svg","response":0,"trial_type":"image-button-response","trial_index":143,"time_elapsed":1612730,"internal_node_id":"0.0-6.0-0.3","subject_id":"5f5f72d80c064e02b8662ced","study_id":"60edd13110225f80f9f3709b","session_id":"6196c7022e2ad1368624c85f","condition":"full-information","relevant_dimensions":["wings","legs"],"bee_group":{"antennae":"X","wings":"2","pattern":"X","legs":"F"},"bonus":0.48000000000000076},{"rt":4178.700000047684,"stimulus":"bees-with-color/bee-B1DM.svg","response":0,"trial_type":"image-button-response","trial_index":144,"time_elapsed":1616911,"internal_node_id":"0.0-6.0-0.4","subject_id":"5f5f72d80c064e02b8662ced","study_id":"60edd13110225f80f9f3709b","session_id":"6196c7022e2ad1368624c85f","condition":"full-information","relevant_dimensions":["wings","legs"],"bee_group":{"antennae":"X","wings":"2","pattern":"X","legs":"F"},"bonus":0.48000000000000076},{"rt":7945,"stimulus":"bees-with-color/bee-B2DF.svg","response":1,"trial_type":"image-button-response","trial_index":145,"time_elapsed":1624858,"internal_node_id":"0.0-6.0-0.5","subject_id":"5f5f72d80c064e02b8662ced","study_id":"60edd13110225f80f9f3709b","session_id":"6196c7022e2ad1368624c85f","condition":"full-information","relevant_dimensions":["wings","legs"],"bee_group":{"antennae":"X","wings":"2","pattern":"X","legs":"F"},"bonus":0.48000000000000076},{"rt":7085.399999976158,"stimulus":"bees-with-color/bee-B2SM.svg","response":0,"trial_type":"image-button-response","trial_index":146,"time_elapsed":1631946,"internal_node_id":"0.0-6.0-0.6","subject_id":"5f5f72d80c064e02b8662ced","study_id":"60edd13110225f80f9f3709b","session_id":"6196c7022e2ad1368624c85f","condition":"full-information","relevant_dimensions":["wings","legs"],"bee_group":{"antennae":"X","wings":"2","pattern":"X","legs":"F"},"bonus":0.48000000000000076},{"rt":22198.599999904633,"stimulus":"bees-with-color/bee-A2DF.svg","response":1,"trial_type":"image-button-response","trial_index":147,"time_elapsed":1654146,"internal_node_id":"0.0-6.0-0.7","subject_id":"5f5f72d80c064e02b8662ced","study_id":"60edd13110225f80f9f3709b","session_id":"6196c7022e2ad1368624c85f","condition":"full-information","relevant_dimensions":["wings","legs"],"bee_group":{"antennae":"X","wings":"2","pattern":"X","legs":"F"},"bonus":0.48000000000000076},{"rt":2453.600000023842,"stimulus":"bees-with-color/bee-A2DM.svg","response":0,"trial_type":"image-button-response","trial_index":148,"time_elapsed":1656602,"internal_node_id":"0.0-6.0-0.8","subject_id":"5f5f72d80c064e02b8662ced","study_id":"60edd13110225f80f9f3709b","session_id":"6196c7022e2ad1368624c85f","condition":"full-information","relevant_dimensions":["wings","legs"],"bee_group":{"antennae":"X","wings":"2","pattern":"X","legs":"F"},"bonus":0.48000000000000076},{"rt":1234.8999999761581,"stimulus":"bees-with-color/bee-A1SM.svg","response":0,"trial_type":"image-button-response","trial_index":149,"time_elapsed":1657838,"internal_node_id":"0.0-6.0-0.9","subject_id":"5f5f72d80c064e02b8662ced","study_id":"60edd13110225f80f9f3709b","session_id":"6196c7022e2ad1368624c85f","condition":"full-information","relevant_dimensions":["wings","legs"],"bee_group":{"antennae":"X","wings":"2","pattern":"X","legs":"F"},"bonus":0.48000000000000076},{"rt":2690,"stimulus":"bees-with-color/bee-B1DF.svg","response":0,"trial_type":"image-button-response","trial_index":150,"time_elapsed":1660530,"internal_node_id":"0.0-6.0-0.10","subject_id":"5f5f72d80c064e02b8662ced","study_id":"60edd13110225f80f9f3709b","session_id":"6196c7022e2ad1368624c85f","condition":"full-information","relevant_dimensions":["wings","legs"],"bee_group":{"antennae":"X","wings":"2","pattern":"X","legs":"F"},"bonus":0.48000000000000076},{"rt":622.1999999284744,"stimulus":"bees-with-color/bee-B1SM.svg","response":0,"trial_type":"image-button-response","trial_index":151,"time_elapsed":1661154,"internal_node_id":"0.0-6.0-0.11","subject_id":"5f5f72d80c064e02b8662ced","study_id":"60edd13110225f80f9f3709b","session_id":"6196c7022e2ad1368624c85f","condition":"full-information","relevant_dimensions":["wings","legs"],"bee_group":{"antennae":"X","wings":"2","pattern":"X","legs":"F"},"bonus":0.48000000000000076},{"rt":5339,"stimulus":"bees-with-color/bee-A2SM.svg","response":1,"trial_type":"image-button-response","trial_index":152,"time_elapsed":1666495,"internal_node_id":"0.0-6.0-0.12","subject_id":"5f5f72d80c064e02b8662ced","study_id":"60edd13110225f80f9f3709b","session_id":"6196c7022e2ad1368624c85f","condition":"full-information","relevant_dimensions":["wings","legs"],"bee_group":{"antennae":"X","wings":"2","pattern":"X","legs":"F"},"bonus":0.48000000000000076},{"rt":6840.299999952316,"stimulus":"bees-with-color/bee-A2SF.svg","response":0,"trial_type":"image-button-response","trial_index":153,"time_elapsed":1673337,"internal_node_id":"0.0-6.0-0.13","subject_id":"5f5f72d80c064e02b8662ced","study_id":"60edd13110225f80f9f3709b","session_id":"6196c7022e2ad1368624c85f","condition":"full-information","relevant_dimensions":["wings","legs"],"bee_group":{"antennae":"X","wings":"2","pattern":"X","legs":"F"},"bonus":0.48000000000000076},{"rt":1610.5999999046326,"stimulus":"bees-with-color/bee-B1SF.svg","response":0,"trial_type":"image-button-response","trial_index":154,"time_elapsed":1674950,"internal_node_id":"0.0-6.0-0.14","subject_id":"5f5f72d80c064e02b8662ced","study_id":"60edd13110225f80f9f3709b","session_id":"6196c7022e2ad1368624c85f","condition":"full-information","relevant_dimensions":["wings","legs"],"bee_group":{"antennae":"X","wings":"2","pattern":"X","legs":"F"},"bonus":0.48000000000000076},{"rt":7051.199999928474,"stimulus":"bees-with-color/bee-B2SF.svg","response":1,"trial_type":"image-button-response","trial_index":155,"time_elapsed":1682002,"internal_node_id":"0.0-6.0-0.15","subject_id":"5f5f72d80c064e02b8662ced","study_id":"60edd13110225f80f9f3709b","session_id":"6196c7022e2ad