[{"success":true,"trial_type":"fullscreen","trial_index":0,"time_elapsed":5547,"internal_node_id":"0.0-0.0","subject_id":"56cb8858edf8da000b6df354","study_id":"6197b3f67c2b5cd3b6d9596a","session_id":"619bfbdc5122075950c1bd43","condition":"contingent","relevant_dimensions":["antennae","wings"],"bee_group":{"antennae":"A","wings":"2","pattern":"X","legs":"X"},"bonus":0.7400000000000009},{"success":true,"timeout":false,"failed_images":[],"failed_audio":[],"failed_video":[],"trial_type":"preload","trial_index":1,"time_elapsed":7397,"internal_node_id":"0.0-1.0","subject_id":"56cb8858edf8da000b6df354","study_id":"6197b3f67c2b5cd3b6d9596a","session_id":"619bfbdc5122075950c1bd43","condition":"contingent","relevant_dimensions":["antennae","wings"],"bee_group":{"antennae":"A","wings":"2","pattern":"X","legs":"X"},"bonus":0.7400000000000009},{"rt":1886.800000000745,"stimulus":"Welcome! Press any key to begin.","response":" ","trial_type":"html-keyboard-response","trial_index":2,"time_elapsed":9284,"internal_node_id":"0.0-2.0","subject_id":"56cb8858edf8da000b6df354","study_id":"6197b3f67c2b5cd3b6d9596a","session_id":"619bfbdc5122075950c1bd43","condition":"contingent","relevant_dimensions":["antennae","wings"],"bee_group":{"antennae":"A","wings":"2","pattern":"X","legs":"X"},"bonus":0.7400000000000009},{"view_history":[{"page_index":0,"viewing_time":4289.4000000003725},{"page_index":1,"viewing_time":9937.699999999255},{"page_index":2,"viewing_time":13700.199999999255},{"page_index":3,"viewing_time":12698.700000001118},{"page_index":4,"viewing_time":3987},{"page_index":5,"viewing_time":8890.199999999255},{"page_index":6,"viewing_time":11315.900000000373},{"page_index":7,"viewing_time":5636},{"page_index":8,"viewing_time":5552.9000000003725},{"page_index":9,"viewing_time":3960.0999999996275},{"page_index":10,"viewing_time":3000},{"page_index":11,"viewing_time":14058.800000000745},{"page_index":12,"viewing_time":5513.0999999996275},{"page_index":13,"viewing_time":1040.0999999996275},{"page_index":14,"viewing_time":2162.9000000003725}],"rt":105743.29999999888,"trial_type":"instructions","trial_index":3,"time_elapsed":115028,"internal_node_id":"0.0-3.0-0.0","subject_id":"56cb8858edf8da000b6df354","study_id":"6197b3f67c2b5cd3b6d9596a","session_id":"619bfbdc5122075950c1bd43","condition":"contingent","relevant_dimensions":["antennae","wings"],"bee_group":{"antennae":"A","wings":"2","pattern":"X","legs":"X"},"bonus":0.7400000000000009},{"rt":11447.799999998882,"response":{"Q0":["Two or six legs","Stripes or spots on body","Single or double wings","Antennae or no antennae"]},"question_order":[0],"trial_type":"survey-multi-select","trial_index":4,"time_elapsed":126479,"internal_node_id":"0.0-3.0-1.0","subject_id":"56cb8858edf8da000b6df354","study_id":"6197b3f67c2b5cd3b6d9596a","session_id":"619bfbdc5122075950c1bd43","condition":"contingent","relevant_dimensions":["antennae","wings"],"bee_group":{"antennae":"A","wings":"2","pattern":"X","legs":"X"},"correct":true,"bonus":0.7400000000000009},{"rt":16785.599999999627,"response":{"Q1":"No.","Q2":"Based on the four features of the bee.","Q3":"You do not learn if it was friendly or dangerous, and do not alter your bonus."},"question_order":[0,1,2],"trial_type":"survey-multi-choice","trial_index":5,"time_elapsed":143266,"internal_node_id":"0.0-3.0-2.0","subject_id":"56cb8858edf8da000b6df354","study_id":"6197b3f67c2b5cd3b6d9596a","session_id":"619bfbdc5122075950c1bd43","condition":"contingent","relevant_dimensions":["antennae","wings"],"bee_group":{"antennae":"A","wings":"2","pattern":"X","legs":"X"},"correct":true,"bonus":0.7400000000000009},{"rt":2137.5999999996275,"stimulus":"<p>Congrats, you got everything right<br>When you're ready, click the button below to continue to the experiment.</p>","response":0,"trial_type":"html-button-response","trial_index":6,"time_elapsed":145405,"internal_node_id":"0.0-3.0-3.0","subject_id":"56cb8858edf8da000b6df354","study_id":"6197b3f67c2b5cd3b6d9596a","session_id":"619bfbdc5122075950c1bd43","condition":"contingent","relevant_dimensions":["antennae","wings"],"bee_group":{"antennae":"A","wings":"2","pattern":"X","legs":"X"},"bonus":0.7400000000000009},{"rt":4689,"stimulus":"bees-with-color/bee-B2SF.svg","response":0,"trial_type":"image-button-response","trial_index":7,"time_elapsed":150096,"internal_node_id":"0.0-4.0-0.0","subject_id":"56cb8858edf8da000b6df354","study_id":"6197b3f67c2b5cd3b6d9596a","session_id":"619bfbdc5122075950c1bd43","condition":"contingent","relevant_dimensions":["antennae","wings"],"bee_group":{"antennae":"A","wings":"2","pattern":"X","legs":"X"},"action":"harvest","summary":"good-harvest","bonus":0.7400000000000009},{"rt":3928.7000000011176,"stimulus":"\n                    <p><b>Action: <em>harvest</em></b></p>\n                    <p>This is the bee that you just saw.</p>\n                    <img src=\"bees-with-color/bee-B2SF.svg\" width=\"200\">\n                    <p><span class=\"greenText\"><b>Successful harvest!</b></span><br>Your pay has increased by $0.02. Your bonus pay is now $0.56.</p>\n            ","response":0,"trial_type":"html-button-response","trial_index":8,"time_elapsed":154027,"internal_node_id":"0.0-4.0-1.0","subject_id":"56cb8858edf8da000b6df354","study_id":"6197b3f67c2b5cd3b6d9596a","session_id":"619bfbdc5122075950c1bd43","condition":"contingent","relevant_dimensions":["antennae","wings"],"bee_group":{"antennae":"A","wings":"2","pattern":"X","legs":"X"},"bonus":0.7400000000000009},{"rt":2362.60000000149,"stimulus":"bees-with-color/bee-B2DF.svg","response":1,"trial_type":"image-button-response","trial_index":9,"time_elapsed":156391,"internal_node_id":"0.0-4.0-0.1","subject_id":"56cb8858edf8da000b6df354","study_id":"6197b3f67c2b5cd3b6d9596a","session_id":"619bfbdc5122075950c1bd43","condition":"contingent","relevant_dimensions":["antennae","wings"],"bee_group":{"antennae":"A","wings":"2","pattern":"X","legs":"X"},"action":"avoid","summary":"bad-avoid","bonus":0.7400000000000009},{"rt":2086.5999999996275,"stimulus":"\n                    <p><b>Action: <em>avoid</em></b></p>\n                    <p>This is the bee that you just saw.</p>\n                    <img src=\"bees-with-color/bee-B2DF.svg\" width=\"200\">\n                    <p><br>Your bonus pay is unchanged, and remains at $0.56.</p>\n            ","response":0,"trial_type":"html-button-response","trial_index":10,"time_elapsed":158479,"internal_node_id":"0.0-4.0-1.1","subject_id":"56cb8858edf8da000b6df354","study_id":"6197b3f67c2b5cd3b6d9596a","session_id":"619bfbdc5122075950c1bd43","condition":"contingent","relevant_dimensions":["antennae","wings"],"bee_group":{"antennae":"A","wings":"2","pattern":"X","legs":"X"},"bonus":0.7400000000000009},{"rt":1510.4000000003725,"stimulus":"bees-with-color/bee-B1SF.svg","response":0,"trial_type":"image-button-response","trial_index":11,"time_elapsed":159991,"internal_node_id":"0.0-4.0-0.2","subject_id":"56cb8858edf8da000b6df354","study_id":"6197b3f67c2b5cd3b6d9596a","session_id":"619bfbdc5122075950c1bd43","condition":"contingent","relevant_dimensions":["antennae","wings"],"bee_group":{"antennae":"A","wings":"2","pattern":"X","legs":"X"},"action":"harvest","summary":"good-harvest","bonus":0.7400000000000009},{"rt":1679.199999999255,"stimulus":"\n                    <p><b>Action: <em>harvest</em></b></p>\n                    <p>This is the bee that you just saw.</p>\n                    <img src=\"bees-with-color/bee-B1SF.svg\" width=\"200\">\n                    <p><span class=\"greenText\"><b>Successful harvest!</b></span><br>Your pay has increased by $0.02. Your bonus pay is now $0.58.</p>\n            ","response":0,"trial_type":"html-button-response","trial_index":12,"time_elapsed":161671,"internal_node_id":"0.0-4.0-1.2","subject_id":"56cb8858edf8da000b6df354","study_id":"6197b3f67c2b5cd3b6d9596a","session_id":"619bfbdc5122075950c1bd43","condition":"contingent","relevant_dimensions":["antennae","wings"],"bee_group":{"antennae":"A","wings":"2","pattern":"X","legs":"X"},"bonus":0.7400000000000009},{"rt":3176.0999999996275,"stimulus":"bees-with-color/bee-B1DF.svg","response":1,"trial_type":"image-button-response","trial_index":13,"time_elapsed":164849,"internal_node_id":"0.0-4.0-0.3","subject_id":"56cb8858edf8da000b6df354","study_id":"6197b3f67c2b5cd3b6d9596a","session_id":"619bfbdc5122075950c1bd43","condition":"contingent","relevant_dimensions":["antennae","wings"],"bee_group":{"antennae":"A","wings":"2","pattern":"X","legs":"X"},"action":"avoid","summary":"bad-avoid","bonus":0.7400000000000009},{"rt":1935.5,"stimulus":"\n                    <p><b>Action: <em>avoid</em></b></p>\n                    <p>This is the bee that you just saw.</p>\n                    <img src=\"bees-with-color/bee-B1DF.svg\" width=\"200\">\n                    <p><br>Your bonus pay is unchanged, and remains at $0.58.</p>\n            ","response":0,"trial_type":"html-button-response","trial_index":14,"time_elapsed":166786,"internal_node_id":"0.0-4.0-1.3","subject_id":"56cb8858edf8da000b6df354","study_id":"6197b3f67c2b5cd3b6d9596a","session_id":"619bfbdc5122075950c1bd43","condition":"contingent","relevant_dimensions":["antennae","wings"],"bee_group":{"antennae":"A","wings":"2","pattern":"X","legs":"X"},"bonus":0.7400000000000009},{"rt":2697.9000000003725,"stimulus":"bees-with-color/bee-A2DF.svg","response":1,"trial_type":"image-button-response","trial_index":15,"time_elapsed":169485,"internal_node_id":"0.0-4.0-0.4","subject_id":"56cb8858edf8da000b6df354","study_id":"6197b3f67c2b5cd3b6d9596a","session_id":"619bfbdc5122075950c1bd43","condition":"contingent","relevant_dimensions":["antennae","wings"],"bee_group":{"antennae":"A","wings":"2","pattern":"X","legs":"X"},"action":"avoid","summary":"good-avoid","bonus":0.7400000000000009},{"rt":748.8000000007451,"stimulus":"\n                    <p><b>Action: <em>avoid</em></b></p>\n                    <p>This is the bee that you just saw.</p>\n                    <img src=\"bees-with-color/bee-A2DF.svg\" width=\"200\">\n                    <p><br>Your bonus pay is unchanged, and remains at $0.58.</p>\n            ","response":0,"trial_type":"html-button-response","trial_index":16,"time_elapsed":170235,"internal_node_id":"0.0-4.0-1.4","subject_id":"56cb8858edf8da000b6df354","study_id":"6197b3f67c2b5cd3b6d9596a","session_id":"619bfbdc5122075950c1bd43","condition":"contingent","relevant_dimensions":["antennae","wings"],"bee_group":{"antennae":"A","wings":"2","pattern":"X","legs":"X"},"bonus":0.7400000000000009},{"rt":1391.6000000014901,"stimulus":"bees-with-color/bee-A2SM.svg","response":0,"trial_type":"image-button-response","trial_index":17,"time_elapsed":171628,"internal_node_id":"0.0-4.0-0.5","subject_id":"56cb8858edf8da000b6df354","study_id":"6197b3f67c2b5cd3b6d9596a","session_id":"619bfbdc5122075950c1bd43","condition":"contingent","relevant_dimensions":["antennae","wings"],"bee_group":{"antennae":"A","wings":"2","pattern":"X","legs":"X"},"action":"harvest","summary":"bad-harvest","bonus":0.7400000000000009},{"rt":1886.5999999996275,"stimulus":"\n                    <p><b>Action: <em>harvest</em></b></p>\n                    <p>This is the bee that you just saw.</p>\n                    <img src=\"bees-with-color/bee-A2SM.svg\" width=\"200\">\n                    <p><span class=\"redText\">Bad choice, the bee was angry.</span><br><b>You have been stung!</b><br>Your pay has been decreased by $0.10. Your bonus pay is now $0.48.</p>\n            ","response":0,"trial_type":"html-button-response","trial_index":18,"time_elapsed":173515,"internal_node_id":"0.0-4.0-1.5","subject_id":"56cb8858edf8da000b6df354","study_id":"6197b3f67c2b5cd3b6d9596a","session_id":"619bfbdc5122075950c1bd43","condition":"contingent","relevant_dimensions":["antennae","wings"],"bee_group":{"antennae":"A","wings":"2","pattern":"X","legs":"X"},"bonus":0.7400000000000009},{"rt":2670.800000000745,"stimulus":"bees-with-color/bee-B1DM.svg","response":0,"trial_type":"image-button-response","trial_index":19,"time_elapsed":176187,"internal_node_id":"0.0-4.0-0.6","subject_id":"56cb8858edf8da000b6df354","study_id":"6197b3f67c2b5cd3b6d9596a","session_id":"619bfbdc5122075950c1bd43","condition":"contingent","relevant_dimensions":["antennae","wings"],"bee_group":{"antennae":"A","wings":"2","pattern":"X","legs":"X"},"action":"harvest","summary":"good-harvest","bonus":0.7400000000000009},{"rt":1530.7000000011176,"stimulus":"\n                    <p><b>Action: <em>harvest</em></b></p>\n                    <p>This is the bee that you just saw.</p>\n                    <img src=\"bees-with-color/bee-B1DM.svg\" width=\"200\">\n                    <p><span class=\"greenText\"><b>Successful harvest!</b></span><br>Your pay has increased by $0.02. Your bonus pay is now $0.50.</p>\n            ","response":0,"trial_type":"html-button-response","trial_index":20,"time_elapsed":177720,"internal_node_id":"0.0-4.0-1.6","subject_id":"56cb8858edf8da000b6df354","study_id":"6197b3f67c2b5cd3b6d9596a","session_id":"619bfbdc5122075950c1bd43","condition":"contingent","relevant_dimensions":["antennae","wings"],"bee_group":{"antennae":"A","wings":"2","pattern":"X","legs":"X"},"bonus":0.7400000000000009},{"rt":1544.2999999988824,"stimulus":"bees-with-color/bee-A1DM.svg","response":0,"trial_type":"image-button-response","trial_index":21,"time_elapsed":179265,"internal_node_id":"0.0-4.0-0.7","subject_id":"56cb8858edf8da000b6df354","study_id":"6197b3f67c2b5cd3b6d9596a","session_id":"619bfbdc5122075950c1bd43","condition":"contingent","relevant_dimensions":["antennae","wings"],"bee_group":{"antennae":"A","wings":"2","pattern":"X","legs":"X"},"action":"harvest","summary":"good-harvest","bonus":0.7400000000000009},{"rt":673.2000000011176,"stimulus":"\n                    <p><b>Action: <em>harvest</em></b></p>\n                    <p>This is the bee that you just saw.</p>\n                    <img src=\"bees-with-color/bee-A1DM.svg\" width=\"200\">\n                    <p><span class=\"greenText\"><b>Successful harvest!</b></span><br>Your pay has increased by $0.02. Your bonus pay is now $0.52.</p>\n            ","response":0,"trial_type":"html-button-response","trial_index":22,"time_elapsed":179939,"internal_node_id":"0.0-4.0-1.7","subject_id":"56cb8858edf8da000b6df354","study_id":"6197b3f67c2b5cd3b6d9596a","session_id":"619bfbdc5122075950c1bd43","condition":"contingent","relevant_dimensions":["antennae","wings"],"bee_group":{"antennae":"A","wings":"2","pattern":"X","legs":"X"},"bonus":0.7400000000000009},{"rt":1315.800000000745,"stimulus":"bees-with-color/bee-A1SF.svg","response":0,"trial_type":"image-button-response","trial_index":23,"time_elapsed":181257,"internal_node_id":"0.0-4.0-0.8","subject_id":"56cb8858edf8da000b6df354","study_id":"6197b3f67c2b5cd3b6d9596a","session_id":"619bfbdc5122075950c1bd43","condition":"contingent","relevant_dimensions":["antennae","wings"],"bee_group":{"antennae":"A","wings":"2","pattern":"X","legs":"X"},"action":"harvest","summary":"good-harvest","bonus":0.7400000000000009},{"rt":508.40000000037253,"stimulus":"\n                    <p><b>Action: <em>harvest</em></b></p>\n                    <p>This is the bee that you just saw.</p>\n                    <img src=\"bees-with-color/bee-A1SF.svg\" width=\"200\">\n                    <p><span class=\"greenText\"><b>Successful harvest!</b></span><br>Your pay has increased by $0.02. Your bonus pay is now $0.54.</p>\n            ","response":0,"trial_type":"html-button-response","trial_index":24,"time_elapsed":181766,"internal_node_id":"0.0-4.0-1.8","subject_id":"56cb8858edf8da000b6df354","study_id":"6197b3f67c2b5cd3b6d9596a","session_id":"619bfbdc5122075950c1bd43","condition":"contingent","relevant_dimensions":["antennae","wings"],"bee_group":{"antennae":"A","wings":"2","pattern":"X","legs":"X"},"bonus":0.7400000000000009},{"rt":3665.10000000149,"stimulus":"bees-with-color/bee-A2SF.svg","response":0,"trial_type":"image-button-response","trial_index":25,"time_elapsed":185433,"internal_node_id":"0.0-4.0-0.9","subject_id":"56cb8858edf8da000b6df354","study_id":"6197b3f67c2b5cd3b6d9596a","session_id":"619bfbdc5122075950c1bd43","condition":"contingent","relevant_dimensions":["antennae","wings"],"bee_group":{"antennae":"A","wings":"2","pattern":"X","legs":"X"},"action":"harvest","summary":"bad-harvest","bonus":0.7400000000000009},{"rt":1418.5999999996275,"stimulus":"\n                    <p><b>Action: <em>harvest</em></b></p>\n                    <p>This is the bee that you just saw.</p>\n                    <img src=\"bees-with-color/bee-A2SF.svg\" width=\"200\">\n                    <p><span class=\"redText\">Bad choice, the bee was angry.</span><br><b>You have been stung!</b><br>Your pay has been decreased by $0.10. Your bonus pay is now $0.44.</p>\n            ","response":0,"trial_type":"html-button-response","trial_index":26,"time_elapsed":186853,"internal_node_id":"0.0-4.0-1.9","subject_id":"56cb8858edf8da000b6df354","study_id":"6197b3f67c2b5cd3b6d9596a","session_id":"619bfbdc5122075950c1bd43","condition":"contingent","relevant_dimensions":["antennae","wings"],"bee_group":{"antennae":"A","wings":"2","pattern":"X","legs":"X"},"bonus":0.7400000000000009},{"rt":1338.3999999985099,"stimulus":"bees-with-color/bee-B2DM.svg","response":0,"trial_type":"image-button-response","trial_index":27,"time_elapsed":188192,"internal_node_id":"0.0-4.0-0.10","subject_id":"56cb8858edf8da000b6df354","study_id":"6197b3f67c2b5cd3b6d9596a","session_id":"619bfbdc5122075950c1bd43","condition":"contingent","relevant_dimensions":["antennae","wings"],"bee_group":{"antennae":"A","wings":"2","pattern":"X","legs":"X"},"action":"harvest","summary":"good-harvest","bonus":0.7400000000000009},{"rt":540.6000000014901,"stimulus":"\n                    <p><b>Action: <em>harvest</em></b></p>\n                    <p>This is the bee that you just saw.</p>\n                    <img src=\"bees-with-color/bee-B2DM.svg\" width=\"200\">\n                    <p><span class=\"greenText\"><b>Successful harvest!</b></span><br>Your pay has increased by $0.02. Your bonus pay is now $0.46.</p>\n            ","response":0,"trial_type":"html-button-response","trial_index":28,"time_elapsed":188735,"internal_node_id":"0.0-4.0-1.10","subject_id":"56cb8858edf8da000b6df354","study_id":"6197b3f67c2b5cd3b6d9596a","session_id":"619bfbdc5122075950c1bd43","condition":"contingent","relevant_dimensions":["antennae","wings"],"bee_group":{"antennae":"A","wings":"2","pattern":"X","legs":"X"},"bonus":0.7400000000000009},{"rt":3993.0999999996275,"stimulus":"bees-with-color/bee-B2SM.svg","response":0,"trial_type":"image-button-response","trial_index":29,"time_elapsed":192729,"internal_node_id":"0.0-4.0-0.11","subject_id":"56cb8858edf8da000b6df354","study_id":"6197b3f67c2b5cd3b6d9596a","session_id":"619bfbdc5122075950c1bd43","condition":"contingent","relevant_dimensions":["antennae","wings"],"bee_group":{"antennae":"A","wings":"2","pattern":"X","legs":"X"},"action":"harvest","summary":"good-harvest","bonus":0.7400000000000009},{"rt":550.1999999992549,"stimulus":"\n                    <p><b>Action: <em>harvest</em></b></p>\n                    <p>This is the bee that you just saw.</p>\n                    <img src=\"bees-with-color/bee-B2SM.svg\" width=\"200\">\n                    <p><span class=\"greenText\"><b>Successful harvest!</b></span><br>Your pay has increased by $0.02. Your bonus pay is now $0.48.</p>\n            ","response":0,"trial_type":"html-button-response","trial_index":30,"time_elapsed":193280,"internal_node_id":"0.0-4.0-1.11","subject_id":"56cb8858edf8da000b6df354","study_id":"6197b3f67c2b5cd3b6d9596a","session_id":"619bfbdc5122075950c1bd43","condition":"contingent","relevant_dimensions":["antennae","wings"],"bee_group":{"antennae":"A","wings":"2","pattern":"X","legs":"X"},"bonus":0.7400000000000009},{"rt":1174,"stimulus":"bees-with-color/bee-A1DF.svg","response":1,"trial_type":"image-button-response","trial_index":31,"time_elapsed":194455,"internal_node_id":"0.0-4.0-0.12","subject_id":"56cb8858edf8da000b6df354","study_id":"6197b3f67c2b5cd3b6d9596a","session_id":"619bfbdc5122075950c1bd43","condition":"contingent","relevant_dimensions":["antennae","wings"],"bee_group":{"antennae":"A","wings":"2","pattern":"X","legs":"X"},"action":"avoid","summary":"bad-avoid","bonus":0.7400000000000009},{"rt":473.90000000037253,"stimulus":"\n                    <p><b>Action: <em>avoid</em></b></p>\n                    <p>This is the bee that you just saw.</p>\n                    <img src=\"bees-with-color/bee-A1DF.svg\" width=\"200\">\n                    <p><br>Your bonus pay is unchanged, and remains at $0.48.</p>\n            ","response":0,"trial_type":"html-button-response","trial_index":32,"time_elapsed":194931,"internal_node_id":"0.0-4.0-1.12","subject_id":"56cb8858edf8da000b6df354","study_id":"6197b3f67c2b5cd3b6d9596a","session_id":"619bfbdc5122075950c1bd43","condition":"contingent","relevant_dimensions":["antennae","wings"],"bee_group":{"antennae":"A","wings":"2","pattern":"X","legs":"X"},"bonus":0.7400000000000009},{"rt":1321.800000000745,"stimulus":"bees-with-color/bee-A2DM.svg","response":0,"trial_type":"image-button-response","trial_index":33,"time_elapsed":196253,"internal_node_id":"0.0-4.0-0.13","subject_id":"56cb8858edf8da000b6df354","study_id":"6197b3f67c2b5cd3b6d9596a","session_id":"619bfbdc5122075950c1bd43","condition":"contingent","relevant_dimensions":["antennae","wings"],"bee_group":{"antennae":"A","wings":"2","pattern":"X","legs":"X"},"action":"harvest","summary":"bad-harvest","bonus":0.7400000000000009},{"rt":2718.7000000011176,"stimulus":"\n                    <p><b>Action: <em>harvest</em></b></p>\n                    <p>This is the bee that you just saw.</p>\n                    <img src=\"bees-with-color/bee-A2DM.svg\" width=\"200\">\n                    <p><span class=\"redText\">Bad choice, the bee was angry.</span><br><b>You have been stung!</b><br>Your pay has been decreased by $0.10. Your bonus pay is now $0.38.</p>\n            ","response":0,"trial_type":"html-button-response","trial_index":34,"time_elapsed":198973,"internal_node_id":"0.0-4.0-1.13","subject_id":"56cb8858edf8da000b6df354","study_id":"6197b3f67c2b5cd3b6d9596a","session_id":"619bfbdc5122075950c1bd43","condition":"contingent","relevant_dimensions":["antennae","wings"],"bee_group":{"antennae":"A","wings":"2","pattern":"X","legs":"X"},"bonus":0.7400000000000009},{"rt":2809.5,"stimulus":"bees-with-color/bee-B1SM.svg","response":0,"trial_type":"image-button-response","trial_index":35,"time_elapsed":201784,"internal_node_id":"0.0-4.0-0.14","subject_id":"56cb8858edf8da000b6df354","study_id":"6197b3f67c2b5cd3b6d9596a","session_id":"619bfbdc5122075950c1bd43","condition":"contingent","relevant_dimensions":["antennae","wings"],"bee_group":{"antennae":"A","wings":"2","pattern":"X","legs":"X"},"action":"harvest","summary":"good-harvest","bonus":0.7400000000000009},{"rt":566.5999999996275,"stimulus":"\n                    <p><b>Action: <em>harvest</em></b></p>\n                    <p>This is the bee that you just saw.</p>\n                    <img src=\"bees-with-color/bee-B1SM.svg\" width=\"200\">\n                    <p><span class=\"greenText\"><b>Successful harvest!</b></span><br>Your pay has increased by $0.02. Your bonus pay is now $0.40.</p>\n            ","response":0,"trial_type":"html-button-response","trial_index":36,"time_elapsed":202352,"internal_node_id":"0.0-4.0-1.14","subject_id":"56cb8858edf8da000b6df354","study_id":"6197b3f67c2b5cd3b6d9596a","session_id":"619bfbdc5122075950c1bd43","condition":"contingent","relevant_dimensions":["antennae","wings"],"bee_group":{"antennae":"A","wings":"2","pattern":"X","legs":"X"},"bonus":0.7400000000000009},{"rt":2320.0999999996275,"stimulus":"bees-with-color/bee-A1SM.svg","response":0,"trial_type":"image-button-response","trial_index":37,"time_elapsed":204673,"internal_node_id":"0.0-4.0-0.15","subject_id":"56cb8858edf8da000b6df354","study_id":"6197b3f67c2b5cd3b6d9596a","session_id":"619bfbdc5122075950c1bd43","condition":"contingent","relevant_dimensions":["antennae","wings"],"bee_group":{"antennae":"A","wings":"2","pattern":"X","legs":"X"},"action":"harvest","summary":"good-harvest","bonus":0.7400000000000009},{"rt":542.9000000003725,"stimulus":"\n                    <p><b>Action: <em>harvest</em></b></p>\n                    <p>This is the bee that you just saw.</p>\n                    <img src=\"bees-with-color/bee-A1SM.svg\" width=\"200\">\n                    <p><span class=\"greenText\"><b>Successful harvest!</b></span><br>Your pay has increased by $0.02. Your bonus pay is now $0.42.</p>\n            ","response":0,"trial_type":"html-button-response","trial_index":38,"time_elapsed":205218,"internal_node_id":"0.0-4.0-1.15","subject_id":"56cb8858edf8da000b6df354","study_id":"6197b3f67c2b5cd3b6d9596a","session_id":"619bfbdc5122075950c1bd43","condition":"contingent","relevant_dimensions":["antennae","wings"],"bee_group":{"antennae":"A","wings":"2","pattern":"X","legs":"X"},"bonus":0.7400000000000009},{"rt":1207.9000000003725,"stimulus":"bees-with-color/bee-A1DM.svg","response":1,"trial_type":"image-button-response","trial_index":39,"time_elapsed":206426,"internal_node_id":"0.0-4.0-0.16","subject_id":"56cb8858edf8da000b6df354","study_id":"6197b3f67c2b5cd3b6d9596a","session_id":"619bfbdc5122075950c1bd43","condition":"contingent","relevant_dimensions":["antennae","wings"],"bee_group":{"antennae":"A","wings":"2","pattern":"X","legs":"X"},"action":"avoid","summary":"bad-avoid","bonus":0.7400000000000009},{"rt":420.59999999962747,"stimulus":"\n                    <p><b>Action: <em>avoid</em></b></p>\n                    <p>This is the bee that you just saw.</p>\n                    <img src=\"bees-with-color/bee-A1DM.svg\" width=\"200\">\n                    <p><br>Your bonus pay is unchanged, and remains at $0.42.</p>\n            ","response":0,"trial_type":"html-button-response","trial_index":40,"time_elapsed":206849,"internal_node_id":"0.0-4.0-1.16","subject_id":"56cb8858edf8da000b6df354","study_id":"6197b3f67c2b5cd3b6d9596a","session_id":"619bfbdc5122075950c1bd43","condition":"contingent","relevant_dimensions":["antennae","wings"],"bee_group":{"antennae":"A","wings":"2","pattern":"X","legs":"X"},"bonus":0.7400000000000009},{"rt":5754,"stimulus":"bees-with-color/bee-B2SM.svg","response":0,"trial_type":"image-button-response","trial_index":41,"time_elapsed":212604,"internal_node_id":"0.0-4.0-0.17","subject_id":"56cb8858edf8da000b6df354","study_id":"6197b3f67c2b5cd3b6d9596a","session_id":"619bfbdc5122075950c1bd43","condition":"contingent","relevant_dimensions":["antennae","wings"],"bee_group":{"antennae":"A","wings":"2","pattern":"X","legs":"X"},"action":"harvest","summary":"good-harvest","bonus":0.7400000000000009},{"rt":634.4000000003725,"stimulus":"\n                    <p><b>Action: <em>harvest</em></b></p>\n                    <p>This is the bee that you just saw.</p>\n                    <img src=\"bees-with-color/bee-B2SM.svg\" width=\"200\">\n                    <p><span class=\"greenText\"><b>Successful harvest!</b></span><br>Your pay has increased by $0.02. Your bonus pay is now $0.44.</p>\n            ","response":0,"trial_type":"html-button-response","trial_index":42,"time_elapsed":213239,"internal_node_id":"0.0-4.0-1.17","subject_id":"56cb8858edf8da000b6df354","study_id":"6197b3f67c2b5cd3b6d9596a","session_id":"619bfbdc5122075950c1bd43","condition":"contingent","relevant_dimensions":["antennae","wings"],"bee_group":{"antennae":"A","wings":"2","pattern":"X","legs":"X"},"bonus":0.7400000000000009},{"rt":1395.300000000745,"stimulus":"bees-with-color/bee-A1SF.svg","response":0,"trial_type":"image-button-response","trial_index":43,"time_elapsed":214636,"internal_node_id":"0.0-4.0-0.18","subject_id":"56cb8858edf8da000b6df354","study_id":"6197b3f67c2b5cd3b6d9596a","session_id":"619bfbdc5122075950c1bd43","condition":"contingent","relevant_dimensions":["antennae","wings"],"bee_group":{"antennae":"A","wings":"2","pattern":"X","legs":"X"},"action":"harvest","summary":"good-harvest","bonus":0.7400000000000009},{"rt":483.5,"stimulus":"\n                    <p><b>Action: <em>harvest</em></b></p>\n                    <p>This is the bee that you just saw.</p>\n                    <img src=\"bees-with-color/bee-A1SF.svg\" width=\"200\">\n                    <p><span class=\"greenText\"><b>Successful harvest!</b></span><br>Your pay has increased by $0.02. Your bonus pay is now $0.46.</p>\n            ","response":0,"trial_type":"html-button-response","trial_index":44,"time_elapsed":215120,"internal_node_id":"0.0-4.0-1.18","subject_id":"56cb8858edf8da000b6df354","study_id":"6197b3f67c2b5cd3b6d9596a","session_id":"619bfbdc5122075950c1bd43","condition":"contingent","relevant_dimensions":["antennae","wings"],"bee_group":{"antennae":"A","wings":"2","pattern":"X","legs":"X"},"bonus":0.7400000000000009},{"rt":945.3000000007451,"stimulus":"bees-with-color/bee-B1DF.svg","response":1,"trial_type":"image-button-response","trial_index":45,"time_elapsed":216066,"internal_node_id":"0.0-4.0-0.19","subject_id":"56cb8858edf8da000b6df354","study_id":"6197b3f67c2b5cd3b6d9596a","session_id":"619bfbdc5122075950c1bd43","condition":"contingent","relevant_dimensions":["antennae","wings"],"bee_group":{"antennae":"A","wings":"2","pattern":"X","legs":"X"},"action":"avoid","summary":"bad-avoid","bonus":0.7400000000000009},{"rt":473.5,"stimulus":"\n                    <p><b>Action: <em>avoid</em></b></p>\n                    <p>This is the bee that you just saw.</p>\n                    <img src=\"bees-with-color/bee-B1DF.svg\" width=\"200\">\n                    <p><br>Your bonus pay is unchanged, and remains at $0.46.</p>\n            ","response":0,"trial_type":"html-button-response","trial_index":46,"time_elapsed":216541,"internal_node_id":"0.0-4.0-1.19","subject_id":"56cb8858edf8da000b6df354","study_id":"6197b3f67c2b5cd3b6d9596a","session_id":"619bfbdc5122075950c1bd43","condition":"contingent","relevant_dimensions":["antennae","wings"],"bee_group":{"antennae":"A","wings":"2","pattern":"X","legs":"X"},"bonus":0.7400000000000009},{"rt":2734.199999999255,"stimulus":"bees-with-color/bee-B2DF.svg","response":1,"trial_type":"image-button-response","trial_index":47,"time_elapsed":219276,"internal_node_id":"0.0-4.0-0.20","subject_id":"56cb8858edf8da000b6df354","study_id":"6197b3f67c2b5cd3b6d9596a","session_id":"619bfbdc5122075950c1bd43","condition":"contingent","relevant_dimensions":["antennae","wings"],"bee_group":{"antennae":"A","wings":"2","pattern":"X","legs":"X"},"action":"avoid","summary":"bad-avoid","bonus":0.7400000000000009},{"rt":469.59999999962747,"stimulus":"\n                    <p><b>Action: <em>avoid</em></b></p>\n                    <p>This is the bee that you just saw.</p>\n                    <img src=\"bees-with-color/bee-B2DF.svg\" width=\"200\">\n                    <p><br>Your bonus pay is unchanged, and remains at $0.46.</p>\n            ","response":0,"trial_type":"html-button-response","trial_index":48,"time_elapsed":219747,"internal_node_id":"0.0-4.0-1.20","subject_id":"56cb8858edf8da000b6df354","study_id":"6197b3f67c2b5cd3b6d9596a","session_id":"619bfbdc5122075950c1bd43","condition":"contingent","relevant_dimensions":["antennae","wings"],"bee_group":{"antennae":"A","wings":"2","pattern":"X","legs":"X"},"bonus":0.7400000000000009},{"rt":1939,"stimulus":"bees-with-color/bee-A2SF.svg","response":1,"trial_type":"image-button-response","trial_index":49,"time_elapsed":221687,"internal_node_id":"0.0-4.0-0.21","subject_id":"56cb8858edf8da000b6df354","study_id":"6197b3f67c2b5cd3b6d9596a","session_id":"619bfbdc5122075950c1bd43","condition":"contingent","relevant_dimensions":["antennae","wings"],"bee_group":{"antennae":"A","wings":"2","pattern":"X","legs":"X"},"action":"avoid","summary":"good-avoid","bonus":0.7400000000000009},{"rt":460,"stimulus":"\n                    <p><b>Action: <em>avoid</em></b></p>\n                    <p>This is the bee that you just saw.</p>\n                    <img src=\"bees-with-color/bee-A2SF.svg\" width=\"200\">\n                    <p><br>Your bonus pay is unchanged, and remains at $0.46.</p>\n            ","response":0,"trial_type":"html-button-response","trial_index":50,"time_elapsed":222149,"internal_node_id":"0.0-4.0-1.21","subject_id":"56cb8858edf8da000b6df354","study_id":"6197b3f67c2b5cd3b6d9596a","session_id":"619bfbdc5122075950c1bd43","condition":"contingent","relevant_dimensions":["antennae","wings"],"bee_group":{"antennae":"A","wings":"2","pattern":"X","legs":"X"},"bonus":0.7400000000000009},{"rt":1586.199999999255,"stimulus":"bees-with-color/bee-A2SM.svg","response":0,"trial_type":"image-button-response","trial_index":51,"time_elapsed":223736,"internal_node_id":"0.0-4.0-0.22","subject_id":"56cb8858edf8da000b6df354","study_id":"6197b3f67c2b5cd3b6d9596a","session_id":"619bfbdc5122075950c1bd43","condition":"contingent","relevant_dimensions":["antennae","wings"],"bee_group":{"antennae":"A","wings":"2","pattern":"X","legs":"X"},"action":"harvest","summary":"bad-harvest","bonus":0.7400000000000009},{"rt":1087.5999999996275,"stimulus":"\n                    <p><b>Action: <em>harvest</em></b></p>\n                    <p>This is the bee that you just saw.</p>\n                    <img src=\"bees-with-color/bee-A2SM.svg\" width=\"200\">\n                    <p><span class=\"redText\">Bad choice, the bee was angry.</span><br><b>You have been stung!</b><br>Your pay has been decreased by $0.10. Your bonus pay is now $0.36.</p>\n            ","response":0,"trial_type":"html-button-response","trial_index":52,"time_elapsed":224825,"internal_node_id":"0.0-4.0-1.22","subject_id":"56cb8858edf8da000b6df354","study_id":"6197b3f67c2b5cd3b6d9596a","session_id":"619bfbdc5122075950c1bd43","condition":"contingent","relevant_dimensions":["antennae","wings"],"bee_group":{"antennae":"A","wings":"2","pattern":"X","legs":"X"},"bonus":0.7400000000000009},{"rt":1276.199999999255,"stimulus":"bees-with-color/bee-B2DM.svg","response":0,"trial_type":"image-button-response","trial_index":53,"time_elapsed":226102,"internal_node_id":"0.0-4.0-0.23","subject_id":"56cb8858edf8da000b6df354","study_id":"6197b3f67c2b5cd3b6d9596a","session_id":"619bfbdc5122075950c1bd43","condition":"contingent","relevant_dimensions":["antennae","wings"],"bee_group":{"antennae":"A","wings":"2","pattern":"X","legs":"X"},"action":"harvest","summary":"good-harvest","bonus":0.7400000000000009},{"rt":337.69999999925494,"stimulus":"\n                    <p><b>Action: <em>harvest</em></b></p>\n                    <p>This is the bee that you just saw.</p>\n                    <img src=\"bees-with-color/bee-B2DM.svg\" width=\"200\">\n                    <p><span class=\"greenText\"><b>Successful harvest!</b></span><br>Your pay has increased by $0.02. Your bonus pay is now $0.38.</p>\n            ","response":0,"trial_type":"html-button-response","trial_index":54,"time_elapsed":226441,"internal_node_id":"0.0-4.0-1.23","subject_id":"56cb8858edf8da000b6df354","study_id":"6197b3f67c2b5cd3b6d9596a","session_id":"619bfbdc5122075950c1bd43","condition":"contingent","relevant_dimensions":["antennae","wings"],"bee_group":{"antennae":"A","wings":"2","pattern":"X","legs":"X"},"bonus":0.7400000000000009},{"rt":3070.7999999988824,"stimulus":"bees-with-color/bee-A2DF.svg","response":1,"trial_type":"image-button-response","trial_index":55,"time_elapsed":229513,"internal_node_id":"0.0-4.0-0.24","subject_id":"56cb8858edf8da000b6df354","study_id":"6197b3f67c2b5cd3b6d9596a","session_id":"619bfbdc5122075950c1bd43","condition":"contingent","relevant_dimensions":["antennae","wings"],"bee_group":{"antennae":"A","wings":"2","pattern":"X","legs":"X"},"action":"avoid","summary":"good-avoid","bonus":0.7400000000000009},{"rt":1244.800000000745,"stimulus":"\n                    <p><b>Action: <em>avoid</em></b></p>\n                    <p>This is the bee that you just saw.</p>\n                    <img src=\"bees-with-color/bee-A2DF.svg\" width=\"200\">\n                    <p><br>Your bonus pay is unchanged, and remains at $0.38.</p>\n            ","response":0,"trial_type":"html-button-response","trial_index":56,"time_elapsed":230760,"internal_node_id":"0.0-4.0-1.24","subject_id":"56cb8858edf8da000b6df354","study_id":"6197b3f67c2b5cd3b6d9596a","session_id":"619bfbdc5122075950c1bd43","condition":"contingent","relevant_dimensions":["antennae","wings"],"bee_group":{"antennae":"A","wings":"2","pattern":"X","legs":"X"},"bonus":0.7400000000000009},{"rt":2343.800000000745,"stimulus":"bees-with-color/bee-A2DM.svg","response":0,"trial_type":"image-button-response","trial_index":57,"time_elapsed":233104,"internal_node_id":"0.0-4.0-0.25","subject_id":"56cb8858edf8da000b6df354","study_id":"6197b3f67c2b5cd3b6d9596a","session_id":"619bfbdc5122075950c1bd43","condition":"contingent","relevant_dimensions":["antennae","wings"],"bee_group":{"antennae":"A","wings":"2","pattern":"X","legs":"X"},"action":"harvest","summary":"bad-harvest","bonus":0.7400000000000009},{"rt":1252.5999999996275,"stimulus":"\n                    <p><b>Action: <em>harvest</em></b></p>\n                    <p>This is the bee that you just saw.</p>\n                    <img src=\"bees-with-color/bee-A2DM.svg\" width=\"200\">\n                    <p><span class=\"redText\">Bad choice, the bee was angry.</span><br><b>You have been stung!</b><br>Your pay has been decreased by $0.10. Your bonus pay is now $0.28.</p>\n            ","response":0,"trial_type":"html-button-response","trial_index":58,"time_elapsed":234358,"internal_node_id":"0.0-4.0-1.25","subject_id":"56cb8858edf8da000b6df354","study_id":"6197b3f67c2b5cd3b6d9596a","session_id":"619bfbdc5122075950c1bd43","condition":"contingent","relevant_dimensions":["antennae","wings"],"bee_group":{"antennae":"A","wings":"2","pattern":"X","legs":"X"},"bonus":0.7400000000000009},{"rt":4888,"stimulus":"bees-with-color/bee-B2SF.svg","response":0,"trial_type":"image-button-response","trial_index":59,"time_elapsed":239247,"internal_node_id":"0.0-4.0-0.26","subject_id":"56cb8858edf8da000b6df354","study_id":"6197b3f67c2b5cd3b6d9596a","session_id":"619bfbdc5122075950c1bd43","condition":"contingent","relevant_dimensions":["antennae","wings"],"bee_group":{"antennae":"A","wings":"2","pattern":"X","legs":"X"},"action":"harvest","summary":"good-harvest","bonus":0.7400000000000009},{"rt":656.5999999996275,"stimulus":"\n                    <p><b>Action: <em>harvest</em></b></p>\n                    <p>This is the bee that you just saw.</p>\n                    <img src=\"bees-with-color/bee-B2SF.svg\" width=\"200\">\n                    <p><span class=\"greenText\"><b>Successful harvest!</b></span><br>Your pay has increased by $0.02. Your bonus pay is now $0.30.</p>\n            ","response":0,"trial_type":"html-button-response","trial_index":60,"time_elapsed":239905,"internal_node_id":"0.0-4.0-1.26","subject_id":"56cb8858edf8da000b6df354","study_id":"6197b3f67c2b5cd3b6d9596a","session_id":"619bfbdc5122075950c1bd43","condition":"contingent","relevant_dimensions":["antennae","wings"],"bee_group":{"antennae":"A","wings":"2","pattern":"X","legs":"X"},"bonus":0.7400000000000009},{"rt":1111,"stimulus":"bees-with-color/bee-A1SM.svg","response":1,"trial_type":"image-button-response","trial_index":61,"time_elapsed":241017,"internal_node_id":"0.0-4.0-0.27","subject_id":"56cb8858edf8da000b6df354","study_id":"6197b3f67c2b5cd3b6d9596a","session_id":"619bfbdc5122075950c1bd43","condition":"contingent","relevant_dimensions":["antennae","wings"],"bee_group":{"antennae":"A","wings":"2","pattern":"X","legs":"X"},"action":"avoid","summary":"bad-avoid","bonus":0.7400000000000009},{"rt":475.40000000037253,"stimulus":"\n                    <p><b>Action: <em>avoid</em></b></p>\n                    <p>This is the bee that you just saw.</p>\n                    <img src=\"bees-with-color/bee-A1SM.svg\" width=\"200\">\n                    <p><br>Your bonus pay is unchanged, and remains at $0.30.</p>\n            ","response":0,"trial_type":"html-button-response","trial_index":62,"time_elapsed":241494,"internal_node_id":"0.0-4.0-1.27","subject_id":"56cb8858edf8da000b6df354","study_id":"6197b3f67c2b5cd3b6d9596a","session_id":"619bfbdc5122075950c1bd43","condition":"contingent","relevant_dimensions":["antennae","wings"],"bee_group":{"antennae":"A","wings":"2","pattern":"X","legs":"X"},"bonus":0.7400000000000009},{"rt":1377,"stimulus":"bees-with-color/bee-B1SF.svg","response":1,"trial_type":"image-button-response","trial_index":63,"time_elapsed":242872,"internal_node_id":"0.0-4.0-0.28","subject_id":"56cb8858edf8da000b6df354","study_id":"6197b3f67c2b5cd3b6d9596a","session_id":"619bfbdc5122075950c1bd43","condition":"contingent","relevant_dimensions":["antennae","wings"],"bee_group":{"antennae":"A","wings":"2","pattern":"X","legs":"X"},"action":"avoid","summary":"bad-avoid","bonus":0.7400000000000009},{"rt":688.6999999992549,"stimulus":"\n                    <p><b>Action: <em>avoid</em></b></p>\n                    <p>This is the bee that you just saw.</p>\n                    <img src=\"bees-with-color/bee-B1SF.svg\" width=\"200\">\n                    <p><br>Your bonus pay is unchanged, and remains at $0.30.</p>\n            ","response":0,"trial_type":"html-button-response","trial_index":64,"time_elapsed":243562,"internal_node_id":"0.0-4.0-1.28","subject_id":"56cb8858edf8da000b6df354","study_id":"6197b3f67c2b5cd3b6d9596a","session_id":"619bfbdc5122075950c1bd43","condition":"contingent","relevant_dimensions":["antennae","wings"],"bee_group":{"antennae":"A","wings":"2","pattern":"X","legs":"X"},"bonus":0.7400000000000009},{"rt":1638.2000000011176,"stimulus":"bees-with-color/bee-B1SM.svg","response":1,"trial_type":"image-button-response","trial_index":65,"time_elapsed":245202,"internal_node_id":"0.0-4.0-0.29","subject_id":"56cb8858edf8da000b6df354","study_id":"6197b3f67c2b5cd3b6d9596a","session_id":"619bfbdc5122075950c1bd43","condition":"contingent","relevant_dimensions":["antennae","wings"],"bee_group":{"antennae":"A","wings":"2","pattern":"X","legs":"X"},"action":"avoid","summary":"bad-avoid","bonus":0.7400000000000009},{"rt":459.5,"stimulus":"\n                    <p><b>Action: <em>avoid</em></b></p>\n                    <p>This is the bee that you just saw.</p>\n                    <img src=\"bees-with-color/bee-B1SM.svg\" width=\"200\">\n                    <p><br>Your bonus pay is unchanged, and remains at $0.30.</p>\n            ","response":0,"trial_type":"html-button-response","trial_index":66,"time_elapsed":245662,"internal_node_id":"0.0-4.0-1.29","subject_id":"56cb8858edf8da000b6df354","study_id":"6197b3f67c2b5cd3b6d9596a","session_id":"619bfbdc5122075950c1bd43","condition":"contingent","relevant_dimensions":["antennae","wings"],"bee_group":{"antennae":"A","wings":"2","pattern":"X","legs":"X"},"bonus":0.7400000000000009},{"rt":1075.699999999255,"stimulus":"bees-with-color/bee-A1DF.svg","response":1,"trial_type":"image-button-response","trial_index":67,"time_elapsed":246739,"internal_node_id":"0.0-4.0-0.30","subject_id":"56cb8858edf8da000b6df354","study_id":"6197b3f67c2b5cd3b6d9596a","session_id":"619bfbdc5122075950c1bd43","condition":"contingent","relevant_dimensions":["antennae","wings"],"bee_group":{"antennae":"A","wings":"2","pattern":"X","legs":"X"},"action":"avoid","summary":"bad-avoid","bonus":0.7400000000000009},{"rt":373.90000000037253,"stimulus":"\n                    <p><b>Action: <em>avoid</em></b></p>\n                    <p>This is the bee that you just saw.</p>\n                    <img src=\"bees-with-color/bee-A1DF.svg\" width=\"200\">\n                    <p><br>Your bonus pay is unchanged, and remains at $0.30.</p>\n            ","response":0,"trial_type":"html-button-response","trial_index":68,"time_elapsed":247115,"internal_node_id":"0.0-4.0-1.30","subject_id":"56cb8858edf8da000b6df354","study_id":"6197b3f67c2b5cd3b6d9596a","session_id":"619bfbdc5122075950c1bd43","condition":"contingent","relevant_dimensions":["antennae","wings"],"bee_group":{"antennae":"A","wings":"2","pattern":"X","legs":"X"},"bonus":0.7400000000000009},{"rt":2483.5999999996275,"stimulus":"bees-with-color/bee-B1DM.svg","response":0,"trial_type":"image-button-response","trial_index":69,"time_elapsed":249599,"internal_node_id":"0.0-4.0-0.31","subject_id":"56cb8858edf8da000b6df354","study_id":"6197b3f67c2b5cd3b6d9596a","session_id":"619bfbdc5122075950c1bd43","condition":"contingent","relevant_dimensions":["antennae","wings"],"bee_group":{"antennae":"A","wings":"2","pattern":"X","legs":"X"},"action":"harvest","summary":"good-harvest","bonus":0.7400000000000009},{"rt":477.5,"stimulus":"\n                    <p><b>Action: <em>harvest</em></b></p>\n                    <p>This is the bee that you just saw.</p>\n                    <img src=\"bees-with-color/bee-B1DM.svg\" width=\"200\">\n                    <p><span class=\"greenText\"><b>Successful harvest!</b></span><br>Your pay has increased by $0.02. Your bonus pay is now $0.32.</p>\n            ","response":0,"trial_type":"html-button-response","trial_index":70,"time_elapsed":250078,"internal_node_id":"0.0-4.0-1.31","subject_id":"56cb8858edf8da000b6df354","study_id":"6197b3f67c2b5cd3b6d9596a","session_id":"619bfbdc5122075950c1bd43","condition":"contingent","relevant_dimensions":["antennae","wings"],"bee_group":{"antennae":"A","wings":"2","pattern":"X","legs":"X"},"bonus":0.7400000000000009},{"rt":4231.5999999996275,"stimulus":"bees-with-color/bee-A2SF.svg","response":1,"trial_type":"image-button-response","trial_index":71,"time_elapsed":254311,"internal_node_id":"0.0-4.0-0.32","subject_id":"56cb8858edf8da000b6df354","study_id":"6197b3f67c2b5cd3b6d9596a","session_id":"619bfbdc5122075950c1bd43","condition":"contingent","relevant_dimensions":["antennae","wings"],"bee_group":{"antennae":"A","wings":"2","pattern":"X","legs":"X"},"action":"avoid","summary":"good-avoid","bonus":0.7400000000000009},{"rt":388.69999999925494,"stimulus":"\n                    <p><b>Action: <em>avoid</em></b></p>\n                    <p>This is the bee that you just saw.</p>\n                    <img src=\"bees-with-color/bee-A2SF.svg\" width=\"200\">\n                    <p><br>Your bonus pay is unchanged, and remains at $0.32.</p>\n            ","response":0,"trial_type":"html-button-response","trial_index":72,"time_elapsed":254701,"internal_node_id":"0.0-4.0-1.32","subject_id":"56cb8858edf8da000b6df354","study_id":"6197b3f67c2b5cd3b6d9596a","session_id":"619bfbdc5122075950c1bd43","condition":"contingent","relevant_dimensions":["antennae","wings"],"bee_group":{"antennae":"A","wings":"2","pattern":"X","legs":"X"},"bonus":0.7400000000000009},{"rt":2628.699999999255,"stimulus":"bees-with-color/bee-A2DM.svg","response":1,"trial_type":"image-button-response","trial_index":73,"time_elapsed":257331,"internal_node_id":"0.0-4.0-0.33","subject_id":"56cb8858edf8da000b6df354","study_id":"6197b3f67c2b5cd3b6d9596a","session_id":"619bfbdc5122075950c1bd43","condition":"contingent","relevant_dimensions":["antennae","wings"],"bee_group":{"antennae":"A","wings":"2","pattern":"X","legs":"X"},"action":"avoid","summary":"good-avoid","bonus":0.7400000000000009},{"rt":426,"stimulus":"\n                    <p><b>Action: <em>avoid</em></b></p>\n                    <p>This is the bee that you just saw.</p>\n                    <img src=\"bees-with-color/bee-A2DM.svg\" width=\"200\">\n                    <p><br>Your bonus pay is unchanged, and remains at $0.32.</p>\n            ","response":0,"trial_type":"html-button-response","trial_index":74,"time_elapsed":257759,"internal_node_id":"0.0-4.0-1.33","subject_id":"56cb8858edf8da000b6df354","study_id":"6197b3f67c2b5cd3b6d9596a","session_id":"619bfbdc5122075950c1bd43","condition":"contingent","relevant_dimensions":["antennae","wings"],"bee_group":{"antennae":"A","wings":"2","pattern":"X","legs":"X"},"bonus":0.7400000000000009},{"rt":2327.7000000011176,"stimulus":"bees-with-color/bee-A1DM.svg","response":0,"trial_type":"image-button-response","trial_index":75,"time_elapsed":260087,"internal_node_id":"0.0-4.0-0.34","subject_id":"56cb8858edf8da000b6df354","study_id":"6197b3f67c2b5cd3b6d9596a","session_id":"619bfbdc5122075950c1bd43","condition":"contingent","relevant_dimensions":["antennae","wings"],"bee_group":{"antennae":"A","wings":"2","pattern":"X","legs":"X"},"action":"harvest","summary":"good-harvest","bonus":0.7400000000000009},{"rt":439.59999999962747,"stimulus":"\n                    <p><b>Action: <em>harvest</em></b></p>\n                    <p>This is the bee that you just saw.</p>\n                    <img src=\"bees-with-color/bee-A1DM.svg\" width=\"200\">\n                    <p><span class=\"greenText\"><b>Successful harvest!</b></span><br>Your pay has increased by $0.02. Your bonus pay is now $0.34.</p>\n            ","response":0,"trial_type":"html-button-response","trial_index":76,"time_elapsed":260528,"internal_node_id":"0.0-4.0-1.34","subject_id":"56cb8858edf8da000b6df354","study_id":"6197b3f67c2b5cd3b6d9596a","session_id":"619bfbdc5122075950c1bd43","condition":"contingent","relevant_dimensions":["antennae","wings"],"bee_group":{"antennae":"A","wings":"2","pattern":"X","legs":"X"},"bonus":0.7400000000000009},{"rt":2046.0999999996275,"stimulus":"bees-with-color/bee-A1SF.svg","response":0,"trial_type":"image-button-response","trial_index":77,"time_elapsed":262575,"internal_node_id":"0.0-4.0-0.35","subject_id":"56cb8858edf8da000b6df354","study_id":"6197b3f67c2b5cd3b6d9596a","session_id":"619bfbdc5122075950c1bd43","condition":"contingent","relevant_dimensions":["antennae","wings"],"bee_group":{"antennae":"A","wings":"2","pattern":"X","legs":"X"},"action":"harvest","summary":"good-harvest","bonus":0.7400000000000009},{"rt":360.59999999962747,"stimulus":"\n                    <p><b>Action: <em>harvest</em></b></p>\n                    <p>This is the bee that you just saw.</p>\n                    <img src=\"bees-with-color/bee-A1SF.svg\" width=\"200\">\n                    <p><span class=\"greenText\"><b>Successful harvest!</b></span><br>Your pay has increased by $0.02. Your bonus pay is now $0.36.</p>\n            ","response":0,"trial_type":"html-button-response","trial_index":78,"time_elapsed":262937,"internal_node_id":"0.0-4.0-1.35","subject_id":"56cb8858edf8da000b6df354","study_id":"6197b3f67c2b5cd3b6d9596a","session_id":"619bfbdc5122075950c1bd43","condition":"contingent","relevant_dimensions":["antennae","wings"],"bee_group":{"antennae":"A","wings":"2","pattern":"X","legs":"X"},"bonus":0.7400000000000009},{"rt":1011.2000000011176,"stimulus":"bees-with-color/bee-B1SM.svg","response":1,"trial_type":"image-button-response","trial_index":79,"time_elapsed":263949,"internal_node_id":"0.0-4.0-0.36","subject_id":"56cb8858edf8da000b6df354","study_id":"6197b3f67c2b5cd3b6d9596a","session_id":"619bfbdc5122075950c1bd43","condition":"contingent","relevant_dimensions":["antennae","wings"],"bee_group":{"antennae":"A","wings":"2","pattern":"X","legs":"X"},"action":"avoid","summary":"bad-avoid","bonus":0.7400000000000009},{"rt":310.40000000037253,"stimulus":"\n                    <p><b>Action: <em>avoid</em></b></p>\n                    <p>This is the bee that you just saw.</p>\n                    <img src=\"bees-with-color/bee-B1SM.svg\" width=\"200\">\n                    <p><br>Your bonus pay is unchanged, and remains at $0.36.</p>\n            ","response":0,"trial_type":"html-button-response","trial_index":80,"time_elapsed":264261,"internal_node_id":"0.0-4.0-1.36","subject_id":"56cb8858edf8da000b6df354","study_id":"6197b3f67c2b5cd3b6d9596a","session_id":"619bfbdc5122075950c1bd43","condition":"contingent","relevant_dimensions":["antennae","wings"],"bee_group":{"antennae":"A","wings":"2","pattern":"X","legs":"X"},"bonus":0.7400000000000009},{"rt":1817.199999999255,"stimulus":"bees-with-color/bee-B2DM.svg","response":0,"trial_type":"image-button-response","trial_index":81,"time_elapsed":266080,"internal_node_id":"0.0-4.0-0.37","subject_id":"56cb8858edf8da000b6df354","study_id":"6197b3f67c2b5cd3b6d9596a","session_id":"619bfbdc5122075950c1bd43","condition":"contingent","relevant_dimensions":["antennae","wings"],"bee_group":{"antennae":"A","wings":"2","pattern":"X","legs":"X"},"action":"harvest","summary":"good-harvest","bonus":0.7400000000000009},{"rt":389.2999999988824,"stimulus":"\n                    <p><b>Action: <em>harvest</em></b></p>\n                    <p>This is the bee that you just saw.</p>\n                    <img src=\"bees-with-color/bee-B2DM.svg\" width=\"200\">\n                    <p><span class=\"greenText\"><b>Successful harvest!</b></span><br>Your pay has increased by $0.02. Your bonus pay is now $0.38.</p>\n            ","response":0,"trial_type":"html-button-response","trial_index":82,"time_elapsed":266470,"internal_node_id":"0.0-4.0-1.37","subject_id":"56cb8858edf8da000b6df354","study_id":"6197b3f67c2b5cd3b6d9596a","session_id":"619bfbdc5122075950c1bd43","condition":"contingent","relevant_dimensions":["antennae","wings"],"bee_group":{"antennae":"A","wings":"2","pattern":"X","legs":"X"},"bonus":0.7400000000000009},{"rt":1708.0999999996275,"stimulus":"bees-with-color/bee-B1SF.svg","response":0,"trial_type":"image-button-response","trial_index":83,"time_elapsed":268179,"internal_node_id":"0.0-4.0-0.38","subject_id":"56cb8858edf8da000b6df354","study_id":"6197b3f67c2b5cd3b6d9596a","session_id":"619bfbdc5122075950c1bd43","condition":"contingent","relevant_dimensions":["antennae","wings"],"bee_group":{"antennae":"A","wings":"2","pattern":"X","legs":"X"},"action":"harvest","summary":"good-harvest","bonus":0.7400000000000009},{"rt":395.90000000037253,"stimulus":"\n                    <p><b>Action: <em>harvest</em></b></p>\n                    <p>This is the bee that you just saw.</p>\n                    <img src=\"bees-with-color/bee-B1SF.svg\" width=\"200\">\n                    <p><span class=\"greenText\"><b>Successful harvest!</b></span><br>Your pay has increased by $0.02. Your bonus pay is now $0.40.</p>\n            ","response":0,"trial_type":"html-button-response","trial_index":84,"time_elapsed":268577,"internal_node_id":"0.0-4.0-1.38","subject_id":"56cb8858edf8da000b6df354","study_id":"6197b3f67c2b5cd3b6d9596a","session_id":"619bfbdc5122075950c1bd43","condition":"contingent","relevant_dimensions":["antennae","wings"],"bee_group":{"antennae":"A","wings":"2","pattern":"X","legs":"X"},"bonus":0.7400000000000009},{"rt":1881.5999999996275,"stimulus":"bees-with-color/bee-B1DM.svg","response":0,"trial_type":"image-button-response","trial_index":85,"time_elapsed":270459,"internal_node_id":"0.0-4.0-0.39","subject_id":"56cb8858edf8da000b6df354","study_id":"6197b3f67c2b5cd3b6d9596a","session_id":"619bfbdc5122075950c1bd43","condition":"contingent","relevant_dimensions":["antennae","wings"],"bee_group":{"antennae":"A","wings":"2","pattern":"X","legs":"X"},"action":"harvest","summary":"good-harvest","bonus":0.7400000000000009},{"rt":1098.7999999988824,"stimulus":"\n                    <p><b>Action: <em>harvest</em></b></p>\n                    <p>This is the bee that you just saw.</p>\n                    <img src=\"bees-with-color/bee-B1DM.svg\" width=\"200\">\n                    <p><span class=\"greenText\"><b>Successful harvest!</b></span><br>Your pay has increased by $0.02. Your bonus pay is now $0.42.</p>\n            ","response":0,"trial_type":"html-button-response","trial_index":86,"time_elapsed":271559,"internal_node_id":"0.0-4.0-1.39","subject_id":"56cb8858edf8da000b6df354","study_id":"6197b3f67c2b5cd3b6d9596a","session_id":"619bfbdc5122075950c1bd43","condition":"contingent","relevant_dimensions":["antennae","wings"],"bee_group":{"antennae":"A","wings":"2","pattern":"X","legs":"X"},"bonus":0.7400000000000009},{"rt":2215.9000000003725,"stimulus":"bees-with-color/bee-A1SM.svg","response":1,"trial_type":"image-button-response","trial_index":87,"time_elapsed":273776,"internal_node_id":"0.0-4.0-0.40","subject_id":"56cb8858edf8da000b6df354","study_id":"6197b3f67c2b5cd3b6d9596a","session_id":"619bfbdc5122075950c1bd43","condition":"contingent","relevant_dimensions":["antennae","wings"],"bee_group":{"antennae":"A","wings":"2","pattern":"X","legs":"X"},"action":"avoid","summary":"bad-avoid","bonus":0.7400000000000009},{"rt":415.69999999925494,"stimulus":"\n                    <p><b>Action: <em>avoid</em></b></p>\n                    <p>This is the bee that you just saw.</p>\n                    <img src=\"bees-with-color/bee-A1SM.svg\" width=\"200\">\n                    <p><br>Your bonus pay is unchanged, and remains at $0.42.</p>\n            ","response":0,"trial_type":"html-button-response","trial_index":88,"time_elapsed":274193,"internal_node_id":"0.0-4.0-1.40","subject_id":"56cb8858edf8da000b6df354","study_id":"6197b3f67c2b5cd3b6d9596a","session_id":"619bfbdc5122075950c1bd43","condition":"contingent","relevant_dimensions":["antennae","wings"],"bee_group":{"antennae":"A","wings":"2","pattern":"X","legs":"X"},"bonus":0.7400000000000009},{"rt":1665.199999999255,"stimulus":"bees-with-color/bee-A2DF.svg","response":1,"trial_type":"image-button-response","trial_index":89,"time_elapsed":275859,"internal_node_id":"0.0-4.0-0.41","subject_id":"56cb8858edf8da000b6df354","study_id":"6197b3f67c2b5cd3b6d9596a","session_id":"619bfbdc5122075950c1bd43","condition":"contingent","relevant_dimensions":["antennae","wings"],"bee_group":{"antennae":"A","wings":"2","pattern":"X","legs":"X"},"action":"avoid","summary":"good-avoid","bonus":0.7400000000000009},{"rt":455.5,"stimulus":"\n                    <p><b>Action: <em>avoid</em></b></p>\n                    <p>This is the bee that you just saw.</p>\n                    <img src=\"bees-with-color/bee-A2DF.svg\" width=\"200\">\n                    <p><br>Your bonus pay is unchanged, and remains at $0.42.</p>\n            ","response":0,"trial_type":"html-button-response","trial_index":90,"time_elapsed":276316,"internal_node_id":"0.0-4.0-1.41","subject_id":"56cb8858edf8da000b6df354","study_id":"6197b3f67c2b5cd3b6d9596a","session_id":"619bfbdc5122075950c1bd43","condition":"contingent","relevant_dimensions":["antennae","wings"],"bee_group":{"antennae":"A","wings":"2","pattern":"X","legs":"X"},"bonus":0.7400000000000009},{"rt":3045.199999999255,"stimulus":"bees-with-color/bee-A2SM.svg","response":1,"trial_type":"image-button-response","trial_index":91,"time_elapsed":279362,"internal_node_id":"0.0-4.0-0.42","subject_id":"56cb8858edf8da000b6df354","study_id":"6197b3f67c2b5cd3b6d9596a","session_id":"619bfbdc5122075950c1bd43","condition":"contingent","relevant_dimensions":["antennae","wings"],"bee_group":{"antennae":"A","wings":"2","pattern":"X","legs":"X"},"action":"avoid","summary":"good-avoid","bonus":0.7400000000000009},{"rt":698.5,"stimulus":"\n                    <p><b>Action: <em>avoid</em></b></p>\n                    <p>This is the bee that you just saw.</p>\n                    <img src=\"bees-with-color/bee-A2SM.svg\" width=\"200\">\n                    <p><br>Your bonus pay is unchanged, and remains at $0.42.</p>\n            ","response":0,"trial_type":"html-button-response","trial_index":92,"time_elapsed":280062,"internal_node_id":"0.0-4.0-1.42","subject_id":"56cb8858edf8da000b6df354","study_id":"6197b3f67c2b5cd3b6d9596a","session_id":"619bfbdc5122075950c1bd43","condition":"contingent","relevant_dimensions":["antennae","wings"],"bee_group":{"antennae":"A","wings":"2","pattern":"X","legs":"X"},"bonus":0.7400000000000009},{"rt":2369.9000000003725,"stimulus":"bees-with-color/bee-B2SM.svg","response":1,"trial_type":"image-button-response","trial_index":93,"time_elapsed":282433,"internal_node_id":"0.0-4.0-0.43","subject_id":"56cb8858edf8da000b6df354","study_id":"6197b3f67c2b5cd3b6d9596a","session_id":"619bfbdc5122075950c1bd43","condition":"contingent","relevant_dimensions":["antennae","wings"],"bee_group":{"antennae":"A","wings":"2","pattern":"X","legs":"X"},"action":"avoid","summary":"bad-avoid","bonus":0.7400000000000009},{"rt":473.7999999988824,"stimulus":"\n                    <p><b>Action: <em>avoid</em></b></p>\n                    <p>This is the bee that you just saw.</p>\n                    <img src=\"bees-with-color/bee-B2SM.svg\" width=\"200\">\n                    <p><br>Your bonus pay is unchanged, and remains at $0.42.</p>\n            ","response":0,"trial_type":"html-button-response","trial_index":94,"time_elapsed":282908,"internal_node_id":"0.0-4.0-1.43","subject_id":"56cb8858edf8da000b6df354","study_id":"6197b3f67c2b5cd3b6d9596a","session_id":"619bfbdc5122075950c1bd43","condition":"contingent","relevant_dimensions":["antennae","wings"],"bee_group":{"antennae":"A","wings":"2","pattern":"X","legs":"X"},"bonus":0.7400000000000009},{"rt":1263.9000000003725,"stimulus":"bees-with-color/bee-B1DF.svg","response":1,"trial_type":"image-button-response","trial_index":95,"time_elapsed":284173,"internal_node_id":"0.0-4.0-0.44","subject_id":"56cb8858edf8da000b6df354","study_id":"6197b3f67c2b5cd3b6d9596a","session_id":"619bfbdc5122075950c1bd43","condition":"contingent","relevant_dimensions":["antennae","wings"],"bee_group":{"antennae":"A","wings":"2","pattern":"X","legs":"X"},"action":"avoid","summary":"bad-avoid","bonus":0.7400000000000009},{"rt":2363.699999999255,"stimulus":"\n                    <p><b>Action: <em>avoid</em></b></p>\n                    <p>This is the bee that you just saw.</p>\n                    <img src=\"bees-with-color/bee-B1DF.svg\" width=\"200\">\n                    <p><br>Your bonus pay is unchanged, and remains at $0.42.</p>\n            ","response":0,"trial_type":"html-button-response","trial_index":96,"time_elapsed":286538,"internal_node_id":"0.0-4.0-1.44","subject_id":"56cb8858edf8da000b6df354","study_id":"6197b3f67c2b5cd3b6d9596a","session_id":"619bfbdc5122075950c1bd43","condition":"contingent","relevant_dimensions":["antennae","wings"],"bee_group":{"antennae":"A","wings":"2","pattern":"X","legs":"X"},"bonus":0.7400000000000009},{"rt":1953.699999999255,"stimulus":"bees-with-color/bee-B2DF.svg","response":1,"trial_type":"image-button-response","trial_index":97,"time_elapsed":288493,"internal_node_id":"0.0-4.0-0.45","subject_id":"56cb8858edf8da000b6df354","study_id":"6197b3f67c2b5cd3b6d9596a","session_id":"619bfbdc5122075950c1bd43","condition":"contingent","relevant_dimensions":["antennae","wings"],"bee_group":{"antennae":"A","wings":"2","pattern":"X","legs":"X"},"action":"avoid","summary":"bad-avoid","bonus":0.7400000000000009},{"rt":396.59999999962747,"stimulus":"\n                    <p><b>Action: <em>avoid</em></b></p>\n                    <p>This is the bee that you just saw.</p>\n                    <img src=\"bees-with-color/bee-B2DF.svg\" width=\"200\">\n                    <p><br>Your bonus pay is unchanged, and remains at $0.42.</p>\n            ","response":0,"trial_type":"html-button-response","trial_index":98,"time_elapsed":288891,"internal_node_id":"0.0-4.0-1.45","subject_id":"56cb8858edf8da000b6df354","study_id":"6197b3f67c2b5cd3b6d9596a","session_id":"619bfbdc5122075950c1bd43","condition":"contingent","relevant_dimensions":["antennae","wings"],"bee_group":{"antennae":"A","wings":"2","pattern":"X","legs":"X"},"bonus":0.7400000000000009},{"rt":1632.800000000745,"stimulus":"bees-with-color/bee-B2SF.svg","response":1,"trial_type":"image-button-response","trial_index":99,"time_elapsed":290525,"internal_node_id":"0.0-4.0-0.46","subject_id":"56cb8858edf8da000b6df354","study_id":"6197b3f67c2b5cd3b6d9596a","session_id":"619bfbdc5122075950c1bd43","condition":"contingent","relevant_dimensions":["antennae","wings"],"bee_group":{"antennae":"A","wings":"2","pattern":"X","legs":"X"},"action":"avoid","summary":"bad-avoid","bonus":0.7400000000000009},{"rt":378.3999999985099,"stimulus":"\n                    <p><b>Action: <em>avoid</em></b></p>\n                    <p>This is the bee that you just saw.</p>\n                    <img src=\"bees-with-color/bee-B2SF.svg\" width=\"200\">\n                    <p><br>Your bonus pay is unchanged, and remains at $0.42.</p>\n            ","response":0,"trial_type":"html-button-response","trial_index":100,"time_elapsed":290905,"internal_node_id":"0.0-4.0-1.46","subject_id":"56cb8858edf8da000b6df354","study_id":"6197b3f67c2b5cd3b6d9596a","session_id":"619bfbdc5122075950c1bd43","condition":"contingent","relevant_dimensions":["antennae","wings"],"bee_group":{"antennae":"A","wings":"2","pattern":"X","legs":"X"},"bonus":0.7400000000000009},{"rt":1230.300000000745,"stimulus":"bees-with-color/bee-A1DF.svg","response":1,"trial_type":"image-button-response","trial_index":101,"time_elapsed":292136,"internal_node_id":"0.0-4.0-0.47","subject_id":"56cb8858edf8da000b6df354","study_id":"6197b3f67c2b5cd3b6d9596a","session_id":"619bfbdc5122075950c1bd43","condition":"contingent","relevant_dimensions":["antennae","wings"],"bee_group":{"antennae":"A","wings":"2","pattern":"X","legs":"X"},"action":"avoid","summary":"bad-avoid","bonus":0.7400000000000009},{"rt":478.59999999962747,"stimulus":"\n                    <p><b>Action: <em>avoid</em></b></p>\n                    <p>This is the bee that you just saw.</p>\n                    <img src=\"bees-with-color/bee-A1DF.svg\" width=\"200\">\n                    <p><br>Your bonus pay is unchanged, and remains at $0.42.</p>\n            ","response":0,"trial_type":"html-button-response","trial_index":102,"time_elapsed":292616,"internal_node_id":"0.0-4.0-1.47","subject_id":"56cb8858edf8da000b6df354","study_id":"6197b3f67c2b5cd3b6d9596a","session_id":"619bfbdc5122075950c1bd43","condition":"contingent","relevant_dimensions":["antennae","wings"],"bee_group":{"antennae":"A","wings":"2","pattern":"X","legs":"X"},"bonus":0.7400000000000009},{"rt":4244.0999999996275,"stimulus":"bees-with-color/bee-B1SM.svg","response":1,"trial_type":"image-button-response","trial_index":103,"time_elapsed":296861,"internal_node_id":"0.0-4.0-0.48","subject_id":"56cb8858edf8da000b6df354","study_id":"6197b3f67c2b5cd3b6d9596a","session_id":"619bfbdc5122075950c1bd43","condition":"contingent","relevant_dimensions":["antennae","wings"],"bee_group":{"antennae":"A","wings":"2","pattern":"X","legs":"X"},"action":"avoid","summary":"bad-avoid","bonus":0.7400000000000009},{"rt":360.40000000037253,"stimulus":"\n                    <p><b>Action: <em>avoid</em></b></p>\n                    <p>This is the bee that you just saw.</p>\n                    <img src=\"bees-with-color/bee-B1SM.svg\" width=\"200\">\n                    <p><br>Your bonus pay is unchanged, and remains at $0.42.</p>\n            ","response":0,"trial_type":"html-button-response","trial_index":104,"time_elapsed":297223,"internal_node_id":"0.0-4.0-1.48","subject_id":"56cb8858edf8da000b6df354","study_id":"6197b3f67c2b5cd3b6d9596a","session_id":"619bfbdc5122075950c1bd43","condition":"contingent","relevant_dimensions":["antennae","wings"],"bee_group":{"antennae":"A","wings":"2","pattern":"X","legs":"X"},"bonus":0.7400000000000009},{"rt":1082.5,"stimulus":"bees-with-color/bee-A2SF.svg","response":1,"trial_type":"image-button-response","trial_index":105,"time_elapsed":298307,"internal_node_id":"0.0-4.0-0.49","subject_id":"56cb8858edf8da000b6df354","study_id":"6197b3f67c2b5cd3b6d9596a","session_id":"619bfbdc5122075950c1bd43","condition":"contingent","relevant_dimensions":["antennae","wings"],"bee_group":{"antennae":"A","wings":"2","pattern":"X","legs":"X"},"action":"avoid","summary":"good-avoid","bonus":0.7400000000000009},{"rt":368.90000000037253,"stimulus":"\n                    <p><b>Action: <em>avoid</em></b></p>\n                    <p>This is the bee that you just saw.</p>\n                    <img src=\"bees-with-color/bee-A2SF.svg\" width=\"200\">\n                    <p><br>Your bonus pay is unchanged, and remains at $0.42.</p>\n            ","response":0,"trial_type":"html-button-response","trial_index":106,"time_elapsed":298677,"internal_node_id":"0.0-4.0-1.49","subject_id":"56cb8858edf8da000b6df354","study_id":"6197b3f67c2b5cd3b6d9596a","session_id":"619bfbdc5122075950c1bd43","condition":"contingent","relevant_dimensions":["antennae","wings"],"bee_group":{"antennae":"A","wings":"2","pattern":"X","legs":"X"},"bonus":0.7400000000000009},{"rt":1458.0999999996275,"stimulus":"bees-with-color/bee-B2DF.svg","response":1,"trial_type":"image-button-response","trial_index":107,"time_elapsed":300136,"internal_node_id":"0.0-4.0-0.50","subject_id":"56cb8858edf8da000b6df354","study_id":"6197b3f67c2b5cd3b6d9596a","session_id":"619bfbdc5122075950c1bd43","condition":"contingent","relevant_dimensions":["antennae","wings"],"bee_group":{"antennae":"A","wings":"2","pattern":"X","legs":"X"},"action":"avoid","summary":"bad-avoid","bonus":0.7400000000000009},{"rt":445.5,"stimulus":"\n                    <p><b>Action: <em>avoid</em></b></p>\n                    <p>This is the bee that you just saw.</p>\n                    <img src=\"bees-with-color/bee-B2DF.svg\" width=\"200\">\n                    <p><br>Your bonus pay is unchanged, and remains at $0.42.</p>\n            ","response":0,"trial_type":"html-button-response","trial_index":108,"time_elapsed":300583,"internal_node_id":"0.0-4.0-1.50","subject_id":"56cb8858edf8da000b6df354","study_id":"6197b3f67c2b5cd3b6d9596a","session_id":"619bfbdc5122075950c1bd43","condition":"contingent","relevant_dimensions":["antennae","wings"],"bee_group":{"antennae":"A","wings":"2","pattern":"X","legs":"X"},"bonus":0.7400000000000009},{"rt":2057,"stimulus":"bees-with-color/bee-A1DF.svg","response":0,"trial_type":"image-button-response","trial_index":109,"time_elapsed":302641,"internal_node_id":"0.0-4.0-0.51","subject_id":"56cb8858edf8da000b6df354","study_id":"6197b3f67c2b5cd3b6d9596a","session_id":"619bfbdc5122075950c1bd43","condition":"contingent","relevant_dimensions":["antennae","wings"],"bee_group":{"antennae":"A","wings":"2","pattern":"X","legs":"X"},"action":"harvest","summary":"good-harvest","bonus":0.7400000000000009},{"rt":666.5,"stimulus":"\n                    <p><b>Action: <em>harvest</em></b></p>\n                    <p>This is the bee that you just saw.</p>\n                    <img src=\"bees-with-color/bee-A1DF.svg\" width=\"200\">\n                    <p><span class=\"greenText\"><b>Successful harvest!</b></span><br>Your pay has increased by $0.02. Your bonus pay is now $0.44.</p>\n            ","response":0,"trial_type":"html-button-response","trial_index":110,"time_elapsed":303309,"internal_node_id":"0.0-4.0-1.51","subject_id":"56cb8858edf8da000b6df354","study_id":"6197b3f67c2b5cd3b6d9596a","session_id":"619bfbdc5122075950c1bd43","condition":"contingent","relevant_dimensions":["antennae","wings"],"bee_group":{"antennae":"A","wings":"2","pattern":"X","legs":"X"},"bonus":0.7400000000000009},{"rt":1233.800000000745,"stimulus":"bees-with-color/bee-A1SF.svg","response":0,"trial_type":"image-button-response","trial_index":111,"time_elapsed":304544,"internal_node_id":"0.0-4.0-0.52","subject_id":"56cb8858edf8da000b6df354","study_id":"6197b3f67c2b5cd3b6d9596a","session_id":"619bfbdc5122075950c1bd43","condition":"contingent","relevant_dimensions":["antennae","wings"],"bee_group":{"antennae":"A","wings":"2","pattern":"X","legs":"X"},"action":"harvest","summary":"good-harvest","bonus":0.7400000000000009},{"rt":770.6999999992549,"stimulus":"\n                    <p><b>Action: <em>harvest</em></b></p>\n                    <p>This is the bee that you just saw.</p>\n                    <img src=\"bees-with-color/bee-A1SF.svg\" width=\"200\">\n                    <p><span class=\"greenText\"><b>Successful harvest!</b></span><br>Your pay has increased by $0.02. Your bonus pay is now $0.46.</p>\n            ","response":0,"trial_type":"html-button-response","trial_index":112,"time_elapsed":305316,"internal_node_id":"0.0-4.0-1.52","subject_id":"56cb8858edf8da000b6df354","study_id":"6197b3f67c2b5cd3b6d9596a","session_id":"619bfbdc5122075950c1bd43","condition":"contingent","relevant_dimensions":["antennae","wings"],"bee_group":{"antennae":"A","wings":"2","pattern":"X","legs":"X"},"bonus":0.7400000000000009},{"rt":1865.699999999255,"stimulus":"bees-with-color/bee-B1DF.svg","response":0,"trial_type":"image-button-response","trial_index":113,"time_elapsed":307183,"internal_node_id":"0.0-4.0-0.53","subject_id":"56cb8858edf8da000b6df354","study_id":"6197b3f67c2b5cd3b6d9596a","session_id":"619bfbdc5122075950c1bd43","condition":"contingent","relevant_dimensions":["antennae","wings"],"bee_group":{"antennae":"A","wings":"2","pattern":"X","legs":"X"},"action":"harvest","summary":"good-harvest","bonus":0.7400000000000009},{"rt":601.7999999988824,"stimulus":"\n                    <p><b>Action: <em>harvest</em></b></p>\n                    <p>This is the bee that you just saw.</p>\n                    <img src=\"bees-with-color/bee-B1DF.svg\" width=\"200\">\n                    <p><span class=\"greenText\"><b>Successful harvest!</b></span><br>Your pay has increased by $0.02. Your bonus pay is now $0.48.</p>\n            ","response":0,"trial_type":"html-button-response","trial_index":114,"time_elapsed":307786,"internal_node_id":"0.0-4.0-1.53","subject_id":"56cb8858edf8da000b6df354","study_id":"6197b3f67c2b5cd3b6d9596a","session_id":"619bfbdc5122075950c1bd43","condition":"contingent","relevant_dimensions":["antennae","wings"],"bee_group":{"antennae":"A","wings":"2","pattern":"X","legs":"X"},"bonus":0.7400000000000009},{"rt":2019,"stimulus":"bees-with-color/bee-B2SF.svg","response":1,"trial_type":"image-button-response","trial_index":115,"time_elapsed":309806,"internal_node_id":"0.0-4.0-0.54","subject_id":"56cb8858edf8da000b6df354","study_id":"6197b3f67c2b5cd3b6d9596a","session_id":"619bfbdc5122075950c1bd43","condition":"contingent","relevant_dimensions":["antennae","wings"],"bee_group":{"antennae":"A","wings":"2","pattern":"X","legs":"X"},"action":"avoid","summary":"bad-avoid","bonus":0.7400000000000009},{"rt":1875.699999999255,"stimulus":"\n                    <p><b>Action: <em>avoid</em></b></p>\n                    <p>This is the bee that you just saw.</p>\n                    <img src=\"bees-with-color/bee-B2SF.svg\" width=\"200\">\n                    <p><br>Your bonus pay is unchanged, and remains at $0.48.</p>\n            ","response":0,"trial_type":"html-button-response","trial_index":116,"time_elapsed":311683,"internal_node_id":"0.0-4.0-1.54","subject_id":"56cb8858edf8da000b6df354","study_id":"6197b3f67c2b5cd3b6d9596a","session_id":"619bfbdc5122075950c1bd43","condition":"contingent","relevant_dimensions":["antennae","wings"],"bee_group":{"antennae":"A","wings":"2","pattern":"X","legs":"X"},"bonus":0.7400000000000009},{"rt":1346.9000000003725,"stimulus":"bees-with-color/bee-A2DF.svg","response":1,"trial_type":"image-button-response","trial_index":117,"time_elapsed":313031,"internal_node_id":"0.0-4.0-0.55","subject_id":"56cb8858edf8da000b6df354","study_id":"6197b3f67c2b5cd3b6d9596a","session_id":"619bfbdc5122075950c1bd43","condition":"contingent","relevant_dimensions":["antennae","wings"],"bee_group":{"antennae":"A","wings":"2","pattern":"X","legs":"X"},"action":"avoid","summary":"good-avoid","bonus":0.7400000000000009},{"rt":404.69999999925494,"stimulus":"\n                    <p><b>Action: <em>avoid</em></b></p>\n                    <p>This is the bee that you just saw.</p>\n                    <img src=\"bees-with-color/bee-A2DF.svg\" width=\"200\">\n                    <p><br>Your bonus pay is unchanged, and remains at $0.48.</p>\n            ","response":0,"trial_type":"html-button-response","trial_index":118,"time_elapsed":313437,"internal_node_id":"0.0-4.0-1.55","subject_id":"56cb8858edf8da000b6df354","study_id":"6197b3f67c2b5cd3b6d9596a","session_id":"619bfbdc5122075950c1bd43","condition":"contingent","relevant_dimensions":["antennae","wings"],"bee_group":{"antennae":"A","wings":"2","pattern":"X","legs":"X"},"bonus":0.7400000000000009},{"rt":1220,"stimulus":"bees-with-color/bee-A1SM.svg","response":1,"trial_type":"image-button-response","trial_index":119,"time_elapsed":314658,"internal_node_id":"0.0-4.0-0.56","subject_id":"56cb8858edf8da000b6df354","study_id":"6197b3f67c2b5cd3b6d9596a","session_id":"619bfbdc5122075950c1bd43","condition":"contingent","relevant_dimensions":["antennae","wings"],"bee_group":{"antennae":"A","wings":"2","pattern":"X","legs":"X"},"action":"avoid","summary":"bad-avoid","bonus":0.7400000000000009},{"rt":435.59999999962747,"stimulus":"\n                    <p><b>Action: <em>avoid</em></b></p>\n                    <p>This is the bee that you just saw.</p>\n                    <img src=\"bees-with-color/bee-A1SM.svg\" width=\"200\">\n                    <p><br>Your bonus pay is unchanged, and remains at $0.48.</p>\n            ","response":0,"trial_type":"html-button-response","trial_index":120,"time_elapsed":315095,"internal_node_id":"0.0-4.0-1.56","subject_id":"56cb8858edf8da000b6df354","study_id":"6197b3f67c2b5cd3b6d9596a","session_id":"619bfbdc5122075950c1bd43","condition":"contingent","relevant_dimensions":["antennae","wings"],"bee_group":{"antennae":"A","wings":"2","pattern":"X","legs":"X"},"bonus":0.7400000000000009},{"rt":1206.9000000003725,"stimulus":"bees-with-color/bee-A2SM.svg","response":1,"trial_type":"image-button-response","trial_index":121,"time_elapsed":316303,"internal_node_id":"0.0-4.0-0.57","subject_id":"56cb8858edf8da000b6df354","study_id":"6197b3f67c2b5cd3b6d9596a","session_id":"619bfbdc5122075950c1bd43","condition":"contingent","relevant_dimensions":["antennae","wings"],"bee_group":{"antennae":"A","wings":"2","pattern":"X","legs":"X"},"action":"avoid","summary":"good-avoid","bonus":0.7400000000000009},{"rt":312.8999999985099,"stimulus":"\n                    <p><b>Action: <em>avoid</em></b></p>\n                    <p>This is the bee that you just saw.</p>\n                    <img src=\"bees-with-color/bee-A2SM.svg\" width=\"200\">\n                    <p><br>Your bonus pay is unchanged, and remains at $0.48.</p>\n            ","response":0,"trial_type":"html-button-response","trial_index":122,"time_elapsed":316617,"internal_node_id":"0.0-4.0-1.57","subject_id":"56cb8858edf8da000b6df354","study_id":"6197b3f67c2b5cd3b6d9596a","session_id":"619bfbdc5122075950c1bd43","condition":"contingent","relevant_dimensions":["antennae","wings"],"bee_group":{"antennae":"A","wings":"2","pattern":"X","legs":"X"},"bonus":0.7400000000000009},{"rt":2199.7999999988824,"stimulus":"bees-with-color/bee-A1DM.svg","response":0,"trial_type":"image-button-response","trial_index":123,"time_elapsed":318818,"internal_node_id":"0.0-4.0-0.58","subject_id":"56cb8858edf8da000b6df354","study_id":"6197b3f67c2b5cd3b6d9596a","session_id":"619bfbdc5122075950c1bd43","condition":"contingent","relevant_dimensions":["antennae","wings"],"bee_group":{"antennae":"A","wings":"2","pattern":"X","legs":"X"},"action":"harvest","summary":"good-harvest","bonus":0.7400000000000009},{"rt":786.5,"stimulus":"\n                    <p><b>Action: <em>harvest</em></b></p>\n                    <p>This is the bee that you just saw.</p>\n                    <img src=\"bees-with-color/bee-A1DM.svg\" width=\"200\">\n                    <p><span class=\"greenText\"><b>Successful harvest!</b></span><br>Your pay has increased by $0.02. Your bonus pay is now $0.50.</p>\n            ","response":0,"trial_type":"html-button-response","trial_index":124,"time_elapsed":319606,"internal_node_id":"0.0-4.0-1.58","subject_id":"56cb8858edf8da000b6df354","study_id":"6197b3f67c2b5cd3b6d9596a","session_id":"619bfbdc5122075950c1bd43","condition":"contingent","relevant_dimensions":["antennae","wings"],"bee_group":{"antennae":"A","wings":"2","pattern":"X","legs":"X"},"bonus":0.7400000000000009},{"rt":2262,"stimulus":"bees-with-color/bee-B2SM.svg","response":1,"trial_type":"image-button-response","trial_index":125,"time_elapsed":321869,"internal_node_id":"0.0-4.0-0.59","subject_id":"56cb8858edf8da000b6df354","study_id":"6197b3f67c2b5cd3b6d9596a","session_id":"619bfbdc5122075950c1bd43","condition":"contingent","relevant_dimensions":["antennae","wings"],"bee_group":{"antennae":"A","wings":"2","pattern":"X","legs":"X"},"action":"avoid","summary":"bad-avoid","bonus":0.7400000000000009},{"rt":404.40000000037253,"stimulus":"\n                    <p><b>Action: <em>avoid</em></b></p>\n                    <p>This is the bee that you just saw.</p>\n                    <img src=\"bees-with-color/bee-B2SM.svg\" width=\"200\">\n                    <p><br>Your bonus pay is unchanged, and remains at $0.50.</p>\n            ","response":0,"trial_type":"html-button-response","trial_index":126,"time_elapsed":322275,"internal_node_id":"0.0-4.0-1.59","subject_id":"56cb8858edf8da000b6df354","study_id":"6197b3f67c2b5cd3b6d9596a","session_id":"619bfbdc5122075950c1bd43","condition":"contingent","relevant_dimensions":["antennae","wings"],"bee_group":{"antennae":"A","wings":"2","pattern":"X","legs":"X"},"bonus":0.7400000000000009},{"rt":1064.0999999996275,"stimulus":"bees-with-color/bee-B1SF.svg","response":0,"trial_type":"image-button-response","trial_index":127,"time_elapsed":323340,"internal_node_id":"0.0-4.0-0.60","subject_id":"56cb8858edf8da000b6df354","study_id":"6197b3f67c2b5cd3b6d9596a","session_id":"619bfbdc5122075950c1bd43","condition":"contingent","relevant_dimensions":["antennae","wings"],"bee_group":{"antennae":"A","wings":"2","pattern":"X","legs":"X"},"action":"harvest","summary":"good-harvest","bonus":0.7400000000000009},{"rt":352.80000000074506,"stimulus":"\n                    <p><b>Action: <em>harvest</em></b></p>\n                    <p>This is the bee that you just saw.</p>\n                    <img src=\"bees-with-color/bee-B1SF.svg\" width=\"200\">\n                    <p><span class=\"greenText\"><b>Successful harvest!</b></span><br>Your pay has increased by $0.02. Your bonus pay is now $0.52.</p>\n            ","response":0,"trial_type":"html-button-response","trial_index":128,"time_elapsed":323694,"internal_node_id":"0.0-4.0-1.60","subject_id":"56cb8858edf8da000b6df354","study_id":"6197b3f67c2b5cd3b6d9596a","session_id":"619bfbdc5122075950c1bd43","condition":"contingent","relevant_dimensions":["antennae","wings"],"bee_group":{"antennae":"A","wings":"2","pattern":"X","legs":"X"},"bonus":0.7400000000000009},{"rt":1227.2999999988824,"stimulus":"bees-with-color/bee-A2DM.svg","response":1,"trial_type":"image-button-response","trial_index":129,"time_elapsed":324923,"internal_node_id":"0.0-4.0-0.61","subject_id":"56cb8858edf8da000b6df354","study_id":"6197b3f67c2b5cd3b6d9596a","session_id":"619bfbdc5122075950c1bd43","condition":"contingent","relevant_dimensions":["antennae","wings"],"bee_group":{"antennae":"A","wings":"2","pattern":"X","legs":"X"},"action":"avoid","summary":"good-avoid","bonus":0.7400000000000009},{"rt":607.4000000003725,"stimulus":"\n                    <p><b>Action: <em>avoid</em></b></p>\n                    <p>This is the bee that you just saw.</p>\n                    <img src=\"bees-with-color/bee-A2DM.svg\" width=\"200\">\n                    <p><br>Your bonus pay is unchanged, and remains at $0.52.</p>\n            ","response":0,"trial_type":"html-button-response","trial_index":130,"time_elapsed":325532,"internal_node_id":"0.0-4.0-1.61","subject_id":"56cb8858edf8da000b6df354","study_id":"6197b3f67c2b5cd3b6d9596a","session_id":"619bfbdc5122075950c1bd43","condition":"contingent","relevant_dimensions":["antennae","wings"],"bee_group":{"antennae":"A","wings":"2","pattern":"X","legs":"X"},"bonus":0.7400000000000009},{"rt":1184.199999999255,"stimulus":"bees-with-color/bee-B1DM.svg","response":1,"trial_type":"image-button-response","trial_index":131,"time_elapsed":326717,"internal_node_id":"0.0-4.0-0.62","subject_id":"56cb8858edf8da000b6df354","study_id":"6197b3f67c2b5cd3b6d9596a","session_id":"619bfbdc5122075950c1bd43","condition":"contingent","relevant_dimensions":["antennae","wings"],"bee_group":{"antennae":"A","wings":"2","pattern":"X","legs":"X"},"action":"avoid","summary":"bad-avoid","bonus":0.7400000000000009},{"rt":379.2999999988824,"stimulus":"\n                    <p><b>Action: <em>avoid</em></b></p>\n                    <p>This is the bee that you just saw.</p>\n                    <img src=\"bees-with-color/bee-B1DM.svg\" width=\"200\">\n                    <p><br>Your bonus pay is unchanged, and remains at $0.52.</p>\n            ","response":0,"trial_type":"html-button-response","trial_index":132,"time_elapsed":327098,"internal_node_id":"0.0-4.0-1.62","subject_id":"56cb8858edf8da000b6df354","study_id":"6197b3f67c2b5cd3b6d9596a","session_id":"619bfbdc5122075950c1bd43","condition":"contingent","relevant_dimensions":["antennae","wings"],"bee_group":{"antennae":"A","wings":"2","pattern":"X","legs":"X"},"bonus":0.7400000000000009},{"rt":2609.0999999996275,"stimulus":"bees-with-color/bee-B2DM.svg","response":0,"trial_type":"image-button-response","trial_index":133,"time_elapsed":329708,"internal_node_id":"0.0-4.0-0.63","subject_id":"56cb8858edf8da000b6df354","study_id":"6197b3f67c2b5cd3b6d9596a","session_id":"619bfbdc5122075950c1bd43","condition":"contingent","relevant_dimensions":["antennae","wings"],"bee_group":{"antennae":"A","wings":"2","pattern":"X","legs":"X"},"action":"harvest","summary":"good-harvest","bonus":0.7400000000000009},{"rt":443.7999999988824,"stimulus":"\n                    <p><b>Action: <em>harvest</em></b></p>\n                    <p>This is the bee that you just saw.</p>\n                    <img src=\"bees-with-color/bee-B2DM.svg\" width=\"200\">\n                    <p><span class=\"greenText\"><b>Successful harvest!</b></span><br>Your pay has increased by $0.02. Your bonus pay is now $0.54.</p>\n            ","response":0,"trial_type":"html-button-response","trial_index":134,"time_elapsed":330153,"internal_node_id":"0.0-4.0-1.63","subject_id":"56cb8858edf8da000b6df354","study_id":"6197b3f67c2b5cd3b6d9596a","session_id":"619bfbdc5122075950c1bd43","condition":"contingent","relevant_dimensions":["antennae","wings"],"bee_group":{"antennae":"A","wings":"2","pattern":"X","legs":"X"},"bonus":0.7400000000000009},{"rt":12605.599999999627,"stimulus":"You have completed the first part of this experiment.<br><br>You will now begin a shorter second part, in which you will receive no feedback.<br>The same rules regarding bonus pay apply.<br><br>Press any key to begin.","response":" ","trial_type":"html-keyboard-response","trial_index":135,"time_elapsed":342760,"internal_node_id":"0.0-5.0","subject_id":"56cb8858edf8da000b6df354","study_id":"6197b3f67c2b5cd3b6d9596a","session_id":"619bfbdc5122075950c1bd43","condition":"contingent","relevant_dimensions":["antennae","wings"],"bee_group":{"antennae":"A","wings":"2","pattern":"X","legs":"X"},"bonus":0.7400000000000009},{"rt":2109.199999999255,"stimulus":"bees-with-color/bee-B1SF.svg","response":0,"trial_type":"image-button-response","trial_index":136,"time_elapsed":344874,"internal_node_id":"0.0-6.0-0.0","subject_id":"56cb8858edf8da000b6df354","study_id":"6197b3f67c2b5cd3b6d9596a","session_id":"619bfbdc5122075950c1bd43","condition":"contingent","relevant_dimensions":["antennae","wings"],"bee_group":{"antennae":"A","wings":"2","pattern":"X","legs":"X"},"bonus":0.7400000000000009},{"rt":2453.699999999255,"stimulus":"bees-with-color/bee-A2DF.svg","response":1,"trial_type":"image-button-response","trial_index":137,"time_elapsed":347329,"internal_node_id":"0.0-6.0-0.1","subject_id":"56cb8858edf8da000b6df354","study_id":"6197b3f67c2b5cd3b6d9596a","session_id":"619bfbdc5122075950c1bd43","condition":"contingent","relevant_dimensions":["antennae","wings"],"bee_group":{"antennae":"A","wings":"2","pattern":"X","legs":"X"},"bonus":0.7400000000000009},{"rt":1459.699999999255,"stimulus":"bees-with-color/bee-B1DF.svg","response":1,"trial_type":"image-button-response","trial_index":138,"time_elapsed":348790,"internal_node_id":"0.0-6.0-0.2","subject_id":"56cb8858edf8da000b6df354","study_id":"6197b3f67c2b5cd3b6d9596a","session_id":"619bfbdc5122075950c1bd43","condition":"contingent","relevant_dimensions":["antennae","wings"],"bee_group":{"antennae":"A","wings":"2","pattern":"X","legs":"X"},"bonus":0.7400000000000009},{"rt":1339.6000000014901,"stimulus":"bees-with-color/bee-B2DM.svg","response":0,"trial_type":"image-button-response","trial_index":139,"time_elapsed":350131,"internal_node_id":"0.0-6.0-0.3","subject_id":"56cb8858edf8da000b6df354","study_id":"6197b3f67c2b5cd3b6d9596a","session_id":"619bfbdc5122075950c1bd43","condition":"contingent","relevant_dimensions":["antennae","wings"],"bee_group":{"antennae":"A","wings":"2","pattern":"X","legs":"X"},"bonus":0.7400000000000009},{"rt":1201.5999999996275,"stimulus":"bees-with-color/bee-B2DF.svg","response":1,"trial_type":"image-button-response","trial_index":140,"time_elapsed":351335,"internal_node_id":"0.0-6.0-0.4","subject_id":"56cb8858edf8da000b6df354","study_id":"6197b3f67c2b5cd3b6d9596a","session_id":"619bfbdc5122075950c1bd43","condition":"contingent","relevant_dimensions":["antennae","wings"],"bee_group":{"antennae":"A","wings":"2","pattern":"X","legs":"X"},"bonus":0.7400000000000009},{"rt":1214.699999999255,"stimulus":"bees-with-color/bee-B1DM.svg","response":0,"trial_type":"image-button-response","trial_index":141,"time_elapsed":352551,"internal_node_id":"0.0-6.0-0.5","subject_id":"56cb8858edf8da000b6df354","study_id":"6197b3f67c2b5cd3b6d9596a","session_id":"619bfbdc5122075950c1bd43","condition":"contingent","relevant_dimensions":["antennae","wings"],"bee_group":{"antennae":"A","wings":"2","pattern":"X","legs":"X"},"bonus":0.7400000000000009},{"rt":1260.699999999255,"stimulus":"bees-with-color/bee-A2DM.svg","response":1,"trial_type":"image-button-response","trial_index":142,"time_elapsed":353813,"internal_node_id":"0.0-6.0-0.6","subject_id":"56cb8858edf8da000b6df354","study_id":"6197b3f67c2b5cd3b6d9596a","session_id":"619bfbdc5122075950c1bd43","condition":"contingent","relevant_dimensions":["antennae","wings"],"bee_group":{"antennae":"A","wings":"2","pattern":"X","legs":"X"},"bonus":0.7400000000000009},{"rt":1090.9000000003725,"stimulus":"bees-with-color/bee-B1SM.svg","response":1,"trial_type":"image-button-response","trial_index":143,"time_elapsed":354905,"internal_node_id":"0.0-6.0-0.7","subject_id":"56cb8858edf8da000b6df354","study_id":"6197b3f67c2b5cd3b6d9596a","session_id":"619bfbdc5122075950c1bd43","condition":"contingent","relevant_dimensions":["antennae","wings"],"bee_group":{"antennae":"A","wings":"2","pattern":"X","legs":"X"},"bonus":0.7400000000000009},{"rt":5101.5,"stimulus":"bees-with-color/bee-A1DF.svg","response":0,"trial_type":"image-button-response","trial_index":144,"time_elapsed":360008,"internal_node_id":"0.0-6.0-0.8","subject_id":"56cb8858edf8da000b6df354","study_id":"6197b3f67c2b5cd3b6d9596a","session_id":"619bfbdc5122075950c1bd43","condition":"contingent","relevant_dimensions":["antennae","wings"],"bee_group":{"antennae":"A","wings":"2","pattern":"X","legs":"X"},"bonus":0.7400000000000009},{"rt":1540.199999999255,"stimulus":"bees-with-color/bee-A2SM.svg","response":1,"trial_type":"image-button-response","trial_index":145,"time_elapsed":361550,"internal_node_id":"0.0-6.0-0.9","subject_id":"56cb8858edf8da000b6df354","study_id":"6197b3f67c2b5cd3b6d9596a","session_id":"619bfbdc5122075950c1bd43","condition":"contingent","relevant_dimensions":["antennae","wings"],"bee_group":{"antennae":"A","wings":"2","pattern":"X","legs":"X"},"bonus":0.7400000000000009},{"rt":7369.300000000745,"stimulus":"bees-with-color/bee-A1DM.svg","response":0,"trial_type":"image-button-response","trial_index":146,"time_elapsed":368921,"internal_node_id":"0.0-6.0-0.10","subject_id":"56cb8858edf8da000b6df354","study_id":"6197b3f67c2b5cd3b6d9596a","session_id":"619bfbdc5122075950c1bd43","condition":"contingent","relevant_dimensions":["antennae","wings"],"bee_group":{"antennae":"A","wings":"2","pattern":"X","legs":"X"},"bonus":0.7400000000000009},{"rt":5309.4000000003725,"stimulus":"bees-with-color/bee-A1SM.svg","response":1,"trial_type":"image-button-response","trial_index":147,"time_elapsed":374232,"internal_node_id":"0.0-6.0-0.11","subject_id":"56cb8858edf8da000b6df354","study_id":"6197b3f67c2b5cd3b6d9596a","session_id":"619bfbdc5122075950c1bd43","condition":"contingent","relevant_dimensions":["antennae","wings"],"bee_group":{"antennae":"A","wings":"2","pattern":"X","legs":"X"},"bonus":0.7400000000000009},{"rt":3380.199999999255,"stimulus":"bees-with-color/bee-A2SF.svg","response":1,"trial_type":"image-button-response","trial_index":148,"time_elapsed":377614,"internal_node_id":"0.0-6.0-0.12","subject_id":"56cb8858edf8da000b6df354","study_id":"6197b3f67c2b5cd3b6d9596a","session_id":"619bfbdc5122075950c1bd43","condition":"contingent","relevant_dimensions":["antennae","wings"],"bee_group":{"antennae":"A","wings":"2","pattern":"X","legs":"X"},"bonus":0.7400000000000009},{"rt":1755.0999999996275,"stimulus":"bees-with-color/bee-B2SM.svg","response":1,"trial_type":"image-button-response","trial_index":149,"time_elapsed":379371,"internal_node_id":"0.0-6.0-0.13","subject_id":"56cb8858edf8da000b6df354","study_id":"6197b3f67c2b5cd3b6d9596a","session_id":"619bfbdc5122075950c1bd43","condition":"contingent","relevant_dimensions":["antennae","wings"],"bee_group":{"antennae":"A","wings":"2","pattern":"X","legs":"X"},"bonus":0.7400000000000009},{"rt":1500.699999999255,"stimulus":"bees-with-color/bee-B2SF.svg","response":0,"trial_type":"image-button-response","trial_index":150,"time_elapsed":380873,"internal_node_id":"0.0-6.0-0.14","subject_id":"56cb8858edf8da000b6df354","study_id":"6197b3f67c2b5cd3b6d9596a","session_id":"619bfbdc5122075950c1bd43","condition":"contingent","relevant_dimensions":["antennae","wings"],"bee_group":{"antennae":"A","wings":"2","pattern":"X","legs":"X"},"bonus":0.7400000000000009},{"rt":1327.5999999996275,"stimulus":"bees-with-color/bee-A1SF.svg","response":0,"trial_type":"image-button-response","trial_index":151,"time_elapsed":382202,"internal_node_id":"0.0-6.0-0.15","subject_id":"56cb8858edf8da000b6df354","study_id":"6197b3f67c2b5cd3b6d9596a","session_id":"619bfbdc5122075950c1bd43","condition":"contingent","relevant_dimensions":["antennae","wings"],"bee_group":{"antennae":"A","wings":"2","pattern":"X","legs":"X"},"bonus":0.7400000000000009},{"rt":1429.8999999985099,"stimulus":"bees-with-color/bee-B2SM.svg","response":1,"trial_type":"image-button-response","trial_index":152,"time_elapsed":383633,"internal_node_id":"0.0-6.0-0.16","subject_id":"56cb8858edf8da000b6df354","study_id":"6197b3f67c2b5cd3b6d9596a","session_id":"619bfbdc5122075950c1bd43","condition":"contingent","relevant_dimensions":["antennae","wings"],"bee_group":{"antennae":"A","wings":"2","pattern":"X","legs":"X"},"bonus":0.7400000000000009},{"rt":946.7999999988824,"stimulus":"bees-with-color/bee-B2SF.svg","response":0,"trial_type":"image-button-response","trial_index":153,"time_elapsed":384581,"internal_node_id":"0.0-6.0-0.17","subject_id":"56cb8858edf8da000b6df354","study_id":"6197b3f67c2b5cd3b6d9596a","session_id":"619bfbdc5122075950c1bd43","condition":"contingent","relevant_dimensions":["antennae","wings"],"bee_group":{"antennae":"A","wings":"2","pattern":"X","legs":"X"},"bonus":0.7400000000000009},{"rt":1112.800000000745,"stimulus":"bees-with-color/bee-A1SF.svg","response":0,"trial_type":"image-button-response","trial_index":154,"time_elapsed":385695,"internal_node_id":"0.0-6.0-0.18","subject_id":"56cb8858edf8da000b6df354","study_id":"6197b3f67c2b5cd3b6d9596a","session_id":"619bfbdc5122075950c1bd43","condition":"contingent","relevant_dimensions":["antennae","wings"],"bee_group":{"antennae":"A","wings":"2","pattern":"X","legs":"X"},"bonus":0.7400000000000009},{"rt":888.8000000007451,"stimulus":"bees-with-color/bee-A2DF.svg","response":1,"trial_type":"image-button-response","trial_index":155,"time_elapsed":386585,"internal_node_id":"0.0-6.0-0.19","subject_id":"56cb8858edf8da000b6df354","study_id":"6197b3f67c2b5cd3b6d9596a","session_id":"619bfbdc5122075950c1bd43","condition":"contingent","relevant_dimensions":["antennae","wings"],"bee_group":{"antennae":"A","wings":"2","pattern":"X","legs":"X"},"bonus":0.7400000000000009},{"rt":1405.9000000003725,"stimulus":"bees-with-color/bee-A1DF.svg","response":0,"trial_type":"image-button-response","trial_index":156,"time_elapsed":387992,"internal_node_id":"0.0-6.0-0.20","subject_id":"56cb8858edf8da000b6df354","study_id":"6197b3f67c2b5cd3b6d9596a","session_id":"619bfbdc5122075950c1bd43","condition":"contingent","relevant_dimensions":["antennae","wings"],"bee_group":{"antennae":"A","wings":"2","pattern":"X","legs":"X"},"bonus":0.7400000000000009},{"rt":1617.199999999255,"stimulus":"bees-with-color/bee-A2SF.svg","response":1,"trial_type":"image-button-response","trial_index":157,"time_elapsed":389611,"internal_node_id":"0.0-6.0-0.21","subject_id":"56cb8858edf8da000b6df354","study_id":"6197b3f67c2b5cd3b6d9596a","session_id":"619bfbdc5122075950c1bd43","condition":"contingent","relevant_dimensions":["antennae","wings"],"bee_group":{"antennae":"A","wings":"2","pattern":"X","legs":"X"},"bonus":0.7400000000000009},{"rt":2097.5,"stimulus":"bees-with-color/bee-A1SM.svg","response":1,"trial_type":"image-button-response","trial_index":158,"time_elapsed":391710,"internal_node_id":"0.0-6.0-0.22","subject_id":"56cb8858edf8da000b6df354","study_id":"6197b3f67c2b5cd3b6d9596a","session_id":"619bfbdc5122075950c1bd43","condition":"contingent","relevant_dimensions":["antennae","wings"],"bee_group":{"antennae":"A","wings":"2","pattern":"X","legs":"X"},"bonus":0.7400000000000009},{"rt":1300.800000000745,"stimulus":"bees-with-color/bee-B1SM.svg","response":1,"trial_type":"image-button-response","trial_index":159,"time_elapsed":393012,"internal_node_id":"0.0-6.0-0.23","subject_id":"56cb8858edf8da000b6df354","study_id":"6197b3f67c2b5cd3b6d9596a","session_id":"619bfbdc5122075950c1bd43","condition":"contingent","relevant_dimensions":["antennae","wings"],"bee_group":{"antennae":"A","wings":"2","pattern":"X","legs":"X"},"bonus":0.7400000000000009},{"rt":864.8000000007451,"stimulus":"bees-with-color/bee-B1SF.svg","response":0,"trial_type":"image-button-response","trial_index":160,"time_elapsed":393878,"internal_node_id":"0.0-6.0-0.24","subject_id":"56cb8858edf8da000b6df354","study_id":"6197b3f67c2b5cd3b6d9596a","session_id":"619bfbdc5122075950c1bd43","condition":"contingent","relevant_dimensions":["antennae","wings"],"bee_group":{"antennae":"A","wings":"2","pattern":"X","legs":"X"},"bonus":0.7400000000000009},{"rt":3202.5999999996275,"stimulus":"bees-with-color/bee-A1DM.svg","response":0,"trial_type":"image-button-response","trial_index":161,"time_elapsed":397082,"internal_node_id":"0.0-6.0-0.25","subject_id":"56cb8858edf8da000b6df354","study_id":"6197b3f67c2b5cd3b6d9596a","session_id":"619bfbdc5122075950c1bd43","condition":"contingent","relevant_dimensions":["antennae","wings"],"bee_group":{"antennae":"A","wings":"2","pattern":"X","legs":"X"},"bonus":0.7400000000000009},{"rt":1047.5999999996275,"stimulus":"bees-with-color/bee-B2DF.svg","response":1,"trial_type":"image-button-response","trial_index":162,"time_elapsed":398131,"internal_node_id":"0.0-6.0-0.26","subject_id":"56cb8858edf8da000b6df354","study_id":"6197b3f67c2b5cd3b6d9596a","session_id":"619bfbdc5122075950c1bd43","condition":"contingent","relevant_dimensions":["antennae","wings"],"bee_group":{"antennae":"A","wings":"2","pattern":"X","legs":"X"},"bonus":0.7400000000000009},{"rt":990.9000000003725,"stimulus":"bees-with-color/bee-B1DM.svg","response":0,"trial_type":"image-button-response","trial_index":163,"time_elapsed":399123,"internal_node_id":"0.0-6.0-0.27","subject_id":"56cb8858edf8da000b6df354","study_id":"6197b3f67c2b5cd3b6d9596a","session_id":"619bfbdc5122075950c1bd43","condition":"contingent","relevant_dimensions":["antennae","wings"],"bee_group":{"antennae":"A","wings":"2","pattern":"X","legs":"X"},"bonus":0.7400000000000009},{"rt":1265.5999999996275,"stimulus":"bees-with-color/bee-B1DF.svg","response":0,"trial_type":"image-button-response","trial_index":164,"time_