[{"success":true,"trial_type":"fullscreen","trial_index":0,"time_elapsed":19490,"internal_node_id":"0.0-0.0","subject_id":"5c35dd34be3cea000117948f","study_id":"6197b3f67c2b5cd3b6d9596a","session_id":"619c00425f36156f9bae165f","condition":"contingent","relevant_dimensions":["antennae","pattern"],"bee_group":{"antennae":"B","wings":"X","pattern":"S","legs":"X"},"bonus":0.8400000000000006},{"success":true,"timeout":false,"failed_images":[],"failed_audio":[],"failed_video":[],"trial_type":"preload","trial_index":1,"time_elapsed":21613,"internal_node_id":"0.0-1.0","subject_id":"5c35dd34be3cea000117948f","study_id":"6197b3f67c2b5cd3b6d9596a","session_id":"619c00425f36156f9bae165f","condition":"contingent","relevant_dimensions":["antennae","pattern"],"bee_group":{"antennae":"B","wings":"X","pattern":"S","legs":"X"},"bonus":0.8400000000000006},{"rt":3526,"stimulus":"Welcome! Press any key to begin.","response":"enter","trial_type":"html-keyboard-response","trial_index":2,"time_elapsed":25139,"internal_node_id":"0.0-2.0","subject_id":"5c35dd34be3cea000117948f","study_id":"6197b3f67c2b5cd3b6d9596a","session_id":"619c00425f36156f9bae165f","condition":"contingent","relevant_dimensions":["antennae","pattern"],"bee_group":{"antennae":"B","wings":"X","pattern":"S","legs":"X"},"bonus":0.8400000000000006},{"view_history":[{"page_index":0,"viewing_time":9420},{"page_index":1,"viewing_time":14370},{"page_index":2,"viewing_time":13001},{"page_index":3,"viewing_time":11924},{"page_index":4,"viewing_time":8977},{"page_index":5,"viewing_time":9503},{"page_index":6,"viewing_time":11452},{"page_index":7,"viewing_time":4104},{"page_index":8,"viewing_time":22117},{"page_index":7,"viewing_time":9206},{"page_index":8,"viewing_time":4741},{"page_index":9,"viewing_time":7466},{"page_index":10,"viewing_time":7706},{"page_index":11,"viewing_time":9321},{"page_index":12,"viewing_time":7444},{"page_index":13,"viewing_time":1093},{"page_index":14,"viewing_time":2450}],"rt":154296,"trial_type":"instructions","trial_index":3,"time_elapsed":179436,"internal_node_id":"0.0-3.0-0.0","subject_id":"5c35dd34be3cea000117948f","study_id":"6197b3f67c2b5cd3b6d9596a","session_id":"619c00425f36156f9bae165f","condition":"contingent","relevant_dimensions":["antennae","pattern"],"bee_group":{"antennae":"B","wings":"X","pattern":"S","legs":"X"},"bonus":0.8400000000000006},{"rt":21725,"response":{"Q0":["Two or six legs","Stripes or spots on body","Single or double wings","Antennae or no antennae"]},"question_order":[0],"trial_type":"survey-multi-select","trial_index":4,"time_elapsed":201165,"internal_node_id":"0.0-3.0-1.0","subject_id":"5c35dd34be3cea000117948f","study_id":"6197b3f67c2b5cd3b6d9596a","session_id":"619c00425f36156f9bae165f","condition":"contingent","relevant_dimensions":["antennae","pattern"],"bee_group":{"antennae":"B","wings":"X","pattern":"S","legs":"X"},"correct":true,"bonus":0.8400000000000006},{"rt":17743,"response":{"Q1":"No.","Q2":"Based on the four features of the bee.","Q3":"You do not learn if it was friendly or dangerous, and do not alter your bonus."},"question_order":[0,1,2],"trial_type":"survey-multi-choice","trial_index":5,"time_elapsed":218910,"internal_node_id":"0.0-3.0-2.0","subject_id":"5c35dd34be3cea000117948f","study_id":"6197b3f67c2b5cd3b6d9596a","session_id":"619c00425f36156f9bae165f","condition":"contingent","relevant_dimensions":["antennae","pattern"],"bee_group":{"antennae":"B","wings":"X","pattern":"S","legs":"X"},"correct":true,"bonus":0.8400000000000006},{"rt":2912,"stimulus":"<p>Congrats, you got everything right<br>When you're ready, click the button below to continue to the experiment.</p>","response":0,"trial_type":"html-button-response","trial_index":6,"time_elapsed":221824,"internal_node_id":"0.0-3.0-3.0","subject_id":"5c35dd34be3cea000117948f","study_id":"6197b3f67c2b5cd3b6d9596a","session_id":"619c00425f36156f9bae165f","condition":"contingent","relevant_dimensions":["antennae","pattern"],"bee_group":{"antennae":"B","wings":"X","pattern":"S","legs":"X"},"bonus":0.8400000000000006},{"rt":23417,"stimulus":"bees-with-color/bee-B2DF.svg","response":0,"trial_type":"image-button-response","trial_index":7,"time_elapsed":245243,"internal_node_id":"0.0-4.0-0.0","subject_id":"5c35dd34be3cea000117948f","study_id":"6197b3f67c2b5cd3b6d9596a","session_id":"619c00425f36156f9bae165f","condition":"contingent","relevant_dimensions":["antennae","pattern"],"bee_group":{"antennae":"B","wings":"X","pattern":"S","legs":"X"},"action":"harvest","summary":"good-harvest","bonus":0.8400000000000006},{"rt":7500,"stimulus":"\n                    <p><b>Action: <em>harvest</em></b></p>\n                    <p>This is the bee that you just saw.</p>\n                    <img src=\"bees-with-color/bee-B2DF.svg\" width=\"200\">\n                    <p><span class=\"greenText\"><b>Successful harvest!</b></span><br>Your pay has increased by $0.02. Your bonus pay is now $0.56.</p>\n            ","response":0,"trial_type":"html-button-response","trial_index":8,"time_elapsed":252755,"internal_node_id":"0.0-4.0-1.0","subject_id":"5c35dd34be3cea000117948f","study_id":"6197b3f67c2b5cd3b6d9596a","session_id":"619c00425f36156f9bae165f","condition":"contingent","relevant_dimensions":["antennae","pattern"],"bee_group":{"antennae":"B","wings":"X","pattern":"S","legs":"X"},"bonus":0.8400000000000006},{"rt":17961,"stimulus":"bees-with-color/bee-B2SM.svg","response":1,"trial_type":"image-button-response","trial_index":9,"time_elapsed":270719,"internal_node_id":"0.0-4.0-0.1","subject_id":"5c35dd34be3cea000117948f","study_id":"6197b3f67c2b5cd3b6d9596a","session_id":"619c00425f36156f9bae165f","condition":"contingent","relevant_dimensions":["antennae","pattern"],"bee_group":{"antennae":"B","wings":"X","pattern":"S","legs":"X"},"action":"avoid","summary":"good-avoid","bonus":0.8400000000000006},{"rt":7463,"stimulus":"\n                    <p><b>Action: <em>avoid</em></b></p>\n                    <p>This is the bee that you just saw.</p>\n                    <img src=\"bees-with-color/bee-B2SM.svg\" width=\"200\">\n                    <p><br>Your bonus pay is unchanged, and remains at $0.56.</p>\n            ","response":0,"trial_type":"html-button-response","trial_index":10,"time_elapsed":278182,"internal_node_id":"0.0-4.0-1.1","subject_id":"5c35dd34be3cea000117948f","study_id":"6197b3f67c2b5cd3b6d9596a","session_id":"619c00425f36156f9bae165f","condition":"contingent","relevant_dimensions":["antennae","pattern"],"bee_group":{"antennae":"B","wings":"X","pattern":"S","legs":"X"},"bonus":0.8400000000000006},{"rt":7956,"stimulus":"bees-with-color/bee-A1SF.svg","response":0,"trial_type":"image-button-response","trial_index":11,"time_elapsed":286140,"internal_node_id":"0.0-4.0-0.2","subject_id":"5c35dd34be3cea000117948f","study_id":"6197b3f67c2b5cd3b6d9596a","session_id":"619c00425f36156f9bae165f","condition":"contingent","relevant_dimensions":["antennae","pattern"],"bee_group":{"antennae":"B","wings":"X","pattern":"S","legs":"X"},"action":"harvest","summary":"good-harvest","bonus":0.8400000000000006},{"rt":1638,"stimulus":"\n                    <p><b>Action: <em>harvest</em></b></p>\n                    <p>This is the bee that you just saw.</p>\n                    <img src=\"bees-with-color/bee-A1SF.svg\" width=\"200\">\n                    <p><span class=\"greenText\"><b>Successful harvest!</b></span><br>Your pay has increased by $0.02. Your bonus pay is now $0.58.</p>\n            ","response":0,"trial_type":"html-button-response","trial_index":12,"time_elapsed":287780,"internal_node_id":"0.0-4.0-1.2","subject_id":"5c35dd34be3cea000117948f","study_id":"6197b3f67c2b5cd3b6d9596a","session_id":"619c00425f36156f9bae165f","condition":"contingent","relevant_dimensions":["antennae","pattern"],"bee_group":{"antennae":"B","wings":"X","pattern":"S","legs":"X"},"bonus":0.8400000000000006},{"rt":1846,"stimulus":"bees-with-color/bee-A2SF.svg","response":0,"trial_type":"image-button-response","trial_index":13,"time_elapsed":289627,"internal_node_id":"0.0-4.0-0.3","subject_id":"5c35dd34be3cea000117948f","study_id":"6197b3f67c2b5cd3b6d9596a","session_id":"619c00425f36156f9bae165f","condition":"contingent","relevant_dimensions":["antennae","pattern"],"bee_group":{"antennae":"B","wings":"X","pattern":"S","legs":"X"},"action":"harvest","summary":"good-harvest","bonus":0.8400000000000006},{"rt":1470,"stimulus":"\n                    <p><b>Action: <em>harvest</em></b></p>\n                    <p>This is the bee that you just saw.</p>\n                    <img src=\"bees-with-color/bee-A2SF.svg\" width=\"200\">\n                    <p><span class=\"greenText\"><b>Successful harvest!</b></span><br>Your pay has increased by $0.02. Your bonus pay is now $0.60.</p>\n            ","response":0,"trial_type":"html-button-response","trial_index":14,"time_elapsed":291099,"internal_node_id":"0.0-4.0-1.3","subject_id":"5c35dd34be3cea000117948f","study_id":"6197b3f67c2b5cd3b6d9596a","session_id":"619c00425f36156f9bae165f","condition":"contingent","relevant_dimensions":["antennae","pattern"],"bee_group":{"antennae":"B","wings":"X","pattern":"S","legs":"X"},"bonus":0.8400000000000006},{"rt":1078,"stimulus":"bees-with-color/bee-A2SM.svg","response":1,"trial_type":"image-button-response","trial_index":15,"time_elapsed":292179,"internal_node_id":"0.0-4.0-0.4","subject_id":"5c35dd34be3cea000117948f","study_id":"6197b3f67c2b5cd3b6d9596a","session_id":"619c00425f36156f9bae165f","condition":"contingent","relevant_dimensions":["antennae","pattern"],"bee_group":{"antennae":"B","wings":"X","pattern":"S","legs":"X"},"action":"avoid","summary":"bad-avoid","bonus":0.8400000000000006},{"rt":994,"stimulus":"\n                    <p><b>Action: <em>avoid</em></b></p>\n                    <p>This is the bee that you just saw.</p>\n                    <img src=\"bees-with-color/bee-A2SM.svg\" width=\"200\">\n                    <p><br>Your bonus pay is unchanged, and remains at $0.60.</p>\n            ","response":0,"trial_type":"html-button-response","trial_index":16,"time_elapsed":293176,"internal_node_id":"0.0-4.0-1.4","subject_id":"5c35dd34be3cea000117948f","study_id":"6197b3f67c2b5cd3b6d9596a","session_id":"619c00425f36156f9bae165f","condition":"contingent","relevant_dimensions":["antennae","pattern"],"bee_group":{"antennae":"B","wings":"X","pattern":"S","legs":"X"},"bonus":0.8400000000000006},{"rt":1169,"stimulus":"bees-with-color/bee-A1SM.svg","response":1,"trial_type":"image-button-response","trial_index":17,"time_elapsed":294345,"internal_node_id":"0.0-4.0-0.5","subject_id":"5c35dd34be3cea000117948f","study_id":"6197b3f67c2b5cd3b6d9596a","session_id":"619c00425f36156f9bae165f","condition":"contingent","relevant_dimensions":["antennae","pattern"],"bee_group":{"antennae":"B","wings":"X","pattern":"S","legs":"X"},"action":"avoid","summary":"bad-avoid","bonus":0.8400000000000006},{"rt":638,"stimulus":"\n                    <p><b>Action: <em>avoid</em></b></p>\n                    <p>This is the bee that you just saw.</p>\n                    <img src=\"bees-with-color/bee-A1SM.svg\" width=\"200\">\n                    <p><br>Your bonus pay is unchanged, and remains at $0.60.</p>\n            ","response":0,"trial_type":"html-button-response","trial_index":18,"time_elapsed":294984,"internal_node_id":"0.0-4.0-1.5","subject_id":"5c35dd34be3cea000117948f","study_id":"6197b3f67c2b5cd3b6d9596a","session_id":"619c00425f36156f9bae165f","condition":"contingent","relevant_dimensions":["antennae","pattern"],"bee_group":{"antennae":"B","wings":"X","pattern":"S","legs":"X"},"bonus":0.8400000000000006},{"rt":1576,"stimulus":"bees-with-color/bee-B1SM.svg","response":1,"trial_type":"image-button-response","trial_index":19,"time_elapsed":296561,"internal_node_id":"0.0-4.0-0.6","subject_id":"5c35dd34be3cea000117948f","study_id":"6197b3f67c2b5cd3b6d9596a","session_id":"619c00425f36156f9bae165f","condition":"contingent","relevant_dimensions":["antennae","pattern"],"bee_group":{"antennae":"B","wings":"X","pattern":"S","legs":"X"},"action":"avoid","summary":"good-avoid","bonus":0.8400000000000006},{"rt":533,"stimulus":"\n                    <p><b>Action: <em>avoid</em></b></p>\n                    <p>This is the bee that you just saw.</p>\n                    <img src=\"bees-with-color/bee-B1SM.svg\" width=\"200\">\n                    <p><br>Your bonus pay is unchanged, and remains at $0.60.</p>\n            ","response":0,"trial_type":"html-button-response","trial_index":20,"time_elapsed":297097,"internal_node_id":"0.0-4.0-1.6","subject_id":"5c35dd34be3cea000117948f","study_id":"6197b3f67c2b5cd3b6d9596a","session_id":"619c00425f36156f9bae165f","condition":"contingent","relevant_dimensions":["antennae","pattern"],"bee_group":{"antennae":"B","wings":"X","pattern":"S","legs":"X"},"bonus":0.8400000000000006},{"rt":1110,"stimulus":"bees-with-color/bee-A1DF.svg","response":0,"trial_type":"image-button-response","trial_index":21,"time_elapsed":298207,"internal_node_id":"0.0-4.0-0.7","subject_id":"5c35dd34be3cea000117948f","study_id":"6197b3f67c2b5cd3b6d9596a","session_id":"619c00425f36156f9bae165f","condition":"contingent","relevant_dimensions":["antennae","pattern"],"bee_group":{"antennae":"B","wings":"X","pattern":"S","legs":"X"},"action":"harvest","summary":"good-harvest","bonus":0.8400000000000006},{"rt":1633,"stimulus":"\n                    <p><b>Action: <em>harvest</em></b></p>\n                    <p>This is the bee that you just saw.</p>\n                    <img src=\"bees-with-color/bee-A1DF.svg\" width=\"200\">\n                    <p><span class=\"greenText\"><b>Successful harvest!</b></span><br>Your pay has increased by $0.02. Your bonus pay is now $0.62.</p>\n            ","response":0,"trial_type":"html-button-response","trial_index":22,"time_elapsed":299842,"internal_node_id":"0.0-4.0-1.7","subject_id":"5c35dd34be3cea000117948f","study_id":"6197b3f67c2b5cd3b6d9596a","session_id":"619c00425f36156f9bae165f","condition":"contingent","relevant_dimensions":["antennae","pattern"],"bee_group":{"antennae":"B","wings":"X","pattern":"S","legs":"X"},"bonus":0.8400000000000006},{"rt":1040,"stimulus":"bees-with-color/bee-B1SF.svg","response":0,"trial_type":"image-button-response","trial_index":23,"time_elapsed":300882,"internal_node_id":"0.0-4.0-0.8","subject_id":"5c35dd34be3cea000117948f","study_id":"6197b3f67c2b5cd3b6d9596a","session_id":"619c00425f36156f9bae165f","condition":"contingent","relevant_dimensions":["antennae","pattern"],"bee_group":{"antennae":"B","wings":"X","pattern":"S","legs":"X"},"action":"harvest","summary":"bad-harvest","bonus":0.8400000000000006},{"rt":7060,"stimulus":"\n                    <p><b>Action: <em>harvest</em></b></p>\n                    <p>This is the bee that you just saw.</p>\n                    <img src=\"bees-with-color/bee-B1SF.svg\" width=\"200\">\n                    <p><span class=\"redText\">Bad choice, the bee was angry.</span><br><b>You have been stung!</b><br>Your pay has been decreased by $0.10. Your bonus pay is now $0.52.</p>\n            ","response":0,"trial_type":"html-button-response","trial_index":24,"time_elapsed":307944,"internal_node_id":"0.0-4.0-1.8","subject_id":"5c35dd34be3cea000117948f","study_id":"6197b3f67c2b5cd3b6d9596a","session_id":"619c00425f36156f9bae165f","condition":"contingent","relevant_dimensions":["antennae","pattern"],"bee_group":{"antennae":"B","wings":"X","pattern":"S","legs":"X"},"bonus":0.8400000000000006},{"rt":2536,"stimulus":"bees-with-color/bee-A2DM.svg","response":1,"trial_type":"image-button-response","trial_index":25,"time_elapsed":310481,"internal_node_id":"0.0-4.0-0.9","subject_id":"5c35dd34be3cea000117948f","study_id":"6197b3f67c2b5cd3b6d9596a","session_id":"619c00425f36156f9bae165f","condition":"contingent","relevant_dimensions":["antennae","pattern"],"bee_group":{"antennae":"B","wings":"X","pattern":"S","legs":"X"},"action":"avoid","summary":"bad-avoid","bonus":0.8400000000000006},{"rt":791,"stimulus":"\n                    <p><b>Action: <em>avoid</em></b></p>\n                    <p>This is the bee that you just saw.</p>\n                    <img src=\"bees-with-color/bee-A2DM.svg\" width=\"200\">\n                    <p><br>Your bonus pay is unchanged, and remains at $0.52.</p>\n            ","response":0,"trial_type":"html-button-response","trial_index":26,"time_elapsed":311273,"internal_node_id":"0.0-4.0-1.9","subject_id":"5c35dd34be3cea000117948f","study_id":"6197b3f67c2b5cd3b6d9596a","session_id":"619c00425f36156f9bae165f","condition":"contingent","relevant_dimensions":["antennae","pattern"],"bee_group":{"antennae":"B","wings":"X","pattern":"S","legs":"X"},"bonus":0.8400000000000006},{"rt":3322,"stimulus":"bees-with-color/bee-B1DM.svg","response":1,"trial_type":"image-button-response","trial_index":27,"time_elapsed":314597,"internal_node_id":"0.0-4.0-0.10","subject_id":"5c35dd34be3cea000117948f","study_id":"6197b3f67c2b5cd3b6d9596a","session_id":"619c00425f36156f9bae165f","condition":"contingent","relevant_dimensions":["antennae","pattern"],"bee_group":{"antennae":"B","wings":"X","pattern":"S","legs":"X"},"action":"avoid","summary":"bad-avoid","bonus":0.8400000000000006},{"rt":905,"stimulus":"\n                    <p><b>Action: <em>avoid</em></b></p>\n                    <p>This is the bee that you just saw.</p>\n                    <img src=\"bees-with-color/bee-B1DM.svg\" width=\"200\">\n                    <p><br>Your bonus pay is unchanged, and remains at $0.52.</p>\n            ","response":0,"trial_type":"html-button-response","trial_index":28,"time_elapsed":315503,"internal_node_id":"0.0-4.0-1.10","subject_id":"5c35dd34be3cea000117948f","study_id":"6197b3f67c2b5cd3b6d9596a","session_id":"619c00425f36156f9bae165f","condition":"contingent","relevant_dimensions":["antennae","pattern"],"bee_group":{"antennae":"B","wings":"X","pattern":"S","legs":"X"},"bonus":0.8400000000000006},{"rt":1376,"stimulus":"bees-with-color/bee-A1DM.svg","response":1,"trial_type":"image-button-response","trial_index":29,"time_elapsed":316879,"internal_node_id":"0.0-4.0-0.11","subject_id":"5c35dd34be3cea000117948f","study_id":"6197b3f67c2b5cd3b6d9596a","session_id":"619c00425f36156f9bae165f","condition":"contingent","relevant_dimensions":["antennae","pattern"],"bee_group":{"antennae":"B","wings":"X","pattern":"S","legs":"X"},"action":"avoid","summary":"bad-avoid","bonus":0.8400000000000006},{"rt":670,"stimulus":"\n                    <p><b>Action: <em>avoid</em></b></p>\n                    <p>This is the bee that you just saw.</p>\n                    <img src=\"bees-with-color/bee-A1DM.svg\" width=\"200\">\n                    <p><br>Your bonus pay is unchanged, and remains at $0.52.</p>\n            ","response":0,"trial_type":"html-button-response","trial_index":30,"time_elapsed":317552,"internal_node_id":"0.0-4.0-1.11","subject_id":"5c35dd34be3cea000117948f","study_id":"6197b3f67c2b5cd3b6d9596a","session_id":"619c00425f36156f9bae165f","condition":"contingent","relevant_dimensions":["antennae","pattern"],"bee_group":{"antennae":"B","wings":"X","pattern":"S","legs":"X"},"bonus":0.8400000000000006},{"rt":2370,"stimulus":"bees-with-color/bee-B2SF.svg","response":0,"trial_type":"image-button-response","trial_index":31,"time_elapsed":319923,"internal_node_id":"0.0-4.0-0.12","subject_id":"5c35dd34be3cea000117948f","study_id":"6197b3f67c2b5cd3b6d9596a","session_id":"619c00425f36156f9bae165f","condition":"contingent","relevant_dimensions":["antennae","pattern"],"bee_group":{"antennae":"B","wings":"X","pattern":"S","legs":"X"},"action":"harvest","summary":"bad-harvest","bonus":0.8400000000000006},{"rt":3054,"stimulus":"\n                    <p><b>Action: <em>harvest</em></b></p>\n                    <p>This is the bee that you just saw.</p>\n                    <img src=\"bees-with-color/bee-B2SF.svg\" width=\"200\">\n                    <p><span class=\"redText\">Bad choice, the bee was angry.</span><br><b>You have been stung!</b><br>Your pay has been decreased by $0.10. Your bonus pay is now $0.42.</p>\n            ","response":0,"trial_type":"html-button-response","trial_index":32,"time_elapsed":322979,"internal_node_id":"0.0-4.0-1.12","subject_id":"5c35dd34be3cea000117948f","study_id":"6197b3f67c2b5cd3b6d9596a","session_id":"619c00425f36156f9bae165f","condition":"contingent","relevant_dimensions":["antennae","pattern"],"bee_group":{"antennae":"B","wings":"X","pattern":"S","legs":"X"},"bonus":0.8400000000000006},{"rt":10398,"stimulus":"bees-with-color/bee-A2DF.svg","response":0,"trial_type":"image-button-response","trial_index":33,"time_elapsed":333378,"internal_node_id":"0.0-4.0-0.13","subject_id":"5c35dd34be3cea000117948f","study_id":"6197b3f67c2b5cd3b6d9596a","session_id":"619c00425f36156f9bae165f","condition":"contingent","relevant_dimensions":["antennae","pattern"],"bee_group":{"antennae":"B","wings":"X","pattern":"S","legs":"X"},"action":"harvest","summary":"good-harvest","bonus":0.8400000000000006},{"rt":3404,"stimulus":"\n                    <p><b>Action: <em>harvest</em></b></p>\n                    <p>This is the bee that you just saw.</p>\n                    <img src=\"bees-with-color/bee-A2DF.svg\" width=\"200\">\n                    <p><span class=\"greenText\"><b>Successful harvest!</b></span><br>Your pay has increased by $0.02. Your bonus pay is now $0.44.</p>\n            ","response":0,"trial_type":"html-button-response","trial_index":34,"time_elapsed":336784,"internal_node_id":"0.0-4.0-1.13","subject_id":"5c35dd34be3cea000117948f","study_id":"6197b3f67c2b5cd3b6d9596a","session_id":"619c00425f36156f9bae165f","condition":"contingent","relevant_dimensions":["antennae","pattern"],"bee_group":{"antennae":"B","wings":"X","pattern":"S","legs":"X"},"bonus":0.8400000000000006},{"rt":4022,"stimulus":"bees-with-color/bee-B1DF.svg","response":0,"trial_type":"image-button-response","trial_index":35,"time_elapsed":340806,"internal_node_id":"0.0-4.0-0.14","subject_id":"5c35dd34be3cea000117948f","study_id":"6197b3f67c2b5cd3b6d9596a","session_id":"619c00425f36156f9bae165f","condition":"contingent","relevant_dimensions":["antennae","pattern"],"bee_group":{"antennae":"B","wings":"X","pattern":"S","legs":"X"},"action":"harvest","summary":"good-harvest","bonus":0.8400000000000006},{"rt":1998,"stimulus":"\n                    <p><b>Action: <em>harvest</em></b></p>\n                    <p>This is the bee that you just saw.</p>\n                    <img src=\"bees-with-color/bee-B1DF.svg\" width=\"200\">\n                    <p><span class=\"greenText\"><b>Successful harvest!</b></span><br>Your pay has increased by $0.02. Your bonus pay is now $0.46.</p>\n            ","response":0,"trial_type":"html-button-response","trial_index":36,"time_elapsed":342805,"internal_node_id":"0.0-4.0-1.14","subject_id":"5c35dd34be3cea000117948f","study_id":"6197b3f67c2b5cd3b6d9596a","session_id":"619c00425f36156f9bae165f","condition":"contingent","relevant_dimensions":["antennae","pattern"],"bee_group":{"antennae":"B","wings":"X","pattern":"S","legs":"X"},"bonus":0.8400000000000006},{"rt":8137,"stimulus":"bees-with-color/bee-B2DM.svg","response":1,"trial_type":"image-button-response","trial_index":37,"time_elapsed":350943,"internal_node_id":"0.0-4.0-0.15","subject_id":"5c35dd34be3cea000117948f","study_id":"6197b3f67c2b5cd3b6d9596a","session_id":"619c00425f36156f9bae165f","condition":"contingent","relevant_dimensions":["antennae","pattern"],"bee_group":{"antennae":"B","wings":"X","pattern":"S","legs":"X"},"action":"avoid","summary":"bad-avoid","bonus":0.8400000000000006},{"rt":1143,"stimulus":"\n                    <p><b>Action: <em>avoid</em></b></p>\n                    <p>This is the bee that you just saw.</p>\n                    <img src=\"bees-with-color/bee-B2DM.svg\" width=\"200\">\n                    <p><br>Your bonus pay is unchanged, and remains at $0.46.</p>\n            ","response":0,"trial_type":"html-button-response","trial_index":38,"time_elapsed":352088,"internal_node_id":"0.0-4.0-1.15","subject_id":"5c35dd34be3cea000117948f","study_id":"6197b3f67c2b5cd3b6d9596a","session_id":"619c00425f36156f9bae165f","condition":"contingent","relevant_dimensions":["antennae","pattern"],"bee_group":{"antennae":"B","wings":"X","pattern":"S","legs":"X"},"bonus":0.8400000000000006},{"rt":912,"stimulus":"bees-with-color/bee-A1DF.svg","response":0,"trial_type":"image-button-response","trial_index":39,"time_elapsed":353001,"internal_node_id":"0.0-4.0-0.16","subject_id":"5c35dd34be3cea000117948f","study_id":"6197b3f67c2b5cd3b6d9596a","session_id":"619c00425f36156f9bae165f","condition":"contingent","relevant_dimensions":["antennae","pattern"],"bee_group":{"antennae":"B","wings":"X","pattern":"S","legs":"X"},"action":"harvest","summary":"good-harvest","bonus":0.8400000000000006},{"rt":3808,"stimulus":"\n                    <p><b>Action: <em>harvest</em></b></p>\n                    <p>This is the bee that you just saw.</p>\n                    <img src=\"bees-with-color/bee-A1DF.svg\" width=\"200\">\n                    <p><span class=\"greenText\"><b>Successful harvest!</b></span><br>Your pay has increased by $0.02. Your bonus pay is now $0.48.</p>\n            ","response":0,"trial_type":"html-button-response","trial_index":40,"time_elapsed":356811,"internal_node_id":"0.0-4.0-1.16","subject_id":"5c35dd34be3cea000117948f","study_id":"6197b3f67c2b5cd3b6d9596a","session_id":"619c00425f36156f9bae165f","condition":"contingent","relevant_dimensions":["antennae","pattern"],"bee_group":{"antennae":"B","wings":"X","pattern":"S","legs":"X"},"bonus":0.8400000000000006},{"rt":1030,"stimulus":"bees-with-color/bee-B2DF.svg","response":0,"trial_type":"image-button-response","trial_index":41,"time_elapsed":357842,"internal_node_id":"0.0-4.0-0.17","subject_id":"5c35dd34be3cea000117948f","study_id":"6197b3f67c2b5cd3b6d9596a","session_id":"619c00425f36156f9bae165f","condition":"contingent","relevant_dimensions":["antennae","pattern"],"bee_group":{"antennae":"B","wings":"X","pattern":"S","legs":"X"},"action":"harvest","summary":"good-harvest","bonus":0.8400000000000006},{"rt":776,"stimulus":"\n                    <p><b>Action: <em>harvest</em></b></p>\n                    <p>This is the bee that you just saw.</p>\n                    <img src=\"bees-with-color/bee-B2DF.svg\" width=\"200\">\n                    <p><span class=\"greenText\"><b>Successful harvest!</b></span><br>Your pay has increased by $0.02. Your bonus pay is now $0.50.</p>\n            ","response":0,"trial_type":"html-button-response","trial_index":42,"time_elapsed":358618,"internal_node_id":"0.0-4.0-1.17","subject_id":"5c35dd34be3cea000117948f","study_id":"6197b3f67c2b5cd3b6d9596a","session_id":"619c00425f36156f9bae165f","condition":"contingent","relevant_dimensions":["antennae","pattern"],"bee_group":{"antennae":"B","wings":"X","pattern":"S","legs":"X"},"bonus":0.8400000000000006},{"rt":1107,"stimulus":"bees-with-color/bee-B1DM.svg","response":0,"trial_type":"image-button-response","trial_index":43,"time_elapsed":359727,"internal_node_id":"0.0-4.0-0.18","subject_id":"5c35dd34be3cea000117948f","study_id":"6197b3f67c2b5cd3b6d9596a","session_id":"619c00425f36156f9bae165f","condition":"contingent","relevant_dimensions":["antennae","pattern"],"bee_group":{"antennae":"B","wings":"X","pattern":"S","legs":"X"},"action":"harvest","summary":"good-harvest","bonus":0.8400000000000006},{"rt":784,"stimulus":"\n                    <p><b>Action: <em>harvest</em></b></p>\n                    <p>This is the bee that you just saw.</p>\n                    <img src=\"bees-with-color/bee-B1DM.svg\" width=\"200\">\n                    <p><span class=\"greenText\"><b>Successful harvest!</b></span><br>Your pay has increased by $0.02. Your bonus pay is now $0.52.</p>\n            ","response":0,"trial_type":"html-button-response","trial_index":44,"time_elapsed":360513,"internal_node_id":"0.0-4.0-1.18","subject_id":"5c35dd34be3cea000117948f","study_id":"6197b3f67c2b5cd3b6d9596a","session_id":"619c00425f36156f9bae165f","condition":"contingent","relevant_dimensions":["antennae","pattern"],"bee_group":{"antennae":"B","wings":"X","pattern":"S","legs":"X"},"bonus":0.8400000000000006},{"rt":934,"stimulus":"bees-with-color/bee-A2SF.svg","response":1,"trial_type":"image-button-response","trial_index":45,"time_elapsed":361447,"internal_node_id":"0.0-4.0-0.19","subject_id":"5c35dd34be3cea000117948f","study_id":"6197b3f67c2b5cd3b6d9596a","session_id":"619c00425f36156f9bae165f","condition":"contingent","relevant_dimensions":["antennae","pattern"],"bee_group":{"antennae":"B","wings":"X","pattern":"S","legs":"X"},"action":"avoid","summary":"bad-avoid","bonus":0.8400000000000006},{"rt":906,"stimulus":"\n                    <p><b>Action: <em>avoid</em></b></p>\n                    <p>This is the bee that you just saw.</p>\n                    <img src=\"bees-with-color/bee-A2SF.svg\" width=\"200\">\n                    <p><br>Your bonus pay is unchanged, and remains at $0.52.</p>\n            ","response":0,"trial_type":"html-button-response","trial_index":46,"time_elapsed":362353,"internal_node_id":"0.0-4.0-1.19","subject_id":"5c35dd34be3cea000117948f","study_id":"6197b3f67c2b5cd3b6d9596a","session_id":"619c00425f36156f9bae165f","condition":"contingent","relevant_dimensions":["antennae","pattern"],"bee_group":{"antennae":"B","wings":"X","pattern":"S","legs":"X"},"bonus":0.8400000000000006},{"rt":1044,"stimulus":"bees-with-color/bee-B1SF.svg","response":1,"trial_type":"image-button-response","trial_index":47,"time_elapsed":363399,"internal_node_id":"0.0-4.0-0.20","subject_id":"5c35dd34be3cea000117948f","study_id":"6197b3f67c2b5cd3b6d9596a","session_id":"619c00425f36156f9bae165f","condition":"contingent","relevant_dimensions":["antennae","pattern"],"bee_group":{"antennae":"B","wings":"X","pattern":"S","legs":"X"},"action":"avoid","summary":"good-avoid","bonus":0.8400000000000006},{"rt":1009,"stimulus":"\n                    <p><b>Action: <em>avoid</em></b></p>\n                    <p>This is the bee that you just saw.</p>\n                    <img src=\"bees-with-color/bee-B1SF.svg\" width=\"200\">\n                    <p><br>Your bonus pay is unchanged, and remains at $0.52.</p>\n            ","response":0,"trial_type":"html-button-response","trial_index":48,"time_elapsed":364408,"internal_node_id":"0.0-4.0-1.20","subject_id":"5c35dd34be3cea000117948f","study_id":"6197b3f67c2b5cd3b6d9596a","session_id":"619c00425f36156f9bae165f","condition":"contingent","relevant_dimensions":["antennae","pattern"],"bee_group":{"antennae":"B","wings":"X","pattern":"S","legs":"X"},"bonus":0.8400000000000006},{"rt":1104,"stimulus":"bees-with-color/bee-B2SM.svg","response":1,"trial_type":"image-button-response","trial_index":49,"time_elapsed":365512,"internal_node_id":"0.0-4.0-0.21","subject_id":"5c35dd34be3cea000117948f","study_id":"6197b3f67c2b5cd3b6d9596a","session_id":"619c00425f36156f9bae165f","condition":"contingent","relevant_dimensions":["antennae","pattern"],"bee_group":{"antennae":"B","wings":"X","pattern":"S","legs":"X"},"action":"avoid","summary":"good-avoid","bonus":0.8400000000000006},{"rt":495,"stimulus":"\n                    <p><b>Action: <em>avoid</em></b></p>\n                    <p>This is the bee that you just saw.</p>\n                    <img src=\"bees-with-color/bee-B2SM.svg\" width=\"200\">\n                    <p><br>Your bonus pay is unchanged, and remains at $0.52.</p>\n            ","response":0,"trial_type":"html-button-response","trial_index":50,"time_elapsed":366009,"internal_node_id":"0.0-4.0-1.21","subject_id":"5c35dd34be3cea000117948f","study_id":"6197b3f67c2b5cd3b6d9596a","session_id":"619c00425f36156f9bae165f","condition":"contingent","relevant_dimensions":["antennae","pattern"],"bee_group":{"antennae":"B","wings":"X","pattern":"S","legs":"X"},"bonus":0.8400000000000006},{"rt":795,"stimulus":"bees-with-color/bee-A2SM.svg","response":1,"trial_type":"image-button-response","trial_index":51,"time_elapsed":366805,"internal_node_id":"0.0-4.0-0.22","subject_id":"5c35dd34be3cea000117948f","study_id":"6197b3f67c2b5cd3b6d9596a","session_id":"619c00425f36156f9bae165f","condition":"contingent","relevant_dimensions":["antennae","pattern"],"bee_group":{"antennae":"B","wings":"X","pattern":"S","legs":"X"},"action":"avoid","summary":"bad-avoid","bonus":0.8400000000000006},{"rt":442,"stimulus":"\n                    <p><b>Action: <em>avoid</em></b></p>\n                    <p>This is the bee that you just saw.</p>\n                    <img src=\"bees-with-color/bee-A2SM.svg\" width=\"200\">\n                    <p><br>Your bonus pay is unchanged, and remains at $0.52.</p>\n            ","response":0,"trial_type":"html-button-response","trial_index":52,"time_elapsed":367249,"internal_node_id":"0.0-4.0-1.22","subject_id":"5c35dd34be3cea000117948f","study_id":"6197b3f67c2b5cd3b6d9596a","session_id":"619c00425f36156f9bae165f","condition":"contingent","relevant_dimensions":["antennae","pattern"],"bee_group":{"antennae":"B","wings":"X","pattern":"S","legs":"X"},"bonus":0.8400000000000006},{"rt":768,"stimulus":"bees-with-color/bee-A2DF.svg","response":0,"trial_type":"image-button-response","trial_index":53,"time_elapsed":368017,"internal_node_id":"0.0-4.0-0.23","subject_id":"5c35dd34be3cea000117948f","study_id":"6197b3f67c2b5cd3b6d9596a","session_id":"619c00425f36156f9bae165f","condition":"contingent","relevant_dimensions":["antennae","pattern"],"bee_group":{"antennae":"B","wings":"X","pattern":"S","legs":"X"},"action":"harvest","summary":"good-harvest","bonus":0.8400000000000006},{"rt":732,"stimulus":"\n                    <p><b>Action: <em>harvest</em></b></p>\n                    <p>This is the bee that you just saw.</p>\n                    <img src=\"bees-with-color/bee-A2DF.svg\" width=\"200\">\n                    <p><span class=\"greenText\"><b>Successful harvest!</b></span><br>Your pay has increased by $0.02. Your bonus pay is now $0.54.</p>\n            ","response":0,"trial_type":"html-button-response","trial_index":54,"time_elapsed":368751,"internal_node_id":"0.0-4.0-1.23","subject_id":"5c35dd34be3cea000117948f","study_id":"6197b3f67c2b5cd3b6d9596a","session_id":"619c00425f36156f9bae165f","condition":"contingent","relevant_dimensions":["antennae","pattern"],"bee_group":{"antennae":"B","wings":"X","pattern":"S","legs":"X"},"bonus":0.8400000000000006},{"rt":934,"stimulus":"bees-with-color/bee-B1DF.svg","response":0,"trial_type":"image-button-response","trial_index":55,"time_elapsed":369685,"internal_node_id":"0.0-4.0-0.24","subject_id":"5c35dd34be3cea000117948f","study_id":"6197b3f67c2b5cd3b6d9596a","session_id":"619c00425f36156f9bae165f","condition":"contingent","relevant_dimensions":["antennae","pattern"],"bee_group":{"antennae":"B","wings":"X","pattern":"S","legs":"X"},"action":"harvest","summary":"good-harvest","bonus":0.8400000000000006},{"rt":880,"stimulus":"\n                    <p><b>Action: <em>harvest</em></b></p>\n                    <p>This is the bee that you just saw.</p>\n                    <img src=\"bees-with-color/bee-B1DF.svg\" width=\"200\">\n                    <p><span class=\"greenText\"><b>Successful harvest!</b></span><br>Your pay has increased by $0.02. Your bonus pay is now $0.56.</p>\n            ","response":0,"trial_type":"html-button-response","trial_index":56,"time_elapsed":370568,"internal_node_id":"0.0-4.0-1.24","subject_id":"5c35dd34be3cea000117948f","study_id":"6197b3f67c2b5cd3b6d9596a","session_id":"619c00425f36156f9bae165f","condition":"contingent","relevant_dimensions":["antennae","pattern"],"bee_group":{"antennae":"B","wings":"X","pattern":"S","legs":"X"},"bonus":0.8400000000000006},{"rt":578,"stimulus":"bees-with-color/bee-B2DM.svg","response":0,"trial_type":"image-button-response","trial_index":57,"time_elapsed":371146,"internal_node_id":"0.0-4.0-0.25","subject_id":"5c35dd34be3cea000117948f","study_id":"6197b3f67c2b5cd3b6d9596a","session_id":"619c00425f36156f9bae165f","condition":"contingent","relevant_dimensions":["antennae","pattern"],"bee_group":{"antennae":"B","wings":"X","pattern":"S","legs":"X"},"action":"harvest","summary":"good-harvest","bonus":0.8400000000000006},{"rt":749,"stimulus":"\n                    <p><b>Action: <em>harvest</em></b></p>\n                    <p>This is the bee that you just saw.</p>\n                    <img src=\"bees-with-color/bee-B2DM.svg\" width=\"200\">\n                    <p><span class=\"greenText\"><b>Successful harvest!</b></span><br>Your pay has increased by $0.02. Your bonus pay is now $0.58.</p>\n            ","response":0,"trial_type":"html-button-response","trial_index":58,"time_elapsed":371897,"internal_node_id":"0.0-4.0-1.25","subject_id":"5c35dd34be3cea000117948f","study_id":"6197b3f67c2b5cd3b6d9596a","session_id":"619c00425f36156f9bae165f","condition":"contingent","relevant_dimensions":["antennae","pattern"],"bee_group":{"antennae":"B","wings":"X","pattern":"S","legs":"X"},"bonus":0.8400000000000006},{"rt":835,"stimulus":"bees-with-color/bee-A1SM.svg","response":1,"trial_type":"image-button-response","trial_index":59,"time_elapsed":372731,"internal_node_id":"0.0-4.0-0.26","subject_id":"5c35dd34be3cea000117948f","study_id":"6197b3f67c2b5cd3b6d9596a","session_id":"619c00425f36156f9bae165f","condition":"contingent","relevant_dimensions":["antennae","pattern"],"bee_group":{"antennae":"B","wings":"X","pattern":"S","legs":"X"},"action":"avoid","summary":"bad-avoid","bonus":0.8400000000000006},{"rt":645,"stimulus":"\n                    <p><b>Action: <em>avoid</em></b></p>\n                    <p>This is the bee that you just saw.</p>\n                    <img src=\"bees-with-color/bee-A1SM.svg\" width=\"200\">\n                    <p><br>Your bonus pay is unchanged, and remains at $0.58.</p>\n            ","response":0,"trial_type":"html-button-response","trial_index":60,"time_elapsed":373378,"internal_node_id":"0.0-4.0-1.26","subject_id":"5c35dd34be3cea000117948f","study_id":"6197b3f67c2b5cd3b6d9596a","session_id":"619c00425f36156f9bae165f","condition":"contingent","relevant_dimensions":["antennae","pattern"],"bee_group":{"antennae":"B","wings":"X","pattern":"S","legs":"X"},"bonus":0.8400000000000006},{"rt":910,"stimulus":"bees-with-color/bee-A1DM.svg","response":0,"trial_type":"image-button-response","trial_index":61,"time_elapsed":374288,"internal_node_id":"0.0-4.0-0.27","subject_id":"5c35dd34be3cea000117948f","study_id":"6197b3f67c2b5cd3b6d9596a","session_id":"619c00425f36156f9bae165f","condition":"contingent","relevant_dimensions":["antennae","pattern"],"bee_group":{"antennae":"B","wings":"X","pattern":"S","legs":"X"},"action":"harvest","summary":"good-harvest","bonus":0.8400000000000006},{"rt":826,"stimulus":"\n                    <p><b>Action: <em>harvest</em></b></p>\n                    <p>This is the bee that you just saw.</p>\n                    <img src=\"bees-with-color/bee-A1DM.svg\" width=\"200\">\n                    <p><span class=\"greenText\"><b>Successful harvest!</b></span><br>Your pay has increased by $0.02. Your bonus pay is now $0.60.</p>\n            ","response":0,"trial_type":"html-button-response","trial_index":62,"time_elapsed":375117,"internal_node_id":"0.0-4.0-1.27","subject_id":"5c35dd34be3cea000117948f","study_id":"6197b3f67c2b5cd3b6d9596a","session_id":"619c00425f36156f9bae165f","condition":"contingent","relevant_dimensions":["antennae","pattern"],"bee_group":{"antennae":"B","wings":"X","pattern":"S","legs":"X"},"bonus":0.8400000000000006},{"rt":1534,"stimulus":"bees-with-color/bee-B1SM.svg","response":1,"trial_type":"image-button-response","trial_index":63,"time_elapsed":376652,"internal_node_id":"0.0-4.0-0.28","subject_id":"5c35dd34be3cea000117948f","study_id":"6197b3f67c2b5cd3b6d9596a","session_id":"619c00425f36156f9bae165f","condition":"contingent","relevant_dimensions":["antennae","pattern"],"bee_group":{"antennae":"B","wings":"X","pattern":"S","legs":"X"},"action":"avoid","summary":"good-avoid","bonus":0.8400000000000006},{"rt":572,"stimulus":"\n                    <p><b>Action: <em>avoid</em></b></p>\n                    <p>This is the bee that you just saw.</p>\n                    <img src=\"bees-with-color/bee-B1SM.svg\" width=\"200\">\n                    <p><br>Your bonus pay is unchanged, and remains at $0.60.</p>\n            ","response":0,"trial_type":"html-button-response","trial_index":64,"time_elapsed":377226,"internal_node_id":"0.0-4.0-1.28","subject_id":"5c35dd34be3cea000117948f","study_id":"6197b3f67c2b5cd3b6d9596a","session_id":"619c00425f36156f9bae165f","condition":"contingent","relevant_dimensions":["antennae","pattern"],"bee_group":{"antennae":"B","wings":"X","pattern":"S","legs":"X"},"bonus":0.8400000000000006},{"rt":831,"stimulus":"bees-with-color/bee-A2DM.svg","response":0,"trial_type":"image-button-response","trial_index":65,"time_elapsed":378059,"internal_node_id":"0.0-4.0-0.29","subject_id":"5c35dd34be3cea000117948f","study_id":"6197b3f67c2b5cd3b6d9596a","session_id":"619c00425f36156f9bae165f","condition":"contingent","relevant_dimensions":["antennae","pattern"],"bee_group":{"antennae":"B","wings":"X","pattern":"S","legs":"X"},"action":"harvest","summary":"good-harvest","bonus":0.8400000000000006},{"rt":1012,"stimulus":"\n                    <p><b>Action: <em>harvest</em></b></p>\n                    <p>This is the bee that you just saw.</p>\n                    <img src=\"bees-with-color/bee-A2DM.svg\" width=\"200\">\n                    <p><span class=\"greenText\"><b>Successful harvest!</b></span><br>Your pay has increased by $0.02. Your bonus pay is now $0.62.</p>\n            ","response":0,"trial_type":"html-button-response","trial_index":66,"time_elapsed":379073,"internal_node_id":"0.0-4.0-1.29","subject_id":"5c35dd34be3cea000117948f","study_id":"6197b3f67c2b5cd3b6d9596a","session_id":"619c00425f36156f9bae165f","condition":"contingent","relevant_dimensions":["antennae","pattern"],"bee_group":{"antennae":"B","wings":"X","pattern":"S","legs":"X"},"bonus":0.8400000000000006},{"rt":1200,"stimulus":"bees-with-color/bee-A1SF.svg","response":1,"trial_type":"image-button-response","trial_index":67,"time_elapsed":380273,"internal_node_id":"0.0-4.0-0.30","subject_id":"5c35dd34be3cea000117948f","study_id":"6197b3f67c2b5cd3b6d9596a","session_id":"619c00425f36156f9bae165f","condition":"contingent","relevant_dimensions":["antennae","pattern"],"bee_group":{"antennae":"B","wings":"X","pattern":"S","legs":"X"},"action":"avoid","summary":"bad-avoid","bonus":0.8400000000000006},{"rt":572,"stimulus":"\n                    <p><b>Action: <em>avoid</em></b></p>\n                    <p>This is the bee that you just saw.</p>\n                    <img src=\"bees-with-color/bee-A1SF.svg\" width=\"200\">\n                    <p><br>Your bonus pay is unchanged, and remains at $0.62.</p>\n            ","response":0,"trial_type":"html-button-response","trial_index":68,"time_elapsed":380846,"internal_node_id":"0.0-4.0-1.30","subject_id":"5c35dd34be3cea000117948f","study_id":"6197b3f67c2b5cd3b6d9596a","session_id":"619c00425f36156f9bae165f","condition":"contingent","relevant_dimensions":["antennae","pattern"],"bee_group":{"antennae":"B","wings":"X","pattern":"S","legs":"X"},"bonus":0.8400000000000006},{"rt":847,"stimulus":"bees-with-color/bee-B2SF.svg","response":1,"trial_type":"image-button-response","trial_index":69,"time_elapsed":381693,"internal_node_id":"0.0-4.0-0.31","subject_id":"5c35dd34be3cea000117948f","study_id":"6197b3f67c2b5cd3b6d9596a","session_id":"619c00425f36156f9bae165f","condition":"contingent","relevant_dimensions":["antennae","pattern"],"bee_group":{"antennae":"B","wings":"X","pattern":"S","legs":"X"},"action":"avoid","summary":"good-avoid","bonus":0.8400000000000006},{"rt":675,"stimulus":"\n                    <p><b>Action: <em>avoid</em></b></p>\n                    <p>This is the bee that you just saw.</p>\n                    <img src=\"bees-with-color/bee-B2SF.svg\" width=\"200\">\n                    <p><br>Your bonus pay is unchanged, and remains at $0.62.</p>\n            ","response":0,"trial_type":"html-button-response","trial_index":70,"time_elapsed":382369,"internal_node_id":"0.0-4.0-1.31","subject_id":"5c35dd34be3cea000117948f","study_id":"6197b3f67c2b5cd3b6d9596a","session_id":"619c00425f36156f9bae165f","condition":"contingent","relevant_dimensions":["antennae","pattern"],"bee_group":{"antennae":"B","wings":"X","pattern":"S","legs":"X"},"bonus":0.8400000000000006},{"rt":682,"stimulus":"bees-with-color/bee-B1DM.svg","response":0,"trial_type":"image-button-response","trial_index":71,"time_elapsed":383051,"internal_node_id":"0.0-4.0-0.32","subject_id":"5c35dd34be3cea000117948f","study_id":"6197b3f67c2b5cd3b6d9596a","session_id":"619c00425f36156f9bae165f","condition":"contingent","relevant_dimensions":["antennae","pattern"],"bee_group":{"antennae":"B","wings":"X","pattern":"S","legs":"X"},"action":"harvest","summary":"good-harvest","bonus":0.8400000000000006},{"rt":945,"stimulus":"\n                    <p><b>Action: <em>harvest</em></b></p>\n                    <p>This is the bee that you just saw.</p>\n                    <img src=\"bees-with-color/bee-B1DM.svg\" width=\"200\">\n                    <p><span class=\"greenText\"><b>Successful harvest!</b></span><br>Your pay has increased by $0.02. Your bonus pay is now $0.64.</p>\n            ","response":0,"trial_type":"html-button-response","trial_index":72,"time_elapsed":383997,"internal_node_id":"0.0-4.0-1.32","subject_id":"5c35dd34be3cea000117948f","study_id":"6197b3f67c2b5cd3b6d9596a","session_id":"619c00425f36156f9bae165f","condition":"contingent","relevant_dimensions":["antennae","pattern"],"bee_group":{"antennae":"B","wings":"X","pattern":"S","legs":"X"},"bonus":0.8400000000000006},{"rt":793,"stimulus":"bees-with-color/bee-A1DM.svg","response":0,"trial_type":"image-button-response","trial_index":73,"time_elapsed":384792,"internal_node_id":"0.0-4.0-0.33","subject_id":"5c35dd34be3cea000117948f","study_id":"6197b3f67c2b5cd3b6d9596a","session_id":"619c00425f36156f9bae165f","condition":"contingent","relevant_dimensions":["antennae","pattern"],"bee_group":{"antennae":"B","wings":"X","pattern":"S","legs":"X"},"action":"harvest","summary":"good-harvest","bonus":0.8400000000000006},{"rt":580,"stimulus":"\n                    <p><b>Action: <em>harvest</em></b></p>\n                    <p>This is the bee that you just saw.</p>\n                    <img src=\"bees-with-color/bee-A1DM.svg\" width=\"200\">\n                    <p><span class=\"greenText\"><b>Successful harvest!</b></span><br>Your pay has increased by $0.02. Your bonus pay is now $0.66.</p>\n            ","response":0,"trial_type":"html-button-response","trial_index":74,"time_elapsed":385373,"internal_node_id":"0.0-4.0-1.33","subject_id":"5c35dd34be3cea000117948f","study_id":"6197b3f67c2b5cd3b6d9596a","session_id":"619c00425f36156f9bae165f","condition":"contingent","relevant_dimensions":["antennae","pattern"],"bee_group":{"antennae":"B","wings":"X","pattern":"S","legs":"X"},"bonus":0.8400000000000006},{"rt":597,"stimulus":"bees-with-color/bee-B2SM.svg","response":1,"trial_type":"image-button-response","trial_index":75,"time_elapsed":385970,"internal_node_id":"0.0-4.0-0.34","subject_id":"5c35dd34be3cea000117948f","study_id":"6197b3f67c2b5cd3b6d9596a","session_id":"619c00425f36156f9bae165f","condition":"contingent","relevant_dimensions":["antennae","pattern"],"bee_group":{"antennae":"B","wings":"X","pattern":"S","legs":"X"},"action":"avoid","summary":"good-avoid","bonus":0.8400000000000006},{"rt":666,"stimulus":"\n                    <p><b>Action: <em>avoid</em></b></p>\n                    <p>This is the bee that you just saw.</p>\n                    <img src=\"bees-with-color/bee-B2SM.svg\" width=\"200\">\n                    <p><br>Your bonus pay is unchanged, and remains at $0.66.</p>\n            ","response":0,"trial_type":"html-button-response","trial_index":76,"time_elapsed":386637,"internal_node_id":"0.0-4.0-1.34","subject_id":"5c35dd34be3cea000117948f","study_id":"6197b3f67c2b5cd3b6d9596a","session_id":"619c00425f36156f9bae165f","condition":"contingent","relevant_dimensions":["antennae","pattern"],"bee_group":{"antennae":"B","wings":"X","pattern":"S","legs":"X"},"bonus":0.8400000000000006},{"rt":909,"stimulus":"bees-with-color/bee-B2DF.svg","response":0,"trial_type":"image-button-response","trial_index":77,"time_elapsed":387546,"internal_node_id":"0.0-4.0-0.35","subject_id":"5c35dd34be3cea000117948f","study_id":"6197b3f67c2b5cd3b6d9596a","session_id":"619c00425f36156f9bae165f","condition":"contingent","relevant_dimensions":["antennae","pattern"],"bee_group":{"antennae":"B","wings":"X","pattern":"S","legs":"X"},"action":"harvest","summary":"good-harvest","bonus":0.8400000000000006},{"rt":1040,"stimulus":"\n                    <p><b>Action: <em>harvest</em></b></p>\n                    <p>This is the bee that you just saw.</p>\n                    <img src=\"bees-with-color/bee-B2DF.svg\" width=\"200\">\n                    <p><span class=\"greenText\"><b>Successful harvest!</b></span><br>Your pay has increased by $0.02. Your bonus pay is now $0.68.</p>\n            ","response":0,"trial_type":"html-button-response","trial_index":78,"time_elapsed":388587,"internal_node_id":"0.0-4.0-1.35","subject_id":"5c35dd34be3cea000117948f","study_id":"6197b3f67c2b5cd3b6d9596a","session_id":"619c00425f36156f9bae165f","condition":"contingent","relevant_dimensions":["antennae","pattern"],"bee_group":{"antennae":"B","wings":"X","pattern":"S","legs":"X"},"bonus":0.8400000000000006},{"rt":765,"stimulus":"bees-with-color/bee-B2DM.svg","response":0,"trial_type":"image-button-response","trial_index":79,"time_elapsed":389353,"internal_node_id":"0.0-4.0-0.36","subject_id":"5c35dd34be3cea000117948f","study_id":"6197b3f67c2b5cd3b6d9596a","session_id":"619c00425f36156f9bae165f","condition":"contingent","relevant_dimensions":["antennae","pattern"],"bee_group":{"antennae":"B","wings":"X","pattern":"S","legs":"X"},"action":"harvest","summary":"good-harvest","bonus":0.8400000000000006},{"rt":594,"stimulus":"\n                    <p><b>Action: <em>harvest</em></b></p>\n                    <p>This is the bee that you just saw.</p>\n                    <img src=\"bees-with-color/bee-B2DM.svg\" width=\"200\">\n                    <p><span class=\"greenText\"><b>Successful harvest!</b></span><br>Your pay has increased by $0.02. Your bonus pay is now $0.70.</p>\n            ","response":0,"trial_type":"html-button-response","trial_index":80,"time_elapsed":389949,"internal_node_id":"0.0-4.0-1.36","subject_id":"5c35dd34be3cea000117948f","study_id":"6197b3f67c2b5cd3b6d9596a","session_id":"619c00425f36156f9bae165f","condition":"contingent","relevant_dimensions":["antennae","pattern"],"bee_group":{"antennae":"B","wings":"X","pattern":"S","legs":"X"},"bonus":0.8400000000000006},{"rt":653,"stimulus":"bees-with-color/bee-B1SM.svg","response":1,"trial_type":"image-button-response","trial_index":81,"time_elapsed":390603,"internal_node_id":"0.0-4.0-0.37","subject_id":"5c35dd34be3cea000117948f","study_id":"6197b3f67c2b5cd3b6d9596a","session_id":"619c00425f36156f9bae165f","condition":"contingent","relevant_dimensions":["antennae","pattern"],"bee_group":{"antennae":"B","wings":"X","pattern":"S","legs":"X"},"action":"avoid","summary":"good-avoid","bonus":0.8400000000000006},{"rt":822,"stimulus":"\n                    <p><b>Action: <em>avoid</em></b></p>\n                    <p>This is the bee that you just saw.</p>\n                    <img src=\"bees-with-color/bee-B1SM.svg\" width=\"200\">\n                    <p><br>Your bonus pay is unchanged, and remains at $0.70.</p>\n            ","response":0,"trial_type":"html-button-response","trial_index":82,"time_elapsed":391427,"internal_node_id":"0.0-4.0-1.37","subject_id":"5c35dd34be3cea000117948f","study_id":"6197b3f67c2b5cd3b6d9596a","session_id":"619c00425f36156f9bae165f","condition":"contingent","relevant_dimensions":["antennae","pattern"],"bee_group":{"antennae":"B","wings":"X","pattern":"S","legs":"X"},"bonus":0.8400000000000006},{"rt":721,"stimulus":"bees-with-color/bee-A2SM.svg","response":1,"trial_type":"image-button-response","trial_index":83,"time_elapsed":392150,"internal_node_id":"0.0-4.0-0.38","subject_id":"5c35dd34be3cea000117948f","study_id":"6197b3f67c2b5cd3b6d9596a","session_id":"619c00425f36156f9bae165f","condition":"contingent","relevant_dimensions":["antennae","pattern"],"bee_group":{"antennae":"B","wings":"X","pattern":"S","legs":"X"},"action":"avoid","summary":"bad-avoid","bonus":0.8400000000000006},{"rt":410,"stimulus":"\n                    <p><b>Action: <em>avoid</em></b></p>\n                    <p>This is the bee that you just saw.</p>\n                    <img src=\"bees-with-color/bee-A2SM.svg\" width=\"200\">\n                    <p><br>Your bonus pay is unchanged, and remains at $0.70.</p>\n            ","response":0,"trial_type":"html-button-response","trial_index":84,"time_elapsed":392562,"internal_node_id":"0.0-4.0-1.38","subject_id":"5c35dd34be3cea000117948f","study_id":"6197b3f67c2b5cd3b6d9596a","session_id":"619c00425f36156f9bae165f","condition":"contingent","relevant_dimensions":["antennae","pattern"],"bee_group":{"antennae":"B","wings":"X","pattern":"S","legs":"X"},"bonus":0.8400000000000006},{"rt":703,"stimulus":"bees-with-color/bee-A2DF.svg","response":0,"trial_type":"image-button-response","trial_index":85,"time_elapsed":393266,"internal_node_id":"0.0-4.0-0.39","subject_id":"5c35dd34be3cea000117948f","study_id":"6197b3f67c2b5cd3b6d9596a","session_id":"619c00425f36156f9bae165f","condition":"contingent","relevant_dimensions":["antennae","pattern"],"bee_group":{"antennae":"B","wings":"X","pattern":"S","legs":"X"},"action":"harvest","summary":"good-harvest","bonus":0.8400000000000006},{"rt":832,"stimulus":"\n                    <p><b>Action: <em>harvest</em></b></p>\n                    <p>This is the bee that you just saw.</p>\n                    <img src=\"bees-with-color/bee-A2DF.svg\" width=\"200\">\n                    <p><span class=\"greenText\"><b>Successful harvest!</b></span><br>Your pay has increased by $0.02. Your bonus pay is now $0.72.</p>\n            ","response":0,"trial_type":"html-button-response","trial_index":86,"time_elapsed":394099,"internal_node_id":"0.0-4.0-1.39","subject_id":"5c35dd34be3cea000117948f","study_id":"6197b3f67c2b5cd3b6d9596a","session_id":"619c00425f36156f9bae165f","condition":"contingent","relevant_dimensions":["antennae","pattern"],"bee_group":{"antennae":"B","wings":"X","pattern":"S","legs":"X"},"bonus":0.8400000000000006},{"rt":687,"stimulus":"bees-with-color/bee-B1SF.svg","response":1,"trial_type":"image-button-response","trial_index":87,"time_elapsed":394789,"internal_node_id":"0.0-4.0-0.40","subject_id":"5c35dd34be3cea000117948f","study_id":"6197b3f67c2b5cd3b6d9596a","session_id":"619c00425f36156f9bae165f","condition":"contingent","relevant_dimensions":["antennae","pattern"],"bee_group":{"antennae":"B","wings":"X","pattern":"S","legs":"X"},"action":"avoid","summary":"good-avoid","bonus":0.8400000000000006},{"rt":786,"stimulus":"\n                    <p><b>Action: <em>avoid</em></b></p>\n                    <p>This is the bee that you just saw.</p>\n                    <img src=\"bees-with-color/bee-B1SF.svg\" width=\"200\">\n                    <p><br>Your bonus pay is unchanged, and remains at $0.72.</p>\n            ","response":0,"trial_type":"html-button-response","trial_index":88,"time_elapsed":395577,"internal_node_id":"0.0-4.0-1.40","subject_id":"5c35dd34be3cea000117948f","study_id":"6197b3f67c2b5cd3b6d9596a","session_id":"619c00425f36156f9bae165f","condition":"contingent","relevant_dimensions":["antennae","pattern"],"bee_group":{"antennae":"B","wings":"X","pattern":"S","legs":"X"},"bonus":0.8400000000000006},{"rt":681,"stimulus":"bees-with-color/bee-A1SM.svg","response":1,"trial_type":"image-button-response","trial_index":89,"time_elapsed":396258,"internal_node_id":"0.0-4.0-0.41","subject_id":"5c35dd34be3cea000117948f","study_id":"6197b3f67c2b5cd3b6d9596a","session_id":"619c00425f36156f9bae165f","condition":"contingent","relevant_dimensions":["antennae","pattern"],"bee_group":{"antennae":"B","wings":"X","pattern":"S","legs":"X"},"action":"avoid","summary":"bad-avoid","bonus":0.8400000000000006},{"rt":506,"stimulus":"\n                    <p><b>Action: <em>avoid</em></b></p>\n                    <p>This is the bee that you just saw.</p>\n                    <img src=\"bees-with-color/bee-A1SM.svg\" width=\"200\">\n                    <p><br>Your bonus pay is unchanged, and remains at $0.72.</p>\n            ","response":0,"trial_type":"html-button-response","trial_index":90,"time_elapsed":396763,"internal_node_id":"0.0-4.0-1.41","subject_id":"5c35dd34be3cea000117948f","study_id":"6197b3f67c2b5cd3b6d9596a","session_id":"619c00425f36156f9bae165f","condition":"contingent","relevant_dimensions":["antennae","pattern"],"bee_group":{"antennae":"B","wings":"X","pattern":"S","legs":"X"},"bonus":0.8400000000000006},{"rt":906,"stimulus":"bees-with-color/bee-A2DM.svg","response":0,"trial_type":"image-button-response","trial_index":91,"time_elapsed":397671,"internal_node_id":"0.0-4.0-0.42","subject_id":"5c35dd34be3cea000117948f","study_id":"6197b3f67c2b5cd3b6d9596a","session_id":"619c00425f36156f9bae165f","condition":"contingent","relevant_dimensions":["antennae","pattern"],"bee_group":{"antennae":"B","wings":"X","pattern":"S","legs":"X"},"action":"harvest","summary":"good-harvest","bonus":0.8400000000000006},{"rt":682,"stimulus":"\n                    <p><b>Action: <em>harvest</em></b></p>\n                    <p>This is the bee that you just saw.</p>\n                    <img src=\"bees-with-color/bee-A2DM.svg\" width=\"200\">\n                    <p><span class=\"greenText\"><b>Successful harvest!</b></span><br>Your pay has increased by $0.02. Your bonus pay is now $0.74.</p>\n            ","response":0,"trial_type":"html-button-response","trial_index":92,"time_elapsed":398352,"internal_node_id":"0.0-4.0-1.42","subject_id":"5c35dd34be3cea000117948f","study_id":"6197b3f67c2b5cd3b6d9596a","session_id":"619c00425f36156f9bae165f","condition":"contingent","relevant_dimensions":["antennae","pattern"],"bee_group":{"antennae":"B","wings":"X","pattern":"S","legs":"X"},"bonus":0.8400000000000006},{"rt":852,"stimulus":"bees-with-color/bee-A2SF.svg","response":1,"trial_type":"image-button-response","trial_index":93,"time_elapsed":399205,"internal_node_id":"0.0-4.0-0.43","subject_id":"5c35dd34be3cea000117948f","study_id":"6197b3f67c2b5cd3b6d9596a","session_id":"619c00425f36156f9bae165f","condition":"contingent","relevant_dimensions":["antennae","pattern"],"bee_group":{"antennae":"B","wings":"X","pattern":"S","legs":"X"},"action":"avoid","summary":"bad-avoid","bonus":0.8400000000000006},{"rt":586,"stimulus":"\n                    <p><b>Action: <em>avoid</em></b></p>\n                    <p>This is the bee that you just saw.</p>\n                    <img src=\"bees-with-color/bee-A2SF.svg\" width=\"200\">\n                    <p><br>Your bonus pay is unchanged, and remains at $0.74.</p>\n            ","response":0,"trial_type":"html-button-response","trial_index":94,"time_elapsed":399792,"internal_node_id":"0.0-4.0-1.43","subject_id":"5c35dd34be3cea000117948f","study_id":"6197b3f67c2b5cd3b6d9596a","session_id":"619c00425f36156f9bae165f","condition":"contingent","relevant_dimensions":["antennae","pattern"],"bee_group":{"antennae":"B","wings":"X","pattern":"S","legs":"X"},"bonus":0.8400000000000006},{"rt":790,"stimulus":"bees-with-color/bee-B1DF.svg","response":0,"trial_type":"image-button-response","trial_index":95,"time_elapsed":400583,"internal_node_id":"0.0-4.0-0.44","subject_id":"5c35dd34be3cea000117948f","study_id":"6197b3f67c2b5cd3b6d9596a","session_id":"619c00425f36156f9bae165f","condition":"contingent","relevant_dimensions":["antennae","pattern"],"bee_group":{"antennae":"B","wings":"X","pattern":"S","legs":"X"},"action":"harvest","summary":"good-harvest","bonus":0.8400000000000006},{"rt":716,"stimulus":"\n                    <p><b>Action: <em>harvest</em></b></p>\n                    <p>This is the bee that you just saw.</p>\n                    <img src=\"bees-with-color/bee-B1DF.svg\" width=\"200\">\n                    <p><span class=\"greenText\"><b>Successful harvest!</b></span><br>Your pay has increased by $0.02. Your bonus pay is now $0.76.</p>\n            ","response":0,"trial_type":"html-button-response","trial_index":96,"time_elapsed":401300,"internal_node_id":"0.0-4.0-1.44","subject_id":"5c35dd34be3cea000117948f","study_id":"6197b3f67c2b5cd3b6d9596a","session_id":"619c00425f36156f9bae165f","condition":"contingent","relevant_dimensions":["antennae","pattern"],"bee_group":{"antennae":"B","wings":"X","pattern":"S","legs":"X"},"bonus":0.8400000000000006},{"rt":580,"stimulus":"bees-with-color/bee-A1DF.svg","response":0,"trial_type":"image-button-response","trial_index":97,"time_elapsed":401881,"internal_node_id":"0.0-4.0-0.45","subject_id":"5c35dd34be3cea000117948f","study_id":"6197b3f67c2b5cd3b6d9596a","session_id":"619c00425f36156f9bae165f","condition":"contingent","relevant_dimensions":["antennae","pattern"],"bee_group":{"antennae":"B","wings":"X","pattern":"S","legs":"X"},"action":"harvest","summary":"good-harvest","bonus":0.8400000000000006},{"rt":827,"stimulus":"\n                    <p><b>Action: <em>harvest</em></b></p>\n                    <p>This is the bee that you just saw.</p>\n                    <img src=\"bees-with-color/bee-A1DF.svg\" width=\"200\">\n                    <p><span class=\"greenText\"><b>Successful harvest!</b></span><br>Your pay has increased by $0.02. Your bonus pay is now $0.78.</p>\n            ","response":0,"trial_type":"html-button-response","trial_index":98,"time_elapsed":402709,"internal_node_id":"0.0-4.0-1.45","subject_id":"5c35dd34be3cea000117948f","study_id":"6197b3f67c2b5cd3b6d9596a","session_id":"619c00425f36156f9bae165f","condition":"contingent","relevant_dimensions":["antennae","pattern"],"bee_group":{"antennae":"B","wings":"X","pattern":"S","legs":"X"},"bonus":0.8400000000000006},{"rt":1373,"stimulus":"bees-with-color/bee-A1SF.svg","response":1,"trial_type":"image-button-response","trial_index":99,"time_elapsed":404084,"internal_node_id":"0.0-4.0-0.46","subject_id":"5c35dd34be3cea000117948f","study_id":"6197b3f67c2b5cd3b6d9596a","session_id":"619c00425f36156f9bae165f","condition":"contingent","relevant_dimensions":["antennae","pattern"],"bee_group":{"antennae":"B","wings":"X","pattern":"S","legs":"X"},"action":"avoid","summary":"bad-avoid","bonus":0.8400000000000006},{"rt":519,"stimulus":"\n                    <p><b>Action: <em>avoid</em></b></p>\n                    <p>This is the bee that you just saw.</p>\n                    <img src=\"bees-with-color/bee-A1SF.svg\" width=\"200\">\n                    <p><br>Your bonus pay is unchanged, and remains at $0.78.</p>\n            ","response":0,"trial_type":"html-button-response","trial_index":100,"time_elapsed":404604,"internal_node_id":"0.0-4.0-1.46","subject_id":"5c35dd34be3cea000117948f","study_id":"6197b3f67c2b5cd3b6d9596a","session_id":"619c00425f36156f9bae165f","condition":"contingent","relevant_dimensions":["antennae","pattern"],"bee_group":{"antennae":"B","wings":"X","pattern":"S","legs":"X"},"bonus":0.8400000000000006},{"rt":741,"stimulus":"bees-with-color/bee-B2SF.svg","response":1,"trial_type":"image-button-response","trial_index":101,"time_elapsed":405345,"internal_node_id":"0.0-4.0-0.47","subject_id":"5c35dd34be3cea000117948f","study_id":"6197b3f67c2b5cd3b6d9596a","session_id":"619c00425f36156f9bae165f","condition":"contingent","relevant_dimensions":["antennae","pattern"],"bee_group":{"antennae":"B","wings":"X","pattern":"S","legs":"X"},"action":"avoid","summary":"good-avoid","bonus":0.8400000000000006},{"rt":406,"stimulus":"\n                    <p><b>Action: <em>avoid</em></b></p>\n                    <p>This is the bee that you just saw.</p>\n                    <img src=\"bees-with-color/bee-B2SF.svg\" width=\"200\">\n                    <p><br>Your bonus pay is unchanged, and remains at $0.78.</p>\n            ","response":0,"trial_type":"html-button-response","trial_index":102,"time_elapsed":405752,"internal_node_id":"0.0-4.0-1.47","subject_id":"5c35dd34be3cea000117948f","study_id":"6197b3f67c2b5cd3b6d9596a","session_id":"619c00425f36156f9bae165f","condition":"contingent","relevant_dimensions":["antennae","pattern"],"bee_group":{"antennae":"B","wings":"X","pattern":"S","legs":"X"},"bonus":0.8400000000000006},{"rt":628,"stimulus":"bees-with-color/bee-A1DM.svg","response":0,"trial_type":"image-button-response","trial_index":103,"time_elapsed":406382,"internal_node_id":"0.0-4.0-0.48","subject_id":"5c35dd34be3cea000117948f","study_id":"6197b3f67c2b5cd3b6d9596a","session_id":"619c00425f36156f9bae165f","condition":"contingent","relevant_dimensions":["antennae","pattern"],"bee_group":{"antennae":"B","wings":"X","pattern":"S","legs":"X"},"action":"harvest","summary":"good-harvest","bonus":0.8400000000000006},{"rt":531,"stimulus":"\n                    <p><b>Action: <em>harvest</em></b></p>\n                    <p>This is the bee that you just saw.</p>\n                    <img src=\"bees-with-color/bee-A1DM.svg\" width=\"200\">\n                    <p><span class=\"greenText\"><b>Successful harvest!</b></span><br>Your pay has increased by $0.02. Your bonus pay is now $0.80.</p>\n            ","response":0,"trial_type":"html-button-response","trial_index":104,"time_elapsed":406914,"internal_node_id":"0.0-4.0-1.48","subject_id":"5c35dd34be3cea000117948f","study_id":"6197b3f67c2b5cd3b6d9596a","session_id":"619c00425f36156f9bae165f","condition":"contingent","relevant_dimensions":["antennae","pattern"],"bee_group":{"antennae":"B","wings":"X","pattern":"S","legs":"X"},"bonus":0.8400000000000006},{"rt":626,"stimulus":"bees-with-color/bee-A1DF.svg","response":0,"trial_type":"image-button-response","trial_index":105,"time_elapsed":407543,"internal_node_id":"0.0-4.0-0.49","subject_id":"5c35dd34be3cea000117948f","study_id":"6197b3f67c2b5cd3b6d9596a","session_id":"619c00425f36156f9bae165f","condition":"contingent","relevant_dimensions":["antennae","pattern"],"bee_group":{"antennae":"B","wings":"X","pattern":"S","legs":"X"},"action":"harvest","summary":"good-harvest","bonus":0.8400000000000006},{"rt":569,"stimulus":"\n                    <p><b>Action: <em>harvest</em></b></p>\n                    <p>This is the bee that you just saw.</p>\n                    <img src=\"bees-with-color/bee-A1DF.svg\" width=\"200\">\n                    <p><span class=\"greenText\"><b>Successful harvest!</b></span><br>Your pay has increased by $0.02. Your bonus pay is now $0.82.</p>\n            ","response":0,"trial_type":"html-button-response","trial_index":106,"time_elapsed":408112,"internal_node_id":"0.0-4.0-1.49","subject_id":"5c35dd34be3cea000117948f","study_id":"6197b3f67c2b5cd3b6d9596a","session_id":"619c00425f36156f9bae165f","condition":"contingent","relevant_dimensions":["antennae","pattern"],"bee_group":{"antennae":"B","wings":"X","pattern":"S","legs":"X"},"bonus":0.8400000000000006},{"rt":1036,"stimulus":"bees-with-color/bee-B2SM.svg","response":1,"trial_type":"image-button-response","trial_index":107,"time_elapsed":409150,"internal_node_id":"0.0-4.0-0.50","subject_id":"5c35dd34be3cea000117948f","study_id":"6197b3f67c2b5cd3b6d9596a","session_id":"619c00425f36156f9bae165f","condition":"contingent","relevant_dimensions":["antennae","pattern"],"bee_group":{"antennae":"B","wings":"X","pattern":"S","legs":"X"},"action":"avoid","summary":"good-avoid","bonus":0.8400000000000006},{"rt":450,"stimulus":"\n                    <p><b>Action: <em>avoid</em></b></p>\n                    <p>This is the bee that you just saw.</p>\n                    <img src=\"bees-with-color/bee-B2SM.svg\" width=\"200\">\n                    <p><br>Your bonus pay is unchanged, and remains at $0.82.</p>\n            ","response":0,"trial_type":"html-button-response","trial_index":108,"time_elapsed":409601,"internal_node_id":"0.0-4.0-1.50","subject_id":"5c35dd34be3cea000117948f","study_id":"6197b3f67c2b5cd3b6d9596a","session_id":"619c00425f36156f9bae165f","condition":"contingent","relevant_dimensions":["antennae","pattern"],"bee_group":{"antennae":"B","wings":"X","pattern":"S","legs":"X"},"bonus":0.8400000000000006},{"rt":575,"stimulus":"bees-with-color/bee-A2DF.svg","response":0,"trial_type":"image-button-response","trial_index":109,"time_elapsed":410177,"internal_node_id":"0.0-4.0-0.51","subject_id":"5c35dd34be3cea000117948f","study_id":"6197b3f67c2b5cd3b6d9596a","session_id":"619c00425f36156f9bae165f","condition":"contingent","relevant_dimensions":["antennae","pattern"],"bee_group":{"antennae":"B","wings":"X","pattern":"S","legs":"X"},"action":"harvest","summary":"good-harvest","bonus":0.8400000000000006},{"rt":744,"stimulus":"\n                    <p><b>Action: <em>harvest</em></b></p>\n                    <p>This is the bee that you just saw.</p>\n                    <img src=\"bees-with-color/bee-A2DF.svg\" width=\"200\">\n                    <p><span class=\"greenText\"><b>Successful harvest!</b></span><br>Your pay has increased by $0.02. Your bonus pay is now $0.84.</p>\n            ","response":0,"trial_type":"html-button-response","trial_index":110,"time_elapsed":410922,"internal_node_id":"0.0-4.0-1.51","subject_id":"5c35dd34be3cea000117948f","study_id":"6197b3f67c2b5cd3b6d9596a","session_id":"619c00425f36156f9bae165f","condition":"contingent","relevant_dimensions":["antennae","pattern"],"bee_group":{"antennae":"B","wings":"X","pattern":"S","legs":"X"},"bonus":0.8400000000000006},{"rt":871,"stimulus":"bees-with-color/bee-A2SF.svg","response":1,"trial_type":"image-button-response","trial_index":111,"time_elapsed":411794,"internal_node_id":"0.0-4.0-0.52","subject_id":"5c35dd34be3cea000117948f","study_id":"6197b3f67c2b5cd3b6d9596a","session_id":"619c00425f36156f9bae165f","condition":"contingent","relevant_dimensions":["antennae","pattern"],"bee_group":{"antennae":"B","wings":"X","pattern":"S","legs":"X"},"action":"avoid","summary":"bad-avoid","bonus":0.8400000000000006},{"rt":405,"stimulus":"\n                    <p><b>Action: <em>avoid</em></b></p>\n                    <p>This is the bee that you just saw.</p>\n                    <img src=\"bees-with-color/bee-A2SF.svg\" width=\"200\">\n                    <p><br>Your bonus pay is unchanged, and remains at $0.84.</p>\n            ","response":0,"trial_type":"html-button-response","trial_index":112,"time_elapsed":412199,"internal_node_id":"0.0-4.0-1.52","subject_id":"5c35dd34be3cea000117948f","study_id":"6197b3f67c2b5cd3b6d9596a","session_id":"619c00425f36156f9bae165f","condition":"contingent","relevant_dimensions":["antennae","pattern"],"bee_group":{"antennae":"B","wings":"X","pattern":"S","legs":"X"},"bonus":0.8400000000000006},{"rt":855,"stimulus":"bees-with-color/bee-B1SF.svg","response":1,"trial_type":"image-button-response","trial_index":113,"time_elapsed":413055,"internal_node_id":"0.0-4.0-0.53","subject_id":"5c35dd34be3cea000117948f","study_id":"6197b3f67c2b5cd3b6d9596a","session_id":"619c00425f36156f9bae165f","condition":"contingent","relevant_dimensions":["antennae","pattern"],"bee_group":{"antennae":"B","wings":"X","pattern":"S","legs":"X"},"action":"avoid","summary":"good-avoid","bonus":0.8400000000000006},{"rt":655,"stimulus":"\n                    <p><b>Action: <em>avoid</em></b></p>\n                    <p>This is the bee that you just saw.</p>\n                    <img src=\"bees-with-color/bee-B1SF.svg\" width=\"200\">\n                    <p><br>Your bonus pay is unchanged, and remains at $0.84.</p>\n            ","response":0,"trial_type":"html-button-response","trial_index":114,"time_elapsed":413712,"internal_node_id":"0.0-4.0-1.53","subject_id":"5c35dd34be3cea000117948f","study_id":"6197b3f67c2b5cd3b6d9596a","session_id":"619c00425f36156f9bae165f","condition":"contingent","relevant_dimensions":["antennae","pattern"],"bee_group":{"antennae":"B","wings":"X","pattern":"S","legs":"X"},"bonus":0.8400000000000006},{"rt":493,"stimulus":"bees-with-color/bee-B1DF.svg","response":0,"trial_type":"image-button-response","trial_index":115,"time_elapsed":414207,"internal_node_id":"0.0-4.0-0.54","subject_id":"5c35dd34be3cea000117948f","study_id":"6197b3f67c2b5cd3b6d9596a","session_id":"619c00425f36156f9bae165f","condition":"contingent","relevant_dimensions":["antennae","pattern"],"bee_group":{"antennae":"B","wings":"X","pattern":"S","legs":"X"},"action":"harvest","summary":"good-harvest","bonus":0.8400000000000006},{"rt":798,"stimulus":"\n                    <p><b>Action: <em>harvest</em></b></p>\n                    <p>This is the bee that you just saw.</p>\n                    <img src=\"bees-with-color/bee-B1DF.svg\" width=\"200\">\n                    <p><span class=\"greenText\"><b>Successful harvest!</b></span><br>Your pay has increased by $0.02. Your bonus pay is now $0.86.</p>\n            ","response":0,"trial_type":"html-button-response","trial_index":116,"time_elapsed":415008,"internal_node_id":"0.0-4.0-1.54","subject_id":"5c35dd34be3cea000117948f","study_id":"6197b3f67c2b5cd3b6d9596a","session_id":"619c00425f36156f9bae165f","condition":"contingent","relevant_dimensions":["antennae","pattern"],"bee_group":{"antennae":"B","wings":"X","pattern":"S","legs":"X"},"bonus":0.8400000000000006},{"rt":3566,"stimulus":"bees-with-color/bee-B2DM.svg","response":0,"trial_type":"image-button-response","trial_index":117,"time_elapsed":418575,"internal_node_id":"0.0-4.0-0.55","subject_id":"5c35dd34be3cea000117948f","study_id":"6197b3f67c2b5cd3b6d9596a","session_id":"619c00425f36156f9bae165f","condition":"contingent","relevant_dimensions":["antennae","pattern"],"bee_group":{"antennae":"B","wings":"X","pattern":"S","legs":"X"},"action":"harvest","summary":"good-harvest","bonus":0.8400000000000006},{"rt":618,"stimulus":"\n                    <p><b>Action: <em>harvest</em></b></p>\n                    <p>This is the bee that you just saw.</p>\n                    <img src=\"bees-with-color/bee-B2DM.svg\" width=\"200\">\n                    <p><span class=\"greenText\"><b>Successful harvest!</b></span><br>Your pay has increased by $0.02. Your bonus pay is now $0.88.</p>\n            ","response":0,"trial_type":"html-button-response","trial_index":118,"time_elapsed":419195,"internal_node_id":"0.0-4.0-1.55","subject_id":"5c35dd34be3cea000117948f","study_id":"6197b3f67c2b5cd3b6d9596a","session_id":"619c00425f36156f9bae165f","condition":"contingent","relevant_dimensions":["antennae","pattern"],"bee_group":{"antennae":"B","wings":"X","pattern":"S","legs":"X"},"bonus":0.8400000000000006},{"rt":819,"stimulus":"bees-with-color/bee-B1SM.svg","response":1,"trial_type":"image-button-response","trial_index":119,"time_elapsed":420017,"internal_node_id":"0.0-4.0-0.56","subject_id":"5c35dd34be3cea000117948f","study_id":"6197b3f67c2b5cd3b6d9596a","session_id":"619c00425f36156f9bae165f","condition":"contingent","relevant_dimensions":["antennae","pattern"],"bee_group":{"antennae":"B","wings":"X","pattern":"S","legs":"X"},"action":"avoid","summary":"good-avoid","bonus":0.8400000000000006},{"rt":481,"stimulus":"\n                    <p><b>Action: <em>avoid</em></b></p>\n                    <p>This is the bee that you just saw.</p>\n                    <img src=\"bees-with-color/bee-B1SM.svg\" width=\"200\">\n                    <p><br>Your bonus pay is unchanged, and remains at $0.88.</p>\n            ","response":0,"trial_type":"html-button-response","trial_index":120,"time_elapsed":420499,"internal_node_id":"0.0-4.0-1.56","subject_id":"5c35dd34be3cea000117948f","study_id":"6197b3f67c2b5cd3b6d9596a","session_id":"619c00425f36156f9bae165f","condition":"contingent","relevant_dimensions":["antennae","pattern"],"bee_group":{"antennae":"B","wings":"X","pattern":"S","legs":"X"},"bonus":0.8400000000000006},{"rt":493,"stimulus":"bees-with-color/bee-B1DM.svg","response":0,"trial_type":"image-button-response","trial_index":121,"time_elapsed":420992,"internal_node_id":"0.0-4.0-0.57","subject_id":"5c35dd34be3cea000117948f","study_id":"6197b3f67c2b5cd3b6d9596a","session_id":"619c00425f36156f9bae165f","condition":"contingent","relevant_dimensions":["antennae","pattern"],"bee_group":{"antennae":"B","wings":"X","pattern":"S","legs":"X"},"action":"harvest","summary":"good-harvest","bonus":0.8400000000000006},{"rt":468,"stimulus":"\n                    <p><b>Action: <em>harvest</em></b></p>\n                    <p>This is the bee that you just saw.</p>\n                    <img src=\"bees-with-color/bee-B1DM.svg\" width=\"200\">\n                    <p><span class=\"greenText\"><b>Successful harvest!</b></span><br>Your pay has increased by $0.02. Your bonus pay is now $0.90.</p>\n            ","response":0,"trial_type":"html-button-response","trial_index":122,"time_elapsed":421462,"internal_node_id":"0.0-4.0-1.57","subject_id":"5c35dd34be3cea000117948f","study_id":"6197b3f67c2b5cd3b6d9596a","session_id":"619c00425f36156f9bae165f","condition":"contingent","relevant_dimensions":["antennae","pattern"],"bee_group":{"antennae":"B","wings":"X","pattern":"S","legs":"X"},"bonus":0.8400000000000006},{"rt":1866,"stimulus":"bees-with-color/bee-A2SM.svg","response":1,"trial_type":"image-button-response","trial_index":123,"time_elapsed":423329,"internal_node_id":"0.0-4.0-0.58","subject_id":"5c35dd34be3cea000117948f","study_id":"6197b3f67c2b5cd3b6d9596a","session_id":"619c00425f36156f9bae165f","condition":"contingent","relevant_dimensions":["antennae","pattern"],"bee_group":{"antennae":"B","wings":"X","pattern":"S","legs":"X"},"action":"avoid","summary":"bad-avoid","bonus":0.8400000000000006},{"rt":609,"stimulus":"\n                    <p><b>Action: <em>avoid</em></b></p>\n                    <p>This is the bee that you just saw.</p>\n                    <img src=\"bees-with-color/bee-A2SM.svg\" width=\"200\">\n                    <p><br>Your bonus pay is unchanged, and remains at $0.90.</p>\n            ","response":0,"trial_type":"html-button-response","trial_index":124,"time_elapsed":423939,"internal_node_id":"0.0-4.0-1.58","subject_id":"5c35dd34be3cea000117948f","study_id":"6197b3f67c2b5cd3b6d9596a","session_id":"619c00425f36156f9bae165f","condition":"contingent","relevant_dimensions":["antennae","pattern"],"bee_group":{"antennae":"B","wings":"X","pattern":"S","legs":"X"},"bonus":0.8400000000000006},{"rt":896,"stimulus":"bees-with-color/bee-A1SM.svg","response":1,"trial_type":"image-button-response","trial_index":125,"time_elapsed":424837,"internal_node_id":"0.0-4.0-0.59","subject_id":"5c35dd34be3cea000117948f","study_id":"6197b3f67c2b5cd3b6d9596a","session_id":"619c00425f36156f9bae165f","condition":"contingent","relevant_dimensions":["antennae","pattern"],"bee_group":{"antennae":"B","wings":"X","pattern":"S","legs":"X"},"action":"avoid","summary":"bad-avoid","bonus":0.8400000000000006},{"rt":541,"stimulus":"\n                    <p><b>Action: <em>avoid</em></b></p>\n                    <p>This is the bee that you just saw.</p>\n                    <img src=\"bees-with-color/bee-A1SM.svg\" width=\"200\">\n                    <p><br>Your bonus pay is unchanged, and remains at $0.90.</p>\n            ","response":0,"trial_type":"html-button-response","trial_index":126,"time_elapsed":425378,"internal_node_id":"0.0-4.0-1.59","subject_id":"5c35dd34be3cea000117948f","study_id":"6197b3f67c2b5cd3b6d9596a","session_id":"619c00425f36156f9bae165f","condition":"contingent","relevant_dimensions":["antennae","pattern"],"bee_group":{"antennae":"B","wings":"X","pattern":"S","legs":"X"},"bonus":0.8400000000000006},{"rt":2258,"stimulus":"bees-with-color/bee-B2DF.svg","response":0,"trial_type":"image-button-response","trial_index":127,"time_elapsed":427637,"internal_node_id":"0.0-4.0-0.60","subject_id":"5c35dd34be3cea000117948f","study_id":"6197b3f67c2b5cd3b6d9596a","session_id":"619c00425f36156f9bae165f","condition":"contingent","relevant_dimensions":["antennae","pattern"],"bee_group":{"antennae":"B","wings":"X","pattern":"S","legs":"X"},"action":"harvest","summary":"good-harvest","bonus":0.8400000000000006},{"rt":605,"stimulus":"\n                    <p><b>Action: <em>harvest</em></b></p>\n                    <p>This is the bee that you just saw.</p>\n                    <img src=\"bees-with-color/bee-B2DF.svg\" width=\"200\">\n                    <p><span class=\"greenText\"><b>Successful harvest!</b></span><br>Your pay has increased by $0.02. Your bonus pay is now $0.92.</p>\n            ","response":0,"trial_type":"html-button-response","trial_index":128,"time_elapsed":428244,"internal_node_id":"0.0-4.0-1.60","subject_id":"5c35dd34be3cea000117948f","study_id":"6197b3f67c2b5cd3b6d9596a","session_id":"619c00425f36156f9bae165f","condition":"contingent","relevant_dimensions":["antennae","pattern"],"bee_group":{"antennae":"B","wings":"X","pattern":"S","legs":"X"},"bonus":0.8400000000000006},{"rt":750,"stimulus":"bees-with-color/bee-A1SF.svg","response":1,"trial_type":"image-button-response","trial_index":129,"time_elapsed":428995,"internal_node_id":"0.0-4.0-0.61","subject_id":"5c35dd34be3cea000117948f","study_id":"6197b3f67c2b5cd3b6d9596a","session_id":"619c00425f36156f9bae165f","condition":"contingent","relevant_dimensions":["antennae","pattern"],"bee_group":{"antennae":"B","wings":"X","pattern":"S","legs":"X"},"action":"avoid","summary":"bad-avoid","bonus":0.8400000000000006},{"rt":448,"stimulus":"\n                    <p><b>Action: <em>avoid</em></b></p>\n                    <p>This is the bee that you just saw.</p>\n                    <img src=\"bees-with-color/bee-A1SF.svg\" width=\"200\">\n                    <p><br>Your bonus pay is unchanged, and remains at $0.92.</p>\n            ","response":0,"trial_type":"html-button-response","trial_index":130,"time_elapsed":429443,"internal_node_id":"0.0-4.0-1.61","subject_id":"5c35dd34be3cea000117948f","study_id":"6197b3f67c2b5cd3b6d9596a","session_id":"619c00425f36156f9bae165f","condition":"contingent","relevant_dimensions":["antennae","pattern"],"bee_group":{"antennae":"B","wings":"X","pattern":"S","legs":"X"},"bonus":0.8400000000000006},{"rt":1019,"stimulus":"bees-with-color/bee-B2SF.svg","response":1,"trial_type":"image-button-response","trial_index":131,"time_elapsed":430463,"internal_node_id":"0.0-4.0-0.62","subject_id":"5c35dd34be3cea000117948f","study_id":"6197b3f67c2b5cd3b6d9596a","session_id":"619c00425f36156f9bae165f","condition":"contingent","relevant_dimensions":["antennae","pattern"],"bee_group":{"antennae":"B","wings":"X","pattern":"S","legs":"X"},"action":"avoid","summary":"good-avoid","bonus":0.8400000000000006},{"rt":507,"stimulus":"\n                    <p><b>Action: <em>avoid</em></b></p>\n                    <p>This is the bee that you just saw.</p>\n                    <img src=\"bees-with-color/bee-B2SF.svg\" width=\"200\">\n                    <p><br>Your bonus pay is unchanged, and remains at $0.92.</p>\n            ","response":0,"trial_type":"html-button-response","trial_index":132,"time_elapsed":430971,"internal_node_id":"0.0-4.0-1.62","subject_id":"5c35dd34be3cea000117948f","study_id":"6197b3f67c2b5cd3b6d9596a","session_id":"619c00425f36156f9bae165f","condition":"contingent","relevant_dimensions":["antennae","pattern"],"bee_group":{"antennae":"B","wings":"X","pattern":"S","legs":"X"},"bonus":0.8400000000000006},{"rt":1005,"stimulus":"bees-with-color/bee-A2DM.svg","response":0,"trial_type":"image-button-response","trial_index":133,"time_elapsed":431977,"internal_node_id":"0.0-4.0-0.63","subject_id":"5c35dd34be3cea000117948f","study_id":"6197b3f67c2b5cd3b6d9596a","session_id":"619c00425f36156f9bae165f","condition":"contingent","relevant_dimensions":["antennae","pattern"],"bee_group":{"antennae":"B","wings":"X","pattern":"S","legs":"X"},"action":"harvest","summary":"good-harvest","bonus":0.8400000000000006},{"rt":1548,"stimulus":"\n                    <p><b>Action: <em>harvest</em></b></p>\n                    <p>This is the bee that you just saw.</p>\n                    <img src=\"bees-with-color/bee-A2DM.svg\" width=\"200\">\n                    <p><span class=\"greenText\"><b>Successful harvest!</b></span><br>Your pay has increased by $0.02. Your bonus pay is now $0.94.</p>\n            ","response":0,"trial_type":"html-button-response","trial_index":134,"time_elapsed":433525,"internal_node_id":"0.0-4.0-1.63","subject_id":"5c35dd34be3cea000117948f","study_id":"6197b3f67c2b5cd3b6d9596a","session_id":"619c00425f36156f9bae165f","condition":"contingent","relevant_dimensions":["antennae","pattern"],"bee_group":{"antennae":"B","wings":"X","pattern":"S","legs":"X"},"bonus":0.8400000000000006},{"rt":8927,"stimulus":"You have completed the first part of this experiment.<br><br>You will now begin a shorter second part, in which you will receive no feedback.<br>The same rules regarding bonus pay apply.<br><br>Press any key to begin.","response":"enter","trial_type":"html-keyboard-response","trial_index":135,"time_elapsed":442454,"internal_node_id":"0.0-5.0","subject_id":"5c35dd34be3cea000117948f","study_id":"6197b3f67c2b5cd3b6d9596a","session_id":"619c00425f36156f9bae165f","condition":"contingent","relevant_dimensions":["antennae","pattern"],"bee_group":{"antennae":"B","wings":"X","pattern":"S","legs":"X"},"bonus":0.8400000000000006},{"rt":3671,"stimulus":"bees-with-color/bee-B2DM.svg","response":1,"trial_type":"image-button-response","trial_index":136,"time_elapsed":446127,"internal_node_id":"0.0-6.0-0.0","subject_id":"5c35dd34be3cea000117948f","study_id":"6197b3f67c2b5cd3b6d9596a","session_id":"619c00425f36156f9bae165f","condition":"contingent","relevant_dimensions":["antennae","pattern"],"bee_group":{"antennae":"B","wings":"X","pattern":"S","legs":"X"},"bonus":0.8400000000000006},{"rt":2118,"stimulus":"bees-with-color/bee-A2DM.svg","response":1,"trial_type":"image-button-response","trial_index":137,"time_elapsed":448246,"internal_node_id":"0.0-6.0-0.1","subject_id":"5c35dd34be3cea000117948f","study_id":"6197b3f67c2b5cd3b6d9596a","session_id":"619c00425f36156f9bae165f","condition":"contingent","relevant_dimensions":["antennae","pattern"],"bee_group":{"antennae":"B","wings":"X","pattern":"S","legs":"X"},"bonus":0.8400000000000006},{"rt":820,"stimulus":"bees-with-color/bee-B1SM.svg","response":0,"trial_type":"image-button-response","trial_index":138,"time_elapsed":449068,"internal_node_id":"0.0-6.0-0.2","subject_id":"5c35dd34be3cea000117948f","study_id":"6197b3f67c2b5cd3b6d9596a","session_id":"619c00425f36156f9bae165f","condition":"contingent","relevant_dimensions":["antennae","pattern"],"bee_group":{"antennae":"B","wings":"X","pattern":"S","legs":"X"},"bonus":0.8400000000000006},{"rt":3035,"stimulus":"bees-with-color/bee-A1DF.svg","response":1,"trial_type":"image-button-response","trial_index":139,"time_elapsed":452104,"internal_node_id":"0.0-6.0-0.3","subject_id":"5c35dd34be3cea000117948f","study_id":"6197b3f67c2b5cd3b6d9596a","session_id":"619c00425f36156f9bae165f","condition":"contingent","relevant_dimensions":["antennae","pattern"],"bee_group":{"antennae":"B","wings":"X","pattern":"S","legs":"X"},"bonus":0.8400000000000006},{"rt":1675,"stimulus":"bees-with-color/bee-A1SF.svg","response":1,"trial_type":"image-button-response","trial_index":140,"time_elapsed":453780,"internal_node_id":"0.0-6.0-0.4","subject_id":"5c35dd34be3cea000117948f","study_id":"6197b3f67c2b5cd3b6d9596a","session_id":"619c00425f36156f9bae165f","condition":"contingent","relevant_dimensions":["antennae","pattern"],"bee_group":{"antennae":"B","wings":"X","pattern":"S","legs":"X"},"bonus":0.8400000000000006},{"rt":1056,"stimulus":"bees-with-color/bee-B1DM.svg","response":1,"trial_type":"image-button-response","trial_index":141,"time_elapsed":454838,"internal_node_id":"0.0-6.0-0.5","subject_id":"5c35dd34be3cea000117948f","study_id":"6197b3f67c2b5cd3b6d9596a","session_id":"619c00425f36156f9bae165f","condition":"contingent","relevant_dimensions":["antennae","pattern"],"bee_group":{"antennae":"B","wings":"X","pattern":"S","legs":"X"},"bonus":0.8400000000000006},{"rt":1389,"stimulus":"bees-with-color/bee-A1SM.svg","response":1,"trial_type":"image-button-response","trial_index":142,"time_elapsed":456228,"internal_node_id":"0.0-6.0-0.6","subject_id":"5c35dd34be3cea000117948f","study_id":"6197b3f67c2b5cd3b6d9596a","session_id":"619c00425f36156f9bae165f","condition":"contingent","relevant_dimensions":["antennae","pattern"],"bee_group":{"antennae":"B","wings":"X","pattern":"S","legs":"X"},"bonus":0.8400000000000006},{"rt":1926,"stimulus":"bees-with-color/bee-B1SF.svg","response":1,"trial_type":"image-button-response","trial_index":143,"time_elapsed":458156,"internal_node_id":"0.0-6.0-0.7","subject_id":"5c35dd34be3cea000117948f","study_id":"6197b3f67c2b5cd3b6d9596a","session_id":"619c00425f36156f9bae165f","condition":"contingent","relevant_dimensions":["antennae","pattern"],"bee_group":{"antennae":"B","wings":"X","pattern":"S","legs":"X"},"bonus":0.8400000000000006},{"rt":463,"stimulus":"bees-with-color/bee-A2SM.svg","response":1,"trial_type":"image-button-response","trial_index":144,"time_elapsed":458620,"internal_node_id":"0.0-6.0-0.8","subject_id":"5c35dd34be3cea000117948f","study_id":"6197b3f67c2b5cd3b6d9596a","session_id":"619c00425f36156f9bae165f","condition":"contingent","relevant_dimensions":["antennae","pattern"],"bee_group":{"antennae":"B","wings":"X","pattern":"S","legs":"X"},"bonus":0.8400000000000006},{"rt":578,"stimulus":"bees-with-color/bee-B2SF.svg","response":1,"trial_type":"image-button-response","trial_index":145,"time_elapsed":459199,"internal_node_id":"0.0-6.0-0.9","subject_id":"5c35dd34be3cea000117948f","study_id":"6197b3f67c2b5cd3b6d9596a","session_id":"619c00425f36156f9bae165f","condition":"contingent","relevant_dimensions":["antennae","pattern"],"bee_group":{"antennae":"B","wings":"X","pattern":"S","legs":"X"},"bonus":0.8400000000000006},{"rt":525,"stimulus":"bees-with-color/bee-B2DF.svg","response":1,"trial_type":"image-button-response","trial_index":146,"time_elapsed":459726,"internal_node_id":"0.0-6.0-0.10","subject_id":"5c35dd34be3cea000117948f","study_id":"6197b3f67c2b5cd3b6d9596a","session_id":"619c00425f36156f9bae165f","condition":"contingent","relevant_dimensions":["antennae","pattern"],"bee_group":{"antennae":"B","wings":"X","pattern":"S","legs":"X"},"bonus":0.8400000000000006},{"rt":558,"stimulus":"bees-with-color/bee-B2SM.svg","response":1,"trial_type":"image-button-response","trial_index":147,"time_elapsed":460286,"internal_node_id":"0.0-6.0-0.11","subject_id":"5c35dd34be3cea000117948f","study_id":"6197b3f67c2b5cd3b6d9596a","session_id":"619c00425f36156f9bae165f","condition":"contingent","relevant_dimensions":["antennae","pattern"],"bee_group":{"antennae":"B","wings":"X","pattern":"S","legs":"X"},"bonus":0.8400000000000006},{"rt":3134,"stimulus":"bees-with-color/bee-B1DF.svg","response":1,"trial_type":"image-button-response","trial_index":148,"time_elapsed":463420,"internal_node_id":"0.0-6.0-0.12","subject_id":"5c35dd34be3cea000117948f","study_id":"6197b3f67c2b5cd3b6d9596a","session_id":"619c00425f36156f9bae165f","condition":"contingent","relevant_dimensions":["antennae","pattern"],"bee_group":{"antennae":"B","wings":"X","pattern":"S","legs":"X"},"bonus":0.8400000000000006},{"rt":3540,"stimulus":"bees-with-color/bee-A1DM.svg","response":1,"trial_type":"image-button-response","trial_index":149,"time_elapsed":466961,"internal_node_id":"0.0-6.0-0.13","subject_id":"5c35dd34be3cea000117948f","study_id":"6197b3f67c2b5cd3b6d9596a","session_id":"619c00425f36156f9bae165f","condition":"contingent","relevant_dimensions":["antennae","pattern"],"bee_group":{"antennae":"B","wings":"X","pattern":"S","legs":"X"},"bonus":0.8400000000000006},{"rt":2110,"stimulus":"bees-with-color/bee-A2DF.svg","response":1,"trial_type":"image-button-response","trial_index":150,"time_elapsed":469073,"internal_node_id":"0.0-6.0-0.14","subject_id":"5c35dd34be3cea000117948f","study_id":"6197b3f67c2b5cd3b6d9596a","session_id":"619c00425f36156f9bae165f","condition":"contingent","relevant_dimensions":["antennae","pattern"],"bee_group":{"antennae":"B","wings":"X","pattern":"S","legs":"X"},"bonus":0.8400000000000006},{"rt":1304,"stimulus":"bees-with-color/bee-A2SF.svg","response":1,"trial_type":"image-button-response","trial_index":151,"time_elapsed":470378,"internal_node_id":"0.0-6.0-0.15","subject_id":"5c35dd34be3cea000117948f","study_id":"6197b3f67c2b5cd3b6d9596a","session_id":"619c00425f36156f9bae165f","condition":"contingent","relevant_dimensions":["antennae","pattern"],"bee_group":{"antennae":"B","wings":"X","pattern":"S","legs":"X"},"bonus":0.8400000000000006},{"rt":3307,"stimulus":"bees-with-color/bee-B2SM.svg","response":1,"trial_type":"image-button-response","trial_index":152,"time_elapsed":473687,"internal_node_id":"0.0-6.0-0.16","subject_id":"5c35dd34be3cea000117948f","study_id":"6197b3f67c2b5cd3b6d9596a","session_id":"619c00425f36156f9bae165f","condition":"contingent","relevant_dimensions":["antennae","pattern"],"bee_group":{"antennae":"B","wings":"X","pattern":"S","legs":"X"},"bonus":0.8400000000000006},{"rt":881,"stimulus":"bees-with-color/bee-A1SM.svg","response":1,"trial_type":"image-button-response","trial_index":153,"time_elapsed":474570,"internal_node_id":"0.0-6.0-0.17","subject_id":"5c35dd34be3cea000117948f","study_id":"6197b3f67c2b5cd3b6d9596a","session_id":"619c00425f36156f9bae165f","condition":"contingent","relevant_dimensions":["antennae","pattern"],"bee_group":{"antennae":"B","wings":"X","pattern":"S","legs":"X"},"bonus":0.8400000000000006},{"rt":776,"stimulus":"bees-with-color/bee-A2SF.svg","response":1,"trial_type":"image-button-response","trial_index":154,"time_elapsed":475349,"internal_node_id":"0.0-6.0-0.18","subject_id":"5c35dd34be3cea000117948f","study_id":"6197b3f67c2b5cd3b6d9596a","session_id":"619c00425f36156f9bae165f","condition":"contingent","relevant_dimensions":["antennae","pattern"],"bee_group":{"antennae":"B","wings":"X","pattern":"S","legs":"X"},"bonus":0.8400000000000006},{"rt":1269,"stimulus":"bees-with-color/bee-B1SF.svg","response":1,"trial_type":"image-button-response","trial_index":155,"time_elapsed":476618,"internal_node_id":"0.0-6.0-0.19","subject_id":"5c35dd34be3cea000117948f","study_id":"6197b3f67c2b5cd3b6d9596a","session_id":"619c00425f36156f9bae165f","condition":"contingent","relevant_dimensions":["antennae","pattern"],"bee_group":{"antennae":"B","wings":"X","pattern":"S","legs":"X"},"bonus":0.8400000000000006},{"rt":952,"stimulus":"bees-with-color/bee-B1DM.svg","response":1,"trial_type":"image-button-response","trial_index":156,"time_elapsed":477573,"internal_node_id":"0.0-6.0-0.20","subject_id":"5c35dd34be3cea000117948f","study_id":"6197b3f67c2b5cd3b6d9596a","session_id":"619c00425f36156f9bae165f","condition":"contingent","relevant_dimensions":["antennae","pattern"],"bee_group":{"antennae":"B","wings":"X","pattern":"S","legs":"X"},"bonus":0.8400000000000006},{"rt":882,"stimulus":"bees-with-color/bee-A2DF.svg","response":1,"trial_type":"image-button-response","trial_index":157,"time_elapsed":478454,"internal_node_id":"0.0-6.0-0.21","subject_id":"5c35dd34be3cea000117948f","study_id":"6197b3f67c2b5cd3b6d9596a","session_id":"619c00425f36156f9bae165f","condition":"contingent","relevant_dimensions":["antennae","pattern"],"bee_group":{"antennae":"B","wings":"X","pattern":"S","legs":"X"},"bonus":0.8400000000000006},{"rt":822,"stimulus":"bees-with-color/bee-A2SM.svg","response":1,"trial_type":"image-button-response","trial_index":158,"time_elapsed":479279,"internal_node_id":"0.0-6.0-0.22","subject_id":"5c35dd34be3cea000117948f","study_id":"6197b3f67c2b5cd3b6d9596a","session_id":"619c00425f36156f9bae165f","condition":"contingent","relevant_dimensions":["antennae","pattern"],"bee_group":{"antennae":"B","wings":"X","pattern":"S","legs":"X"},"bonus":0.8400000000000006},{"rt":786,"stimulus":"bees-with-color/bee-B1DF.svg","response":1,"trial_type":"image-button-response","trial_index":159,"time_elapsed":480066,"internal_node_id":"0.0-6.0-0.23","subject_id":"5c35dd34be3cea000117948f","study_id":"6197b3f67c2b5cd3b6d9596a","session_id":"619c00425f36156f9bae165f","condition":"contingent","relevant_dimensions":["antennae","pattern"],"bee_group":{"antennae":"B","wings":"X","pattern":"S","legs":"X"},"bonus":0.8400000000000006},{"rt":710,"stimulus":"bees-with-color/bee-B1SM.svg","response":1,"trial_type":"image-button-response","trial_index":160,"time_elapsed":480776,"internal_node_id":"0.0-6.0-0.24","subject_id":"5c35dd34be3cea000117948f","study_id":"6197b3f67c2b5cd3b6d9596a","session_id":"619c00425f36156f9bae165f","condition":"contingent","relevant_dimensions":["antennae","pattern"],"bee_group":{"antennae":"B","wings":"X","pattern":"S","legs":"X"},"bonus":0.8400000000000006},{"rt":655,"stimulus":"bees-with-color/bee-B2DM.svg","response":1,"trial_type":"image-button-response","trial_index":161,"time_elapsed":481433,"internal_node_id":"0.0-6.0-0.25","subject_id":"5c35dd34be3cea000117948f","study_id":"6197b3f67c2b5cd3b6d9596a","session_id":"619c00425f36156f9bae165f","condition":"contingent","relevant_dimensions":["antennae","pattern"],"bee_group":{"antennae":"B","wings":"X","pattern":"S","legs":"X"},"bonus":0.8400000000000006},{"rt":744,"stimulus":"bees-with-color/bee-B2SF.svg","response":1,"trial_type":"image-button-response","trial_index":162,"time_elapsed":482179,"internal_node_id":"0.0-6.0-0.26","subject_id":"5c35dd34be3cea000117948f","study_id":"6197b3f67c2b5cd3b6d9596a","session_id":"619c00425f36156f9bae165f","condition":"contingent","relevant_dimensions":["antennae","pattern"],"bee_group":{"antennae":"B","wings":"X","pattern":"S","legs":"X"},"bonus":0.8400000000000006},{"rt":702,"stimulus":"bees-with-color/bee-A1SF.svg","response":1,"trial_type":"image-button-response","trial_index":163,"time_elapsed":482882,"internal_node_id":"0.0-6.0-0.27","subject_id":"5c35dd34be3cea000117948f","study_id":"6197b3f67c2b5cd3b6d9596a","session_id":"619c00425f36156f9bae165f","condition":"contingent","relevant_dimensions":["antennae","pattern"],"bee_group":{"antennae":"B","wings":"X","pattern":"S","legs":"X"},"bonus":0.8400000000000006},{"rt":735,"stimulus":"bees-with-color/bee-B2DF.svg","response":1,"trial_type":"image-button-response","trial_index":164,"time_elapsed":483618,"internal_node_id":"0.0-6.0-0.28","subject_id":"5c35dd34be3cea000117948f","study_id":"6197b3f67c2b5cd3b6d9596a","session_id":"619c00425f36156f9bae165f","condition":"contingent","relevant_dimensions":["antennae","pattern"],"bee_group":{"antennae":"B","wings":"X","pattern":"S","legs":"X"},"bonus":0.8400000000000006},{"rt":688,"stimulus":"bees-with-color/bee-A1DF.svg","response":1,"trial_type":"image-button-response","trial_index":165,"time_elapsed":484307,"internal_node_id":"0.0-6.0-0.29","subject_id":"5c35dd34be3cea000117948f","study_id":"6197b3f67c2b5cd3b6d9596a","session_id":"619c00425f36156f9bae165f","condition":"contingent","relevant_dimensions":["antennae","pattern"],"bee_group":{"antennae":"B","wings":"X","pattern":"S","legs":"X"},"bonus":0.8400000000000006},{"rt":758,"stimulus":"bees-with-color/bee-A2DM.svg","response":1,"trial_type":"image-button-response","trial_index":166,"time_elapsed":485066,"internal_node_id":"0.0-6.0-0.30","subject_id":"5c35dd34be3cea000117948f","study_id":"6197b3f67c2b5cd3b6d9596a","session_id":"619c00425f36156f9bae165f","condition":"contingent","relevant_dimensions":["antennae","pattern"],"bee_group":{"antennae":"B","wings":"X","pattern":"S","legs":"X"},"bonus":0.8400000000000006},{"rt":1073,"stimulus":"bees-with-color/bee-A1DM.svg","response":1,"trial_type":"image-button-response","trial_index":167,"time_elapsed":486140,"internal_node_id":"0.0-6.0-0.31","subject_id":"5c35dd34be3cea000117948f","study_id":"6197b3f67c2b5cd3b6d9596a","session_id":"619c00425f36156f9bae165f","condition":"contingent","relevant_dimensions":["antennae","pattern"],"bee_group":{"antennae":"B","wings":"X",