[{"success":true,"trial_type":"fullscreen","trial_index":0,"time_elapsed":2715,"internal_node_id":"0.0-0.0","subject_id":"5f8359dc31c65e0fca60103f","study_id":"60edd13110225f80f9f3709b","session_id":"6196c7090faf35c15f8a3ee9","condition":"contingent","relevant_dimensions":["antennae","wings"],"bee_group":{"antennae":"B","wings":"1","pattern":"X","legs":"X"},"bonus":0.6800000000000005},{"success":true,"timeout":false,"failed_images":[],"failed_audio":[],"failed_video":[],"trial_type":"preload","trial_index":1,"time_elapsed":3214,"internal_node_id":"0.0-1.0","subject_id":"5f8359dc31c65e0fca60103f","study_id":"60edd13110225f80f9f3709b","session_id":"6196c7090faf35c15f8a3ee9","condition":"contingent","relevant_dimensions":["antennae","wings"],"bee_group":{"antennae":"B","wings":"1","pattern":"X","legs":"X"},"bonus":0.6800000000000005},{"rt":1604.1999999999534,"stimulus":"Welcome! Press any key to begin.","response":"arrowright","trial_type":"html-keyboard-response","trial_index":2,"time_elapsed":4820,"internal_node_id":"0.0-2.0","subject_id":"5f8359dc31c65e0fca60103f","study_id":"60edd13110225f80f9f3709b","session_id":"6196c7090faf35c15f8a3ee9","condition":"contingent","relevant_dimensions":["antennae","wings"],"bee_group":{"antennae":"B","wings":"1","pattern":"X","legs":"X"},"bonus":0.6800000000000005},{"view_history":[{"page_index":0,"viewing_time":7626.699999999953},{"page_index":1,"viewing_time":5792.100000000093},{"page_index":2,"viewing_time":4337.699999999953},{"page_index":3,"viewing_time":8522.300000000047},{"page_index":4,"viewing_time":3527.899999999907},{"page_index":5,"viewing_time":2657.899999999907},{"page_index":6,"viewing_time":2723.9000000001397},{"page_index":7,"viewing_time":3166.3000000000466},{"page_index":8,"viewing_time":2243.7999999998137},{"page_index":9,"viewing_time":1342.1000000000931},{"page_index":10,"viewing_time":2219.399999999907},{"page_index":11,"viewing_time":4604.5},{"page_index":12,"viewing_time":7987.40000000014},{"page_index":13,"viewing_time":818.0999999998603},{"page_index":14,"viewing_time":1206}],"rt":58776.30000000005,"trial_type":"instructions","trial_index":3,"time_elapsed":63597,"internal_node_id":"0.0-3.0-0.0","subject_id":"5f8359dc31c65e0fca60103f","study_id":"60edd13110225f80f9f3709b","session_id":"6196c7090faf35c15f8a3ee9","condition":"contingent","relevant_dimensions":["antennae","wings"],"bee_group":{"antennae":"B","wings":"1","pattern":"X","legs":"X"},"bonus":0.6800000000000005},{"rt":8052.800000000047,"response":{"Q0":["Two or six legs","Stripes or spots on body","Single or double wings","Antennae or no antennae"]},"question_order":[0],"trial_type":"survey-multi-select","trial_index":4,"time_elapsed":71652,"internal_node_id":"0.0-3.0-1.0","subject_id":"5f8359dc31c65e0fca60103f","study_id":"60edd13110225f80f9f3709b","session_id":"6196c7090faf35c15f8a3ee9","condition":"contingent","relevant_dimensions":["antennae","wings"],"bee_group":{"antennae":"B","wings":"1","pattern":"X","legs":"X"},"correct":true,"bonus":0.6800000000000005},{"rt":11801.899999999907,"response":{"Q1":"No.","Q2":"Based on the four features of the bee.","Q3":"You do not learn if it was friendly or dangerous, and do not alter your bonus."},"question_order":[0,1,2],"trial_type":"survey-multi-choice","trial_index":5,"time_elapsed":83458,"internal_node_id":"0.0-3.0-2.0","subject_id":"5f8359dc31c65e0fca60103f","study_id":"60edd13110225f80f9f3709b","session_id":"6196c7090faf35c15f8a3ee9","condition":"contingent","relevant_dimensions":["antennae","wings"],"bee_group":{"antennae":"B","wings":"1","pattern":"X","legs":"X"},"correct":true,"bonus":0.6800000000000005},{"rt":2746.4000000001397,"stimulus":"<p>Congrats, you got everything right<br>When you're ready, click the button below to continue to the experiment.</p>","response":0,"trial_type":"html-button-response","trial_index":6,"time_elapsed":86208,"internal_node_id":"0.0-3.0-3.0","subject_id":"5f8359dc31c65e0fca60103f","study_id":"60edd13110225f80f9f3709b","session_id":"6196c7090faf35c15f8a3ee9","condition":"contingent","relevant_dimensions":["antennae","wings"],"bee_group":{"antennae":"B","wings":"1","pattern":"X","legs":"X"},"bonus":0.6800000000000005},{"rt":2624,"stimulus":"bees-with-color/bee-A2SM.svg","response":0,"trial_type":"image-button-response","trial_index":7,"time_elapsed":88834,"internal_node_id":"0.0-4.0-0.0","subject_id":"5f8359dc31c65e0fca60103f","study_id":"60edd13110225f80f9f3709b","session_id":"6196c7090faf35c15f8a3ee9","condition":"contingent","relevant_dimensions":["antennae","wings"],"bee_group":{"antennae":"B","wings":"1","pattern":"X","legs":"X"},"action":"harvest","summary":"good-harvest","bonus":0.6800000000000005},{"rt":4478.200000000186,"stimulus":"\n                    <p><b>Action: <em>harvest</em></b></p>\n                    <p>This is the bee that you just saw.</p>\n                    <img src=\"bees-with-color/bee-A2SM.svg\" width=\"200\">\n                    <p><span class=\"greenText\"><b>Successful harvest!</b></span><br>Your pay has increased by $0.02. Your bonus pay is now $0.56.</p>\n            ","response":0,"trial_type":"html-button-response","trial_index":8,"time_elapsed":93314,"internal_node_id":"0.0-4.0-1.0","subject_id":"5f8359dc31c65e0fca60103f","study_id":"60edd13110225f80f9f3709b","session_id":"6196c7090faf35c15f8a3ee9","condition":"contingent","relevant_dimensions":["antennae","wings"],"bee_group":{"antennae":"B","wings":"1","pattern":"X","legs":"X"},"bonus":0.6800000000000005},{"rt":1304.8000000000466,"stimulus":"bees-with-color/bee-A2DF.svg","response":1,"trial_type":"image-button-response","trial_index":9,"time_elapsed":94620,"internal_node_id":"0.0-4.0-0.1","subject_id":"5f8359dc31c65e0fca60103f","study_id":"60edd13110225f80f9f3709b","session_id":"6196c7090faf35c15f8a3ee9","condition":"contingent","relevant_dimensions":["antennae","wings"],"bee_group":{"antennae":"B","wings":"1","pattern":"X","legs":"X"},"action":"avoid","summary":"bad-avoid","bonus":0.6800000000000005},{"rt":3066.5999999998603,"stimulus":"\n                    <p><b>Action: <em>avoid</em></b></p>\n                    <p>This is the bee that you just saw.</p>\n                    <img src=\"bees-with-color/bee-A2DF.svg\" width=\"200\">\n                    <p><br>Your bonus pay is unchanged, and remains at $0.56.</p>\n            ","response":0,"trial_type":"html-button-response","trial_index":10,"time_elapsed":97688,"internal_node_id":"0.0-4.0-1.1","subject_id":"5f8359dc31c65e0fca60103f","study_id":"60edd13110225f80f9f3709b","session_id":"6196c7090faf35c15f8a3ee9","condition":"contingent","relevant_dimensions":["antennae","wings"],"bee_group":{"antennae":"B","wings":"1","pattern":"X","legs":"X"},"bonus":0.6800000000000005},{"rt":1360.8000000000466,"stimulus":"bees-with-color/bee-A1DF.svg","response":1,"trial_type":"image-button-response","trial_index":11,"time_elapsed":99050,"internal_node_id":"0.0-4.0-0.2","subject_id":"5f8359dc31c65e0fca60103f","study_id":"60edd13110225f80f9f3709b","session_id":"6196c7090faf35c15f8a3ee9","condition":"contingent","relevant_dimensions":["antennae","wings"],"bee_group":{"antennae":"B","wings":"1","pattern":"X","legs":"X"},"action":"avoid","summary":"bad-avoid","bonus":0.6800000000000005},{"rt":716.6999999999534,"stimulus":"\n                    <p><b>Action: <em>avoid</em></b></p>\n                    <p>This is the bee that you just saw.</p>\n                    <img src=\"bees-with-color/bee-A1DF.svg\" width=\"200\">\n                    <p><br>Your bonus pay is unchanged, and remains at $0.56.</p>\n            ","response":0,"trial_type":"html-button-response","trial_index":12,"time_elapsed":99768,"internal_node_id":"0.0-4.0-1.2","subject_id":"5f8359dc31c65e0fca60103f","study_id":"60edd13110225f80f9f3709b","session_id":"6196c7090faf35c15f8a3ee9","condition":"contingent","relevant_dimensions":["antennae","wings"],"bee_group":{"antennae":"B","wings":"1","pattern":"X","legs":"X"},"bonus":0.6800000000000005},{"rt":893.1000000000931,"stimulus":"bees-with-color/bee-B1SF.svg","response":0,"trial_type":"image-button-response","trial_index":13,"time_elapsed":100662,"internal_node_id":"0.0-4.0-0.3","subject_id":"5f8359dc31c65e0fca60103f","study_id":"60edd13110225f80f9f3709b","session_id":"6196c7090faf35c15f8a3ee9","condition":"contingent","relevant_dimensions":["antennae","wings"],"bee_group":{"antennae":"B","wings":"1","pattern":"X","legs":"X"},"action":"harvest","summary":"bad-harvest","bonus":0.6800000000000005},{"rt":2160.9000000001397,"stimulus":"\n                    <p><b>Action: <em>harvest</em></b></p>\n                    <p>This is the bee that you just saw.</p>\n                    <img src=\"bees-with-color/bee-B1SF.svg\" width=\"200\">\n                    <p><span class=\"redText\">Bad choice, the bee was angry.</span><br><b>You have been stung!</b><br>Your pay has been decreased by $0.10. Your bonus pay is now $0.46.</p>\n            ","response":0,"trial_type":"html-button-response","trial_index":14,"time_elapsed":102824,"internal_node_id":"0.0-4.0-1.3","subject_id":"5f8359dc31c65e0fca60103f","study_id":"60edd13110225f80f9f3709b","session_id":"6196c7090faf35c15f8a3ee9","condition":"contingent","relevant_dimensions":["antennae","wings"],"bee_group":{"antennae":"B","wings":"1","pattern":"X","legs":"X"},"bonus":0.6800000000000005},{"rt":962.6999999999534,"stimulus":"bees-with-color/bee-B2SF.svg","response":0,"trial_type":"image-button-response","trial_index":15,"time_elapsed":103788,"internal_node_id":"0.0-4.0-0.4","subject_id":"5f8359dc31c65e0fca60103f","study_id":"60edd13110225f80f9f3709b","session_id":"6196c7090faf35c15f8a3ee9","condition":"contingent","relevant_dimensions":["antennae","wings"],"bee_group":{"antennae":"B","wings":"1","pattern":"X","legs":"X"},"action":"harvest","summary":"good-harvest","bonus":0.6800000000000005},{"rt":1028.3000000000466,"stimulus":"\n                    <p><b>Action: <em>harvest</em></b></p>\n                    <p>This is the bee that you just saw.</p>\n                    <img src=\"bees-with-color/bee-B2SF.svg\" width=\"200\">\n                    <p><span class=\"greenText\"><b>Successful harvest!</b></span><br>Your pay has increased by $0.02. Your bonus pay is now $0.48.</p>\n            ","response":0,"trial_type":"html-button-response","trial_index":16,"time_elapsed":104818,"internal_node_id":"0.0-4.0-1.4","subject_id":"5f8359dc31c65e0fca60103f","study_id":"60edd13110225f80f9f3709b","session_id":"6196c7090faf35c15f8a3ee9","condition":"contingent","relevant_dimensions":["antennae","wings"],"bee_group":{"antennae":"B","wings":"1","pattern":"X","legs":"X"},"bonus":0.6800000000000005},{"rt":1934.8999999999069,"stimulus":"bees-with-color/bee-B2DF.svg","response":0,"trial_type":"image-button-response","trial_index":17,"time_elapsed":106754,"internal_node_id":"0.0-4.0-0.5","subject_id":"5f8359dc31c65e0fca60103f","study_id":"60edd13110225f80f9f3709b","session_id":"6196c7090faf35c15f8a3ee9","condition":"contingent","relevant_dimensions":["antennae","wings"],"bee_group":{"antennae":"B","wings":"1","pattern":"X","legs":"X"},"action":"harvest","summary":"good-harvest","bonus":0.6800000000000005},{"rt":1063.1000000000931,"stimulus":"\n                    <p><b>Action: <em>harvest</em></b></p>\n                    <p>This is the bee that you just saw.</p>\n                    <img src=\"bees-with-color/bee-B2DF.svg\" width=\"200\">\n                    <p><span class=\"greenText\"><b>Successful harvest!</b></span><br>Your pay has increased by $0.02. Your bonus pay is now $0.50.</p>\n            ","response":0,"trial_type":"html-button-response","trial_index":18,"time_elapsed":107818,"internal_node_id":"0.0-4.0-1.5","subject_id":"5f8359dc31c65e0fca60103f","study_id":"60edd13110225f80f9f3709b","session_id":"6196c7090faf35c15f8a3ee9","condition":"contingent","relevant_dimensions":["antennae","wings"],"bee_group":{"antennae":"B","wings":"1","pattern":"X","legs":"X"},"bonus":0.6800000000000005},{"rt":930.8000000000466,"stimulus":"bees-with-color/bee-A1DM.svg","response":1,"trial_type":"image-button-response","trial_index":19,"time_elapsed":108750,"internal_node_id":"0.0-4.0-0.6","subject_id":"5f8359dc31c65e0fca60103f","study_id":"60edd13110225f80f9f3709b","session_id":"6196c7090faf35c15f8a3ee9","condition":"contingent","relevant_dimensions":["antennae","wings"],"bee_group":{"antennae":"B","wings":"1","pattern":"X","legs":"X"},"action":"avoid","summary":"bad-avoid","bonus":0.6800000000000005},{"rt":758.9000000001397,"stimulus":"\n                    <p><b>Action: <em>avoid</em></b></p>\n                    <p>This is the bee that you just saw.</p>\n                    <img src=\"bees-with-color/bee-A1DM.svg\" width=\"200\">\n                    <p><br>Your bonus pay is unchanged, and remains at $0.50.</p>\n            ","response":0,"trial_type":"html-button-response","trial_index":20,"time_elapsed":109510,"internal_node_id":"0.0-4.0-1.6","subject_id":"5f8359dc31c65e0fca60103f","study_id":"60edd13110225f80f9f3709b","session_id":"6196c7090faf35c15f8a3ee9","condition":"contingent","relevant_dimensions":["antennae","wings"],"bee_group":{"antennae":"B","wings":"1","pattern":"X","legs":"X"},"bonus":0.6800000000000005},{"rt":509.4000000001397,"stimulus":"bees-with-color/bee-B1SM.svg","response":1,"trial_type":"image-button-response","trial_index":21,"time_elapsed":110020,"internal_node_id":"0.0-4.0-0.7","subject_id":"5f8359dc31c65e0fca60103f","study_id":"60edd13110225f80f9f3709b","session_id":"6196c7090faf35c15f8a3ee9","condition":"contingent","relevant_dimensions":["antennae","wings"],"bee_group":{"antennae":"B","wings":"1","pattern":"X","legs":"X"},"action":"avoid","summary":"good-avoid","bonus":0.6800000000000005},{"rt":588.6999999999534,"stimulus":"\n                    <p><b>Action: <em>avoid</em></b></p>\n                    <p>This is the bee that you just saw.</p>\n                    <img src=\"bees-with-color/bee-B1SM.svg\" width=\"200\">\n                    <p><br>Your bonus pay is unchanged, and remains at $0.50.</p>\n            ","response":0,"trial_type":"html-button-response","trial_index":22,"time_elapsed":110609,"internal_node_id":"0.0-4.0-1.7","subject_id":"5f8359dc31c65e0fca60103f","study_id":"60edd13110225f80f9f3709b","session_id":"6196c7090faf35c15f8a3ee9","condition":"contingent","relevant_dimensions":["antennae","wings"],"bee_group":{"antennae":"B","wings":"1","pattern":"X","legs":"X"},"bonus":0.6800000000000005},{"rt":843.4000000001397,"stimulus":"bees-with-color/bee-B1DF.svg","response":1,"trial_type":"image-button-response","trial_index":23,"time_elapsed":111454,"internal_node_id":"0.0-4.0-0.8","subject_id":"5f8359dc31c65e0fca60103f","study_id":"60edd13110225f80f9f3709b","session_id":"6196c7090faf35c15f8a3ee9","condition":"contingent","relevant_dimensions":["antennae","wings"],"bee_group":{"antennae":"B","wings":"1","pattern":"X","legs":"X"},"action":"avoid","summary":"good-avoid","bonus":0.6800000000000005},{"rt":590.8000000000466,"stimulus":"\n                    <p><b>Action: <em>avoid</em></b></p>\n                    <p>This is the bee that you just saw.</p>\n                    <img src=\"bees-with-color/bee-B1DF.svg\" width=\"200\">\n                    <p><br>Your bonus pay is unchanged, and remains at $0.50.</p>\n            ","response":0,"trial_type":"html-button-response","trial_index":24,"time_elapsed":112045,"internal_node_id":"0.0-4.0-1.8","subject_id":"5f8359dc31c65e0fca60103f","study_id":"60edd13110225f80f9f3709b","session_id":"6196c7090faf35c15f8a3ee9","condition":"contingent","relevant_dimensions":["antennae","wings"],"bee_group":{"antennae":"B","wings":"1","pattern":"X","legs":"X"},"bonus":0.6800000000000005},{"rt":811.3999999999069,"stimulus":"bees-with-color/bee-B1DM.svg","response":0,"trial_type":"image-button-response","trial_index":25,"time_elapsed":112858,"internal_node_id":"0.0-4.0-0.9","subject_id":"5f8359dc31c65e0fca60103f","study_id":"60edd13110225f80f9f3709b","session_id":"6196c7090faf35c15f8a3ee9","condition":"contingent","relevant_dimensions":["antennae","wings"],"bee_group":{"antennae":"B","wings":"1","pattern":"X","legs":"X"},"action":"harvest","summary":"bad-harvest","bonus":0.6800000000000005},{"rt":1009,"stimulus":"\n                    <p><b>Action: <em>harvest</em></b></p>\n                    <p>This is the bee that you just saw.</p>\n                    <img src=\"bees-with-color/bee-B1DM.svg\" width=\"200\">\n                    <p><span class=\"redText\">Bad choice, the bee was angry.</span><br><b>You have been stung!</b><br>Your pay has been decreased by $0.10. Your bonus pay is now $0.40.</p>\n            ","response":0,"trial_type":"html-button-response","trial_index":26,"time_elapsed":113868,"internal_node_id":"0.0-4.0-1.9","subject_id":"5f8359dc31c65e0fca60103f","study_id":"60edd13110225f80f9f3709b","session_id":"6196c7090faf35c15f8a3ee9","condition":"contingent","relevant_dimensions":["antennae","wings"],"bee_group":{"antennae":"B","wings":"1","pattern":"X","legs":"X"},"bonus":0.6800000000000005},{"rt":901.1999999999534,"stimulus":"bees-with-color/bee-A2DM.svg","response":0,"trial_type":"image-button-response","trial_index":27,"time_elapsed":114770,"internal_node_id":"0.0-4.0-0.10","subject_id":"5f8359dc31c65e0fca60103f","study_id":"60edd13110225f80f9f3709b","session_id":"6196c7090faf35c15f8a3ee9","condition":"contingent","relevant_dimensions":["antennae","wings"],"bee_group":{"antennae":"B","wings":"1","pattern":"X","legs":"X"},"action":"harvest","summary":"good-harvest","bonus":0.6800000000000005},{"rt":964.8000000000466,"stimulus":"\n                    <p><b>Action: <em>harvest</em></b></p>\n                    <p>This is the bee that you just saw.</p>\n                    <img src=\"bees-with-color/bee-A2DM.svg\" width=\"200\">\n                    <p><span class=\"greenText\"><b>Successful harvest!</b></span><br>Your pay has increased by $0.02. Your bonus pay is now $0.42.</p>\n            ","response":0,"trial_type":"html-button-response","trial_index":28,"time_elapsed":115736,"internal_node_id":"0.0-4.0-1.10","subject_id":"5f8359dc31c65e0fca60103f","study_id":"60edd13110225f80f9f3709b","session_id":"6196c7090faf35c15f8a3ee9","condition":"contingent","relevant_dimensions":["antennae","wings"],"bee_group":{"antennae":"B","wings":"1","pattern":"X","legs":"X"},"bonus":0.6800000000000005},{"rt":1083.1999999999534,"stimulus":"bees-with-color/bee-A1SF.svg","response":0,"trial_type":"image-button-response","trial_index":29,"time_elapsed":116820,"internal_node_id":"0.0-4.0-0.11","subject_id":"5f8359dc31c65e0fca60103f","study_id":"60edd13110225f80f9f3709b","session_id":"6196c7090faf35c15f8a3ee9","condition":"contingent","relevant_dimensions":["antennae","wings"],"bee_group":{"antennae":"B","wings":"1","pattern":"X","legs":"X"},"action":"harvest","summary":"good-harvest","bonus":0.6800000000000005},{"rt":1021,"stimulus":"\n                    <p><b>Action: <em>harvest</em></b></p>\n                    <p>This is the bee that you just saw.</p>\n                    <img src=\"bees-with-color/bee-A1SF.svg\" width=\"200\">\n                    <p><span class=\"greenText\"><b>Successful harvest!</b></span><br>Your pay has increased by $0.02. Your bonus pay is now $0.44.</p>\n            ","response":0,"trial_type":"html-button-response","trial_index":30,"time_elapsed":117842,"internal_node_id":"0.0-4.0-1.11","subject_id":"5f8359dc31c65e0fca60103f","study_id":"60edd13110225f80f9f3709b","session_id":"6196c7090faf35c15f8a3ee9","condition":"contingent","relevant_dimensions":["antennae","wings"],"bee_group":{"antennae":"B","wings":"1","pattern":"X","legs":"X"},"bonus":0.6800000000000005},{"rt":1212.6999999999534,"stimulus":"bees-with-color/bee-A2SF.svg","response":0,"trial_type":"image-button-response","trial_index":31,"time_elapsed":119055,"internal_node_id":"0.0-4.0-0.12","subject_id":"5f8359dc31c65e0fca60103f","study_id":"60edd13110225f80f9f3709b","session_id":"6196c7090faf35c15f8a3ee9","condition":"contingent","relevant_dimensions":["antennae","wings"],"bee_group":{"antennae":"B","wings":"1","pattern":"X","legs":"X"},"action":"harvest","summary":"good-harvest","bonus":0.6800000000000005},{"rt":1105.3000000000466,"stimulus":"\n                    <p><b>Action: <em>harvest</em></b></p>\n                    <p>This is the bee that you just saw.</p>\n                    <img src=\"bees-with-color/bee-A2SF.svg\" width=\"200\">\n                    <p><span class=\"greenText\"><b>Successful harvest!</b></span><br>Your pay has increased by $0.02. Your bonus pay is now $0.46.</p>\n            ","response":0,"trial_type":"html-button-response","trial_index":32,"time_elapsed":120162,"internal_node_id":"0.0-4.0-1.12","subject_id":"5f8359dc31c65e0fca60103f","study_id":"60edd13110225f80f9f3709b","session_id":"6196c7090faf35c15f8a3ee9","condition":"contingent","relevant_dimensions":["antennae","wings"],"bee_group":{"antennae":"B","wings":"1","pattern":"X","legs":"X"},"bonus":0.6800000000000005},{"rt":2172.8000000000466,"stimulus":"bees-with-color/bee-B2SM.svg","response":1,"trial_type":"image-button-response","trial_index":33,"time_elapsed":122335,"internal_node_id":"0.0-4.0-0.13","subject_id":"5f8359dc31c65e0fca60103f","study_id":"60edd13110225f80f9f3709b","session_id":"6196c7090faf35c15f8a3ee9","condition":"contingent","relevant_dimensions":["antennae","wings"],"bee_group":{"antennae":"B","wings":"1","pattern":"X","legs":"X"},"action":"avoid","summary":"bad-avoid","bonus":0.6800000000000005},{"rt":1007.3000000000466,"stimulus":"\n                    <p><b>Action: <em>avoid</em></b></p>\n                    <p>This is the bee that you just saw.</p>\n                    <img src=\"bees-with-color/bee-B2SM.svg\" width=\"200\">\n                    <p><br>Your bonus pay is unchanged, and remains at $0.46.</p>\n            ","response":0,"trial_type":"html-button-response","trial_index":34,"time_elapsed":123344,"internal_node_id":"0.0-4.0-1.13","subject_id":"5f8359dc31c65e0fca60103f","study_id":"60edd13110225f80f9f3709b","session_id":"6196c7090faf35c15f8a3ee9","condition":"contingent","relevant_dimensions":["antennae","wings"],"bee_group":{"antennae":"B","wings":"1","pattern":"X","legs":"X"},"bonus":0.6800000000000005},{"rt":942.9000000001397,"stimulus":"bees-with-color/bee-B2DM.svg","response":1,"trial_type":"image-button-response","trial_index":35,"time_elapsed":124288,"internal_node_id":"0.0-4.0-0.14","subject_id":"5f8359dc31c65e0fca60103f","study_id":"60edd13110225f80f9f3709b","session_id":"6196c7090faf35c15f8a3ee9","condition":"contingent","relevant_dimensions":["antennae","wings"],"bee_group":{"antennae":"B","wings":"1","pattern":"X","legs":"X"},"action":"avoid","summary":"bad-avoid","bonus":0.6800000000000005},{"rt":426.5,"stimulus":"\n                    <p><b>Action: <em>avoid</em></b></p>\n                    <p>This is the bee that you just saw.</p>\n                    <img src=\"bees-with-color/bee-B2DM.svg\" width=\"200\">\n                    <p><br>Your bonus pay is unchanged, and remains at $0.46.</p>\n            ","response":0,"trial_type":"html-button-response","trial_index":36,"time_elapsed":124715,"internal_node_id":"0.0-4.0-1.14","subject_id":"5f8359dc31c65e0fca60103f","study_id":"60edd13110225f80f9f3709b","session_id":"6196c7090faf35c15f8a3ee9","condition":"contingent","relevant_dimensions":["antennae","wings"],"bee_group":{"antennae":"B","wings":"1","pattern":"X","legs":"X"},"bonus":0.6800000000000005},{"rt":1575.4000000001397,"stimulus":"bees-with-color/bee-A1SM.svg","response":1,"trial_type":"image-button-response","trial_index":37,"time_elapsed":126292,"internal_node_id":"0.0-4.0-0.15","subject_id":"5f8359dc31c65e0fca60103f","study_id":"60edd13110225f80f9f3709b","session_id":"6196c7090faf35c15f8a3ee9","condition":"contingent","relevant_dimensions":["antennae","wings"],"bee_group":{"antennae":"B","wings":"1","pattern":"X","legs":"X"},"action":"avoid","summary":"bad-avoid","bonus":0.6800000000000005},{"rt":435,"stimulus":"\n                    <p><b>Action: <em>avoid</em></b></p>\n                    <p>This is the bee that you just saw.</p>\n                    <img src=\"bees-with-color/bee-A1SM.svg\" width=\"200\">\n                    <p><br>Your bonus pay is unchanged, and remains at $0.46.</p>\n            ","response":0,"trial_type":"html-button-response","trial_index":38,"time_elapsed":126728,"internal_node_id":"0.0-4.0-1.15","subject_id":"5f8359dc31c65e0fca60103f","study_id":"60edd13110225f80f9f3709b","session_id":"6196c7090faf35c15f8a3ee9","condition":"contingent","relevant_dimensions":["antennae","wings"],"bee_group":{"antennae":"B","wings":"1","pattern":"X","legs":"X"},"bonus":0.6800000000000005},{"rt":1080.8999999999069,"stimulus":"bees-with-color/bee-B1DM.svg","response":1,"trial_type":"image-button-response","trial_index":39,"time_elapsed":127809,"internal_node_id":"0.0-4.0-0.16","subject_id":"5f8359dc31c65e0fca60103f","study_id":"60edd13110225f80f9f3709b","session_id":"6196c7090faf35c15f8a3ee9","condition":"contingent","relevant_dimensions":["antennae","wings"],"bee_group":{"antennae":"B","wings":"1","pattern":"X","legs":"X"},"action":"avoid","summary":"good-avoid","bonus":0.6800000000000005},{"rt":411.30000000004657,"stimulus":"\n                    <p><b>Action: <em>avoid</em></b></p>\n                    <p>This is the bee that you just saw.</p>\n                    <img src=\"bees-with-color/bee-B1DM.svg\" width=\"200\">\n                    <p><br>Your bonus pay is unchanged, and remains at $0.46.</p>\n            ","response":0,"trial_type":"html-button-response","trial_index":40,"time_elapsed":128221,"internal_node_id":"0.0-4.0-1.16","subject_id":"5f8359dc31c65e0fca60103f","study_id":"60edd13110225f80f9f3709b","session_id":"6196c7090faf35c15f8a3ee9","condition":"contingent","relevant_dimensions":["antennae","wings"],"bee_group":{"antennae":"B","wings":"1","pattern":"X","legs":"X"},"bonus":0.6800000000000005},{"rt":929.3999999999069,"stimulus":"bees-with-color/bee-A1DF.svg","response":1,"trial_type":"image-button-response","trial_index":41,"time_elapsed":129152,"internal_node_id":"0.0-4.0-0.17","subject_id":"5f8359dc31c65e0fca60103f","study_id":"60edd13110225f80f9f3709b","session_id":"6196c7090faf35c15f8a3ee9","condition":"contingent","relevant_dimensions":["antennae","wings"],"bee_group":{"antennae":"B","wings":"1","pattern":"X","legs":"X"},"action":"avoid","summary":"bad-avoid","bonus":0.6800000000000005},{"rt":410.89999999990687,"stimulus":"\n                    <p><b>Action: <em>avoid</em></b></p>\n                    <p>This is the bee that you just saw.</p>\n                    <img src=\"bees-with-color/bee-A1DF.svg\" width=\"200\">\n                    <p><br>Your bonus pay is unchanged, and remains at $0.46.</p>\n            ","response":0,"trial_type":"html-button-response","trial_index":42,"time_elapsed":129563,"internal_node_id":"0.0-4.0-1.17","subject_id":"5f8359dc31c65e0fca60103f","study_id":"60edd13110225f80f9f3709b","session_id":"6196c7090faf35c15f8a3ee9","condition":"contingent","relevant_dimensions":["antennae","wings"],"bee_group":{"antennae":"B","wings":"1","pattern":"X","legs":"X"},"bonus":0.6800000000000005},{"rt":1127.2000000001863,"stimulus":"bees-with-color/bee-B2DF.svg","response":1,"trial_type":"image-button-response","trial_index":43,"time_elapsed":130692,"internal_node_id":"0.0-4.0-0.18","subject_id":"5f8359dc31c65e0fca60103f","study_id":"60edd13110225f80f9f3709b","session_id":"6196c7090faf35c15f8a3ee9","condition":"contingent","relevant_dimensions":["antennae","wings"],"bee_group":{"antennae":"B","wings":"1","pattern":"X","legs":"X"},"action":"avoid","summary":"bad-avoid","bonus":0.6800000000000005},{"rt":363.19999999995343,"stimulus":"\n                    <p><b>Action: <em>avoid</em></b></p>\n                    <p>This is the bee that you just saw.</p>\n                    <img src=\"bees-with-color/bee-B2DF.svg\" width=\"200\">\n                    <p><br>Your bonus pay is unchanged, and remains at $0.46.</p>\n            ","response":0,"trial_type":"html-button-response","trial_index":44,"time_elapsed":131056,"internal_node_id":"0.0-4.0-1.18","subject_id":"5f8359dc31c65e0fca60103f","study_id":"60edd13110225f80f9f3709b","session_id":"6196c7090faf35c15f8a3ee9","condition":"contingent","relevant_dimensions":["antennae","wings"],"bee_group":{"antennae":"B","wings":"1","pattern":"X","legs":"X"},"bonus":0.6800000000000005},{"rt":1161.1999999999534,"stimulus":"bees-with-color/bee-A2SM.svg","response":0,"trial_type":"image-button-response","trial_index":45,"time_elapsed":132218,"internal_node_id":"0.0-4.0-0.19","subject_id":"5f8359dc31c65e0fca60103f","study_id":"60edd13110225f80f9f3709b","session_id":"6196c7090faf35c15f8a3ee9","condition":"contingent","relevant_dimensions":["antennae","wings"],"bee_group":{"antennae":"B","wings":"1","pattern":"X","legs":"X"},"action":"harvest","summary":"good-harvest","bonus":0.6800000000000005},{"rt":751,"stimulus":"\n                    <p><b>Action: <em>harvest</em></b></p>\n                    <p>This is the bee that you just saw.</p>\n                    <img src=\"bees-with-color/bee-A2SM.svg\" width=\"200\">\n                    <p><span class=\"greenText\"><b>Successful harvest!</b></span><br>Your pay has increased by $0.02. Your bonus pay is now $0.48.</p>\n            ","response":0,"trial_type":"html-button-response","trial_index":46,"time_elapsed":132970,"internal_node_id":"0.0-4.0-1.19","subject_id":"5f8359dc31c65e0fca60103f","study_id":"60edd13110225f80f9f3709b","session_id":"6196c7090faf35c15f8a3ee9","condition":"contingent","relevant_dimensions":["antennae","wings"],"bee_group":{"antennae":"B","wings":"1","pattern":"X","legs":"X"},"bonus":0.6800000000000005},{"rt":2553,"stimulus":"bees-with-color/bee-A1SM.svg","response":0,"trial_type":"image-button-response","trial_index":47,"time_elapsed":135524,"internal_node_id":"0.0-4.0-0.20","subject_id":"5f8359dc31c65e0fca60103f","study_id":"60edd13110225f80f9f3709b","session_id":"6196c7090faf35c15f8a3ee9","condition":"contingent","relevant_dimensions":["antennae","wings"],"bee_group":{"antennae":"B","wings":"1","pattern":"X","legs":"X"},"action":"harvest","summary":"good-harvest","bonus":0.6800000000000005},{"rt":949,"stimulus":"\n                    <p><b>Action: <em>harvest</em></b></p>\n                    <p>This is the bee that you just saw.</p>\n                    <img src=\"bees-with-color/bee-A1SM.svg\" width=\"200\">\n                    <p><span class=\"greenText\"><b>Successful harvest!</b></span><br>Your pay has increased by $0.02. Your bonus pay is now $0.50.</p>\n            ","response":0,"trial_type":"html-button-response","trial_index":48,"time_elapsed":136474,"internal_node_id":"0.0-4.0-1.20","subject_id":"5f8359dc31c65e0fca60103f","study_id":"60edd13110225f80f9f3709b","session_id":"6196c7090faf35c15f8a3ee9","condition":"contingent","relevant_dimensions":["antennae","wings"],"bee_group":{"antennae":"B","wings":"1","pattern":"X","legs":"X"},"bonus":0.6800000000000005},{"rt":1186.8999999999069,"stimulus":"bees-with-color/bee-B1DF.svg","response":1,"trial_type":"image-button-response","trial_index":49,"time_elapsed":137662,"internal_node_id":"0.0-4.0-0.21","subject_id":"5f8359dc31c65e0fca60103f","study_id":"60edd13110225f80f9f3709b","session_id":"6196c7090faf35c15f8a3ee9","condition":"contingent","relevant_dimensions":["antennae","wings"],"bee_group":{"antennae":"B","wings":"1","pattern":"X","legs":"X"},"action":"avoid","summary":"good-avoid","bonus":0.6800000000000005},{"rt":715.0999999998603,"stimulus":"\n                    <p><b>Action: <em>avoid</em></b></p>\n                    <p>This is the bee that you just saw.</p>\n                    <img src=\"bees-with-color/bee-B1DF.svg\" width=\"200\">\n                    <p><br>Your bonus pay is unchanged, and remains at $0.50.</p>\n            ","response":0,"trial_type":"html-button-response","trial_index":50,"time_elapsed":138378,"internal_node_id":"0.0-4.0-1.21","subject_id":"5f8359dc31c65e0fca60103f","study_id":"60edd13110225f80f9f3709b","session_id":"6196c7090faf35c15f8a3ee9","condition":"contingent","relevant_dimensions":["antennae","wings"],"bee_group":{"antennae":"B","wings":"1","pattern":"X","legs":"X"},"bonus":0.6800000000000005},{"rt":1139.0999999998603,"stimulus":"bees-with-color/bee-A1SF.svg","response":1,"trial_type":"image-button-response","trial_index":51,"time_elapsed":139518,"internal_node_id":"0.0-4.0-0.22","subject_id":"5f8359dc31c65e0fca60103f","study_id":"60edd13110225f80f9f3709b","session_id":"6196c7090faf35c15f8a3ee9","condition":"contingent","relevant_dimensions":["antennae","wings"],"bee_group":{"antennae":"B","wings":"1","pattern":"X","legs":"X"},"action":"avoid","summary":"bad-avoid","bonus":0.6800000000000005},{"rt":622.8000000000466,"stimulus":"\n                    <p><b>Action: <em>avoid</em></b></p>\n                    <p>This is the bee that you just saw.</p>\n                    <img src=\"bees-with-color/bee-A1SF.svg\" width=\"200\">\n                    <p><br>Your bonus pay is unchanged, and remains at $0.50.</p>\n            ","response":0,"trial_type":"html-button-response","trial_index":52,"time_elapsed":140142,"internal_node_id":"0.0-4.0-1.22","subject_id":"5f8359dc31c65e0fca60103f","study_id":"60edd13110225f80f9f3709b","session_id":"6196c7090faf35c15f8a3ee9","condition":"contingent","relevant_dimensions":["antennae","wings"],"bee_group":{"antennae":"B","wings":"1","pattern":"X","legs":"X"},"bonus":0.6800000000000005},{"rt":679.1999999999534,"stimulus":"bees-with-color/bee-A2DF.svg","response":1,"trial_type":"image-button-response","trial_index":53,"time_elapsed":140822,"internal_node_id":"0.0-4.0-0.23","subject_id":"5f8359dc31c65e0fca60103f","study_id":"60edd13110225f80f9f3709b","session_id":"6196c7090faf35c15f8a3ee9","condition":"contingent","relevant_dimensions":["antennae","wings"],"bee_group":{"antennae":"B","wings":"1","pattern":"X","legs":"X"},"action":"avoid","summary":"bad-avoid","bonus":0.6800000000000005},{"rt":520.5,"stimulus":"\n                    <p><b>Action: <em>avoid</em></b></p>\n                    <p>This is the bee that you just saw.</p>\n                    <img src=\"bees-with-color/bee-A2DF.svg\" width=\"200\">\n                    <p><br>Your bonus pay is unchanged, and remains at $0.50.</p>\n            ","response":0,"trial_type":"html-button-response","trial_index":54,"time_elapsed":141343,"internal_node_id":"0.0-4.0-1.23","subject_id":"5f8359dc31c65e0fca60103f","study_id":"60edd13110225f80f9f3709b","session_id":"6196c7090faf35c15f8a3ee9","condition":"contingent","relevant_dimensions":["antennae","wings"],"bee_group":{"antennae":"B","wings":"1","pattern":"X","legs":"X"},"bonus":0.6800000000000005},{"rt":1096.8999999999069,"stimulus":"bees-with-color/bee-A2SF.svg","response":1,"trial_type":"image-button-response","trial_index":55,"time_elapsed":142442,"internal_node_id":"0.0-4.0-0.24","subject_id":"5f8359dc31c65e0fca60103f","study_id":"60edd13110225f80f9f3709b","session_id":"6196c7090faf35c15f8a3ee9","condition":"contingent","relevant_dimensions":["antennae","wings"],"bee_group":{"antennae":"B","wings":"1","pattern":"X","legs":"X"},"action":"avoid","summary":"bad-avoid","bonus":0.6800000000000005},{"rt":519.0999999998603,"stimulus":"\n                    <p><b>Action: <em>avoid</em></b></p>\n                    <p>This is the bee that you just saw.</p>\n                    <img src=\"bees-with-color/bee-A2SF.svg\" width=\"200\">\n                    <p><br>Your bonus pay is unchanged, and remains at $0.50.</p>\n            ","response":0,"trial_type":"html-button-response","trial_index":56,"time_elapsed":142962,"internal_node_id":"0.0-4.0-1.24","subject_id":"5f8359dc31c65e0fca60103f","study_id":"60edd13110225f80f9f3709b","session_id":"6196c7090faf35c15f8a3ee9","condition":"contingent","relevant_dimensions":["antennae","wings"],"bee_group":{"antennae":"B","wings":"1","pattern":"X","legs":"X"},"bonus":0.6800000000000005},{"rt":911.3000000000466,"stimulus":"bees-with-color/bee-B1SM.svg","response":1,"trial_type":"image-button-response","trial_index":57,"time_elapsed":143874,"internal_node_id":"0.0-4.0-0.25","subject_id":"5f8359dc31c65e0fca60103f","study_id":"60edd13110225f80f9f3709b","session_id":"6196c7090faf35c15f8a3ee9","condition":"contingent","relevant_dimensions":["antennae","wings"],"bee_group":{"antennae":"B","wings":"1","pattern":"X","legs":"X"},"action":"avoid","summary":"good-avoid","bonus":0.6800000000000005},{"rt":465,"stimulus":"\n                    <p><b>Action: <em>avoid</em></b></p>\n                    <p>This is the bee that you just saw.</p>\n                    <img src=\"bees-with-color/bee-B1SM.svg\" width=\"200\">\n                    <p><br>Your bonus pay is unchanged, and remains at $0.50.</p>\n            ","response":0,"trial_type":"html-button-response","trial_index":58,"time_elapsed":144340,"internal_node_id":"0.0-4.0-1.25","subject_id":"5f8359dc31c65e0fca60103f","study_id":"60edd13110225f80f9f3709b","session_id":"6196c7090faf35c15f8a3ee9","condition":"contingent","relevant_dimensions":["antennae","wings"],"bee_group":{"antennae":"B","wings":"1","pattern":"X","legs":"X"},"bonus":0.6800000000000005},{"rt":865.2000000001863,"stimulus":"bees-with-color/bee-B2DM.svg","response":1,"trial_type":"image-button-response","trial_index":59,"time_elapsed":145206,"internal_node_id":"0.0-4.0-0.26","subject_id":"5f8359dc31c65e0fca60103f","study_id":"60edd13110225f80f9f3709b","session_id":"6196c7090faf35c15f8a3ee9","condition":"contingent","relevant_dimensions":["antennae","wings"],"bee_group":{"antennae":"B","wings":"1","pattern":"X","legs":"X"},"action":"avoid","summary":"bad-avoid","bonus":0.6800000000000005},{"rt":388.69999999995343,"stimulus":"\n                    <p><b>Action: <em>avoid</em></b></p>\n                    <p>This is the bee that you just saw.</p>\n                    <img src=\"bees-with-color/bee-B2DM.svg\" width=\"200\">\n                    <p><br>Your bonus pay is unchanged, and remains at $0.50.</p>\n            ","response":0,"trial_type":"html-button-response","trial_index":60,"time_elapsed":145595,"internal_node_id":"0.0-4.0-1.26","subject_id":"5f8359dc31c65e0fca60103f","study_id":"60edd13110225f80f9f3709b","session_id":"6196c7090faf35c15f8a3ee9","condition":"contingent","relevant_dimensions":["antennae","wings"],"bee_group":{"antennae":"B","wings":"1","pattern":"X","legs":"X"},"bonus":0.6800000000000005},{"rt":2239.5,"stimulus":"bees-with-color/bee-B2SF.svg","response":1,"trial_type":"image-button-response","trial_index":61,"time_elapsed":147835,"internal_node_id":"0.0-4.0-0.27","subject_id":"5f8359dc31c65e0fca60103f","study_id":"60edd13110225f80f9f3709b","session_id":"6196c7090faf35c15f8a3ee9","condition":"contingent","relevant_dimensions":["antennae","wings"],"bee_group":{"antennae":"B","wings":"1","pattern":"X","legs":"X"},"action":"avoid","summary":"bad-avoid","bonus":0.6800000000000005},{"rt":401.10000000009313,"stimulus":"\n                    <p><b>Action: <em>avoid</em></b></p>\n                    <p>This is the bee that you just saw.</p>\n                    <img src=\"bees-with-color/bee-B2SF.svg\" width=\"200\">\n                    <p><br>Your bonus pay is unchanged, and remains at $0.50.</p>\n            ","response":0,"trial_type":"html-button-response","trial_index":62,"time_elapsed":148238,"internal_node_id":"0.0-4.0-1.27","subject_id":"5f8359dc31c65e0fca60103f","study_id":"60edd13110225f80f9f3709b","session_id":"6196c7090faf35c15f8a3ee9","condition":"contingent","relevant_dimensions":["antennae","wings"],"bee_group":{"antennae":"B","wings":"1","pattern":"X","legs":"X"},"bonus":0.6800000000000005},{"rt":803.1000000000931,"stimulus":"bees-with-color/bee-B1SF.svg","response":1,"trial_type":"image-button-response","trial_index":63,"time_elapsed":149041,"internal_node_id":"0.0-4.0-0.28","subject_id":"5f8359dc31c65e0fca60103f","study_id":"60edd13110225f80f9f3709b","session_id":"6196c7090faf35c15f8a3ee9","condition":"contingent","relevant_dimensions":["antennae","wings"],"bee_group":{"antennae":"B","wings":"1","pattern":"X","legs":"X"},"action":"avoid","summary":"good-avoid","bonus":0.6800000000000005},{"rt":457.10000000009313,"stimulus":"\n                    <p><b>Action: <em>avoid</em></b></p>\n                    <p>This is the bee that you just saw.</p>\n                    <img src=\"bees-with-color/bee-B1SF.svg\" width=\"200\">\n                    <p><br>Your bonus pay is unchanged, and remains at $0.50.</p>\n            ","response":0,"trial_type":"html-button-response","trial_index":64,"time_elapsed":149500,"internal_node_id":"0.0-4.0-1.28","subject_id":"5f8359dc31c65e0fca60103f","study_id":"60edd13110225f80f9f3709b","session_id":"6196c7090faf35c15f8a3ee9","condition":"contingent","relevant_dimensions":["antennae","wings"],"bee_group":{"antennae":"B","wings":"1","pattern":"X","legs":"X"},"bonus":0.6800000000000005},{"rt":1043.3000000000466,"stimulus":"bees-with-color/bee-A1DM.svg","response":1,"trial_type":"image-button-response","trial_index":65,"time_elapsed":150544,"internal_node_id":"0.0-4.0-0.29","subject_id":"5f8359dc31c65e0fca60103f","study_id":"60edd13110225f80f9f3709b","session_id":"6196c7090faf35c15f8a3ee9","condition":"contingent","relevant_dimensions":["antennae","wings"],"bee_group":{"antennae":"B","wings":"1","pattern":"X","legs":"X"},"action":"avoid","summary":"bad-avoid","bonus":0.6800000000000005},{"rt":403,"stimulus":"\n                    <p><b>Action: <em>avoid</em></b></p>\n                    <p>This is the bee that you just saw.</p>\n                    <img src=\"bees-with-color/bee-A1DM.svg\" width=\"200\">\n                    <p><br>Your bonus pay is unchanged, and remains at $0.50.</p>\n            ","response":0,"trial_type":"html-button-response","trial_index":66,"time_elapsed":150948,"internal_node_id":"0.0-4.0-1.29","subject_id":"5f8359dc31c65e0fca60103f","study_id":"60edd13110225f80f9f3709b","session_id":"6196c7090faf35c15f8a3ee9","condition":"contingent","relevant_dimensions":["antennae","wings"],"bee_group":{"antennae":"B","wings":"1","pattern":"X","legs":"X"},"bonus":0.6800000000000005},{"rt":699.1000000000931,"stimulus":"bees-with-color/bee-A2DM.svg","response":1,"trial_type":"image-button-response","trial_index":67,"time_elapsed":151648,"internal_node_id":"0.0-4.0-0.30","subject_id":"5f8359dc31c65e0fca60103f","study_id":"60edd13110225f80f9f3709b","session_id":"6196c7090faf35c15f8a3ee9","condition":"contingent","relevant_dimensions":["antennae","wings"],"bee_group":{"antennae":"B","wings":"1","pattern":"X","legs":"X"},"action":"avoid","summary":"bad-avoid","bonus":0.6800000000000005},{"rt":393,"stimulus":"\n                    <p><b>Action: <em>avoid</em></b></p>\n                    <p>This is the bee that you just saw.</p>\n                    <img src=\"bees-with-color/bee-A2DM.svg\" width=\"200\">\n                    <p><br>Your bonus pay is unchanged, and remains at $0.50.</p>\n            ","response":0,"trial_type":"html-button-response","trial_index":68,"time_elapsed":152042,"internal_node_id":"0.0-4.0-1.30","subject_id":"5f8359dc31c65e0fca60103f","study_id":"60edd13110225f80f9f3709b","session_id":"6196c7090faf35c15f8a3ee9","condition":"contingent","relevant_dimensions":["antennae","wings"],"bee_group":{"antennae":"B","wings":"1","pattern":"X","legs":"X"},"bonus":0.6800000000000005},{"rt":1205.1000000000931,"stimulus":"bees-with-color/bee-B2SM.svg","response":0,"trial_type":"image-button-response","trial_index":69,"time_elapsed":153248,"internal_node_id":"0.0-4.0-0.31","subject_id":"5f8359dc31c65e0fca60103f","study_id":"60edd13110225f80f9f3709b","session_id":"6196c7090faf35c15f8a3ee9","condition":"contingent","relevant_dimensions":["antennae","wings"],"bee_group":{"antennae":"B","wings":"1","pattern":"X","legs":"X"},"action":"harvest","summary":"good-harvest","bonus":0.6800000000000005},{"rt":941.1000000000931,"stimulus":"\n                    <p><b>Action: <em>harvest</em></b></p>\n                    <p>This is the bee that you just saw.</p>\n                    <img src=\"bees-with-color/bee-B2SM.svg\" width=\"200\">\n                    <p><span class=\"greenText\"><b>Successful harvest!</b></span><br>Your pay has increased by $0.02. Your bonus pay is now $0.52.</p>\n            ","response":0,"trial_type":"html-button-response","trial_index":70,"time_elapsed":154189,"internal_node_id":"0.0-4.0-1.31","subject_id":"5f8359dc31c65e0fca60103f","study_id":"60edd13110225f80f9f3709b","session_id":"6196c7090faf35c15f8a3ee9","condition":"contingent","relevant_dimensions":["antennae","wings"],"bee_group":{"antennae":"B","wings":"1","pattern":"X","legs":"X"},"bonus":0.6800000000000005},{"rt":905,"stimulus":"bees-with-color/bee-B1SM.svg","response":0,"trial_type":"image-button-response","trial_index":71,"time_elapsed":155095,"internal_node_id":"0.0-4.0-0.32","subject_id":"5f8359dc31c65e0fca60103f","study_id":"60edd13110225f80f9f3709b","session_id":"6196c7090faf35c15f8a3ee9","condition":"contingent","relevant_dimensions":["antennae","wings"],"bee_group":{"antennae":"B","wings":"1","pattern":"X","legs":"X"},"action":"harvest","summary":"bad-harvest","bonus":0.6800000000000005},{"rt":2545,"stimulus":"\n                    <p><b>Action: <em>harvest</em></b></p>\n                    <p>This is the bee that you just saw.</p>\n                    <img src=\"bees-with-color/bee-B1SM.svg\" width=\"200\">\n                    <p><span class=\"redText\">Bad choice, the bee was angry.</span><br><b>You have been stung!</b><br>Your pay has been decreased by $0.10. Your bonus pay is now $0.42.</p>\n            ","response":0,"trial_type":"html-button-response","trial_index":72,"time_elapsed":157641,"internal_node_id":"0.0-4.0-1.32","subject_id":"5f8359dc31c65e0fca60103f","study_id":"60edd13110225f80f9f3709b","session_id":"6196c7090faf35c15f8a3ee9","condition":"contingent","relevant_dimensions":["antennae","wings"],"bee_group":{"antennae":"B","wings":"1","pattern":"X","legs":"X"},"bonus":0.6800000000000005},{"rt":956.8999999999069,"stimulus":"bees-with-color/bee-B2SF.svg","response":0,"trial_type":"image-button-response","trial_index":73,"time_elapsed":158600,"internal_node_id":"0.0-4.0-0.33","subject_id":"5f8359dc31c65e0fca60103f","study_id":"60edd13110225f80f9f3709b","session_id":"6196c7090faf35c15f8a3ee9","condition":"contingent","relevant_dimensions":["antennae","wings"],"bee_group":{"antennae":"B","wings":"1","pattern":"X","legs":"X"},"action":"harvest","summary":"good-harvest","bonus":0.6800000000000005},{"rt":632.8000000000466,"stimulus":"\n                    <p><b>Action: <em>harvest</em></b></p>\n                    <p>This is the bee that you just saw.</p>\n                    <img src=\"bees-with-color/bee-B2SF.svg\" width=\"200\">\n                    <p><span class=\"greenText\"><b>Successful harvest!</b></span><br>Your pay has increased by $0.02. Your bonus pay is now $0.44.</p>\n            ","response":0,"trial_type":"html-button-response","trial_index":74,"time_elapsed":159233,"internal_node_id":"0.0-4.0-1.33","subject_id":"5f8359dc31c65e0fca60103f","study_id":"60edd13110225f80f9f3709b","session_id":"6196c7090faf35c15f8a3ee9","condition":"contingent","relevant_dimensions":["antennae","wings"],"bee_group":{"antennae":"B","wings":"1","pattern":"X","legs":"X"},"bonus":0.6800000000000005},{"rt":431.19999999995343,"stimulus":"bees-with-color/bee-B1SF.svg","response":1,"trial_type":"image-button-response","trial_index":75,"time_elapsed":159665,"internal_node_id":"0.0-4.0-0.34","subject_id":"5f8359dc31c65e0fca60103f","study_id":"60edd13110225f80f9f3709b","session_id":"6196c7090faf35c15f8a3ee9","condition":"contingent","relevant_dimensions":["antennae","wings"],"bee_group":{"antennae":"B","wings":"1","pattern":"X","legs":"X"},"action":"avoid","summary":"good-avoid","bonus":0.6800000000000005},{"rt":851.5,"stimulus":"\n                    <p><b>Action: <em>avoid</em></b></p>\n                    <p>This is the bee that you just saw.</p>\n                    <img src=\"bees-with-color/bee-B1SF.svg\" width=\"200\">\n                    <p><br>Your bonus pay is unchanged, and remains at $0.44.</p>\n            ","response":0,"trial_type":"html-button-response","trial_index":76,"time_elapsed":160518,"internal_node_id":"0.0-4.0-1.34","subject_id":"5f8359dc31c65e0fca60103f","study_id":"60edd13110225f80f9f3709b","session_id":"6196c7090faf35c15f8a3ee9","condition":"contingent","relevant_dimensions":["antennae","wings"],"bee_group":{"antennae":"B","wings":"1","pattern":"X","legs":"X"},"bonus":0.6800000000000005},{"rt":979,"stimulus":"bees-with-color/bee-A2DM.svg","response":0,"trial_type":"image-button-response","trial_index":77,"time_elapsed":161497,"internal_node_id":"0.0-4.0-0.35","subject_id":"5f8359dc31c65e0fca60103f","study_id":"60edd13110225f80f9f3709b","session_id":"6196c7090faf35c15f8a3ee9","condition":"contingent","relevant_dimensions":["antennae","wings"],"bee_group":{"antennae":"B","wings":"1","pattern":"X","legs":"X"},"action":"harvest","summary":"good-harvest","bonus":0.6800000000000005},{"rt":765.2000000001863,"stimulus":"\n                    <p><b>Action: <em>harvest</em></b></p>\n                    <p>This is the bee that you just saw.</p>\n                    <img src=\"bees-with-color/bee-A2DM.svg\" width=\"200\">\n                    <p><span class=\"greenText\"><b>Successful harvest!</b></span><br>Your pay has increased by $0.02. Your bonus pay is now $0.46.</p>\n            ","response":0,"trial_type":"html-button-response","trial_index":78,"time_elapsed":162264,"internal_node_id":"0.0-4.0-1.35","subject_id":"5f8359dc31c65e0fca60103f","study_id":"60edd13110225f80f9f3709b","session_id":"6196c7090faf35c15f8a3ee9","condition":"contingent","relevant_dimensions":["antennae","wings"],"bee_group":{"antennae":"B","wings":"1","pattern":"X","legs":"X"},"bonus":0.6800000000000005},{"rt":803.1999999999534,"stimulus":"bees-with-color/bee-B2DM.svg","response":1,"trial_type":"image-button-response","trial_index":79,"time_elapsed":163068,"internal_node_id":"0.0-4.0-0.36","subject_id":"5f8359dc31c65e0fca60103f","study_id":"60edd13110225f80f9f3709b","session_id":"6196c7090faf35c15f8a3ee9","condition":"contingent","relevant_dimensions":["antennae","wings"],"bee_group":{"antennae":"B","wings":"1","pattern":"X","legs":"X"},"action":"avoid","summary":"bad-avoid","bonus":0.6800000000000005},{"rt":1121,"stimulus":"\n                    <p><b>Action: <em>avoid</em></b></p>\n                    <p>This is the bee that you just saw.</p>\n                    <img src=\"bees-with-color/bee-B2DM.svg\" width=\"200\">\n                    <p><br>Your bonus pay is unchanged, and remains at $0.46.</p>\n            ","response":0,"trial_type":"html-button-response","trial_index":80,"time_elapsed":164190,"internal_node_id":"0.0-4.0-1.36","subject_id":"5f8359dc31c65e0fca60103f","study_id":"60edd13110225f80f9f3709b","session_id":"6196c7090faf35c15f8a3ee9","condition":"contingent","relevant_dimensions":["antennae","wings"],"bee_group":{"antennae":"B","wings":"1","pattern":"X","legs":"X"},"bonus":0.6800000000000005},{"rt":1621.3000000000466,"stimulus":"bees-with-color/bee-A1DM.svg","response":1,"trial_type":"image-button-response","trial_index":81,"time_elapsed":165812,"internal_node_id":"0.0-4.0-0.37","subject_id":"5f8359dc31c65e0fca60103f","study_id":"60edd13110225f80f9f3709b","session_id":"6196c7090faf35c15f8a3ee9","condition":"contingent","relevant_dimensions":["antennae","wings"],"bee_group":{"antennae":"B","wings":"1","pattern":"X","legs":"X"},"action":"avoid","summary":"bad-avoid","bonus":0.6800000000000005},{"rt":1254.8000000000466,"stimulus":"\n                    <p><b>Action: <em>avoid</em></b></p>\n                    <p>This is the bee that you just saw.</p>\n                    <img src=\"bees-with-color/bee-A1DM.svg\" width=\"200\">\n                    <p><br>Your bonus pay is unchanged, and remains at $0.46.</p>\n            ","response":0,"trial_type":"html-button-response","trial_index":82,"time_elapsed":167068,"internal_node_id":"0.0-4.0-1.37","subject_id":"5f8359dc31c65e0fca60103f","study_id":"60edd13110225f80f9f3709b","session_id":"6196c7090faf35c15f8a3ee9","condition":"contingent","relevant_dimensions":["antennae","wings"],"bee_group":{"antennae":"B","wings":"1","pattern":"X","legs":"X"},"bonus":0.6800000000000005},{"rt":896.8999999999069,"stimulus":"bees-with-color/bee-A1SF.svg","response":1,"trial_type":"image-button-response","trial_index":83,"time_elapsed":167966,"internal_node_id":"0.0-4.0-0.38","subject_id":"5f8359dc31c65e0fca60103f","study_id":"60edd13110225f80f9f3709b","session_id":"6196c7090faf35c15f8a3ee9","condition":"contingent","relevant_dimensions":["antennae","wings"],"bee_group":{"antennae":"B","wings":"1","pattern":"X","legs":"X"},"action":"avoid","summary":"bad-avoid","bonus":0.6800000000000005},{"rt":394.9000000001397,"stimulus":"\n                    <p><b>Action: <em>avoid</em></b></p>\n                    <p>This is the bee that you just saw.</p>\n                    <img src=\"bees-with-color/bee-A1SF.svg\" width=\"200\">\n                    <p><br>Your bonus pay is unchanged, and remains at $0.46.</p>\n            ","response":0,"trial_type":"html-button-response","trial_index":84,"time_elapsed":168362,"internal_node_id":"0.0-4.0-1.38","subject_id":"5f8359dc31c65e0fca60103f","study_id":"60edd13110225f80f9f3709b","session_id":"6196c7090faf35c15f8a3ee9","condition":"contingent","relevant_dimensions":["antennae","wings"],"bee_group":{"antennae":"B","wings":"1","pattern":"X","legs":"X"},"bonus":0.6800000000000005},{"rt":955,"stimulus":"bees-with-color/bee-B2DF.svg","response":1,"trial_type":"image-button-response","trial_index":85,"time_elapsed":169318,"internal_node_id":"0.0-4.0-0.39","subject_id":"5f8359dc31c65e0fca60103f","study_id":"60edd13110225f80f9f3709b","session_id":"6196c7090faf35c15f8a3ee9","condition":"contingent","relevant_dimensions":["antennae","wings"],"bee_group":{"antennae":"B","wings":"1","pattern":"X","legs":"X"},"action":"avoid","summary":"bad-avoid","bonus":0.6800000000000005},{"rt":380.89999999990687,"stimulus":"\n                    <p><b>Action: <em>avoid</em></b></p>\n                    <p>This is the bee that you just saw.</p>\n                    <img src=\"bees-with-color/bee-B2DF.svg\" width=\"200\">\n                    <p><br>Your bonus pay is unchanged, and remains at $0.46.</p>\n            ","response":0,"trial_type":"html-button-response","trial_index":86,"time_elapsed":169700,"internal_node_id":"0.0-4.0-1.39","subject_id":"5f8359dc31c65e0fca60103f","study_id":"60edd13110225f80f9f3709b","session_id":"6196c7090faf35c15f8a3ee9","condition":"contingent","relevant_dimensions":["antennae","wings"],"bee_group":{"antennae":"B","wings":"1","pattern":"X","legs":"X"},"bonus":0.6800000000000005},{"rt":757.1000000000931,"stimulus":"bees-with-color/bee-B1DM.svg","response":1,"trial_type":"image-button-response","trial_index":87,"time_elapsed":170458,"internal_node_id":"0.0-4.0-0.40","subject_id":"5f8359dc31c65e0fca60103f","study_id":"60edd13110225f80f9f3709b","session_id":"6196c7090faf35c15f8a3ee9","condition":"contingent","relevant_dimensions":["antennae","wings"],"bee_group":{"antennae":"B","wings":"1","pattern":"X","legs":"X"},"action":"avoid","summary":"good-avoid","bonus":0.6800000000000005},{"rt":368.80000000004657,"stimulus":"\n                    <p><b>Action: <em>avoid</em></b></p>\n                    <p>This is the bee that you just saw.</p>\n                    <img src=\"bees-with-color/bee-B1DM.svg\" width=\"200\">\n                    <p><br>Your bonus pay is unchanged, and remains at $0.46.</p>\n            ","response":0,"trial_type":"html-button-response","trial_index":88,"time_elapsed":170828,"internal_node_id":"0.0-4.0-1.40","subject_id":"5f8359dc31c65e0fca60103f","study_id":"60edd13110225f80f9f3709b","session_id":"6196c7090faf35c15f8a3ee9","condition":"contingent","relevant_dimensions":["antennae","wings"],"bee_group":{"antennae":"B","wings":"1","pattern":"X","legs":"X"},"bonus":0.6800000000000005},{"rt":696.9000000001397,"stimulus":"bees-with-color/bee-A1DF.svg","response":1,"trial_type":"image-button-response","trial_index":89,"time_elapsed":171526,"internal_node_id":"0.0-4.0-0.41","subject_id":"5f8359dc31c65e0fca60103f","study_id":"60edd13110225f80f9f3709b","session_id":"6196c7090faf35c15f8a3ee9","condition":"contingent","relevant_dimensions":["antennae","wings"],"bee_group":{"antennae":"B","wings":"1","pattern":"X","legs":"X"},"action":"avoid","summary":"bad-avoid","bonus":0.6800000000000005},{"rt":525,"stimulus":"\n                    <p><b>Action: <em>avoid</em></b></p>\n                    <p>This is the bee that you just saw.</p>\n                    <img src=\"bees-with-color/bee-A1DF.svg\" width=\"200\">\n                    <p><br>Your bonus pay is unchanged, and remains at $0.46.</p>\n            ","response":0,"trial_type":"html-button-response","trial_index":90,"time_elapsed":172052,"internal_node_id":"0.0-4.0-1.41","subject_id":"5f8359dc31c65e0fca60103f","study_id":"60edd13110225f80f9f3709b","session_id":"6196c7090faf35c15f8a3ee9","condition":"contingent","relevant_dimensions":["antennae","wings"],"bee_group":{"antennae":"B","wings":"1","pattern":"X","legs":"X"},"bonus":0.6800000000000005},{"rt":1755.3999999999069,"stimulus":"bees-with-color/bee-B2SM.svg","response":1,"trial_type":"image-button-response","trial_index":91,"time_elapsed":173808,"internal_node_id":"0.0-4.0-0.42","subject_id":"5f8359dc31c65e0fca60103f","study_id":"60edd13110225f80f9f3709b","session_id":"6196c7090faf35c15f8a3ee9","condition":"contingent","relevant_dimensions":["antennae","wings"],"bee_group":{"antennae":"B","wings":"1","pattern":"X","legs":"X"},"action":"avoid","summary":"bad-avoid","bonus":0.6800000000000005},{"rt":517.1000000000931,"stimulus":"\n                    <p><b>Action: <em>avoid</em></b></p>\n                    <p>This is the bee that you just saw.</p>\n                    <img src=\"bees-with-color/bee-B2SM.svg\" width=\"200\">\n                    <p><br>Your bonus pay is unchanged, and remains at $0.46.</p>\n            ","response":0,"trial_type":"html-button-response","trial_index":92,"time_elapsed":174326,"internal_node_id":"0.0-4.0-1.42","subject_id":"5f8359dc31c65e0fca60103f","study_id":"60edd13110225f80f9f3709b","session_id":"6196c7090faf35c15f8a3ee9","condition":"contingent","relevant_dimensions":["antennae","wings"],"bee_group":{"antennae":"B","wings":"1","pattern":"X","legs":"X"},"bonus":0.6800000000000005},{"rt":873,"stimulus":"bees-with-color/bee-A2DF.svg","response":1,"trial_type":"image-button-response","trial_index":93,"time_elapsed":175200,"internal_node_id":"0.0-4.0-0.43","subject_id":"5f8359dc31c65e0fca60103f","study_id":"60edd13110225f80f9f3709b","session_id":"6196c7090faf35c15f8a3ee9","condition":"contingent","relevant_dimensions":["antennae","wings"],"bee_group":{"antennae":"B","wings":"1","pattern":"X","legs":"X"},"action":"avoid","summary":"bad-avoid","bonus":0.6800000000000005},{"rt":535.3000000000466,"stimulus":"\n                    <p><b>Action: <em>avoid</em></b></p>\n                    <p>This is the bee that you just saw.</p>\n                    <img src=\"bees-with-color/bee-A2DF.svg\" width=\"200\">\n                    <p><br>Your bonus pay is unchanged, and remains at $0.46.</p>\n            ","response":0,"trial_type":"html-button-response","trial_index":94,"time_elapsed":175736,"internal_node_id":"0.0-4.0-1.43","subject_id":"5f8359dc31c65e0fca60103f","study_id":"60edd13110225f80f9f3709b","session_id":"6196c7090faf35c15f8a3ee9","condition":"contingent","relevant_dimensions":["antennae","wings"],"bee_group":{"antennae":"B","wings":"1","pattern":"X","legs":"X"},"bonus":0.6800000000000005},{"rt":941.4000000001397,"stimulus":"bees-with-color/bee-A2SM.svg","response":0,"trial_type":"image-button-response","trial_index":95,"time_elapsed":176678,"internal_node_id":"0.0-4.0-0.44","subject_id":"5f8359dc31c65e0fca60103f","study_id":"60edd13110225f80f9f3709b","session_id":"6196c7090faf35c15f8a3ee9","condition":"contingent","relevant_dimensions":["antennae","wings"],"bee_group":{"antennae":"B","wings":"1","pattern":"X","legs":"X"},"action":"harvest","summary":"good-harvest","bonus":0.6800000000000005},{"rt":575,"stimulus":"\n                    <p><b>Action: <em>harvest</em></b></p>\n                    <p>This is the bee that you just saw.</p>\n                    <img src=\"bees-with-color/bee-A2SM.svg\" width=\"200\">\n                    <p><span class=\"greenText\"><b>Successful harvest!</b></span><br>Your pay has increased by $0.02. Your bonus pay is now $0.48.</p>\n            ","response":0,"trial_type":"html-button-response","trial_index":96,"time_elapsed":177254,"internal_node_id":"0.0-4.0-1.44","subject_id":"5f8359dc31c65e0fca60103f","study_id":"60edd13110225f80f9f3709b","session_id":"6196c7090faf35c15f8a3ee9","condition":"contingent","relevant_dimensions":["antennae","wings"],"bee_group":{"antennae":"B","wings":"1","pattern":"X","legs":"X"},"bonus":0.6800000000000005},{"rt":817.0999999998603,"stimulus":"bees-with-color/bee-A1SM.svg","response":0,"trial_type":"image-button-response","trial_index":97,"time_elapsed":178072,"internal_node_id":"0.0-4.0-0.45","subject_id":"5f8359dc31c65e0fca60103f","study_id":"60edd13110225f80f9f3709b","session_id":"6196c7090faf35c15f8a3ee9","condition":"contingent","relevant_dimensions":["antennae","wings"],"bee_group":{"antennae":"B","wings":"1","pattern":"X","legs":"X"},"action":"harvest","summary":"good-harvest","bonus":0.6800000000000005},{"rt":668.8999999999069,"stimulus":"\n                    <p><b>Action: <em>harvest</em></b></p>\n                    <p>This is the bee that you just saw.</p>\n                    <img src=\"bees-with-color/bee-A1SM.svg\" width=\"200\">\n                    <p><span class=\"greenText\"><b>Successful harvest!</b></span><br>Your pay has increased by $0.02. Your bonus pay is now $0.50.</p>\n            ","response":0,"trial_type":"html-button-response","trial_index":98,"time_elapsed":178742,"internal_node_id":"0.0-4.0-1.45","subject_id":"5f8359dc31c65e0fca60103f","study_id":"60edd13110225f80f9f3709b","session_id":"6196c7090faf35c15f8a3ee9","condition":"contingent","relevant_dimensions":["antennae","wings"],"bee_group":{"antennae":"B","wings":"1","pattern":"X","legs":"X"},"bonus":0.6800000000000005},{"rt":499.20000000018626,"stimulus":"bees-with-color/bee-A2SF.svg","response":1,"trial_type":"image-button-response","trial_index":99,"time_elapsed":179242,"internal_node_id":"0.0-4.0-0.46","subject_id":"5f8359dc31c65e0fca60103f","study_id":"60edd13110225f80f9f3709b","session_id":"6196c7090faf35c15f8a3ee9","condition":"contingent","relevant_dimensions":["antennae","wings"],"bee_group":{"antennae":"B","wings":"1","pattern":"X","legs":"X"},"action":"avoid","summary":"bad-avoid","bonus":0.6800000000000005},{"rt":2003,"stimulus":"\n                    <p><b>Action: <em>avoid</em></b></p>\n                    <p>This is the bee that you just saw.</p>\n                    <img src=\"bees-with-color/bee-A2SF.svg\" width=\"200\">\n                    <p><br>Your bonus pay is unchanged, and remains at $0.50.</p>\n            ","response":0,"trial_type":"html-button-response","trial_index":100,"time_elapsed":181246,"internal_node_id":"0.0-4.0-1.46","subject_id":"5f8359dc31c65e0fca60103f","study_id":"60edd13110225f80f9f3709b","session_id":"6196c7090faf35c15f8a3ee9","condition":"contingent","relevant_dimensions":["antennae","wings"],"bee_group":{"antennae":"B","wings":"1","pattern":"X","legs":"X"},"bonus":0.6800000000000005},{"rt":819.2000000001863,"stimulus":"bees-with-color/bee-B1DF.svg","response":1,"trial_type":"image-button-response","trial_index":101,"time_elapsed":182066,"internal_node_id":"0.0-4.0-0.47","subject_id":"5f8359dc31c65e0fca60103f","study_id":"60edd13110225f80f9f3709b","session_id":"6196c7090faf35c15f8a3ee9","condition":"contingent","relevant_dimensions":["antennae","wings"],"bee_group":{"antennae":"B","wings":"1","pattern":"X","legs":"X"},"action":"avoid","summary":"good-avoid","bonus":0.6800000000000005},{"rt":436.80000000004657,"stimulus":"\n                    <p><b>Action: <em>avoid</em></b></p>\n                    <p>This is the bee that you just saw.</p>\n                    <img src=\"bees-with-color/bee-B1DF.svg\" width=\"200\">\n                    <p><br>Your bonus pay is unchanged, and remains at $0.50.</p>\n            ","response":0,"trial_type":"html-button-response","trial_index":102,"time_elapsed":182504,"internal_node_id":"0.0-4.0-1.47","subject_id":"5f8359dc31c65e0fca60103f","study_id":"60edd13110225f80f9f3709b","session_id":"6196c7090faf35c15f8a3ee9","condition":"contingent","relevant_dimensions":["antennae","wings"],"bee_group":{"antennae":"B","wings":"1","pattern":"X","legs":"X"},"bonus":0.6800000000000005},{"rt":1133.1000000000931,"stimulus":"bees-with-color/bee-A1SF.svg","response":1,"trial_type":"image-button-response","trial_index":103,"time_elapsed":183638,"internal_node_id":"0.0-4.0-0.48","subject_id":"5f8359dc31c65e0fca60103f","study_id":"60edd13110225f80f9f3709b","session_id":"6196c7090faf35c15f8a3ee9","condition":"contingent","relevant_dimensions":["antennae","wings"],"bee_group":{"antennae":"B","wings":"1","pattern":"X","legs":"X"},"action":"avoid","summary":"bad-avoid","bonus":0.6800000000000005},{"rt":427.0999999998603,"stimulus":"\n                    <p><b>Action: <em>avoid</em></b></p>\n                    <p>This is the bee that you just saw.</p>\n                    <img src=\"bees-with-color/bee-A1SF.svg\" width=\"200\">\n                    <p><br>Your bonus pay is unchanged, and remains at $0.50.</p>\n            ","response":0,"trial_type":"html-button-response","trial_index":104,"time_elapsed":184066,"internal_node_id":"0.0-4.0-1.48","subject_id":"5f8359dc31c65e0fca60103f","study_id":"60edd13110225f80f9f3709b","session_id":"6196c7090faf35c15f8a3ee9","condition":"contingent","relevant_dimensions":["antennae","wings"],"bee_group":{"antennae":"B","wings":"1","pattern":"X","legs":"X"},"bonus":0.6800000000000005},{"rt":931.3000000000466,"stimulus":"bees-with-color/bee-B1SM.svg","response":1,"trial_type":"image-button-response","trial_index":105,"time_elapsed":184998,"internal_node_id":"0.0-4.0-0.49","subject_id":"5f8359dc31c65e0fca60103f","study_id":"60edd13110225f80f9f3709b","session_id":"6196c7090faf35c15f8a3ee9","condition":"contingent","relevant_dimensions":["antennae","wings"],"bee_group":{"antennae":"B","wings":"1","pattern":"X","legs":"X"},"action":"avoid","summary":"good-avoid","bonus":0.6800000000000005},{"rt":401.19999999995343,"stimulus":"\n                    <p><b>Action: <em>avoid</em></b></p>\n                    <p>This is the bee that you just saw.</p>\n                    <img src=\"bees-with-color/bee-B1SM.svg\" width=\"200\">\n                    <p><br>Your bonus pay is unchanged, and remains at $0.50.</p>\n            ","response":0,"trial_type":"html-button-response","trial_index":106,"time_elapsed":185400,"internal_node_id":"0.0-4.0-1.49","subject_id":"5f8359dc31c65e0fca60103f","study_id":"60edd13110225f80f9f3709b","session_id":"6196c7090faf35c15f8a3ee9","condition":"contingent","relevant_dimensions":["antennae","wings"],"bee_group":{"antennae":"B","wings":"1","pattern":"X","legs":"X"},"bonus":0.6800000000000005},{"rt":835.1999999999534,"stimulus":"bees-with-color/bee-A2DM.svg","response":1,"trial_type":"image-button-response","trial_index":107,"time_elapsed":186236,"internal_node_id":"0.0-4.0-0.50","subject_id":"5f8359dc31c65e0fca60103f","study_id":"60edd13110225f80f9f3709b","session_id":"6196c7090faf35c15f8a3ee9","condition":"contingent","relevant_dimensions":["antennae","wings"],"bee_group":{"antennae":"B","wings":"1","pattern":"X","legs":"X"},"action":"avoid","summary":"bad-avoid","bonus":0.6800000000000005},{"rt":388.60000000009313,"stimulus":"\n                    <p><b>Action: <em>avoid</em></b></p>\n                    <p>This is the bee that you just saw.</p>\n                    <img src=\"bees-with-color/bee-A2DM.svg\" width=\"200\">\n                    <p><br>Your bonus pay is unchanged, and remains at $0.50.</p>\n            ","response":0,"trial_type":"html-button-response","trial_index":108,"time_elapsed":186626,"internal_node_id":"0.0-4.0-1.50","subject_id":"5f8359dc31c65e0fca60103f","study_id":"60edd13110225f80f9f3709b","session_id":"6196c7090faf35c15f8a3ee9","condition":"contingent","relevant_dimensions":["antennae","wings"],"bee_group":{"antennae":"B","wings":"1","pattern":"X","legs":"X"},"bonus":0.6800000000000005},{"rt":1094.9000000001397,"stimulus":"bees-with-color/bee-A2SM.svg","response":0,"trial_type":"image-button-response","trial_index":109,"time_elapsed":187721,"internal_node_id":"0.0-4.0-0.51","subject_id":"5f8359dc31c65e0fca60103f","study_id":"60edd13110225f80f9f3709b","session_id":"6196c7090faf35c15f8a3ee9","condition":"contingent","relevant_dimensions":["antennae","wings"],"bee_group":{"antennae":"B","wings":"1","pattern":"X","legs":"X"},"action":"harvest","summary":"good-harvest","bonus":0.6800000000000005},{"rt":499.39999999990687,"stimulus":"\n                    <p><b>Action: <em>harvest</em></b></p>\n                    <p>This is the bee that you just saw.</p>\n                    <img src=\"bees-with-color/bee-A2SM.svg\" width=\"200\">\n                    <p><span class=\"greenText\"><b>Successful harvest!</b></span><br>Your pay has increased by $0.02. Your bonus pay is now $0.52.</p>\n            ","response":0,"trial_type":"html-button-response","trial_index":110,"time_elapsed":188222,"internal_node_id":"0.0-4.0-1.51","subject_id":"5f8359dc31c65e0fca60103f","study_id":"60edd13110225f80f9f3709b","session_id":"6196c7090faf35c15f8a3ee9","condition":"contingent","relevant_dimensions":["antennae","wings"],"bee_group":{"antennae":"B","wings":"1","pattern":"X","legs":"X"},"bonus":0.6800000000000005},{"rt":731.1999999999534,"stimulus":"bees-with-color/bee-B2SM.svg","response":0,"trial_type":"image-button-response","trial_index":111,"time_elapsed":188954,"internal_node_id":"0.0-4.0-0.52","subject_id":"5f8359dc31c65e0fca60103f","study_id":"60edd13110225f80f9f3709b","session_id":"6196c7090faf35c15f8a3ee9","condition":"contingent","relevant_dimensions":["antennae","wings"],"bee_group":{"antennae":"B","wings":"1","pattern":"X","legs":"X"},"action":"harvest","summary":"good-harvest","bonus":0.6800000000000005},{"rt":587.1000000000931,"stimulus":"\n                    <p><b>Action: <em>harvest</em></b></p>\n                    <p>This is the bee that you just saw.</p>\n                    <img src=\"bees-with-color/bee-B2SM.svg\" width=\"200\">\n                    <p><span class=\"greenText\"><b>Successful harvest!</b></span><br>Your pay has increased by $0.02. Your bonus pay is now $0.54.</p>\n            ","response":0,"trial_type":"html-button-response","trial_index":112,"time_elapsed":189542,"internal_node_id":"0.0-4.0-1.52","subject_id":"5f8359dc31c65e0fca60103f","study_id":"60edd13110225f80f9f3709b","session_id":"6196c7090faf35c15f8a3ee9","condition":"contingent","relevant_dimensions":["antennae","wings"],"bee_group":{"antennae":"B","wings":"1","pattern":"X","legs":"X"},"bonus":0.6800000000000005},{"rt":1161.3000000000466,"stimulus":"bees-with-color/bee-A1SM.svg","response":1,"trial_type":"image-button-response","trial_index":113,"time_elapsed":190704,"internal_node_id":"0.0-4.0-0.53","subject_id":"5f8359dc31c65e0fca60103f","study_id":"60edd13110225f80f9f3709b","session_id":"6196c7090faf35c15f8a3ee9","condition":"contingent","relevant_dimensions":["antennae","wings"],"bee_group":{"antennae":"B","wings":"1","pattern":"X","legs":"X"},"action":"avoid","summary":"bad-avoid","bonus":0.6800000000000005},{"rt":863,"stimulus":"\n                    <p><b>Action: <em>avoid</em></b></p>\n                    <p>This is the bee that you just saw.</p>\n                    <img src=\"bees-with-color/bee-A1SM.svg\" width=\"200\">\n                    <p><br>Your bonus pay is unchanged, and remains at $0.54.</p>\n            ","response":0,"trial_type":"html-button-response","trial_index":114,"time_elapsed":191568,"internal_node_id":"0.0-4.0-1.53","subject_id":"5f8359dc31c65e0fca60103f","study_id":"60edd13110225f80f9f3709b","session_id":"6196c7090faf35c15f8a3ee9","condition":"contingent","relevant_dimensions":["antennae","wings"],"bee_group":{"antennae":"B","wings":"1","pattern":"X","legs":"X"},"bonus":0.6800000000000005},{"rt":1635.2000000001863,"stimulus":"bees-with-color/bee-B1SF.svg","response":1,"trial_type":"image-button-response","trial_index":115,"time_elapsed":193204,"internal_node_id":"0.0-4.0-0.54","subject_id":"5f8359dc31c65e0fca60103f","study_id":"60edd13110225f80f9f3709b","session_id":"6196c7090faf35c15f8a3ee9","condition":"contingent","relevant_dimensions":["antennae","wings"],"bee_group":{"antennae":"B","wings":"1","pattern":"X","legs":"X"},"action":"avoid","summary":"good-avoid","bonus":0.6800000000000005},{"rt":458.89999999990687,"stimulus":"\n                    <p><b>Action: <em>avoid</em></b></p>\n                    <p>This is the bee that you just saw.</p>\n                    <img src=\"bees-with-color/bee-B1SF.svg\" width=\"200\">\n                    <p><br>Your bonus pay is unchanged, and remains at $0.54.</p>\n            ","response":0,"trial_type":"html-button-response","trial_index":116,"time_elapsed":193664,"internal_node_id":"0.0-4.0-1.54","subject_id":"5f8359dc31c65e0fca60103f","study_id":"60edd13110225f80f9f3709b","session_id":"6196c7090faf35c15f8a3ee9","condition":"contingent","relevant_dimensions":["antennae","wings"],"bee_group":{"antennae":"B","wings":"1","pattern":"X","legs":"X"},"bonus":0.6800000000000005},{"rt":540.5,"stimulus":"bees-with-color/bee-A1DF.svg","response":1,"trial_type":"image-button-response","trial_index":117,"time_elapsed":194205,"internal_node_id":"0.0-4.0-0.55","subject_id":"5f8359dc31c65e0fca60103f","study_id":"60edd13110225f80f9f3709b","session_id":"6196c7090faf35c15f8a3ee9","condition":"contingent","relevant_dimensions":["antennae","wings"],"bee_group":{"antennae":"B","wings":"1","pattern":"X","legs":"X"},"action":"avoid","summary":"bad-avoid","bonus":0.6800000000000005},{"rt":655.3000000000466,"stimulus":"\n                    <p><b>Action: <em>avoid</em></b></p>\n                    <p>This is the bee that you just saw.</p>\n                    <img src=\"bees-with-color/bee-A1DF.svg\" width=\"200\">\n                    <p><br>Your bonus pay is unchanged, and remains at $0.54.</p>\n            ","response":0,"trial_type":"html-button-response","trial_index":118,"time_elapsed":194861,"internal_node_id":"0.0-4.0-1.55","subject_id":"5f8359dc31c65e0fca60103f","study_id":"60edd13110225f80f9f3709b","session_id":"6196c7090faf35c15f8a3ee9","condition":"contingent","relevant_dimensions":["antennae","wings"],"bee_group":{"antennae":"B","wings":"1","pattern":"X","legs":"X"},"bonus":0.6800000000000005},{"rt":567.5,"stimulus":"bees-with-color/bee-B1DF.svg","response":1,"trial_type":"image-button-response","trial_index":119,"time_elapsed":195430,"internal_node_id":"0.0-4.0-0.56","subject_id":"5f8359dc31c65e0fca60103f","study_id":"60edd13110225f80f9f3709b","session_id":"6196c7090faf35c15f8a3ee9","condition":"contingent","relevant_dimensions":["antennae","wings"],"bee_group":{"antennae":"B","wings":"1","pattern":"X","legs":"X"},"action":"avoid","summary":"good-avoid","bonus":0.6800000000000005},{"rt":613.1000000000931,"stimulus":"\n                    <p><b>Action: <em>avoid</em></b></p>\n                    <p>This is the bee that you just saw.</p>\n                    <img src=\"bees-with-color/bee-B1DF.svg\" width=\"200\">\n                    <p><br>Your bonus pay is unchanged, and remains at $0.54.</p>\n            ","response":0,"trial_type":"html-button-response","trial_index":120,"time_elapsed":196044,"internal_node_id":"0.0-4.0-1.56","subject_id":"5f8359dc31c65e0fca60103f","study_id":"60edd13110225f80f9f3709b","session_id":"6196c7090faf35c15f8a3ee9","condition":"contingent","relevant_dimensions":["antennae","wings"],"bee_group":{"antennae":"B","wings":"1","pattern":"X","legs":"X"},"bonus":0.6800000000000005},{"rt":1145,"stimulus":"bees-with-color/bee-A1DM.svg","response":1,"trial_type":"image-button-response","trial_index":121,"time_elapsed":197190,"internal_node_id":"0.0-4.0-0.57","subject_id":"5f8359dc31c65e0fca60103f","study_id":"60edd13110225f80f9f3709b","session_id":"6196c7090faf35c15f8a3ee9","condition":"contingent","relevant_dimensions":["antennae","wings"],"bee_group":{"antennae":"B","wings":"1","pattern":"X","legs":"X"},"action":"avoid","summary":"bad-avoid","bonus":0.6800000000000005},{"rt":353.10000000009313,"stimulus":"\n                    <p><b>Action: <em>avoid</em></b></p>\n                    <p>This is the bee that you just saw.</p>\n                    <img src=\"bees-with-color/bee-A1DM.svg\" width=\"200\">\n                    <p><br>Your bonus pay is unchanged, and remains at $0.54.</p>\n            ","response":0,"trial_type":"html-button-response","trial_index":122,"time_elapsed":197544,"internal_node_id":"0.0-4.0-1.57","subject_id":"5f8359dc31c65e0fca60103f","study_id":"60edd13110225f80f9f3709b","session_id":"6196c7090faf35c15f8a3ee9","condition":"contingent","relevant_dimensions":["antennae","wings"],"bee_group":{"antennae":"B","wings":"1","pattern":"X","legs":"X"},"bonus":0.6800000000000005},{"rt":907.1000000000931,"stimulus":"bees-with-color/bee-B2SF.svg","response":1,"trial_type":"image-button-response","trial_index":123,"time_elapsed":198452,"internal_node_id":"0.0-4.0-0.58","subject_id":"5f8359dc31c65e0fca60103f","study_id":"60edd13110225f80f9f3709b","session_id":"6196c7090faf35c15f8a3ee9","condition":"contingent","relevant_dimensions":["antennae","wings"],"bee_group":{"antennae":"B","wings":"1","pattern":"X","legs":"X"},"action":"avoid","summary":"bad-avoid","bonus":0.6800000000000005},{"rt":379.0999999998603,"stimulus":"\n                    <p><b>Action: <em>avoid</em></b></p>\n                    <p>This is the bee that you just saw.</p>\n                    <img src=\"bees-with-color/bee-B2SF.svg\" width=\"200\">\n                    <p><br>Your bonus pay is unchanged, and remains at $0.54.</p>\n            ","response":0,"trial_type":"html-button-response","trial_index":124,"time_elapsed":198832,"internal_node_id":"0.0-4.0-1.58","subject_id":"5f8359dc31c65e0fca60103f","study_id":"60edd13110225f80f9f3709b","session_id":"6196c7090faf35c15f8a3ee9","condition":"contingent","relevant_dimensions":["antennae","wings"],"bee_group":{"antennae":"B","wings":"1","pattern":"X","legs":"X"},"bonus":0.6800000000000005},{"rt":690.8999999999069,"stimulus":"bees-with-color/bee-A2DF.svg","response":1,"trial_type":"image-button-response","trial_index":125,"time_elapsed":199524,"internal_node_id":"0.0-4.0-0.59","subject_id":"5f8359dc31c65e0fca60103f","study_id":"60edd13110225f80f9f3709b","session_id":"6196c7090faf35c15f8a3ee9","condition":"contingent","relevant_dimensions":["antennae","wings"],"bee_group":{"antennae":"B","wings":"1","pattern":"X","legs":"X"},"action":"avoid","summary":"bad-avoid","bonus":0.6800000000000005},{"rt":384.80000000004657,"stimulus":"\n                    <p><b>Action: <em>avoid</em></b></p>\n                    <p>This is the bee that you just saw.</p>\n                    <img src=\"bees-with-color/bee-A2DF.svg\" width=\"200\">\n                    <p><br>Your bonus pay is unchanged, and remains at $0.54.</p>\n            ","response":0,"trial_type":"html-button-response","trial_index":126,"time_elapsed":199910,"internal_node_id":"0.0-4.0-1.59","subject_id":"5f8359dc31c65e0fca60103f","study_id":"60edd13110225f80f9f3709b","session_id":"6196c7090faf35c15f8a3ee9","condition":"contingent","relevant_dimensions":["antennae","wings"],"bee_group":{"antennae":"B","wings":"1","pattern":"X","legs":"X"},"bonus":0.6800000000000005},{"rt":707.3000000000466,"stimulus":"bees-with-color/bee-B1DM.svg","response":1,"trial_type":"image-button-response","trial_index":127,"time_elapsed":200618,"internal_node_id":"0.0-4.0-0.60","subject_id":"5f8359dc31c65e0fca60103f","study_id":"60edd13110225f80f9f3709b","session_id":"6196c7090faf35c15f8a3ee9","condition":"contingent","relevant_dimensions":["antennae","wings"],"bee_group":{"antennae":"B","wings":"1","pattern":"X","legs":"X"},"action":"avoid","summary":"good-avoid","bonus":0.6800000000000005},{"rt":464.80000000004657,"stimulus":"\n                    <p><b>Action: <em>avoid</em></b></p>\n                    <p>This is the bee that you just saw.</p>\n                    <img src=\"bees-with-color/bee-B1DM.svg\" width=\"200\">\n                    <p><br>Your bonus pay is unchanged, and remains at $0.54.</p>\n            ","response":0,"trial_type":"html-button-response","trial_index":128,"time_elapsed":201084,"internal_node_id":"0.0-4.0-1.60","subject_id":"5f8359dc31c65e0fca60103f","study_id":"60edd13110225f80f9f3709b","session_id":"6196c7090faf35c15f8a3ee9","condition":"contingent","relevant_dimensions":["antennae","wings"],"bee_group":{"antennae":"B","wings":"1","pattern":"X","legs":"X"},"bonus":0.6800000000000005},{"rt":1932.9000000001397,"stimulus":"bees-with-color/bee-A2SF.svg","response":1,"trial_type":"image-button-response","trial_index":129,"time_elapsed":203018,"internal_node_id":"0.0-4.0-0.61","subject_id":"5f8359dc31c65e0fca60103f","study_id":"60edd13110225f80f9f3709b","session_id":"6196c7090faf35c15f8a3ee9","condition":"contingent","relevant_dimensions":["antennae","wings"],"bee_group":{"antennae":"B","wings":"1","pattern":"X","legs":"X"},"action":"avoid","summary":"bad-avoid","bonus":0.6800000000000005},{"rt":374.80000000004657,"stimulus":"\n                    <p><b>Action: <em>avoid</em></b></p>\n                    <p>This is the bee that you just saw.</p>\n                    <img src=\"bees-with-color/bee-A2SF.svg\" width=\"200\">\n                    <p><br>Your bonus pay is unchanged, and remains at $0.54.</p>\n            ","response":0,"trial_type":"html-button-response","trial_index":130,"time_elapsed":203393,"internal_node_id":"0.0-4.0-1.61","subject_id":"5f8359dc31c65e0fca60103f","study_id":"60edd13110225f80f9f3709b","session_id":"6196c7090faf35c15f8a3ee9","condition":"contingent","relevant_dimensions":["antennae","wings"],"bee_group":{"antennae":"B","wings":"1","pattern":"X","legs":"X"},"bonus":0.6800000000000005},{"rt":727.7000000001863,"stimulus":"bees-with-color/bee-B2DF.svg","response":1,"trial_type":"image-button-response","trial_index":131,"time_elapsed":204122,"internal_node_id":"0.0-4.0-0.62","subject_id":"5f8359dc31c65e0fca60103f","study_id":"60edd13110225f80f9f3709b","session_id":"6196c7090faf35c15f8a3ee9","condition":"contingent","relevant_dimensions":["antennae","wings"],"bee_group":{"antennae":"B","wings":"1","pattern":"X","legs":"X"},"action":"avoid","summary":"bad-avoid","bonus":0.6800000000000005},{"rt":337,"stimulus":"\n                    <p><b>Action: <em>avoid</em></b></p>\n                    <p>This is the bee that you just saw.</p>\n                    <img src=\"bees-with-color/bee-B2DF.svg\" width=\"200\">\n                    <p><br>Your bonus pay is unchanged, and remains at $0.54.</p>\n            ","response":0,"trial_type":"html-button-response","trial_index":132,"time_elapsed":204460,"internal_node_id":"0.0-4.0-1.62","subject_id":"5f8359dc31c65e0fca60103f","study_id":"60edd13110225f80f9f3709b","session_id":"6196c7090faf35c15f8a3ee9","condition":"contingent","relevant_dimensions":["antennae","wings"],"bee_group":{"antennae":"B","wings":"1","pattern":"X","legs":"X"},"bonus":0.6800000000000005},{"rt":749.4000000001397,"stimulus":"bees-with-color/bee-B2DM.svg","response":1,"trial_type":"image-button-response","trial_index":133,"time_elapsed":205210,"internal_node_id":"0.0-4.0-0.63","subject_id":"5f8359dc31c65e0fca60103f","study_id":"60edd13110225f80f9f3709b","session_id":"6196c7090faf35c15f8a3ee9","condition":"contingent","relevant_dimensions":["antennae","wings"],"bee_group":{"antennae":"B","wings":"1","pattern":"X","legs":"X"},"action":"avoid","summary":"bad-avoid","bonus":0.6800000000000005},{"rt":250.9000000001397,"stimulus":"\n                    <p><b>Action: <em>avoid</em></b></p>\n                    <p>This is the bee that you just saw.</p>\n                    <img src=\"bees-with-color/bee-B2DM.svg\" width=\"200\">\n                    <p><br>Your bonus pay is unchanged, and remains at $0.54.</p>\n            ","response":0,"trial_type":"html-button-response","trial_index":134,"time_elapsed":205461,"internal_node_id":"0.0-4.0-1.63","subject_id":"5f8359dc31c65e0fca60103f","study_id":"60edd13110225f80f9f3709b","session_id":"6196c7090faf35c15f8a3ee9","condition":"contingent","relevant_dimensions":["antennae","wings"],"bee_group":{"antennae":"B","wings":"1","pattern":"X","legs":"X"},"bonus":0.6800000000000005},{"rt":4482.199999999953,"stimulus":"You have completed the first part of this experiment.<br><br>You will now begin a shorter second part, in which you will receive no feedback.<br>The same rules regarding bonus pay apply.<br><br>Press any key to begin.","response":"arrowright","trial_type":"html-keyboard-response","trial_index":135,"time_elapsed":209945,"internal_node_id":"0.0-5.0","subject_id":"5f8359dc31c65e0fca60103f","study_id":"60edd13110225f80f9f3709b","session_id":"6196c7090faf35c15f8a3ee9","condition":"contingent","relevant_dimensions":["antennae","wings"],"bee_group":{"antennae":"B","wings":"1","pattern":"X","legs":"X"},"bonus":0.6800000000000005},{"rt":3122.0999999998603,"stimulus":"bees-with-color/bee-B2SF.svg","response":1,"trial_type":"image-button-response","trial_index":136,"time_elapsed":213074,"internal_node_id":"0.0-6.0-0.0","subject_id":"5f8359dc31c65e0fca60103f","study_id":"60edd13110225f80f9f3709b","session_id":"6196c7090faf35c15f8a3ee9","condition":"contingent","relevant_dimensions":["antennae","wings"],"bee_group":{"antennae":"B","wings":"1","pattern":"X","legs":"X"},"bonus":0.6800000000000005},{"rt":2094,"stimulus":"bees-with-color/bee-B1DM.svg","response":1,"trial_type":"image-button-response","trial_index":137,"time_elapsed":215170,"internal_node_id":"0.0-6.0-0.1","subject_id":"5f8359dc31c65e0fca60103f","study_id":"60edd13110225f80f9f3709b","session_id":"6196c7090faf35c15f8a3ee9","condition":"contingent","relevant_dimensions":["antennae","wings"],"bee_group":{"antennae":"B","wings":"1","pattern":"X","legs":"X"},"bonus":0.6800000000000005},{"rt":1348.6000000000931,"stimulus":"bees-with-color/bee-B2SM.svg","response":0,"trial_type":"image-button-response","trial_index":138,"time_elapsed":216520,"internal_node_id":"0.0-6.0-0.2","subject_id":"5f8359dc31c65e0fca60103f","study_id":"60edd13110225f80f9f3709b","session_id":"6196c7090faf35c15f8a3ee9","condition":"contingent","relevant_dimensions":["antennae","wings"],"bee_group":{"antennae":"B","wings":"1","pattern":"X","legs":"X"},"bonus":0.6800000000000005},{"rt":1028.6999999999534,"stimulus":"bees-with-color/bee-A1DF.svg","response":1,"trial_type":"image-button-response","trial_index":139,"time_elapsed":217550,"internal_node_id":"0.0-6.0-0.3","subject_id":"5f8359dc31c65e0fca60103f","study_id":"60edd13110225f80f9f3709b","session_id":"6196c7090faf35c15f8a3ee9","condition":"contingent","relevant_dimensions":["antennae","wings"],"bee_group":{"antennae":"B","wings":"1","pattern":"X","legs":"X"},"bonus":0.6800000000000005},{"rt":1712.6000000000931,"stimulus":"bees-with-color/bee-B1SF.svg","response":1,"trial_type":"image-button-response","trial_index":140,"time_elapsed":219264,"internal_node_id":"0.0-6.0-0.4","subject_id":"5f8359dc31c65e0fca60103f","study_id":"60edd13110225f80f9f3709b","session_id":"6196c7090faf35c15f8a3ee9","condition":"contingent","relevant_dimensions":["antennae","wings"],"bee_group":{"antennae":"B","wings":"1","pattern":"X","legs":"X"},"bonus":0.6800000000000005},{"rt":1154.6000000000931,"stimulus":"bees-with-color/bee-A2DM.svg","response":0,"trial_type":"image-button-response","trial_index":141,"time_elapsed":220420,"internal_node_id":"0.0-6.0-0.5","subject_id":"5f8359dc31c65e0fca60103f","study_id":"60edd13110225f80f9f3709b","session_id":"6196c7090faf35c15f8a3ee9","condition":"contingent","relevant_dimensions":["antennae","wings"],"bee_group":{"antennae":"B","wings":"1","pattern":"X","legs":"X"},"bonus":0.6800000000000005},{"rt":414.60000000009313,"stimulus":"bees-with-color/bee-A2SM.svg","response":1,"trial_type":"image-button-response","trial_index":142,"time_elapsed":220836,"internal_node_id":"0.0-6.0-0.6","subject_id":"5f8359dc31c65e0fca60103f","study_id":"60edd13110225f80f9f3709b","session_id":"6196c7090faf35c15f8a3ee9","condition":"contingent","relevant_dimensions":["antennae","wings"],"bee_group":{"antennae":"B","wings":"1","pattern":"X","legs":"X"},"bonus":0.6800000000000005},{"rt":468.60000000009313,"stimulus":"bees-with-color/bee-A1DM.svg","response":0,"trial_type":"image-button-response","trial_index":143,"time_elapsed":221306,"internal_node_id":"0.0-6.0-0.7","subject_id":"5f8359dc31c65e0fca60103f","study_id":"60edd13110225f80f9f3709b","session_id":"6196c7090faf35c15f8a3ee9","condition":"contingent","relevant_dimensions":["antennae","wings"],"bee_group":{"antennae":"B","wings":"1","pattern":"X","legs":"X"},"bonus":0.6800000000000005},{"rt":446.69999999995343,"stimulus":"bees-with-color/bee-B2DF.svg","response":1,"trial_type":"image-button-response","trial_index":144,"time_elapsed":221754,"internal_node_id":"0.0-6.0-0.8","subject_id":"5f8359dc31c65e0fca60103f","study_id":"60edd13110225f80f9f3709b","session_id":"6196c7090faf35c15f8a3ee9","condition":"contingent","relevant_dimensions":["antennae","wings"],"bee_group":{"antennae":"B","wings":"1","pattern":"X","legs":"X"},"bonus":0.6800000000000005},{"rt":348.5,"stimulus":"bees-with-color/bee-A1SF.svg","response":1,"trial_type":"image-button-response","trial_index":145,"time_elapsed":222103,"internal_node_id":"0.0-6.0-0.9","subject_id":"5f8359dc31c65e0fca60103f","study_id":"60edd13110225f80f9f3709b","session_id":"6196c7090faf35c15f8a3ee9","condition":"contingent","relevant_dimensions":["antennae","wings"],"bee_group":{"antennae":"B","wings":"1","pattern":"X","legs":"X"},"bonus":0.6800000000000005},{"rt":574.9000000001397,"stimulus":"bees-with-color/bee-B1DF.svg","response":1,"trial_type":"image-button-response","trial_index":146,"time_elapsed":222680,"internal_node_id":"0.0-6.0-0.10","subject_id":"5f8359dc31c65e0fca60103f","study_id":"60edd13110225f80f9f3709b","session_id":"6196c7090faf35c15f8a3ee9","condition":"contingent","relevant_dimensions":["antennae","wings"],"bee_group":{"antennae":"B","wings":"1","pattern":"X","legs":"X"},"bonus":0.6800000000000005},{"rt":814.8999999999069,"stimulus":"bees-with-color/bee-A2SF.svg","response":0,"trial_type":"image-button-response","trial_index":147,"time_elapsed":223496,"internal_node_id":"0.0-6.0-0.11","subject_id":"5f8359dc31c65e0fca60103f","study_id":"60edd13110225f80f9f3709b","session_id":"6196c7090faf35c15f8a3ee9","condition":"contingent","relevant_dimensions":["antennae","wings"],"bee_group":{"antennae":"B","wings":"1","pattern":"X","legs":"X"},"bonus":0.6800000000000005},{"rt":552.9000000001397,"stimulus":"bees-with-color/bee-B2DM.svg","response":1,"trial_type":"image-button-response","trial_index":148,"time_elapsed":224050,"internal_node_id":"0.0-6.0-0.12","subject_id":"5f8359dc31c65e0fca60103f","study_id":"60edd13110225f80f9f3709b","session_id":"6196c7090faf35c15f8a3ee9","condition":"contingent","relevant_dimensions":["antennae","wings"],"bee_group":{"antennae":"B","wings":"1","pattern":"X","legs":"X"},"bonus":0.6800000000000005},{"rt":548.6999999999534,"stimulus":"bees-with-color/bee-A2DF.svg","response":1,"trial_type":"image-button-response","trial_index":149,"time_elapsed":224600,"internal_node_id":"0.0-6.0-0.13","subject_id":"5f8359dc31c65e0fca60103f","study_id":"60edd13110225f80f9f3709b","session_id":"6196c7090faf35c15f8a3ee9","condition":"contingent","relevant_dimensions":["antennae","wings"],"bee_group":{"antennae":"B","wings":"1","pattern":"X","legs":"X"},"bonus":0.6800000000000005},{"rt":935,"stimulus":"bees-with-color/bee-B1SM.svg","response":1,"trial_type":"image-button-response","trial_index":150,"time_elapsed":225536,"internal_node_id":"0.0-6.0-0.14","subject_id":"5f8359dc31c65e0fca60103f","study_id":"60edd13110225f80f9f3709b","session_id":"6196c7090faf35c15f8a3ee9","condition":"contingent","relevant_dimensions":["antennae","wings"],"bee_group":{"antennae":"B","wings":"1","pattern":"X","legs":"X"},"bonus":0.6800000000000005},{"rt":1166.8000000000466,"stimulus":"bees-with-color/bee-A1SM.svg","response":0,"trial_type":"image-button-response","trial_index":151,"time_elapsed":226704,"internal_node_id":"0.0-6.0-0.15","subject_id":"5f8359dc31c65e0fca60103f","study_id":"60edd13110225f80f9f3709b","session_id":"6196c7090faf35c15f8a3ee9","condition":"contingent","relevant_dimensions":["antennae","wings"],"bee_group":{"antennae":"B","wings":"1","pattern":"X","legs":"X"},"bonus":0.6800000000000005},{"rt":502.5,"stimulus":"bees-with-color/bee-A2DM.svg","response":1,"trial_type":"image-button-response","trial_index":152,"time_elapsed":227207,"internal_node_id":"0.0-6.0-0.16","subject_id":"5f8359dc31c65e0fca60103f","study_id":"60edd13110225f80f9f3709b","session_id":"6196c7090faf35c15f8a3ee9","condition":"contingent","relevant_dimensions":["antennae","wings"],"bee_group":{"antennae":"B","wings":"1","pattern":"X","legs":"X"},"bonus":0.6800000000000005},{"rt":1299.3000000000466,"stimulus":"bees-with-color/bee-A1SF.svg","response":1,"trial_type":"image-button-response","trial_index":153,"time_elapsed":228508,"internal_node_id":"0.0-6.0-0.17","subject_id":"5f8359dc31c65e0fca60103f","study_id":"60edd13110225f80f9f3709b","session_id":"6196c7090faf35c15f8a3ee9","condition":"contingent","relevant_dimensions":["antennae","wings"],"bee_group":{"antennae":"B","wings":"1","pattern":"X","legs":"X"},"bonus":0.6800000000000005},{"rt":1005,"stimulus":"bees-with-color/bee-A1DF.svg","response":1,"trial_type":"image-button-response","trial_index":154,"time_elapsed":229514,"internal_node_id":"0.0-6.0-0.18","subject_id":"5f8359dc31c65e0fca60103f","study_id":"60edd13110225f80f9f3709b","session_id":"6196c7090faf35c15f8a3ee9","condition":"contingent","relevant_dimensions":["antennae","wings"],"bee_group":{"antennae":"B","wings":"1","pattern":"X","legs":"X"},"bonus":0.6800000000000005},{"rt":1261,"stimulus":"bees-with-color/bee-B1SM.svg","response":1,"trial_type":"image-button-response","trial_index":155,"time_elapsed":230775,"internal_node_id":"0.0-6.0-0.19","subject_id":"5f8359dc31c65e0fca60103f","study_id":"60edd13110225f80f9f3709b","session_id":"6196c7090faf35c15f8a3ee9","condition":"contingent","relevant_dimensions":["antennae","wings"],"bee_group":{"antennae":"B","wings":"1","pattern":"X","legs":"X"},"bonus":0.6800000000000005},{"rt":465.10000000009313,"stimulus":"bees-with-color/bee-B2DM.svg","response":1,"trial_type":"image-button-response","trial_index":156,"time_elapsed":231241,"internal_node_id":"0.0-6.0-0.20","subject_id":"5f8359dc31c65e0fca60103f","study_id":"60edd13110225f80f9f3709b","session_id":"6196c7090faf35c15f8a3ee9","condition":"contingent","relevant_dimensions":["antennae","wings"],"bee_group":{"antennae":"B","wings":"1","pattern":"X","legs":"X"},"bonus":0.6800000000000005},{"rt":759.1000000000931,"stimulus":"bees-with-color/bee-A1SM.svg","response":0,"trial_type":"image-button-response","trial_index":157,"time_elapsed":232002,"internal_node_id":"0.0-6.0-0.21","subject_id":"5f8359dc31c65e0fca60103f","study_id":"60edd13110225f80f9f3709b","session_id":"6196c7090faf35c15f8a3ee9","condition":"contingent","relevant_dimensions":["antennae","wings"],"bee_group":{"antennae":"B","wings":"1","pattern":"X","legs":"X"},"bonus":0.6800000000000005},{"rt":1138.5,"stimulus":"bees-with-color/bee-B2SF.svg","response":1,"trial_type":"image-button-response","trial_index":158,"time_elapsed":233141,"internal_node_id":"0.0-6.0-0.22","subject_id":"5f8359dc31c65e0fca60103f","study_id":"60edd13110225f80f9f3709b","session_id":"6196c7090faf35c15f8a3ee9","condition":"contingent","relevant_dimensions":["antennae","wings"],"bee_group":{"antennae":"B","wings":"1","pattern":"X","legs":"X"},"bonus":0.6800000000000005},{"rt":1295.1999999999534,"stimulus":"bees-with-color/bee-B1SF.svg","response":1,"trial_type":"image-button-response","trial_index":159,"time_elapsed":234437,"internal_node_id":"0.0-6.0-0.23","subject_id":"5f8359dc31c65e0fca60103f","study_id":"60edd13110225f80f9f3709b","session_id":"6196c7090faf35c15f8a3ee9","condition":"contingent","relevant_dimensions":["antennae","wings"],"bee_group":{"antennae":"B","wings":"1","pattern":"X","legs":"X"},"bonus":0.6800000000000005},{"rt":608.7999999998137,"stimulus":"bees-with-color/bee-B2DF.svg","response":1,"trial_type":"image-button-response","trial_index":160,"time_elapsed":235047,"internal_node_id":"0.0-6.0-0.24","subject_id":"5f8359dc31c65e0fca60103f","study_id":"60edd13110225f80f9f3709b","session_id":"6196c7090faf35c15f8a3ee9","condition":"contingent","relevant_dimensions":["antennae","wings"],"bee_group":{"antennae":"B","wings":"1","pattern":"X","legs":"X"},"bonus":0.6800000000000005},{"rt":727,"stimulus":"bees-with-color/bee-A2DF.svg","response":1,"trial_type":"image-button-response","trial_index":161,"time_elapsed":235775,"internal_node_id":"0.0-6.0-0.25","subject_id":"5f8359dc31c65e0fca60103f","study_id":"60edd13110225f80f9f3709b","session_id":"6196c7090faf35c15f8a3ee9","condition":"contingent","relevant_dimensions":["antennae","wings"],"bee_group":{"antennae":"B","wings":"1","pattern":"X","legs":"X"},"bonus":0.6800000000000005},{"rt":962.7999999998137,"stimulus":"bees-with-color/bee-A2SF.svg","response":0,"trial_type":"image-button-response","trial_index":162,"time_elapsed":236739,"internal_node_id":"0.0-6.0-0.26","subject_id":"5f8359dc31c65e0fca60103f","study_id":"60edd13110225f80f9f3709b","session_id":"6196c7090faf35c15f8a3ee9","condition":"contingent","relevant_dimensions":["antennae","wings"],"bee_group":{"antennae":"B","wings":"1","pattern":"X","legs":"X"},"bonus":0.6800000000000005},{"rt":429,"stimulus":"bees-with-color/bee-B1DM.svg","response":1,"trial_type":"image-button-response","trial_index":163,"time_elapsed":237169,"internal_node_id":"0.0-6.0-0.27","subject_id":"5f8359dc31c65e0fca60103f","study_id":"60edd13110225f80f9f3709b","session_id":"6196c7090faf35c15f8a3ee9","condition":"contingent","relevant_dimensions":["antennae","wings"],"bee_group":{"antennae":"B","wings":"1","pattern":"X","legs":"X"},"bonus":0.6800000000000005},{"rt":220.89999999990687,"stimulus":"bees-with-color/bee-A1DM.svg","response":1,"trial_type":"image-button-response","trial_index":164,"time_elapsed":237391,"internal_node_id":"0.0-6.0-0.28","subject_id":"5f8359dc31c65e0fca60103f","study_id":"60edd13110225f80f9f3709b","session_id":"6196c7090faf35c15f8a3ee9","condition":"contingent","relevant_dimensions":["antennae","wings"],"bee_group":{"antennae":"B","wings":"1","pattern":"X","legs":"X"},"bonus":0.6800000000000005},{"rt":281.10000000009313,"stimulus":"bees-with-color/bee-A2SM.svg","response":1,"trial_type":"image-button-response","trial_index":165,"time_elapsed":237673,"internal_node_id":"0.0-6.0-0.29","subject_id":"5f8359dc31c65e0fca60103f","study_id":"60edd13110225f80f9f3709b","session_id":"6196c7090faf35c15f8a3ee9","condition":"contingent","relevant_dimensions":["antennae","wings"],"bee_group":{"antennae":"B","wings":"1","pattern":"X","legs":"X"},"bonus":0.6800000000000005},{"rt":552.7999999998137,"stimulus":"bees-with-color/bee-B1DF.svg","response":1,"trial_type":"image-button-response","trial_index":166,"time_elapsed":238227,"internal_node_id":"0.0-6.0-0.30","subject_id":"5f8359dc31c65e0fca60103f","study_id":"60edd13110225f80f9f3709b","session_id":"6196c7090faf35c15f8a3ee9","condition":"contingent","relevan