[{"success":true,"trial_type":"fullscreen","trial_index":0,"time_elapsed":6174,"internal_node_id":"0.0-0.0","subject_id":"615c750d62904cb1dd0ece7f","study_id":"6197b3f67c2b5cd3b6d9596a","session_id":"619be78948db04f6d82829e3","condition":"full-information","relevant_dimensions":["antennae","wings"],"bee_group":{"antennae":"B","wings":"2","pattern":"X","legs":"X"},"bonus":1.520000000000001},{"success":true,"timeout":false,"failed_images":[],"failed_audio":[],"failed_video":[],"trial_type":"preload","trial_index":1,"time_elapsed":11466,"internal_node_id":"0.0-1.0","subject_id":"615c750d62904cb1dd0ece7f","study_id":"6197b3f67c2b5cd3b6d9596a","session_id":"619be78948db04f6d82829e3","condition":"full-information","relevant_dimensions":["antennae","wings"],"bee_group":{"antennae":"B","wings":"2","pattern":"X","legs":"X"},"bonus":1.520000000000001},{"rt":16811.39999999851,"stimulus":"Welcome! Press any key to begin.","response":" ","trial_type":"html-keyboard-response","trial_index":2,"time_elapsed":28278,"internal_node_id":"0.0-2.0","subject_id":"615c750d62904cb1dd0ece7f","study_id":"6197b3f67c2b5cd3b6d9596a","session_id":"619be78948db04f6d82829e3","condition":"full-information","relevant_dimensions":["antennae","wings"],"bee_group":{"antennae":"B","wings":"2","pattern":"X","legs":"X"},"bonus":1.520000000000001},{"view_history":[{"page_index":0,"viewing_time":9139.89999999851},{"page_index":1,"viewing_time":71485.79999999702},{"page_index":2,"viewing_time":71967.90000000596},{"page_index":3,"viewing_time":19519.69999999553},{"page_index":4,"viewing_time":8866.60000000149},{"page_index":5,"viewing_time":12992.60000000149},{"page_index":6,"viewing_time":37855.5},{"page_index":7,"viewing_time":12979.89999999851},{"page_index":8,"viewing_time":9125.39999999851},{"page_index":7,"viewing_time":2624.8000000044703},{"page_index":8,"viewing_time":6856.5},{"page_index":9,"viewing_time":4626.39999999851},{"page_index":10,"viewing_time":7480.5},{"page_index":9,"viewing_time":328.1000000014901},{"page_index":8,"viewing_time":902.0999999940395},{"page_index":7,"viewing_time":7251.10000000149},{"page_index":8,"viewing_time":10974.10000000149},{"page_index":9,"viewing_time":7112.79999999702},{"page_index":10,"viewing_time":9102.40000000596},{"page_index":11,"viewing_time":12434.59999999404},{"page_index":10,"viewing_time":1682.1000000014901},{"page_index":9,"viewing_time":622.5},{"page_index":8,"viewing_time":738.3999999985099},{"page_index":7,"viewing_time":38025.30000000447},{"page_index":8,"viewing_time":8734.29999999702},{"page_index":9,"viewing_time":3339.10000000149},{"page_index":8,"viewing_time":2591.60000000149},{"page_index":7,"viewing_time":10317.60000000149},{"page_index":8,"viewing_time":7005},{"page_index":9,"viewing_time":4297.29999999702},{"page_index":10,"viewing_time":5787.79999999702},{"page_index":11,"viewing_time":16783.80000000447},{"page_index":10,"viewing_time":5330.79999999702},{"page_index":9,"viewing_time":3297.7000000029802},{"page_index":10,"viewing_time":1640.1999999955297},{"page_index":11,"viewing_time":1214.1000000014901},{"page_index":12,"viewing_time":53330.70000000298},{"page_index":13,"viewing_time":2033.8999999985099},{"page_index":14,"viewing_time":3912.7000000029802}],"rt":494312.3999999985,"trial_type":"instructions","trial_index":3,"time_elapsed":522586,"internal_node_id":"0.0-3.0-0.0","subject_id":"615c750d62904cb1dd0ece7f","study_id":"6197b3f67c2b5cd3b6d9596a","session_id":"619be78948db04f6d82829e3","condition":"full-information","relevant_dimensions":["antennae","wings"],"bee_group":{"antennae":"B","wings":"2","pattern":"X","legs":"X"},"bonus":1.520000000000001},{"rt":30870.89999999851,"response":{"Q0":["Two or six legs","Stripes or spots on body","Single or double wings","Antennae or no antennae"]},"question_order":[0],"trial_type":"survey-multi-select","trial_index":4,"time_elapsed":553463,"internal_node_id":"0.0-3.0-1.0","subject_id":"615c750d62904cb1dd0ece7f","study_id":"6197b3f67c2b5cd3b6d9596a","session_id":"619be78948db04f6d82829e3","condition":"full-information","relevant_dimensions":["antennae","wings"],"bee_group":{"antennae":"B","wings":"2","pattern":"X","legs":"X"},"correct":true,"bonus":1.520000000000001},{"rt":32470.79999999702,"response":{"Q1":"Yes.","Q2":"Based on the four features of the bee.","Q3":"You learn if it was friendly or dangerous, but do not alter your bonus."},"question_order":[0,1,2],"trial_type":"survey-multi-choice","trial_index":5,"time_elapsed":585936,"internal_node_id":"0.0-3.0-2.0","subject_id":"615c750d62904cb1dd0ece7f","study_id":"6197b3f67c2b5cd3b6d9596a","session_id":"619be78948db04f6d82829e3","condition":"full-information","relevant_dimensions":["antennae","wings"],"bee_group":{"antennae":"B","wings":"2","pattern":"X","legs":"X"},"correct":false,"bonus":1.520000000000001},{"rt":4139.39999999851,"stimulus":"<p>You did not answer all comprehension questions correctly.<br>Press <b>continue</b> to review the instructions again.</p>","response":0,"trial_type":"html-button-response","trial_index":6,"time_elapsed":590078,"internal_node_id":"0.0-3.0-3.0","subject_id":"615c750d62904cb1dd0ece7f","study_id":"6197b3f67c2b5cd3b6d9596a","session_id":"619be78948db04f6d82829e3","condition":"full-information","relevant_dimensions":["antennae","wings"],"bee_group":{"antennae":"B","wings":"2","pattern":"X","legs":"X"},"bonus":1.520000000000001},{"view_history":[{"page_index":0,"viewing_time":2499.1999999955297},{"page_index":1,"viewing_time":13327},{"page_index":2,"viewing_time":1706},{"page_index":1,"viewing_time":2837.39999999851},{"page_index":2,"viewing_time":6033.9000000059605},{"page_index":3,"viewing_time":6635},{"page_index":4,"viewing_time":2509.5999999940395},{"page_index":5,"viewing_time":5987.9000000059605},{"page_index":6,"viewing_time":999.5999999940395},{"page_index":7,"viewing_time":951.5},{"page_index":8,"viewing_time":599.7000000029802},{"page_index":9,"viewing_time":672.8999999985099},{"page_index":10,"viewing_time":507.70000000298023},{"page_index":11,"viewing_time":1409.6000000014901},{"page_index":12,"viewing_time":1436},{"page_index":13,"viewing_time":1230.6999999955297},{"page_index":14,"viewing_time":1181}],"rt":50525.19999999553,"trial_type":"instructions","trial_index":7,"time_elapsed":640604,"internal_node_id":"0.0-3.0-4.0-0.0","subject_id":"615c750d62904cb1dd0ece7f","study_id":"6197b3f67c2b5cd3b6d9596a","session_id":"619be78948db04f6d82829e3","condition":"full-information","relevant_dimensions":["antennae","wings"],"bee_group":{"antennae":"B","wings":"2","pattern":"X","legs":"X"},"bonus":1.520000000000001},{"rt":10690.89999999851,"response":{"Q0":["Two or six legs","Stripes or spots on body","Single or double wings","Antennae or no antennae"]},"question_order":[0],"trial_type":"survey-multi-select","trial_index":8,"time_elapsed":651300,"internal_node_id":"0.0-3.0-4.0-1.0","subject_id":"615c750d62904cb1dd0ece7f","study_id":"6197b3f67c2b5cd3b6d9596a","session_id":"619be78948db04f6d82829e3","condition":"full-information","relevant_dimensions":["antennae","wings"],"bee_group":{"antennae":"B","wings":"2","pattern":"X","legs":"X"},"correct":true,"bonus":1.520000000000001},{"rt":11006.19999999553,"response":{"Q1":"No.","Q2":"Based on the four features of the bee.","Q3":"You learn if it was friendly or dangerous, but do not alter your bonus."},"question_order":[0,1,2],"trial_type":"survey-multi-choice","trial_index":9,"time_elapsed":662308,"internal_node_id":"0.0-3.0-4.0-2.0","subject_id":"615c750d62904cb1dd0ece7f","study_id":"6197b3f67c2b5cd3b6d9596a","session_id":"619be78948db04f6d82829e3","condition":"full-information","relevant_dimensions":["antennae","wings"],"bee_group":{"antennae":"B","wings":"2","pattern":"X","legs":"X"},"correct":true,"bonus":1.520000000000001},{"rt":36480,"stimulus":"<p>Congrats, you got everything right<br>When you're ready, click the button below to continue to the experiment.</p>","response":0,"trial_type":"html-button-response","trial_index":10,"time_elapsed":698789,"internal_node_id":"0.0-3.0-4.0-3.0","subject_id":"615c750d62904cb1dd0ece7f","study_id":"6197b3f67c2b5cd3b6d9596a","session_id":"619be78948db04f6d82829e3","condition":"full-information","relevant_dimensions":["antennae","wings"],"bee_group":{"antennae":"B","wings":"2","pattern":"X","legs":"X"},"bonus":1.520000000000001},{"rt":10171.10000000149,"stimulus":"bees-with-color/bee-A2SF.svg","response":0,"trial_type":"image-button-response","trial_index":11,"time_elapsed":708963,"internal_node_id":"0.0-4.0-0.0","subject_id":"615c750d62904cb1dd0ece7f","study_id":"6197b3f67c2b5cd3b6d9596a","session_id":"619be78948db04f6d82829e3","condition":"full-information","relevant_dimensions":["antennae","wings"],"bee_group":{"antennae":"B","wings":"2","pattern":"X","legs":"X"},"action":"harvest","summary":"good-harvest","bonus":1.520000000000001},{"rt":21355.60000000149,"stimulus":"\n                    <p><b>Action: <em>harvest</em></b></p>\n                    <p>This is the bee that you just saw.</p>\n                    <img src=\"bees-with-color/bee-A2SF.svg\" width=\"200\">\n                    <p><span class=\"greenText\"><b>Successful harvest!</b></span><br>Your pay has increased by $0.02. Your bonus pay is now $0.56.</p>\n            ","response":0,"trial_type":"html-button-response","trial_index":12,"time_elapsed":730322,"internal_node_id":"0.0-4.0-1.0","subject_id":"615c750d62904cb1dd0ece7f","study_id":"6197b3f67c2b5cd3b6d9596a","session_id":"619be78948db04f6d82829e3","condition":"full-information","relevant_dimensions":["antennae","wings"],"bee_group":{"antennae":"B","wings":"2","pattern":"X","legs":"X"},"bonus":1.520000000000001},{"rt":3827.2000000029802,"stimulus":"bees-with-color/bee-B1DM.svg","response":1,"trial_type":"image-button-response","trial_index":13,"time_elapsed":734152,"internal_node_id":"0.0-4.0-0.1","subject_id":"615c750d62904cb1dd0ece7f","study_id":"6197b3f67c2b5cd3b6d9596a","session_id":"619be78948db04f6d82829e3","condition":"full-information","relevant_dimensions":["antennae","wings"],"bee_group":{"antennae":"B","wings":"2","pattern":"X","legs":"X"},"action":"avoid","summary":"bad-avoid","bonus":1.520000000000001},{"rt":24326.29999999702,"stimulus":"\n                    <p><b>Action: <em>avoid</em></b></p>\n                    <p>This is the bee that you just saw.</p>\n                    <img src=\"bees-with-color/bee-B1DM.svg\" width=\"200\">\n                    <p><span class=\"redText\">Bad choice,</span> the bee was friendly.<br>Your bonus pay is unchanged, and remains at $0.56.</p>\n            ","response":0,"trial_type":"html-button-response","trial_index":14,"time_elapsed":758480,"internal_node_id":"0.0-4.0-1.1","subject_id":"615c750d62904cb1dd0ece7f","study_id":"6197b3f67c2b5cd3b6d9596a","session_id":"619be78948db04f6d82829e3","condition":"full-information","relevant_dimensions":["antennae","wings"],"bee_group":{"antennae":"B","wings":"2","pattern":"X","legs":"X"},"bonus":1.520000000000001},{"rt":2342.89999999851,"stimulus":"bees-with-color/bee-B2DM.svg","response":1,"trial_type":"image-button-response","trial_index":15,"time_elapsed":760825,"internal_node_id":"0.0-4.0-0.2","subject_id":"615c750d62904cb1dd0ece7f","study_id":"6197b3f67c2b5cd3b6d9596a","session_id":"619be78948db04f6d82829e3","condition":"full-information","relevant_dimensions":["antennae","wings"],"bee_group":{"antennae":"B","wings":"2","pattern":"X","legs":"X"},"action":"avoid","summary":"good-avoid","bonus":1.520000000000001},{"rt":21617,"stimulus":"\n                    <p><b>Action: <em>avoid</em></b></p>\n                    <p>This is the bee that you just saw.</p>\n                    <img src=\"bees-with-color/bee-B2DM.svg\" width=\"200\">\n                    <p><span class=\"greenText\">Good choice!</span>  This bee would have stung you.<br>Your bonus pay is unchanged, and remains at $0.56.</p>\n            ","response":0,"trial_type":"html-button-response","trial_index":16,"time_elapsed":782548,"internal_node_id":"0.0-4.0-1.2","subject_id":"615c750d62904cb1dd0ece7f","study_id":"6197b3f67c2b5cd3b6d9596a","session_id":"619be78948db04f6d82829e3","condition":"full-information","relevant_dimensions":["antennae","wings"],"bee_group":{"antennae":"B","wings":"2","pattern":"X","legs":"X"},"bonus":1.520000000000001},{"rt":9928.10000000149,"stimulus":"bees-with-color/bee-A1SF.svg","response":1,"trial_type":"image-button-response","trial_index":17,"time_elapsed":792479,"internal_node_id":"0.0-4.0-0.3","subject_id":"615c750d62904cb1dd0ece7f","study_id":"6197b3f67c2b5cd3b6d9596a","session_id":"619be78948db04f6d82829e3","condition":"full-information","relevant_dimensions":["antennae","wings"],"bee_group":{"antennae":"B","wings":"2","pattern":"X","legs":"X"},"action":"avoid","summary":"bad-avoid","bonus":1.520000000000001},{"rt":22528.20000000298,"stimulus":"\n                    <p><b>Action: <em>avoid</em></b></p>\n                    <p>This is the bee that you just saw.</p>\n                    <img src=\"bees-with-color/bee-A1SF.svg\" width=\"200\">\n                    <p><span class=\"redText\">Bad choice,</span> the bee was friendly.<br>Your bonus pay is unchanged, and remains at $0.56.</p>\n            ","response":0,"trial_type":"html-button-response","trial_index":18,"time_elapsed":815009,"internal_node_id":"0.0-4.0-1.3","subject_id":"615c750d62904cb1dd0ece7f","study_id":"6197b3f67c2b5cd3b6d9596a","session_id":"619be78948db04f6d82829e3","condition":"full-information","relevant_dimensions":["antennae","wings"],"bee_group":{"antennae":"B","wings":"2","pattern":"X","legs":"X"},"bonus":1.520000000000001},{"rt":7329.70000000298,"stimulus":"bees-with-color/bee-B2SF.svg","response":0,"trial_type":"image-button-response","trial_index":19,"time_elapsed":822341,"internal_node_id":"0.0-4.0-0.4","subject_id":"615c750d62904cb1dd0ece7f","study_id":"6197b3f67c2b5cd3b6d9596a","session_id":"619be78948db04f6d82829e3","condition":"full-information","relevant_dimensions":["antennae","wings"],"bee_group":{"antennae":"B","wings":"2","pattern":"X","legs":"X"},"action":"harvest","summary":"bad-harvest","bonus":1.520000000000001},{"rt":6034,"stimulus":"\n                    <p><b>Action: <em>harvest</em></b></p>\n                    <p>This is the bee that you just saw.</p>\n                    <img src=\"bees-with-color/bee-B2SF.svg\" width=\"200\">\n                    <p><span class=\"redText\">Bad choice, the bee was angry.</span><br><b>You have been stung!</b><br>Your pay has been decreased by $0.10. Your bonus pay is now $0.46.</p>\n            ","response":0,"trial_type":"html-button-response","trial_index":20,"time_elapsed":828377,"internal_node_id":"0.0-4.0-1.4","subject_id":"615c750d62904cb1dd0ece7f","study_id":"6197b3f67c2b5cd3b6d9596a","session_id":"619be78948db04f6d82829e3","condition":"full-information","relevant_dimensions":["antennae","wings"],"bee_group":{"antennae":"B","wings":"2","pattern":"X","legs":"X"},"bonus":1.520000000000001},{"rt":9073.10000000149,"stimulus":"bees-with-color/bee-A2DM.svg","response":1,"trial_type":"image-button-response","trial_index":21,"time_elapsed":837452,"internal_node_id":"0.0-4.0-0.5","subject_id":"615c750d62904cb1dd0ece7f","study_id":"6197b3f67c2b5cd3b6d9596a","session_id":"619be78948db04f6d82829e3","condition":"full-information","relevant_dimensions":["antennae","wings"],"bee_group":{"antennae":"B","wings":"2","pattern":"X","legs":"X"},"action":"avoid","summary":"bad-avoid","bonus":1.520000000000001},{"rt":13414.89999999851,"stimulus":"\n                    <p><b>Action: <em>avoid</em></b></p>\n                    <p>This is the bee that you just saw.</p>\n                    <img src=\"bees-with-color/bee-A2DM.svg\" width=\"200\">\n                    <p><span class=\"redText\">Bad choice,</span> the bee was friendly.<br>Your bonus pay is unchanged, and remains at $0.46.</p>\n            ","response":0,"trial_type":"html-button-response","trial_index":22,"time_elapsed":850869,"internal_node_id":"0.0-4.0-1.5","subject_id":"615c750d62904cb1dd0ece7f","study_id":"6197b3f67c2b5cd3b6d9596a","session_id":"619be78948db04f6d82829e3","condition":"full-information","relevant_dimensions":["antennae","wings"],"bee_group":{"antennae":"B","wings":"2","pattern":"X","legs":"X"},"bonus":1.520000000000001},{"rt":51826.70000000298,"stimulus":"bees-with-color/bee-A1SM.svg","response":0,"trial_type":"image-button-response","trial_index":23,"time_elapsed":902698,"internal_node_id":"0.0-4.0-0.6","subject_id":"615c750d62904cb1dd0ece7f","study_id":"6197b3f67c2b5cd3b6d9596a","session_id":"619be78948db04f6d82829e3","condition":"full-information","relevant_dimensions":["antennae","wings"],"bee_group":{"antennae":"B","wings":"2","pattern":"X","legs":"X"},"action":"harvest","summary":"good-harvest","bonus":1.520000000000001},{"rt":15370.30000000447,"stimulus":"\n                    <p><b>Action: <em>harvest</em></b></p>\n                    <p>This is the bee that you just saw.</p>\n                    <img src=\"bees-with-color/bee-A1SM.svg\" width=\"200\">\n                    <p><span class=\"greenText\"><b>Successful harvest!</b></span><br>Your pay has increased by $0.02. Your bonus pay is now $0.48.</p>\n            ","response":0,"trial_type":"html-button-response","trial_index":24,"time_elapsed":918070,"internal_node_id":"0.0-4.0-1.6","subject_id":"615c750d62904cb1dd0ece7f","study_id":"6197b3f67c2b5cd3b6d9596a","session_id":"619be78948db04f6d82829e3","condition":"full-information","relevant_dimensions":["antennae","wings"],"bee_group":{"antennae":"B","wings":"2","pattern":"X","legs":"X"},"bonus":1.520000000000001},{"rt":20001.59999999404,"stimulus":"bees-with-color/bee-A1DM.svg","response":1,"trial_type":"image-button-response","trial_index":25,"time_elapsed":938074,"internal_node_id":"0.0-4.0-0.7","subject_id":"615c750d62904cb1dd0ece7f","study_id":"6197b3f67c2b5cd3b6d9596a","session_id":"619be78948db04f6d82829e3","condition":"full-information","relevant_dimensions":["antennae","wings"],"bee_group":{"antennae":"B","wings":"2","pattern":"X","legs":"X"},"action":"avoid","summary":"bad-avoid","bonus":1.520000000000001},{"rt":7712,"stimulus":"\n                    <p><b>Action: <em>avoid</em></b></p>\n                    <p>This is the bee that you just saw.</p>\n                    <img src=\"bees-with-color/bee-A1DM.svg\" width=\"200\">\n                    <p><span class=\"redText\">Bad choice,</span> the bee was friendly.<br>Your bonus pay is unchanged, and remains at $0.48.</p>\n            ","response":0,"trial_type":"html-button-response","trial_index":26,"time_elapsed":945788,"internal_node_id":"0.0-4.0-1.7","subject_id":"615c750d62904cb1dd0ece7f","study_id":"6197b3f67c2b5cd3b6d9596a","session_id":"619be78948db04f6d82829e3","condition":"full-information","relevant_dimensions":["antennae","wings"],"bee_group":{"antennae":"B","wings":"2","pattern":"X","legs":"X"},"bonus":1.520000000000001},{"rt":31111.79999999702,"stimulus":"bees-with-color/bee-B1DF.svg","response":1,"trial_type":"image-button-response","trial_index":27,"time_elapsed":976902,"internal_node_id":"0.0-4.0-0.8","subject_id":"615c750d62904cb1dd0ece7f","study_id":"6197b3f67c2b5cd3b6d9596a","session_id":"619be78948db04f6d82829e3","condition":"full-information","relevant_dimensions":["antennae","wings"],"bee_group":{"antennae":"B","wings":"2","pattern":"X","legs":"X"},"action":"avoid","summary":"bad-avoid","bonus":1.520000000000001},{"rt":7375,"stimulus":"\n                    <p><b>Action: <em>avoid</em></b></p>\n                    <p>This is the bee that you just saw.</p>\n                    <img src=\"bees-with-color/bee-B1DF.svg\" width=\"200\">\n                    <p><span class=\"redText\">Bad choice,</span> the bee was friendly.<br>Your bonus pay is unchanged, and remains at $0.48.</p>\n            ","response":0,"trial_type":"html-button-response","trial_index":28,"time_elapsed":984279,"internal_node_id":"0.0-4.0-1.8","subject_id":"615c750d62904cb1dd0ece7f","study_id":"6197b3f67c2b5cd3b6d9596a","session_id":"619be78948db04f6d82829e3","condition":"full-information","relevant_dimensions":["antennae","wings"],"bee_group":{"antennae":"B","wings":"2","pattern":"X","legs":"X"},"bonus":1.520000000000001},{"rt":9669.5,"stimulus":"bees-with-color/bee-A1DF.svg","response":1,"trial_type":"image-button-response","trial_index":29,"time_elapsed":993951,"internal_node_id":"0.0-4.0-0.9","subject_id":"615c750d62904cb1dd0ece7f","study_id":"6197b3f67c2b5cd3b6d9596a","session_id":"619be78948db04f6d82829e3","condition":"full-information","relevant_dimensions":["antennae","wings"],"bee_group":{"antennae":"B","wings":"2","pattern":"X","legs":"X"},"action":"avoid","summary":"bad-avoid","bonus":1.520000000000001},{"rt":7538.5,"stimulus":"\n                    <p><b>Action: <em>avoid</em></b></p>\n                    <p>This is the bee that you just saw.</p>\n                    <img src=\"bees-with-color/bee-A1DF.svg\" width=\"200\">\n                    <p><span class=\"redText\">Bad choice,</span> the bee was friendly.<br>Your bonus pay is unchanged, and remains at $0.48.</p>\n            ","response":0,"trial_type":"html-button-response","trial_index":30,"time_elapsed":1001491,"internal_node_id":"0.0-4.0-1.9","subject_id":"615c750d62904cb1dd0ece7f","study_id":"6197b3f67c2b5cd3b6d9596a","session_id":"619be78948db04f6d82829e3","condition":"full-information","relevant_dimensions":["antennae","wings"],"bee_group":{"antennae":"B","wings":"2","pattern":"X","legs":"X"},"bonus":1.520000000000001},{"rt":12726.29999999702,"stimulus":"bees-with-color/bee-A2SM.svg","response":1,"trial_type":"image-button-response","trial_index":31,"time_elapsed":1014219,"internal_node_id":"0.0-4.0-0.10","subject_id":"615c750d62904cb1dd0ece7f","study_id":"6197b3f67c2b5cd3b6d9596a","session_id":"619be78948db04f6d82829e3","condition":"full-information","relevant_dimensions":["antennae","wings"],"bee_group":{"antennae":"B","wings":"2","pattern":"X","legs":"X"},"action":"avoid","summary":"bad-avoid","bonus":1.520000000000001},{"rt":6458.10000000149,"stimulus":"\n                    <p><b>Action: <em>avoid</em></b></p>\n                    <p>This is the bee that you just saw.</p>\n                    <img src=\"bees-with-color/bee-A2SM.svg\" width=\"200\">\n                    <p><span class=\"redText\">Bad choice,</span> the bee was friendly.<br>Your bonus pay is unchanged, and remains at $0.48.</p>\n            ","response":0,"trial_type":"html-button-response","trial_index":32,"time_elapsed":1020679,"internal_node_id":"0.0-4.0-1.10","subject_id":"615c750d62904cb1dd0ece7f","study_id":"6197b3f67c2b5cd3b6d9596a","session_id":"619be78948db04f6d82829e3","condition":"full-information","relevant_dimensions":["antennae","wings"],"bee_group":{"antennae":"B","wings":"2","pattern":"X","legs":"X"},"bonus":1.520000000000001},{"rt":35151.5,"stimulus":"bees-with-color/bee-A2DF.svg","response":1,"trial_type":"image-button-response","trial_index":33,"time_elapsed":1055832,"internal_node_id":"0.0-4.0-0.11","subject_id":"615c750d62904cb1dd0ece7f","study_id":"6197b3f67c2b5cd3b6d9596a","session_id":"619be78948db04f6d82829e3","condition":"full-information","relevant_dimensions":["antennae","wings"],"bee_group":{"antennae":"B","wings":"2","pattern":"X","legs":"X"},"action":"avoid","summary":"bad-avoid","bonus":1.520000000000001},{"rt":16886.70000000298,"stimulus":"\n                    <p><b>Action: <em>avoid</em></b></p>\n                    <p>This is the bee that you just saw.</p>\n                    <img src=\"bees-with-color/bee-A2DF.svg\" width=\"200\">\n                    <p><span class=\"redText\">Bad choice,</span> the bee was friendly.<br>Your bonus pay is unchanged, and remains at $0.48.</p>\n            ","response":0,"trial_type":"html-button-response","trial_index":34,"time_elapsed":1072720,"internal_node_id":"0.0-4.0-1.11","subject_id":"615c750d62904cb1dd0ece7f","study_id":"6197b3f67c2b5cd3b6d9596a","session_id":"619be78948db04f6d82829e3","condition":"full-information","relevant_dimensions":["antennae","wings"],"bee_group":{"antennae":"B","wings":"2","pattern":"X","legs":"X"},"bonus":1.520000000000001},{"rt":13478.29999999702,"stimulus":"bees-with-color/bee-B1SM.svg","response":0,"trial_type":"image-button-response","trial_index":35,"time_elapsed":1086201,"internal_node_id":"0.0-4.0-0.12","subject_id":"615c750d62904cb1dd0ece7f","study_id":"6197b3f67c2b5cd3b6d9596a","session_id":"619be78948db04f6d82829e3","condition":"full-information","relevant_dimensions":["antennae","wings"],"bee_group":{"antennae":"B","wings":"2","pattern":"X","legs":"X"},"action":"harvest","summary":"good-harvest","bonus":1.520000000000001},{"rt":6438.5999999940395,"stimulus":"\n                    <p><b>Action: <em>harvest</em></b></p>\n                    <p>This is the bee that you just saw.</p>\n                    <img src=\"bees-with-color/bee-B1SM.svg\" width=\"200\">\n                    <p><span class=\"greenText\"><b>Successful harvest!</b></span><br>Your pay has increased by $0.02. Your bonus pay is now $0.50.</p>\n            ","response":0,"trial_type":"html-button-response","trial_index":36,"time_elapsed":1092641,"internal_node_id":"0.0-4.0-1.12","subject_id":"615c750d62904cb1dd0ece7f","study_id":"6197b3f67c2b5cd3b6d9596a","session_id":"619be78948db04f6d82829e3","condition":"full-information","relevant_dimensions":["antennae","wings"],"bee_group":{"antennae":"B","wings":"2","pattern":"X","legs":"X"},"bonus":1.520000000000001},{"rt":12518.5,"stimulus":"bees-with-color/bee-B2SM.svg","response":1,"trial_type":"image-button-response","trial_index":37,"time_elapsed":1105162,"internal_node_id":"0.0-4.0-0.13","subject_id":"615c750d62904cb1dd0ece7f","study_id":"6197b3f67c2b5cd3b6d9596a","session_id":"619be78948db04f6d82829e3","condition":"full-information","relevant_dimensions":["antennae","wings"],"bee_group":{"antennae":"B","wings":"2","pattern":"X","legs":"X"},"action":"avoid","summary":"good-avoid","bonus":1.520000000000001},{"rt":6374.5,"stimulus":"\n                    <p><b>Action: <em>avoid</em></b></p>\n                    <p>This is the bee that you just saw.</p>\n                    <img src=\"bees-with-color/bee-B2SM.svg\" width=\"200\">\n                    <p><span class=\"greenText\">Good choice!</span>  This bee would have stung you.<br>Your bonus pay is unchanged, and remains at $0.50.</p>\n            ","response":0,"trial_type":"html-button-response","trial_index":38,"time_elapsed":1111538,"internal_node_id":"0.0-4.0-1.13","subject_id":"615c750d62904cb1dd0ece7f","study_id":"6197b3f67c2b5cd3b6d9596a","session_id":"619be78948db04f6d82829e3","condition":"full-information","relevant_dimensions":["antennae","wings"],"bee_group":{"antennae":"B","wings":"2","pattern":"X","legs":"X"},"bonus":1.520000000000001},{"rt":32524.39999999851,"stimulus":"bees-with-color/bee-B1SF.svg","response":0,"trial_type":"image-button-response","trial_index":39,"time_elapsed":1144065,"internal_node_id":"0.0-4.0-0.14","subject_id":"615c750d62904cb1dd0ece7f","study_id":"6197b3f67c2b5cd3b6d9596a","session_id":"619be78948db04f6d82829e3","condition":"full-information","relevant_dimensions":["antennae","wings"],"bee_group":{"antennae":"B","wings":"2","pattern":"X","legs":"X"},"action":"harvest","summary":"good-harvest","bonus":1.520000000000001},{"rt":5657.89999999851,"stimulus":"\n                    <p><b>Action: <em>harvest</em></b></p>\n                    <p>This is the bee that you just saw.</p>\n                    <img src=\"bees-with-color/bee-B1SF.svg\" width=\"200\">\n                    <p><span class=\"greenText\"><b>Successful harvest!</b></span><br>Your pay has increased by $0.02. Your bonus pay is now $0.52.</p>\n            ","response":0,"trial_type":"html-button-response","trial_index":40,"time_elapsed":1149725,"internal_node_id":"0.0-4.0-1.14","subject_id":"615c750d62904cb1dd0ece7f","study_id":"6197b3f67c2b5cd3b6d9596a","session_id":"619be78948db04f6d82829e3","condition":"full-information","relevant_dimensions":["antennae","wings"],"bee_group":{"antennae":"B","wings":"2","pattern":"X","legs":"X"},"bonus":1.520000000000001},{"rt":29983.79999999702,"stimulus":"bees-with-color/bee-B2DF.svg","response":1,"trial_type":"image-button-response","trial_index":41,"time_elapsed":1179711,"internal_node_id":"0.0-4.0-0.15","subject_id":"615c750d62904cb1dd0ece7f","study_id":"6197b3f67c2b5cd3b6d9596a","session_id":"619be78948db04f6d82829e3","condition":"full-information","relevant_dimensions":["antennae","wings"],"bee_group":{"antennae":"B","wings":"2","pattern":"X","legs":"X"},"action":"avoid","summary":"good-avoid","bonus":1.520000000000001},{"rt":6264.79999999702,"stimulus":"\n                    <p><b>Action: <em>avoid</em></b></p>\n                    <p>This is the bee that you just saw.</p>\n                    <img src=\"bees-with-color/bee-B2DF.svg\" width=\"200\">\n                    <p><span class=\"greenText\">Good choice!</span>  This bee would have stung you.<br>Your bonus pay is unchanged, and remains at $0.52.</p>\n            ","response":0,"trial_type":"html-button-response","trial_index":42,"time_elapsed":1185977,"internal_node_id":"0.0-4.0-1.15","subject_id":"615c750d62904cb1dd0ece7f","study_id":"6197b3f67c2b5cd3b6d9596a","session_id":"619be78948db04f6d82829e3","condition":"full-information","relevant_dimensions":["antennae","wings"],"bee_group":{"antennae":"B","wings":"2","pattern":"X","legs":"X"},"bonus":1.520000000000001},{"rt":14954.79999999702,"stimulus":"bees-with-color/bee-B1SM.svg","response":0,"trial_type":"image-button-response","trial_index":43,"time_elapsed":1200934,"internal_node_id":"0.0-4.0-0.16","subject_id":"615c750d62904cb1dd0ece7f","study_id":"6197b3f67c2b5cd3b6d9596a","session_id":"619be78948db04f6d82829e3","condition":"full-information","relevant_dimensions":["antennae","wings"],"bee_group":{"antennae":"B","wings":"2","pattern":"X","legs":"X"},"action":"harvest","summary":"good-harvest","bonus":1.520000000000001},{"rt":2786.60000000149,"stimulus":"\n                    <p><b>Action: <em>harvest</em></b></p>\n                    <p>This is the bee that you just saw.</p>\n                    <img src=\"bees-with-color/bee-B1SM.svg\" width=\"200\">\n                    <p><span class=\"greenText\"><b>Successful harvest!</b></span><br>Your pay has increased by $0.02. Your bonus pay is now $0.54.</p>\n            ","response":0,"trial_type":"html-button-response","trial_index":44,"time_elapsed":1203722,"internal_node_id":"0.0-4.0-1.16","subject_id":"615c750d62904cb1dd0ece7f","study_id":"6197b3f67c2b5cd3b6d9596a","session_id":"619be78948db04f6d82829e3","condition":"full-information","relevant_dimensions":["antennae","wings"],"bee_group":{"antennae":"B","wings":"2","pattern":"X","legs":"X"},"bonus":1.520000000000001},{"rt":18930.69999999553,"stimulus":"bees-with-color/bee-A2SM.svg","response":0,"trial_type":"image-button-response","trial_index":45,"time_elapsed":1222655,"internal_node_id":"0.0-4.0-0.17","subject_id":"615c750d62904cb1dd0ece7f","study_id":"6197b3f67c2b5cd3b6d9596a","session_id":"619be78948db04f6d82829e3","condition":"full-information","relevant_dimensions":["antennae","wings"],"bee_group":{"antennae":"B","wings":"2","pattern":"X","legs":"X"},"action":"harvest","summary":"good-harvest","bonus":1.520000000000001},{"rt":2368.10000000149,"stimulus":"\n                    <p><b>Action: <em>harvest</em></b></p>\n                    <p>This is the bee that you just saw.</p>\n                    <img src=\"bees-with-color/bee-A2SM.svg\" width=\"200\">\n                    <p><span class=\"greenText\"><b>Successful harvest!</b></span><br>Your pay has increased by $0.02. Your bonus pay is now $0.56.</p>\n            ","response":0,"trial_type":"html-button-response","trial_index":46,"time_elapsed":1225025,"internal_node_id":"0.0-4.0-1.17","subject_id":"615c750d62904cb1dd0ece7f","study_id":"6197b3f67c2b5cd3b6d9596a","session_id":"619be78948db04f6d82829e3","condition":"full-information","relevant_dimensions":["antennae","wings"],"bee_group":{"antennae":"B","wings":"2","pattern":"X","legs":"X"},"bonus":1.520000000000001},{"rt":36470.89999999851,"stimulus":"bees-with-color/bee-B2SF.svg","response":1,"trial_type":"image-button-response","trial_index":47,"time_elapsed":1261498,"internal_node_id":"0.0-4.0-0.18","subject_id":"615c750d62904cb1dd0ece7f","study_id":"6197b3f67c2b5cd3b6d9596a","session_id":"619be78948db04f6d82829e3","condition":"full-information","relevant_dimensions":["antennae","wings"],"bee_group":{"antennae":"B","wings":"2","pattern":"X","legs":"X"},"action":"avoid","summary":"good-avoid","bonus":1.520000000000001},{"rt":8652.60000000149,"stimulus":"\n                    <p><b>Action: <em>avoid</em></b></p>\n                    <p>This is the bee that you just saw.</p>\n                    <img src=\"bees-with-color/bee-B2SF.svg\" width=\"200\">\n                    <p><span class=\"greenText\">Good choice!</span>  This bee would have stung you.<br>Your bonus pay is unchanged, and remains at $0.56.</p>\n            ","response":0,"trial_type":"html-button-response","trial_index":48,"time_elapsed":1270152,"internal_node_id":"0.0-4.0-1.18","subject_id":"615c750d62904cb1dd0ece7f","study_id":"6197b3f67c2b5cd3b6d9596a","session_id":"619be78948db04f6d82829e3","condition":"full-information","relevant_dimensions":["antennae","wings"],"bee_group":{"antennae":"B","wings":"2","pattern":"X","legs":"X"},"bonus":1.520000000000001},{"rt":11269,"stimulus":"bees-with-color/bee-B2DM.svg","response":1,"trial_type":"image-button-response","trial_index":49,"time_elapsed":1281423,"internal_node_id":"0.0-4.0-0.19","subject_id":"615c750d62904cb1dd0ece7f","study_id":"6197b3f67c2b5cd3b6d9596a","session_id":"619be78948db04f6d82829e3","condition":"full-information","relevant_dimensions":["antennae","wings"],"bee_group":{"antennae":"B","wings":"2","pattern":"X","legs":"X"},"action":"avoid","summary":"good-avoid","bonus":1.520000000000001},{"rt":7113.19999999553,"stimulus":"\n                    <p><b>Action: <em>avoid</em></b></p>\n                    <p>This is the bee that you just saw.</p>\n                    <img src=\"bees-with-color/bee-B2DM.svg\" width=\"200\">\n                    <p><span class=\"greenText\">Good choice!</span>  This bee would have stung you.<br>Your bonus pay is unchanged, and remains at $0.56.</p>\n            ","response":0,"trial_type":"html-button-response","trial_index":50,"time_elapsed":1288538,"internal_node_id":"0.0-4.0-1.19","subject_id":"615c750d62904cb1dd0ece7f","study_id":"6197b3f67c2b5cd3b6d9596a","session_id":"619be78948db04f6d82829e3","condition":"full-information","relevant_dimensions":["antennae","wings"],"bee_group":{"antennae":"B","wings":"2","pattern":"X","legs":"X"},"bonus":1.520000000000001},{"rt":13650.89999999851,"stimulus":"bees-with-color/bee-B1SF.svg","response":0,"trial_type":"image-button-response","trial_index":51,"time_elapsed":1302191,"internal_node_id":"0.0-4.0-0.20","subject_id":"615c750d62904cb1dd0ece7f","study_id":"6197b3f67c2b5cd3b6d9596a","session_id":"619be78948db04f6d82829e3","condition":"full-information","relevant_dimensions":["antennae","wings"],"bee_group":{"antennae":"B","wings":"2","pattern":"X","legs":"X"},"action":"harvest","summary":"good-harvest","bonus":1.520000000000001},{"rt":1859.5999999940395,"stimulus":"\n                    <p><b>Action: <em>harvest</em></b></p>\n                    <p>This is the bee that you just saw.</p>\n                    <img src=\"bees-with-color/bee-B1SF.svg\" width=\"200\">\n                    <p><span class=\"greenText\"><b>Successful harvest!</b></span><br>Your pay has increased by $0.02. Your bonus pay is now $0.58.</p>\n            ","response":0,"trial_type":"html-button-response","trial_index":52,"time_elapsed":1304052,"internal_node_id":"0.0-4.0-1.20","subject_id":"615c750d62904cb1dd0ece7f","study_id":"6197b3f67c2b5cd3b6d9596a","session_id":"619be78948db04f6d82829e3","condition":"full-information","relevant_dimensions":["antennae","wings"],"bee_group":{"antennae":"B","wings":"2","pattern":"X","legs":"X"},"bonus":1.520000000000001},{"rt":29030.89999999851,"stimulus":"bees-with-color/bee-A1DM.svg","response":0,"trial_type":"image-button-response","trial_index":53,"time_elapsed":1333085,"internal_node_id":"0.0-4.0-0.21","subject_id":"615c750d62904cb1dd0ece7f","study_id":"6197b3f67c2b5cd3b6d9596a","session_id":"619be78948db04f6d82829e3","condition":"full-information","relevant_dimensions":["antennae","wings"],"bee_group":{"antennae":"B","wings":"2","pattern":"X","legs":"X"},"action":"harvest","summary":"good-harvest","bonus":1.520000000000001},{"rt":1621.1000000014901,"stimulus":"\n                    <p><b>Action: <em>harvest</em></b></p>\n                    <p>This is the bee that you just saw.</p>\n                    <img src=\"bees-with-color/bee-A1DM.svg\" width=\"200\">\n                    <p><span class=\"greenText\"><b>Successful harvest!</b></span><br>Your pay has increased by $0.02. Your bonus pay is now $0.60.</p>\n            ","response":0,"trial_type":"html-button-response","trial_index":54,"time_elapsed":1334709,"internal_node_id":"0.0-4.0-1.21","subject_id":"615c750d62904cb1dd0ece7f","study_id":"6197b3f67c2b5cd3b6d9596a","session_id":"619be78948db04f6d82829e3","condition":"full-information","relevant_dimensions":["antennae","wings"],"bee_group":{"antennae":"B","wings":"2","pattern":"X","legs":"X"},"bonus":1.520000000000001},{"rt":21590.70000000298,"stimulus":"bees-with-color/bee-A1DF.svg","response":0,"trial_type":"image-button-response","trial_index":55,"time_elapsed":1356302,"internal_node_id":"0.0-4.0-0.22","subject_id":"615c750d62904cb1dd0ece7f","study_id":"6197b3f67c2b5cd3b6d9596a","session_id":"619be78948db04f6d82829e3","condition":"full-information","relevant_dimensions":["antennae","wings"],"bee_group":{"antennae":"B","wings":"2","pattern":"X","legs":"X"},"action":"harvest","summary":"good-harvest","bonus":1.520000000000001},{"rt":5310.80000000447,"stimulus":"\n                    <p><b>Action: <em>harvest</em></b></p>\n                    <p>This is the bee that you just saw.</p>\n                    <img src=\"bees-with-color/bee-A1DF.svg\" width=\"200\">\n                    <p><span class=\"greenText\"><b>Successful harvest!</b></span><br>Your pay has increased by $0.02. Your bonus pay is now $0.62.</p>\n            ","response":0,"trial_type":"html-button-response","trial_index":56,"time_elapsed":1361615,"internal_node_id":"0.0-4.0-1.22","subject_id":"615c750d62904cb1dd0ece7f","study_id":"6197b3f67c2b5cd3b6d9596a","session_id":"619be78948db04f6d82829e3","condition":"full-information","relevant_dimensions":["antennae","wings"],"bee_group":{"antennae":"B","wings":"2","pattern":"X","legs":"X"},"bonus":1.520000000000001},{"rt":5818.60000000149,"stimulus":"bees-with-color/bee-A1SF.svg","response":0,"trial_type":"image-button-response","trial_index":57,"time_elapsed":1367436,"internal_node_id":"0.0-4.0-0.23","subject_id":"615c750d62904cb1dd0ece7f","study_id":"6197b3f67c2b5cd3b6d9596a","session_id":"619be78948db04f6d82829e3","condition":"full-information","relevant_dimensions":["antennae","wings"],"bee_group":{"antennae":"B","wings":"2","pattern":"X","legs":"X"},"action":"harvest","summary":"good-harvest","bonus":1.520000000000001},{"rt":1441.6999999955297,"stimulus":"\n                    <p><b>Action: <em>harvest</em></b></p>\n                    <p>This is the bee that you just saw.</p>\n                    <img src=\"bees-with-color/bee-A1SF.svg\" width=\"200\">\n                    <p><span class=\"greenText\"><b>Successful harvest!</b></span><br>Your pay has increased by $0.02. Your bonus pay is now $0.64.</p>\n            ","response":0,"trial_type":"html-button-response","trial_index":58,"time_elapsed":1368879,"internal_node_id":"0.0-4.0-1.23","subject_id":"615c750d62904cb1dd0ece7f","study_id":"6197b3f67c2b5cd3b6d9596a","session_id":"619be78948db04f6d82829e3","condition":"full-information","relevant_dimensions":["antennae","wings"],"bee_group":{"antennae":"B","wings":"2","pattern":"X","legs":"X"},"bonus":1.520000000000001},{"rt":17465.19999999553,"stimulus":"bees-with-color/bee-B1DM.svg","response":0,"trial_type":"image-button-response","trial_index":59,"time_elapsed":1386346,"internal_node_id":"0.0-4.0-0.24","subject_id":"615c750d62904cb1dd0ece7f","study_id":"6197b3f67c2b5cd3b6d9596a","session_id":"619be78948db04f6d82829e3","condition":"full-information","relevant_dimensions":["antennae","wings"],"bee_group":{"antennae":"B","wings":"2","pattern":"X","legs":"X"},"action":"harvest","summary":"good-harvest","bonus":1.520000000000001},{"rt":1547.2000000029802,"stimulus":"\n                    <p><b>Action: <em>harvest</em></b></p>\n                    <p>This is the bee that you just saw.</p>\n                    <img src=\"bees-with-color/bee-B1DM.svg\" width=\"200\">\n                    <p><span class=\"greenText\"><b>Successful harvest!</b></span><br>Your pay has increased by $0.02. Your bonus pay is now $0.66.</p>\n            ","response":0,"trial_type":"html-button-response","trial_index":60,"time_elapsed":1387895,"internal_node_id":"0.0-4.0-1.24","subject_id":"615c750d62904cb1dd0ece7f","study_id":"6197b3f67c2b5cd3b6d9596a","session_id":"619be78948db04f6d82829e3","condition":"full-information","relevant_dimensions":["antennae","wings"],"bee_group":{"antennae":"B","wings":"2","pattern":"X","legs":"X"},"bonus":1.520000000000001},{"rt":32552.60000000149,"stimulus":"bees-with-color/bee-A2DM.svg","response":0,"trial_type":"image-button-response","trial_index":61,"time_elapsed":1420449,"internal_node_id":"0.0-4.0-0.25","subject_id":"615c750d62904cb1dd0ece7f","study_id":"6197b3f67c2b5cd3b6d9596a","session_id":"619be78948db04f6d82829e3","condition":"full-information","relevant_dimensions":["antennae","wings"],"bee_group":{"antennae":"B","wings":"2","pattern":"X","legs":"X"},"action":"harvest","summary":"good-harvest","bonus":1.520000000000001},{"rt":1531.1000000014901,"stimulus":"\n                    <p><b>Action: <em>harvest</em></b></p>\n                    <p>This is the bee that you just saw.</p>\n                    <img src=\"bees-with-color/bee-A2DM.svg\" width=\"200\">\n                    <p><span class=\"greenText\"><b>Successful harvest!</b></span><br>Your pay has increased by $0.02. Your bonus pay is now $0.68.</p>\n            ","response":0,"trial_type":"html-button-response","trial_index":62,"time_elapsed":1421982,"internal_node_id":"0.0-4.0-1.25","subject_id":"615c750d62904cb1dd0ece7f","study_id":"6197b3f67c2b5cd3b6d9596a","session_id":"619be78948db04f6d82829e3","condition":"full-information","relevant_dimensions":["antennae","wings"],"bee_group":{"antennae":"B","wings":"2","pattern":"X","legs":"X"},"bonus":1.520000000000001},{"rt":5106,"stimulus":"bees-with-color/bee-A1SM.svg","response":0,"trial_type":"image-button-response","trial_index":63,"time_elapsed":1427090,"internal_node_id":"0.0-4.0-0.26","subject_id":"615c750d62904cb1dd0ece7f","study_id":"6197b3f67c2b5cd3b6d9596a","session_id":"619be78948db04f6d82829e3","condition":"full-information","relevant_dimensions":["antennae","wings"],"bee_group":{"antennae":"B","wings":"2","pattern":"X","legs":"X"},"action":"harvest","summary":"good-harvest","bonus":1.520000000000001},{"rt":1294.4000000059605,"stimulus":"\n                    <p><b>Action: <em>harvest</em></b></p>\n                    <p>This is the bee that you just saw.</p>\n                    <img src=\"bees-with-color/bee-A1SM.svg\" width=\"200\">\n                    <p><span class=\"greenText\"><b>Successful harvest!</b></span><br>Your pay has increased by $0.02. Your bonus pay is now $0.70.</p>\n            ","response":0,"trial_type":"html-button-response","trial_index":64,"time_elapsed":1428386,"internal_node_id":"0.0-4.0-1.26","subject_id":"615c750d62904cb1dd0ece7f","study_id":"6197b3f67c2b5cd3b6d9596a","session_id":"619be78948db04f6d82829e3","condition":"full-information","relevant_dimensions":["antennae","wings"],"bee_group":{"antennae":"B","wings":"2","pattern":"X","legs":"X"},"bonus":1.520000000000001},{"rt":8993.80000000447,"stimulus":"bees-with-color/bee-B2SM.svg","response":1,"trial_type":"image-button-response","trial_index":65,"time_elapsed":1437382,"internal_node_id":"0.0-4.0-0.27","subject_id":"615c750d62904cb1dd0ece7f","study_id":"6197b3f67c2b5cd3b6d9596a","session_id":"619be78948db04f6d82829e3","condition":"full-information","relevant_dimensions":["antennae","wings"],"bee_group":{"antennae":"B","wings":"2","pattern":"X","legs":"X"},"action":"avoid","summary":"good-avoid","bonus":1.520000000000001},{"rt":1383.7000000029802,"stimulus":"\n                    <p><b>Action: <em>avoid</em></b></p>\n                    <p>This is the bee that you just saw.</p>\n                    <img src=\"bees-with-color/bee-B2SM.svg\" width=\"200\">\n                    <p><span class=\"greenText\">Good choice!</span>  This bee would have stung you.<br>Your bonus pay is unchanged, and remains at $0.70.</p>\n            ","response":0,"trial_type":"html-button-response","trial_index":66,"time_elapsed":1438768,"internal_node_id":"0.0-4.0-1.27","subject_id":"615c750d62904cb1dd0ece7f","study_id":"6197b3f67c2b5cd3b6d9596a","session_id":"619be78948db04f6d82829e3","condition":"full-information","relevant_dimensions":["antennae","wings"],"bee_group":{"antennae":"B","wings":"2","pattern":"X","legs":"X"},"bonus":1.520000000000001},{"rt":14889.20000000298,"stimulus":"bees-with-color/bee-B1DF.svg","response":0,"trial_type":"image-button-response","trial_index":67,"time_elapsed":1453659,"internal_node_id":"0.0-4.0-0.28","subject_id":"615c750d62904cb1dd0ece7f","study_id":"6197b3f67c2b5cd3b6d9596a","session_id":"619be78948db04f6d82829e3","condition":"full-information","relevant_dimensions":["antennae","wings"],"bee_group":{"antennae":"B","wings":"2","pattern":"X","legs":"X"},"action":"harvest","summary":"good-harvest","bonus":1.520000000000001},{"rt":1121,"stimulus":"\n                    <p><b>Action: <em>harvest</em></b></p>\n                    <p>This is the bee that you just saw.</p>\n                    <img src=\"bees-with-color/bee-B1DF.svg\" width=\"200\">\n                    <p><span class=\"greenText\"><b>Successful harvest!</b></span><br>Your pay has increased by $0.02. Your bonus pay is now $0.72.</p>\n            ","response":0,"trial_type":"html-button-response","trial_index":68,"time_elapsed":1454783,"internal_node_id":"0.0-4.0-1.28","subject_id":"615c750d62904cb1dd0ece7f","study_id":"6197b3f67c2b5cd3b6d9596a","session_id":"619be78948db04f6d82829e3","condition":"full-information","relevant_dimensions":["antennae","wings"],"bee_group":{"antennae":"B","wings":"2","pattern":"X","legs":"X"},"bonus":1.520000000000001},{"rt":10417.59999999404,"stimulus":"bees-with-color/bee-A2SF.svg","response":0,"trial_type":"image-button-response","trial_index":69,"time_elapsed":1465203,"internal_node_id":"0.0-4.0-0.29","subject_id":"615c750d62904cb1dd0ece7f","study_id":"6197b3f67c2b5cd3b6d9596a","session_id":"619be78948db04f6d82829e3","condition":"full-information","relevant_dimensions":["antennae","wings"],"bee_group":{"antennae":"B","wings":"2","pattern":"X","legs":"X"},"action":"harvest","summary":"good-harvest","bonus":1.520000000000001},{"rt":2638.10000000149,"stimulus":"\n                    <p><b>Action: <em>harvest</em></b></p>\n                    <p>This is the bee that you just saw.</p>\n                    <img src=\"bees-with-color/bee-A2SF.svg\" width=\"200\">\n                    <p><span class=\"greenText\"><b>Successful harvest!</b></span><br>Your pay has increased by $0.02. Your bonus pay is now $0.74.</p>\n            ","response":0,"trial_type":"html-button-response","trial_index":70,"time_elapsed":1467843,"internal_node_id":"0.0-4.0-1.29","subject_id":"615c750d62904cb1dd0ece7f","study_id":"6197b3f67c2b5cd3b6d9596a","session_id":"619be78948db04f6d82829e3","condition":"full-information","relevant_dimensions":["antennae","wings"],"bee_group":{"antennae":"B","wings":"2","pattern":"X","legs":"X"},"bonus":1.520000000000001},{"rt":15630.39999999851,"stimulus":"bees-with-color/bee-B2DF.svg","response":1,"trial_type":"image-button-response","trial_index":71,"time_elapsed":1483475,"internal_node_id":"0.0-4.0-0.30","subject_id":"615c750d62904cb1dd0ece7f","study_id":"6197b3f67c2b5cd3b6d9596a","session_id":"619be78948db04f6d82829e3","condition":"full-information","relevant_dimensions":["antennae","wings"],"bee_group":{"antennae":"B","wings":"2","pattern":"X","legs":"X"},"action":"avoid","summary":"good-avoid","bonus":1.520000000000001},{"rt":957.6000000014901,"stimulus":"\n                    <p><b>Action: <em>avoid</em></b></p>\n                    <p>This is the bee that you just saw.</p>\n                    <img src=\"bees-with-color/bee-B2DF.svg\" width=\"200\">\n                    <p><span class=\"greenText\">Good choice!</span>  This bee would have stung you.<br>Your bonus pay is unchanged, and remains at $0.74.</p>\n            ","response":0,"trial_type":"html-button-response","trial_index":72,"time_elapsed":1484434,"internal_node_id":"0.0-4.0-1.30","subject_id":"615c750d62904cb1dd0ece7f","study_id":"6197b3f67c2b5cd3b6d9596a","session_id":"619be78948db04f6d82829e3","condition":"full-information","relevant_dimensions":["antennae","wings"],"bee_group":{"antennae":"B","wings":"2","pattern":"X","legs":"X"},"bonus":1.520000000000001},{"rt":11060.19999999553,"stimulus":"bees-with-color/bee-A2DF.svg","response":0,"trial_type":"image-button-response","trial_index":73,"time_elapsed":1495496,"internal_node_id":"0.0-4.0-0.31","subject_id":"615c750d62904cb1dd0ece7f","study_id":"6197b3f67c2b5cd3b6d9596a","session_id":"619be78948db04f6d82829e3","condition":"full-information","relevant_dimensions":["antennae","wings"],"bee_group":{"antennae":"B","wings":"2","pattern":"X","legs":"X"},"action":"harvest","summary":"good-harvest","bonus":1.520000000000001},{"rt":1030.8999999985099,"stimulus":"\n                    <p><b>Action: <em>harvest</em></b></p>\n                    <p>This is the bee that you just saw.</p>\n                    <img src=\"bees-with-color/bee-A2DF.svg\" width=\"200\">\n                    <p><span class=\"greenText\"><b>Successful harvest!</b></span><br>Your pay has increased by $0.02. Your bonus pay is now $0.76.</p>\n            ","response":0,"trial_type":"html-button-response","trial_index":74,"time_elapsed":1496529,"internal_node_id":"0.0-4.0-1.31","subject_id":"615c750d62904cb1dd0ece7f","study_id":"6197b3f67c2b5cd3b6d9596a","session_id":"619be78948db04f6d82829e3","condition":"full-information","relevant_dimensions":["antennae","wings"],"bee_group":{"antennae":"B","wings":"2","pattern":"X","legs":"X"},"bonus":1.520000000000001},{"rt":12852.29999999702,"stimulus":"bees-with-color/bee-B2SF.svg","response":1,"trial_type":"image-button-response","trial_index":75,"time_elapsed":1509383,"internal_node_id":"0.0-4.0-0.32","subject_id":"615c750d62904cb1dd0ece7f","study_id":"6197b3f67c2b5cd3b6d9596a","session_id":"619be78948db04f6d82829e3","condition":"full-information","relevant_dimensions":["antennae","wings"],"bee_group":{"antennae":"B","wings":"2","pattern":"X","legs":"X"},"action":"avoid","summary":"good-avoid","bonus":1.520000000000001},{"rt":1145.3999999985099,"stimulus":"\n                    <p><b>Action: <em>avoid</em></b></p>\n                    <p>This is the bee that you just saw.</p>\n                    <img src=\"bees-with-color/bee-B2SF.svg\" width=\"200\">\n                    <p><span class=\"greenText\">Good choice!</span>  This bee would have stung you.<br>Your bonus pay is unchanged, and remains at $0.76.</p>\n            ","response":0,"trial_type":"html-button-response","trial_index":76,"time_elapsed":1510530,"internal_node_id":"0.0-4.0-1.32","subject_id":"615c750d62904cb1dd0ece7f","study_id":"6197b3f67c2b5cd3b6d9596a","session_id":"619be78948db04f6d82829e3","condition":"full-information","relevant_dimensions":["antennae","wings"],"bee_group":{"antennae":"B","wings":"2","pattern":"X","legs":"X"},"bonus":1.520000000000001},{"rt":26467.5,"stimulus":"bees-with-color/bee-A1SF.svg","response":0,"trial_type":"image-button-response","trial_index":77,"time_elapsed":1537000,"internal_node_id":"0.0-4.0-0.33","subject_id":"615c750d62904cb1dd0ece7f","study_id":"6197b3f67c2b5cd3b6d9596a","session_id":"619be78948db04f6d82829e3","condition":"full-information","relevant_dimensions":["antennae","wings"],"bee_group":{"antennae":"B","wings":"2","pattern":"X","legs":"X"},"action":"harvest","summary":"good-harvest","bonus":1.520000000000001},{"rt":1031,"stimulus":"\n                    <p><b>Action: <em>harvest</em></b></p>\n                    <p>This is the bee that you just saw.</p>\n                    <img src=\"bees-with-color/bee-A1SF.svg\" width=\"200\">\n                    <p><span class=\"greenText\"><b>Successful harvest!</b></span><br>Your pay has increased by $0.02. Your bonus pay is now $0.78.</p>\n            ","response":0,"trial_type":"html-button-response","trial_index":78,"time_elapsed":1538033,"internal_node_id":"0.0-4.0-1.33","subject_id":"615c750d62904cb1dd0ece7f","study_id":"6197b3f67c2b5cd3b6d9596a","session_id":"619be78948db04f6d82829e3","condition":"full-information","relevant_dimensions":["antennae","wings"],"bee_group":{"antennae":"B","wings":"2","pattern":"X","legs":"X"},"bonus":1.520000000000001},{"rt":4292.5,"stimulus":"bees-with-color/bee-B2DM.svg","response":1,"trial_type":"image-button-response","trial_index":79,"time_elapsed":1542328,"internal_node_id":"0.0-4.0-0.34","subject_id":"615c750d62904cb1dd0ece7f","study_id":"6197b3f67c2b5cd3b6d9596a","session_id":"619be78948db04f6d82829e3","condition":"full-information","relevant_dimensions":["antennae","wings"],"bee_group":{"antennae":"B","wings":"2","pattern":"X","legs":"X"},"action":"avoid","summary":"good-avoid","bonus":1.520000000000001},{"rt":1162.5,"stimulus":"\n                    <p><b>Action: <em>avoid</em></b></p>\n                    <p>This is the bee that you just saw.</p>\n                    <img src=\"bees-with-color/bee-B2DM.svg\" width=\"200\">\n                    <p><span class=\"greenText\">Good choice!</span>  This bee would have stung you.<br>Your bonus pay is unchanged, and remains at $0.78.</p>\n            ","response":0,"trial_type":"html-button-response","trial_index":80,"time_elapsed":1543492,"internal_node_id":"0.0-4.0-1.34","subject_id":"615c750d62904cb1dd0ece7f","study_id":"6197b3f67c2b5cd3b6d9596a","session_id":"619be78948db04f6d82829e3","condition":"full-information","relevant_dimensions":["antennae","wings"],"bee_group":{"antennae":"B","wings":"2","pattern":"X","legs":"X"},"bonus":1.520000000000001},{"rt":5912.80000000447,"stimulus":"bees-with-color/bee-B1SM.svg","response":1,"trial_type":"image-button-response","trial_index":81,"time_elapsed":1549407,"internal_node_id":"0.0-4.0-0.35","subject_id":"615c750d62904cb1dd0ece7f","study_id":"6197b3f67c2b5cd3b6d9596a","session_id":"619be78948db04f6d82829e3","condition":"full-information","relevant_dimensions":["antennae","wings"],"bee_group":{"antennae":"B","wings":"2","pattern":"X","legs":"X"},"action":"avoid","summary":"bad-avoid","bonus":1.520000000000001},{"rt":1859,"stimulus":"\n                    <p><b>Action: <em>avoid</em></b></p>\n                    <p>This is the bee that you just saw.</p>\n                    <img src=\"bees-with-color/bee-B1SM.svg\" width=\"200\">\n                    <p><span class=\"redText\">Bad choice,</span> the bee was friendly.<br>Your bonus pay is unchanged, and remains at $0.78.</p>\n            ","response":0,"trial_type":"html-button-response","trial_index":82,"time_elapsed":1551268,"internal_node_id":"0.0-4.0-1.35","subject_id":"615c750d62904cb1dd0ece7f","study_id":"6197b3f67c2b5cd3b6d9596a","session_id":"619be78948db04f6d82829e3","condition":"full-information","relevant_dimensions":["antennae","wings"],"bee_group":{"antennae":"B","wings":"2","pattern":"X","legs":"X"},"bonus":1.520000000000001},{"rt":40300.5,"stimulus":"bees-with-color/bee-A1SM.svg","response":0,"trial_type":"image-button-response","trial_index":83,"time_elapsed":1591571,"internal_node_id":"0.0-4.0-0.36","subject_id":"615c750d62904cb1dd0ece7f","study_id":"6197b3f67c2b5cd3b6d9596a","session_id":"619be78948db04f6d82829e3","condition":"full-information","relevant_dimensions":["antennae","wings"],"bee_group":{"antennae":"B","wings":"2","pattern":"X","legs":"X"},"action":"harvest","summary":"good-harvest","bonus":1.520000000000001},{"rt":1480.5999999940395,"stimulus":"\n                    <p><b>Action: <em>harvest</em></b></p>\n                    <p>This is the bee that you just saw.</p>\n                    <img src=\"bees-with-color/bee-A1SM.svg\" width=\"200\">\n                    <p><span class=\"greenText\"><b>Successful harvest!</b></span><br>Your pay has increased by $0.02. Your bonus pay is now $0.80.</p>\n            ","response":0,"trial_type":"html-button-response","trial_index":84,"time_elapsed":1593054,"internal_node_id":"0.0-4.0-1.36","subject_id":"615c750d62904cb1dd0ece7f","study_id":"6197b3f67c2b5cd3b6d9596a","session_id":"619be78948db04f6d82829e3","condition":"full-information","relevant_dimensions":["antennae","wings"],"bee_group":{"antennae":"B","wings":"2","pattern":"X","legs":"X"},"bonus":1.520000000000001},{"rt":21170.19999999553,"stimulus":"bees-with-color/bee-A1DF.svg","response":0,"trial_type":"image-button-response","trial_index":85,"time_elapsed":1614226,"internal_node_id":"0.0-4.0-0.37","subject_id":"615c750d62904cb1dd0ece7f","study_id":"6197b3f67c2b5cd3b6d9596a","session_id":"619be78948db04f6d82829e3","condition":"full-information","relevant_dimensions":["antennae","wings"],"bee_group":{"antennae":"B","wings":"2","pattern":"X","legs":"X"},"action":"harvest","summary":"good-harvest","bonus":1.520000000000001},{"rt":1437.6999999955297,"stimulus":"\n                    <p><b>Action: <em>harvest</em></b></p>\n                    <p>This is the bee that you just saw.</p>\n                    <img src=\"bees-with-color/bee-A1DF.svg\" width=\"200\">\n                    <p><span class=\"greenText\"><b>Successful harvest!</b></span><br>Your pay has increased by $0.02. Your bonus pay is now $0.82.</p>\n            ","response":0,"trial_type":"html-button-response","trial_index":86,"time_elapsed":1615666,"internal_node_id":"0.0-4.0-1.37","subject_id":"615c750d62904cb1dd0ece7f","study_id":"6197b3f67c2b5cd3b6d9596a","session_id":"619be78948db04f6d82829e3","condition":"full-information","relevant_dimensions":["antennae","wings"],"bee_group":{"antennae":"B","wings":"2","pattern":"X","legs":"X"},"bonus":1.520000000000001},{"rt":12125,"stimulus":"bees-with-color/bee-B1DM.svg","response":1,"trial_type":"image-button-response","trial_index":87,"time_elapsed":1627793,"internal_node_id":"0.0-4.0-0.38","subject_id":"615c750d62904cb1dd0ece7f","study_id":"6197b3f67c2b5cd3b6d9596a","session_id":"619be78948db04f6d82829e3","condition":"full-information","relevant_dimensions":["antennae","wings"],"bee_group":{"antennae":"B","wings":"2","pattern":"X","legs":"X"},"action":"avoid","summary":"bad-avoid","bonus":1.520000000000001},{"rt":5532.20000000298,"stimulus":"\n                    <p><b>Action: <em>avoid</em></b></p>\n                    <p>This is the bee that you just saw.</p>\n                    <img src=\"bees-with-color/bee-B1DM.svg\" width=\"200\">\n                    <p><span class=\"redText\">Bad choice,</span> the bee was friendly.<br>Your bonus pay is unchanged, and remains at $0.82.</p>\n            ","response":0,"trial_type":"html-button-response","trial_index":88,"time_elapsed":1633327,"internal_node_id":"0.0-4.0-1.38","subject_id":"615c750d62904cb1dd0ece7f","study_id":"6197b3f67c2b5cd3b6d9596a","session_id":"619be78948db04f6d82829e3","condition":"full-information","relevant_dimensions":["antennae","wings"],"bee_group":{"antennae":"B","wings":"2","pattern":"X","legs":"X"},"bonus":1.520000000000001},{"rt":17703.60000000149,"stimulus":"bees-with-color/bee-A2DF.svg","response":0,"trial_type":"image-button-response","trial_index":89,"time_elapsed":1651032,"internal_node_id":"0.0-4.0-0.39","subject_id":"615c750d62904cb1dd0ece7f","study_id":"6197b3f67c2b5cd3b6d9596a","session_id":"619be78948db04f6d82829e3","condition":"full-information","relevant_dimensions":["antennae","wings"],"bee_group":{"antennae":"B","wings":"2","pattern":"X","legs":"X"},"action":"harvest","summary":"good-harvest","bonus":1.520000000000001},{"rt":1096.8000000044703,"stimulus":"\n                    <p><b>Action: <em>harvest</em></b></p>\n                    <p>This is the bee that you just saw.</p>\n                    <img src=\"bees-with-color/bee-A2DF.svg\" width=\"200\">\n                    <p><span class=\"greenText\"><b>Successful harvest!</b></span><br>Your pay has increased by $0.02. Your bonus pay is now $0.84.</p>\n            ","response":0,"trial_type":"html-button-response","trial_index":90,"time_elapsed":1652131,"internal_node_id":"0.0-4.0-1.39","subject_id":"615c750d62904cb1dd0ece7f","study_id":"6197b3f67c2b5cd3b6d9596a","session_id":"619be78948db04f6d82829e3","condition":"full-information","relevant_dimensions":["antennae","wings"],"bee_group":{"antennae":"B","wings":"2","pattern":"X","legs":"X"},"bonus":1.520000000000001},{"rt":9746.39999999851,"stimulus":"bees-with-color/bee-B2SM.svg","response":1,"trial_type":"image-button-response","trial_index":91,"time_elapsed":1661879,"internal_node_id":"0.0-4.0-0.40","subject_id":"615c750d62904cb1dd0ece7f","study_id":"6197b3f67c2b5cd3b6d9596a","session_id":"619be78948db04f6d82829e3","condition":"full-information","relevant_dimensions":["antennae","wings"],"bee_group":{"antennae":"B","wings":"2","pattern":"X","legs":"X"},"action":"avoid","summary":"good-avoid","bonus":1.520000000000001},{"rt":990.5,"stimulus":"\n                    <p><b>Action: <em>avoid</em></b></p>\n                    <p>This is the bee that you just saw.</p>\n                    <img src=\"bees-with-color/bee-B2SM.svg\" width=\"200\">\n                    <p><span class=\"greenText\">Good choice!</span>  This bee would have stung you.<br>Your bonus pay is unchanged, and remains at $0.84.</p>\n            ","response":0,"trial_type":"html-button-response","trial_index":92,"time_elapsed":1662871,"internal_node_id":"0.0-4.0-1.40","subject_id":"615c750d62904cb1dd0ece7f","study_id":"6197b3f67c2b5cd3b6d9596a","session_id":"619be78948db04f6d82829e3","condition":"full-information","relevant_dimensions":["antennae","wings"],"bee_group":{"antennae":"B","wings":"2","pattern":"X","legs":"X"},"bonus":1.520000000000001},{"rt":15698.10000000149,"stimulus":"bees-with-color/bee-A2DM.svg","response":0,"trial_type":"image-button-response","trial_index":93,"time_elapsed":1678632,"internal_node_id":"0.0-4.0-0.41","subject_id":"615c750d62904cb1dd0ece7f","study_id":"6197b3f67c2b5cd3b6d9596a","session_id":"619be78948db04f6d82829e3","condition":"full-information","relevant_dimensions":["antennae","wings"],"bee_group":{"antennae":"B","wings":"2","pattern":"X","legs":"X"},"action":"harvest","summary":"good-harvest","bonus":1.520000000000001},{"rt":1277,"stimulus":"\n                    <p><b>Action: <em>harvest</em></b></p>\n                    <p>This is the bee that you just saw.</p>\n                    <img src=\"bees-with-color/bee-A2DM.svg\" width=\"200\">\n                    <p><span class=\"greenText\"><b>Successful harvest!</b></span><br>Your pay has increased by $0.02. Your bonus pay is now $0.86.</p>\n            ","response":0,"trial_type":"html-button-response","trial_index":94,"time_elapsed":1679910,"internal_node_id":"0.0-4.0-1.41","subject_id":"615c750d62904cb1dd0ece7f","study_id":"6197b3f67c2b5cd3b6d9596a","session_id":"619be78948db04f6d82829e3","condition":"full-information","relevant_dimensions":["antennae","wings"],"bee_group":{"antennae":"B","wings":"2","pattern":"X","legs":"X"},"bonus":1.520000000000001},{"rt":20647.89999999851,"stimulus":"bees-with-color/bee-B1SF.svg","response":0,"trial_type":"image-button-response","trial_index":95,"time_elapsed":1700561,"internal_node_id":"0.0-4.0-0.42","subject_id":"615c750d62904cb1dd0ece7f","study_id":"6197b3f67c2b5cd3b6d9596a","session_id":"619be78948db04f6d82829e3","condition":"full-information","relevant_dimensions":["antennae","wings"],"bee_group":{"antennae":"B","wings":"2","pattern":"X","legs":"X"},"action":"harvest","summary":"good-harvest","bonus":1.520000000000001},{"rt":981.8999999985099,"stimulus":"\n                    <p><b>Action: <em>harvest</em></b></p>\n                    <p>This is the bee that you just saw.</p>\n                    <img src=\"bees-with-color/bee-B1SF.svg\" width=\"200\">\n                    <p><span class=\"greenText\"><b>Successful harvest!</b></span><br>Your pay has increased by $0.02. Your bonus pay is now $0.88.</p>\n            ","response":0,"trial_type":"html-button-response","trial_index":96,"time_elapsed":1701545,"internal_node_id":"0.0-4.0-1.42","subject_id":"615c750d62904cb1dd0ece7f","study_id":"6197b3f67c2b5cd3b6d9596a","session_id":"619be78948db04f6d82829e3","condition":"full-information","relevant_dimensions":["antennae","wings"],"bee_group":{"antennae":"B","wings":"2","pattern":"X","legs":"X"},"bonus":1.520000000000001},{"rt":5258.70000000298,"stimulus":"bees-with-color/bee-B1DF.svg","response":0,"trial_type":"image-button-response","trial_index":97,"time_elapsed":1706806,"internal_node_id":"0.0-4.0-0.43","subject_id":"615c750d62904cb1dd0ece7f","study_id":"6197b3f67c2b5cd3b6d9596a","session_id":"619be78948db04f6d82829e3","condition":"full-information","relevant_dimensions":["antennae","wings"],"bee_group":{"antennae":"B","wings":"2","pattern":"X","legs":"X"},"action":"harvest","summary":"good-harvest","bonus":1.520000000000001},{"rt":1055.5,"stimulus":"\n                    <p><b>Action: <em>harvest</em></b></p>\n                    <p>This is the bee that you just saw.</p>\n                    <img src=\"bees-with-color/bee-B1DF.svg\" width=\"200\">\n                    <p><span class=\"greenText\"><b>Successful harvest!</b></span><br>Your pay has increased by $0.02. Your bonus pay is now $0.90.</p>\n            ","response":0,"trial_type":"html-button-response","trial_index":98,"time_elapsed":1707863,"internal_node_id":"0.0-4.0-1.43","subject_id":"615c750d62904cb1dd0ece7f","study_id":"6197b3f67c2b5cd3b6d9596a","session_id":"619be78948db04f6d82829e3","condition":"full-information","relevant_dimensions":["antennae","wings"],"bee_group":{"antennae":"B","wings":"2","pattern":"X","legs":"X"},"bonus":1.520000000000001},{"rt":11245.79999999702,"stimulus":"bees-with-color/bee-A2SF.svg","response":0,"trial_type":"image-button-response","trial_index":99,"time_elapsed":1719111,"internal_node_id":"0.0-4.0-0.44","subject_id":"615c750d62904cb1dd0ece7f","study_id":"6197b3f67c2b5cd3b6d9596a","session_id":"619be78948db04f6d82829e3","condition":"full-information","relevant_dimensions":["antennae","wings"],"bee_group":{"antennae":"B","wings":"2","pattern":"X","legs":"X"},"action":"harvest","summary":"good-harvest","bonus":1.520000000000001},{"rt":1022.3999999985099,"stimulus":"\n                    <p><b>Action: <em>harvest</em></b></p>\n                    <p>This is the bee that you just saw.</p>\n                    <img src=\"bees-with-color/bee-A2SF.svg\" width=\"200\">\n                    <p><span class=\"greenText\"><b>Successful harvest!</b></span><br>Your pay has increased by $0.02. Your bonus pay is now $0.92.</p>\n            ","response":0,"trial_type":"html-button-response","trial_index":100,"time_elapsed":1720136,"internal_node_id":"0.0-4.0-1.44","subject_id":"615c750d62904cb1dd0ece7f","study_id":"6197b3f67c2b5cd3b6d9596a","session_id":"619be78948db04f6d82829e3","condition":"full-information","relevant_dimensions":["antennae","wings"],"bee_group":{"antennae":"B","wings":"2","pattern":"X","legs":"X"},"bonus":1.520000000000001},{"rt":21293.20000000298,"stimulus":"bees-with-color/bee-A1DM.svg","response":0,"trial_type":"image-button-response","trial_index":101,"time_elapsed":1741431,"internal_node_id":"0.0-4.0-0.45","subject_id":"615c750d62904cb1dd0ece7f","study_id":"6197b3f67c2b5cd3b6d9596a","session_id":"619be78948db04f6d82829e3","condition":"full-information","relevant_dimensions":["antennae","wings"],"bee_group":{"antennae":"B","wings":"2","pattern":"X","legs":"X"},"action":"harvest","summary":"good-harvest","bonus":1.520000000000001},{"rt":882.6999999955297,"stimulus":"\n                    <p><b>Action: <em>harvest</em></b></p>\n                    <p>This is the bee that you just saw.</p>\n                    <img src=\"bees-with-color/bee-A1DM.svg\" width=\"200\">\n                    <p><span class=\"greenText\"><b>Successful harvest!</b></span><br>Your pay has increased by $0.02. Your bonus pay is now $0.94.</p>\n            ","response":0,"trial_type":"html-button-response","trial_index":102,"time_elapsed":1742316,"internal_node_id":"0.0-4.0-1.45","subject_id":"615c750d62904cb1dd0ece7f","study_id":"6197b3f67c2b5cd3b6d9596a","session_id":"619be78948db04f6d82829e3","condition":"full-information","relevant_dimensions":["antennae","wings"],"bee_group":{"antennae":"B","wings":"2","pattern":"X","legs":"X"},"bonus":1.520000000000001},{"rt":2726.7000000029802,"stimulus":"bees-with-color/bee-A2SM.svg","response":0,"trial_type":"image-button-response","trial_index":103,"time_elapsed":1745045,"internal_node_id":"0.0-4.0-0.46","subject_id":"615c750d62904cb1dd0ece7f","study_id":"6197b3f67c2b5cd3b6d9596a","session_id":"619be78948db04f6d82829e3","condition":"full-information","relevant_dimensions":["antennae","wings"],"bee_group":{"antennae":"B","wings":"2","pattern":"X","legs":"X"},"action":"harvest","summary":"good-harvest","bonus":1.520000000000001},{"rt":948.8999999985099,"stimulus":"\n                    <p><b>Action: <em>harvest</em></b></p>\n                    <p>This is the bee that you just saw.</p>\n                    <img src=\"bees-with-color/bee-A2SM.svg\" width=\"200\">\n                    <p><span class=\"greenText\"><b>Successful harvest!</b></span><br>Your pay has increased by $0.02. Your bonus pay is now $0.96.</p>\n            ","response":0,"trial_type":"html-button-response","trial_index":104,"time_elapsed":1745996,"internal_node_id":"0.0-4.0-1.46","subject_id":"615c750d62904cb1dd0ece7f","study_id":"6197b3f67c2b5cd3b6d9596a","session_id":"619be78948db04f6d82829e3","condition":"full-information","relevant_dimensions":["antennae","wings"],"bee_group":{"antennae":"B","wings":"2","pattern":"X","legs":"X"},"bonus":1.520000000000001},{"rt":25386.60000000149,"stimulus":"bees-with-color/bee-B2DF.svg","response":1,"trial_type":"image-button-response","trial_index":105,"time_elapsed":1771384,"internal_node_id":"0.0-4.0-0.47","subject_id":"615c750d62904cb1dd0ece7f","study_id":"6197b3f67c2b5cd3b6d9596a","session_id":"619be78948db04f6d82829e3","condition":"full-information","relevant_dimensions":["antennae","wings"],"bee_group":{"antennae":"B","wings":"2","pattern":"X","legs":"X"},"action":"avoid","summary":"good-avoid","bonus":1.520000000000001},{"rt":1289.1000000014901,"stimulus":"\n                    <p><b>Action: <em>avoid</em></b></p>\n                    <p>This is the bee that you just saw.</p>\n                    <img src=\"bees-with-color/bee-B2DF.svg\" width=\"200\">\n                    <p><span class=\"greenText\">Good choice!</span>  This bee would have stung you.<br>Your bonus pay is unchanged, and remains at $0.96.</p>\n            ","response":0,"trial_type":"html-button-response","trial_index":106,"time_elapsed":1772674,"internal_node_id":"0.0-4.0-1.47","subject_id":"615c750d62904cb1dd0ece7f","study_id":"6197b3f67c2b5cd3b6d9596a","session_id":"619be78948db04f6d82829e3","condition":"full-information","relevant_dimensions":["antennae","wings"],"bee_group":{"antennae":"B","wings":"2","pattern":"X","legs":"X"},"bonus":1.520000000000001},{"rt":5876.30000000447,"stimulus":"bees-with-color/bee-B2DM.svg","response":1,"trial_type":"image-button-response","trial_index":107,"time_elapsed":1778552,"internal_node_id":"0.0-4.0-0.48","subject_id":"615c750d62904cb1dd0ece7f","study_id":"6197b3f67c2b5cd3b6d9596a","session_id":"619be78948db04f6d82829e3","condition":"full-information","relevant_dimensions":["antennae","wings"],"bee_group":{"antennae":"B","wings":"2","pattern":"X","legs":"X"},"action":"avoid","summary":"good-avoid","bonus":1.520000000000001},{"rt":941.2000000029802,"stimulus":"\n                    <p><b>Action: <em>avoid</em></b></p>\n                    <p>This is the bee that you just saw.</p>\n                    <img src=\"bees-with-color/bee-B2DM.svg\" width=\"200\">\n                    <p><span class=\"greenText\">Good choice!</span>  This bee would have stung you.<br>Your bonus pay is unchanged, and remains at $0.96.</p>\n            ","response":0,"trial_type":"html-button-response","trial_index":108,"time_elapsed":1779495,"internal_node_id":"0.0-4.0-1.48","subject_id":"615c750d62904cb1dd0ece7f","study_id":"6197b3f67c2b5cd3b6d9596a","session_id":"619be78948db04f6d82829e3","condition":"full-information","relevant_dimensions":["antennae","wings"],"bee_group":{"antennae":"B","wings":"2","pattern":"X","legs":"X"},"bonus":1.520000000000001},{"rt":4425.10000000149,"stimulus":"bees-with-color/bee-B1DM.svg","response":1,"trial_type":"image-button-response","trial_index":109,"time_elapsed":1783922,"internal_node_id":"0.0-4.0-0.49","subject_id":"615c750d62904cb1dd0ece7f","study_id":"6197b3f67c2b5cd3b6d9596a","session_id":"619be78948db04f6d82829e3","condition":"full-information","relevant_dimensions":["antennae","wings"],"bee_group":{"antennae":"B","wings":"2","pattern":"X","legs":"X"},"action":"avoid","summary":"bad-avoid","bonus":1.520000000000001},{"rt":3589.2000000029802,"stimulus":"\n                    <p><b>Action: <em>avoid</em></b></p>\n                    <p>This is the bee that you just saw.</p>\n                    <img src=\"bees-with-color/bee-B1DM.svg\" width=\"200\">\n                    <p><span class=\"redText\">Bad choice,</span> the bee was friendly.<br>Your bonus pay is unchanged, and remains at $0.96.</p>\n            ","response":0,"trial_type":"html-button-response","trial_index":110,"time_elapsed":1787513,"internal_node_id":"0.0-4.0-1.49","subject_id":"615c750d62904cb1dd0ece7f","study_id":"6197b3f67c2b5cd3b6d9596a","session_id":"619be78948db04f6d82829e3","condition":"full-information","relevant_dimensions":["antennae","wings"],"bee_group":{"antennae":"B","wings":"2","pattern":"X","legs":"X"},"bonus":1.520000000000001},{"rt":9089.69999999553,"stimulus":"bees-with-color/bee-B1DF.svg","response":0,"trial_type":"image-button-response","trial_index":111,"time_elapsed":1796605,"internal_node_id":"0.0-4.0-0.50","subject_id":"615c750d62904cb1dd0ece7f","study_id":"6197b3f67c2b5cd3b6d9596a","session_id":"619be78948db04f6d82829e3","condition":"full-information","relevant_dimensions":["antennae","wings"],"bee_group":{"antennae":"B","wings":"2","pattern":"X","legs":"X"},"action":"harvest","summary":"good-harvest","bonus":1.520000000000001},{"rt":990,"stimulus":"\n                    <p><b>Action: <em>harvest</em></b></p>\n                    <p>This is the bee that you just saw.</p>\n                    <img src=\"bees-with-color/bee-B1DF.svg\" width=\"200\">\n                    <p><span class=\"greenText\"><b>Successful harvest!</b></span><br>Your pay has increased by $0.02. Your bonus pay is now $0.98.</p>\n            ","response":0,"trial_type":"html-button-response","trial_index":112,"time_elapsed":1797597,"internal_node_id":"0.0-4.0-1.50","subject_id":"615c750d62904cb1dd0ece7f","study_id":"6197b3f67c2b5cd3b6d9596a","session_id":"619be78948db04f6d82829e3","condition":"full-information","relevant_dimensions":["antennae","wings"],"bee_group":{"antennae":"B","wings":"2","pattern":"X","legs":"X"},"bonus":1.520000000000001},{"rt":9036.59999999404,"stimulus":"bees-with-color/bee-A1SF.svg","response":0,"trial_type":"image-button-response","trial_index":113,"time_elapsed":1806636,"internal_node_id":"0.0-4.0-0.51","subject_id":"615c750d62904cb1dd0ece7f","study_id":"6197b3f67c2b5cd3b6d9596a","session_id":"619be78948db04f6d82829e3","condition":"full-information","relevant_dimensions":["antennae","wings"],"bee_group":{"antennae":"B","wings":"2","pattern":"X","legs":"X"},"action":"harvest","summary":"good-harvest","bonus":1.520000000000001},{"rt":1924.4000000059605,"stimulus":"\n                    <p><b>Action: <em>harvest</em></b></p>\n                    <p>This is the bee that you just saw.</p>\n                    <img src=\"bees-with-color/bee-A1SF.svg\" width=\"200\">\n                    <p><span class=\"greenText\"><b>Successful harvest!</b></span><br>Your pay has increased by $0.02. Your bonus pay is now $1.00.</p>\n            ","response":0,"trial_type":"html-button-response","trial_index":114,"time_elapsed":1808562,"internal_node_id":"0.0-4.0-1.51","subject_id":"615c750d62904cb1dd0ece7f","study_id":"6197b3f67c2b5cd3b6d9596a","session_id":"619be78948db04f6d82829e3","condition":"full-information","relevant_dimensions":["antennae","wings"],"bee_group":{"antennae":"B","wings":"2","pattern":"X","legs":"X"},"bonus":1.520000000000001},{"rt":9779.20000000298,"stimulus":"bees-with-color/bee-B2SM.svg","response":1,"trial_type":"image-button-response","trial_index":115,"time_elapsed":1818344,"internal_node_id":"0.0-4.0-0.52","subject_id":"615c750d62904cb1dd0ece7f","study_id":"6197b3f67c2b5cd3b6d9596a","session_id":"619be78948db04f6d82829e3","condition":"full-information","relevant_dimensions":["antennae","wings"],"bee_group":{"antennae":"B","wings":"2","pattern":"X","legs":"X"},"action":"avoid","summary":"good-avoid","bonus":1.520000000000001},{"rt":1089.3999999985099,"stimulus":"\n                    <p><b>Action: <em>avoid</em></b></p>\n                    <p>This is the bee that you just saw.</p>\n                    <img src=\"bees-with-color/bee-B2SM.svg\" width=\"200\">\n                    <p><span class=\"greenText\">Good choice!</span>  This bee would have stung you.<br>Your bonus pay is unchanged, and remains at $1.00.</p>\n            ","response":0,"trial_type":"html-button-response","trial_index":116,"time_elapsed":1819435,"internal_node_id":"0.0-4.0-1.52","subject_id":"615c750d62904cb1dd0ece7f","study_id":"6197b3f67c2b5cd3b6d9596a","session_id":"619be78948db04f6d82829e3","condition":"full-information","relevant_dimensions":["antennae","wings"],"bee_group":{"antennae":"B","wings":"2","pattern":"X","legs":"X"},"bonus":1.520000000000001},{"rt":11484.90000000596,"stimulus":"bees-with-color/bee-A1DF.svg","response":0,"trial_type":"image-button-response","trial_index":117,"time_elapsed":1830922,"internal_node_id":"0.0-4.0-0.53","subject_id":"615c750d62904cb1dd0ece7f","study_id":"6197b3f67c2b5cd3b6d9596a","session_id":"619be78948db04f6d82829e3","condition":"full-information","relevant_dimensions":["antennae","wings"],"bee_group":{"antennae":"B","wings":"2","pattern":"X","legs":"X"},"action":"harvest","summary":"good-harvest","bonus":1.520000000000001},{"rt":3162.4000000059605,"stimulus":"\n                    <p><b>Action: <em>harvest</em></b></p>\n                    <p>This is the bee that you just saw.</p>\n                    <img src=\"bees-with-color/bee-A1DF.svg\" width=\"200\">\n                    <p><span class=\"greenText\"><b>Successful harvest!</b></span><br>Your pay has increased by $0.02. Your bonus pay is now $1.02.</p>\n            ","response":0,"trial_type":"html-button-response","trial_index":118,"time_elapsed":1834087,"internal_node_id":"0.0-4.0-1.53","subject_id":"615c750d62904cb1dd0ece7f","study_id":"6197b3f67c2b5cd3b6d9596a","session_id":"619be78948db04f6d82829e3","condition":"full-information","relevant_dimensions":["antennae","wings"],"bee_group":{"antennae":"B","wings":"2","pattern":"X","legs":"X"},"bonus":1.520000000000001},{"rt":12906.5,"stimulus":"bees-with-color/bee-A2DF.svg","response":0,"trial_type":"image-button-response","trial_index":119,"time_elapsed":1846996,"internal_node_id":"0.0-4.0-0.54","subject_id":"615c750d62904cb1dd0ece7f","study_id":"6197b3f67c2b5cd3b6d9596a","session_id":"619be78948db04f6d82829e3","condition":"full-information","relevant_dimensions":["antennae","wings"],"bee_group":{"antennae":"B","wings":"2","pattern":"X","legs":"X"},"action":"harvest","summary":"good-harvest","bonus":1.520000000000001},{"rt":1178,"stimulus":"\n                    <p><b>Action: <em>harvest</em></b></p>\n                    <p>This is the bee that you just saw.</p>\n                    <img src=\"bees-with-color/bee-A2DF.svg\" width=\"200\">\n                    <p><span class=\"greenText\"><b>Successful harvest!</b></span><br>Your pay has increased by $0.02. Your bonus pay is now $1.04.</p>\n            ","response":0,"trial_type":"html-button-response","trial_index":120,"time_elapsed":1848176,"internal_node_id":"0.0-4.0-1.54","subject_id":"615c750d62904cb1dd0ece7f","study_id":"6197b3f67c2b5cd3b6d9596a","session_id":"619be78948db04f6d82829e3","condition":"full-information","relevant_dimensions":["antennae","wings"],"bee_group":{"antennae":"B","wings":"2","pattern":"X","legs":"X"},"bonus":1.520000000000001},{"rt":2375.9000000059605,"stimulus":"bees-with-color/bee-A2SF.svg","response":0,"trial_type":"image-button-response","trial_index":121,"time_elapsed":1850554,"internal_node_id":"0.0-4.0-0.55","subject_id":"615c750d62904cb1dd0ece7f","study_id":"6197b3f67c2b5cd3b6d9596a","session_id":"619be78948db04f6d82829e3","condition":"full-information","relevant_dimensions":["antennae","wings"],"bee_group":{"antennae":"B","wings":"2","pattern":"X","legs":"X"},"action":"harvest","summary":"good-harvest","bonus":1.520000000000001},{"rt":884,"stimulus":"\n                    <p><b>Action: <em>harvest</em></b></p>\n                    <p>This is the bee that you just saw.</p>\n                    <img src=\"bees-with-color/bee-A2SF.svg\" width=\"200\">\n                    <p><span class=\"greenText\"><b>Successful harvest!</b></span><br>Your pay has increased by $0.02. Your bonus pay is now $1.06.</p>\n            ","response":0,"trial_type":"html-button-response","trial_index":122,"time_elapsed":1851439,"internal_node_id":"0.0-4.0-1.55","subject_id":"615c750d62904cb1dd0ece7f","study_id":"6197b3f67c2b5cd3b6d9596a","session_id":"619be78948db04f6d82829e3","condition":"full-information","relevant_dimensions":["antennae","wings"],"bee_group":{"antennae":"B","wings":"2","pattern":"X","legs":"X"},"bonus":1.520000000000001},{"rt":11967.5,"stimulus":"bees-with-color/bee-A1DM.svg","response":0,"trial_type":"image-button-response","trial_index":123,"time_elapsed":1863408,"internal_node_id":"0.0-4.0-0.56","subject_id":"615c750d62904cb1dd0ece7f","study_id":"6197b3f67c2b5cd3b6d9596a","session_id":"619be78948db04f6d82829e3","condition":"full-information","relevant_dimensions":["antennae","wings"],"bee_group":{"antennae":"B","wings":"2","pattern":"X","legs":"X"},"action":"harvest","summary":"good-harvest","bonus":1.520000000000001},{"rt":955.1000000014901,"stimulus":"\n                    <p><b>Action: <em>harvest</em></b></p>\n                    <p>This is the bee that you just saw.</p>\n                    <img src=\"bees-with-color/bee-A1DM.svg\" width=\"200\">\n                    <p><span class=\"greenText\"><b>Successful harvest!</b></span><br>Your pay has increased by $0.02. Your bonus pay is now $1.08.</p>\n            ","response":0,"trial_type":"html-button-response","trial_index":124,"time_elapsed":1864365,"internal_node_id":"0.0-4.0-1.56","subject_id":"615c750d62904cb1dd0ece7f","study_id":"6197b3f67c2b5cd3b6d9596a","session_id":"619be78948db04f6d82829e3","condition":"full-information","relevant_dimensions":["antennae","wings"],"bee_group":{"antennae":"B","wings":"2","pattern":"X","legs":"X"},"bonus":1.520000000000001},{"rt":5455.79999999702,"stimulus":"bees-with-color/bee-B1SM.svg","response":1,"trial_type":"image-button-response","trial_index":125,"time_elapsed":1869822,"internal_node_id":"0.0-4.0-0.57","subject_id":"615c750d62904cb1dd0ece7f","study_id":"6197b3f67c2b5cd3b6d9596a","session_id":"619be78948db04f6d82829e3","condition":"full-information","relevant_dimensions":["antennae","wings"],"bee_group":{"antennae":"B","wings":"2","pattern":"X","legs":"X"},"action":"avoid","summary":"bad-avoid","bonus":1.520000000000001},{"rt":2384,"stimulus":"\n                    <p><b>Action: <em>avoid</em></b></p>\n                    <p>This is the bee that you just saw.</p>\n                    <img src=\"bees-with-color/bee-B1SM.svg\" width=\"200\">\n                    <p><span class=\"redText\">Bad choice,</span> the bee was friendly.<br>Your bonus pay is unchanged, and remains at $1.08.</p>\n            ","response":0,"trial_type":"html-button-response","trial_index":126,"time_elapsed":1872207,"internal_node_id":"0.0-4.0-1.57","subject_id":"615c750d62904cb1dd0ece7f","study_id":"6197b3f67c2b5cd3b6d9596a","session_id":"619be78948db04f6d82829e3","condition":"full-information","relevant_dimensions":["antennae","wings"],"bee_group":{"antennae":"B","wings":"2","pattern":"X","legs":"X"},"bonus":1.520000000000001},{"rt":14189.89999999851,"stimulus":"bees-with-color/bee-A1SM.svg","response":0,"trial_type":"image-button-response","trial_index":127,"time_elapsed":1886399,"internal_node_id":"0.0-4.0-0.58","subject_id":"615c750d62904cb1dd0ece7f","study_id":"6197b3f67c2b5cd3b6d9596a","session_id":"619be78948db04f6d82829e3","condition":"full-information","relevant_dimensions":["antennae","wings"],"bee_group":{"antennae":"B","wings":"2","pattern":"X","legs":"X"},"action":"harvest","summary":"good-harvest","bonus":1.520000000000001},{"rt":2073.5,"stimulus":"\n                    <p><b>Action: <em>harvest</em></b></p>\n                    <p>This is the bee that you just saw.</p>\n                    <img src=\"bees-with-color/bee-A1SM.svg\" width=\"200\">\n                    <p><span class=\"greenText\"><b>Successful harvest!</b></span><br>Your pay has increased by $0.02. Your bonus pay is now $1.10.</p>\n            ","response":0,"trial_type":"html-button-response","trial_index":128,"time_elapsed":1888474,"internal_node_id":"0.0-4.0-1.58","subject_id":"615c750d62904cb1dd0ece7f","study_id":"6197b3f67c2b5cd3b6d9596a","session_id":"619be78948db04f6d82829e3","condition":"full-information","relevant_dimensions":["antennae","wings"],"bee_group":{"antennae":"B","wings":"2","pattern":"X","legs":"X"},"bonus":1.520000000000001},{"rt":24324.79999999702,"stimulus":"bees-with-color/bee-B2SF.svg","response":1,"trial_type":"image-button-response","trial_index":129,"time_elapsed":1912802,"internal_node_id":"0.0-4.0-0.59","subject_id":"615c750d62904cb1dd0ece7f","study_id":"6197b3f67c2b5cd3b6d9596a","session_id":"619be78948db04f6d82829e3","condition":"full-information","relevant_dimensions":["antennae","wings"],"bee_group":{"antennae":"B","wings":"2","pattern":"X","legs":"X"},"action":"avoid","summary":"good-avoid","bonus":1.520000000000001},{"rt":2482.60000000149,"stimulus":"\n                    <p><b>Action: <em>avoid</em></b></p>\n                    <p>This is the bee that you just saw.</p>\n                    <img src=\"bees-with-color/bee-B2SF.svg\" width=\"200\">\n                    <p><span class=\"greenText\">Good choice!</span>  This bee would have stung you.<br>Your bonus pay is unchanged, and remains at $1.10.</p>\n            ","response":0,"trial_type":"html-button-response","trial_index":130,"time_elapsed":1915286,"internal_node_id":"0.0-4.0-1.59","subject_id":"615c750d62904cb1dd0ece7f","study_id":"6197b3f67c2b5cd3b6d9596a","session_id":"619be78948db04f6d82829e3","condition":"full-information","relevant_dimensions":["antennae","wings"],"bee_group":{"antennae":"B","wings":"2","pattern":"X","legs":"X"},"bonus":1.520000000000001},{"rt":7940.79999999702,"stimulus":"bees-with-color/bee-A2DM.svg","response":0,"trial_type":"image-button-response","trial_index":131,"time_elapsed":1923229,"internal_node_id":"0.0-4.0-0.60","subject_id":"615c750d62904cb1dd0ece7f","study_id":"6197b3f67c2b5cd3b6d9596a","session_id":"619be78948db04f6d82829e3","condition":"full-information","relevant_dimensions":["antennae","wings"],"bee_group":{"antennae":"B","wings":"2","pattern":"X","legs":"X"},"action":"harvest","summary":"good-harvest","bonus":1.520000000000001},{"rt":2554.7000000029802,"stimulus":"\n                    <p><b>Action: <em>harvest</em></b></p>\n                    <p>This is the bee that you just saw.</p>\n                    <img src=\"bees-with-color/bee-A2DM.svg\" width=\"200\">\n                    <p><span class=\"greenText\"><b>Successful harvest!</b></span><br>Your pay has increased by $0.02. Your bonus pay is now $1.12.</p>\n            ","response":0,"trial_type":"html-button-response","trial_index":132,"time_elapsed":1925786,"internal_node_id":"0.0-4.0-1.60","subject_id":"615c750d62904cb1dd0ece7f","study_id":"6197b3f67c2b5cd3b6d9596a","session_id":"619be78948db04f6d82829e3","condition":"full-information","relevant_dimensions":["antennae","wings"],"bee_group":{"antennae":"B","wings":"2","pattern":"X","legs":"X"},"bonus":1.520000000000001},{"rt":3022.8000000044703,"stimulus":"bees-with-color/bee-A2SM.svg","response":0,"trial_type":"image-button-response","trial_index":133,"time_elapsed":1928811,"internal_node_id":"0.0-4.0-0.61","subject_id":"615c750d62904cb1dd0ece7f","study_id":"6197b3f67c2b5cd3b6d9596a","session_id":"619be78948db04f6d82829e3","condition":"full-information","relevant_dimensions":["antennae","wings"],"bee_group":{"antennae":"B","wings":"2","pattern":"X","legs":"X"},"action":"harvest","summary":"good-harvest","bonus":1.520000000000001},{"rt":948.8999999985099,"stimulus":"\n                    <p><b>Action: <em>harvest</em></b></p>\n                    <p>This is the bee that you just saw.</p>\n                    <img src=\"bees-with-color/bee-A2SM.svg\" width=\"200\">\n                    <p><span class=\"greenText\"><b>Successful harvest!</b></span><br>Your pay has increased by $0.02. Your bonus pay is now $1.14.</p>\n            ","response":0,"trial_type":"html-button-response","trial_index":134,"time_elapsed":1929762,"internal_node_id":"0.0-4.0-1.61","subject_id":"615c750d62904cb1dd0ece7f","study_id":"6197b3f67c2b5cd3b6d9596a","session_id":"619be78948db04f6d82829e3","condition":"full-information","relevant_dimensions":["antennae","wings"],"bee_group":{"antennae":"B","wings":"2","pattern":"X","legs":"X"},"bonus":1.520000000000001},{"rt":9901.20000000298,"stimulus":"bees-with-color/bee-B1SF.svg","response":0,"trial_type":"image-button-response","trial_index":135,"time_elapsed":1939665,"internal_node_id":"0.0-4.0-0.62","subject_id":"615c750d62904cb1dd0ece7f","study_id":"6197b3f67c2b5cd3b6d9596a","session_id":"619be78948db04f6d82829e3","condition":"full-information","relevant_dimensions":["antennae","wings"],"bee_group":{"antennae":"B","wings":"2","pattern":"X","legs":"X"},"action":"harvest","summary":"good-harvest","bonus":1.520000000000001},{"rt":1252.1000000014901,"stimulus":"\n                    <p><b>Action: <em>harvest</em></b></p>\n                    <p>This is the bee that you just saw.</p>\n                    <img src=\"bees-with-color/bee-B1SF.svg\" width=\"200\">\n                    <p><span class=\"greenText\"><b>Successful harvest!</b></span><br>Your pay has increased by $0.02. Your bonus pay is now $1.16.</p>\n            ","response":0,"trial_type":"html-button-response","trial_index":136,"time_elapsed":1940919,"internal_node_id":"0.0-4.0-1.62","subject_id":"615c750d62904cb1dd0ece7f","study_id":"6197b3f67c2b5cd3b6d9596a","session_id":"619be78948db04f6d82829e3","condition":"full-information","relevant_dimensions":["antennae","wings"],"bee_group":{"antennae":"B","wings":"2","pattern":"X","legs":"X"},"bonus":1.520000000000001},{"rt":7622.89999999851,"stimulus":"bees-with-color/bee-B2DF.svg","response":1,"trial_type":"image-button-response","trial_index":137,"time_elapsed":1948544,"internal_node_id":"0.0-4.0-0.63","subject_id":"615c750d62904cb1dd0ece7f","study_id":"6197b3f67c2b5cd3b6d9596a","session_id":"619be78948db04f6d82829e3","condition":"full-information","relevant_dimensions":["antennae","wings"],"bee_group":{"antennae":"B","wings":"2","pattern":"X","legs":"X"},"action":"avoid","summary":"good-avoid","bonus":1.520000000000001},{"rt":1342.7000000029802,"stimulus":"\n                    <p><b>Action: <em>avoid</em></b></p>\n                    <p>This is the bee that you just saw.</p>\n                    <img src=\"bees-with-color/bee-B2DF.svg\" width=\"200\">\n                    <p><span class=\"greenText\">Good choice!</span>  This bee would have stung you.<br>Your bonus pay is unchanged, and remains at $1.16.</p>\n            ","response":0,"trial_type":"html-button-response","trial_index":138,"time_elapsed":1949888,"internal_node_id":"0.0-4.0-1.63","subject_id":"615c750d62904cb1dd0ece7f","study_id":"6197b3f67c2b5cd3b6d9596a","session_id":"619be78948db04f6d82829e3","condition":"full-information","relevant_dimensions":["antennae","wings"],"bee_group":{"antennae":"B","wings":"2","pattern":"X","legs":"X"},"bonus":1.520000000000001},{"rt":8320.29999999702,"stimulus":"You have completed the first part of this experiment.<br><br>You will now begin a shorter second part, in which you will receive no feedback.<br>The same rules regarding bonus pay apply.<br><br>Press any key to begin.","response":" ","trial_type":"html-keyboard-response","trial_index":139,"time_elapsed":1958211,"internal_node_id":"0.0-5.0","subject_id":"615c750d62904cb1dd0ece7f","study_id":"6197b3f67c2b5cd3b6d9596a","session_id":"619be78948db04f6d82829e3","condition":"full-information","relevant_dimensions":["antennae","wings"],"bee_group":{"antennae":"B","wings":"2","pattern":"X","legs":"X"},"bonus":1.520000000000001},{"rt":8823,"stimulus":"bees-with-color/bee-B2SM.svg","response":1,"trial_type":"image-button-response","trial_index":140,"time_elapsed":1967043,"internal_node_id":"0.0-6.0-0.0","subject_id":"615c750d62904cb1dd0ece7f","study_id":"6197b3f67c2b5cd3b6d9596a","session_id":"619be78948db04f6d82829e3","condition":"full-information","relevant_dimensions":["antennae","wings"],"bee_group":{"antennae":"B","wings":"2","pattern":"X","legs":"X"},"bonus":1.520000000000001},{"rt":17458.60000000149,"stimulus":"bees-with-color/bee-A1SM.svg","response":0,"trial_type":"image-button-response","trial_index":141,"time_elapsed":1984504,"internal_node_id":"0.0-6.0-0.1","subject_id":"615c750d62904cb1dd0ece7f","study_id":"6197b3f67c2b5cd3b6d9596a","session_id":"619be78948db04f6d82829e3","condition":"full-information","relevant_dimensions":["antennae","wings"],"bee_group":{"antennae":"B","wings":"2","pattern":"X","legs":"X"},"bonus":1.520000000000001},{"rt":10702.90000000596,"stimulus":"bees-with-color/bee-A2DF.svg","response":0,"trial_type":"image-button-response","trial_index":142,"time_elapsed":1995210,"internal_node_id":"0.0-6.0-0.2","subject_id":"615c750d62904cb1dd0ece7f","study_id":"6197b3f67c2b5cd3b6d9596a","session_id":"619be78948db04f6d82829e3","condition":"full-information","relevant_dimensions":["antennae","wings"],"bee_group":{"antennae":"B","wings":"2","pattern":"X","legs":"X"},"bonus":1.520000000000001},{"rt":17267.29999999702,"stimulus":"bees-with-color/bee-A1DF.svg","response":0,"trial_type":"image-button-response","trial_index":143,"time_elapsed":2012480,"internal_node_id":"0.0-6.0-0.3","subject_id":"615c750d62904cb1dd0ece7f","study_id":"6197b3f67c2b5cd3b6d9596a","session_id":"619be78948db04f6d82829e3","condition":"full-information","relevant_dimensions":["antennae","wings"],"bee_group":{"antennae":"B","wings":"2","pattern":"X","legs":"X"},"bonus":1.520000000000001},{"rt":6636.39999999851,"stimulus":"bees-with-color/bee-B1DF.svg","response":0,"trial_type":"image-button-response","trial_index":144,"time_elapsed":2019120,"internal_node_id":"0.0-6.0-0.4","subject_id":"615c750d62904cb1dd0ece7f","study_id":"6197b3f67c2b5cd3b6d9596a","session_id":"619be78948db04f6d82829e3","condition":"full-information","relevant_dimensions":["antennae","wings"],"bee_group":{"antennae":"B","wings":"2","pattern":"X","legs":"X"},"bonus":1.520000000000001},{"rt":24623.90000000596,"stimulus":"bees-with-color/bee-B2DF.svg","response":1,"trial_type":"image-button-response","trial_index":145,"time_elapsed":2043747,"internal_node_id":"0.0-6.0-0.5","subject_id":"615c750d62904cb1dd0ece7f","study_id":"6197b3f67c2b5cd3b6d9596a","session_id":"619be78948db04f6d82829e3","condition":"full-information","relevant_dimensions":["antennae","wings"],"bee_group":{"antennae":"B","wings":"2","pattern":"X","legs":"X"},"bonus":1.520000000000001},{"rt":7324.19999999553,"stimulus":"bees-with-color/bee-B1SF.svg","response":0,"trial_type":"image-button-response","trial_index":146,"time_elapsed":2051074,"internal_node_id":"0.0-6.0-0.6","subject_id":"615c750d62904cb1dd0ece7f","study_id":"6197b3f67c2b5cd3b6d9596a","session_id":"619be78948db04f6d82829e3","condition":"full-information","relevant_dimensions":["antennae","wings"],"bee_group":{"antennae":"B","wings":"2","pattern":"X","legs":"X"},"bonus":1.520000000000001},{"rt":7605,"stimulus":"bees-with-color/bee-A1SF.svg","response":0,"trial_type":"image-button-response","trial_index":147,"time_elapsed":2058682,"internal_node_id":"0.0-6.0-0.7","subject_id":"615c750d62904cb1dd0ece7f","study_id":"6197b3f67c2b5cd3b6d9596a","session_id":"619be78948db04f6d82829e3","condition":"full-information","relevant_dimensions":["antennae","wings"],"bee_group":{"antennae":"B","wings":"2","pattern":"X","legs":"X"},"bonus":1.520000000000001},{"rt":23096.89999999851,"stimulus":"bees-with-color/bee-B2SF.svg","response":1,"trial_type":"image-button-response","trial_index":148,"time_elapsed":2081781,"internal_node_id":"0.0-6.0-0.8","subject_id":"615c750d62904cb1dd0ece7f","study_id":"6197b3f67c2b5cd3b6d9596a","session_id":"619be78948db04f6d82829e3","condition":"full-information","relevant_dimensions":["antennae","wings"],"bee_group":{"antennae":"B","wings":"2","pattern":"X","legs":"X"},"bonus":1.520000000000001},{"rt":11143.10000000149,"stimulus":"bees-with-color/bee-A2DM.svg","response":0,"trial_type":"image-button-response","trial_index":149,"time_elapsed":2092926,"internal_node_id":"0.0-6.0-0.9","subject_id":"615c750d62904cb1dd0ece7f","study_id":"6197b3f67c2b5cd3b6d9596a","session_id":"619be78948db04f6d82829e3","condition":"full-information","relevant_dimensions":["antennae","wings"],"bee_group":{"antennae":"B","wings":"2","pattern":"X","legs":"X"},"bonus":1.520000000000001},{"rt":10103.29999999702,"stimulus":"bees-with-color/bee-B1DM.svg","response":1,"trial_type":"image-button-response","trial_index":150,"time_elapsed":2103033,"internal_node_id":"0.0-6.0-0.10","subject_id":"615c750d62904cb1dd0ece7f","study_id":"6197b3f67c2b5cd3b6d9596a","session_id":"619be78948db04f6d82829e3","condition":"full-information","relevant_dimensions":["antennae","wings"],"bee_group":{"antennae":"B","wings":"2","pattern":"X","legs":"X"},"bonus":1.520000000000001},{"rt":7945.19999999553,"stimulus":"bees-with-color/bee-A1DM.svg","response":0,"trial_type":"image-button-response","trial_index":151,"time_elapsed":2110980,"internal_node_id":"0.0-6.0-0.11","subject_id":"615c750d62904cb1dd0ece7f","study_id":"6197b3f67c2b5cd3b6d9596a","session_id":"619be78948db04f6d82829e3","condition":"full-information","relevant_dimensions":["antennae","wings"],"bee_group":{"antennae":"B","wings":"2","pattern":"X","legs":"X"},"bonus":1.520000000000001},{"rt":12963.70000000298,"stimulus":"bees-with-color/bee-B1SM.svg","response":0,"trial_type":"image-button-response","trial_index":152,"time_elapsed":2123947,"internal_node_id":"0.0-6.0-0.12","subject_id":"615c750d62904cb1dd0ece7f","study_id":"6197b3f67c2b5cd3b6d9596a","session_id":"619be78948db04f6d82829e3","condition":"full-information","relevant_dimensions":["antennae","wings"],"bee_group":{"antennae":"B","wings":"2","pattern":"X","legs":"X"},"bonus":1.52000000