[{"success":true,"trial_type":"fullscreen","trial_index":0,"time_elapsed":4542,"internal_node_id":"0.0-0.0","subject_id":"5fa1b6c21acd7b324d96837a","study_id":"60edd13110225f80f9f3709b","session_id":"6196c1f38376cd07bf2cee22","condition":"full-information","relevant_dimensions":["wings","pattern"],"bee_group":{"antennae":"X","wings":"2","pattern":"S","legs":"X"},"bonus":1.1600000000000008},{"success":true,"timeout":false,"failed_images":[],"failed_audio":[],"failed_video":[],"trial_type":"preload","trial_index":1,"time_elapsed":6302,"internal_node_id":"0.0-1.0","subject_id":"5fa1b6c21acd7b324d96837a","study_id":"60edd13110225f80f9f3709b","session_id":"6196c1f38376cd07bf2cee22","condition":"full-information","relevant_dimensions":["wings","pattern"],"bee_group":{"antennae":"X","wings":"2","pattern":"S","legs":"X"},"bonus":1.1600000000000008},{"rt":3664.2000000476837,"stimulus":"Welcome! Press any key to begin.","response":"m","trial_type":"html-keyboard-response","trial_index":2,"time_elapsed":9967,"internal_node_id":"0.0-2.0","subject_id":"5fa1b6c21acd7b324d96837a","study_id":"60edd13110225f80f9f3709b","session_id":"6196c1f38376cd07bf2cee22","condition":"full-information","relevant_dimensions":["wings","pattern"],"bee_group":{"antennae":"X","wings":"2","pattern":"S","legs":"X"},"bonus":1.1600000000000008},{"view_history":[{"page_index":0,"viewing_time":3947.7000000476837},{"page_index":1,"viewing_time":12273.299999952316},{"page_index":2,"viewing_time":8864.899999976158},{"page_index":3,"viewing_time":11885.399999976158},{"page_index":4,"viewing_time":5965.100000023842},{"page_index":5,"viewing_time":10086.899999976158},{"page_index":6,"viewing_time":10064.800000071526},{"page_index":7,"viewing_time":5519},{"page_index":8,"viewing_time":5592.199999928474},{"page_index":9,"viewing_time":4724.900000095367},{"page_index":10,"viewing_time":3558.1999999284744},{"page_index":11,"viewing_time":7760.600000023842},{"page_index":12,"viewing_time":7233},{"page_index":13,"viewing_time":1196.1000000238419},{"page_index":14,"viewing_time":2162.1999999284744}],"rt":100834.5,"trial_type":"instructions","trial_index":3,"time_elapsed":110801,"internal_node_id":"0.0-3.0-0.0","subject_id":"5fa1b6c21acd7b324d96837a","study_id":"60edd13110225f80f9f3709b","session_id":"6196c1f38376cd07bf2cee22","condition":"full-information","relevant_dimensions":["wings","pattern"],"bee_group":{"antennae":"X","wings":"2","pattern":"S","legs":"X"},"bonus":1.1600000000000008},{"rt":13593.100000023842,"response":{"Q0":["Two or six legs","Stripes or spots on body","Single or double wings","Antennae or no antennae"]},"question_order":[0],"trial_type":"survey-multi-select","trial_index":4,"time_elapsed":124397,"internal_node_id":"0.0-3.0-1.0","subject_id":"5fa1b6c21acd7b324d96837a","study_id":"60edd13110225f80f9f3709b","session_id":"6196c1f38376cd07bf2cee22","condition":"full-information","relevant_dimensions":["wings","pattern"],"bee_group":{"antennae":"X","wings":"2","pattern":"S","legs":"X"},"correct":true,"bonus":1.1600000000000008},{"rt":20664.700000047684,"response":{"Q1":"No.","Q2":"Based on the four features of the bee.","Q3":"You learn if it was friendly or dangerous, but do not alter your bonus."},"question_order":[0,1,2],"trial_type":"survey-multi-choice","trial_index":5,"time_elapsed":145066,"internal_node_id":"0.0-3.0-2.0","subject_id":"5fa1b6c21acd7b324d96837a","study_id":"60edd13110225f80f9f3709b","session_id":"6196c1f38376cd07bf2cee22","condition":"full-information","relevant_dimensions":["wings","pattern"],"bee_group":{"antennae":"X","wings":"2","pattern":"S","legs":"X"},"correct":true,"bonus":1.1600000000000008},{"rt":2566.7999999523163,"stimulus":"<p>Congrats, you got everything right<br>When you're ready, click the button below to continue to the experiment.</p>","response":0,"trial_type":"html-button-response","trial_index":6,"time_elapsed":147636,"internal_node_id":"0.0-3.0-3.0","subject_id":"5fa1b6c21acd7b324d96837a","study_id":"60edd13110225f80f9f3709b","session_id":"6196c1f38376cd07bf2cee22","condition":"full-information","relevant_dimensions":["wings","pattern"],"bee_group":{"antennae":"X","wings":"2","pattern":"S","legs":"X"},"bonus":1.1600000000000008},{"rt":7317,"stimulus":"bees-with-color/bee-A1SF.svg","response":0,"trial_type":"image-button-response","trial_index":7,"time_elapsed":154955,"internal_node_id":"0.0-4.0-0.0","subject_id":"5fa1b6c21acd7b324d96837a","study_id":"60edd13110225f80f9f3709b","session_id":"6196c1f38376cd07bf2cee22","condition":"full-information","relevant_dimensions":["wings","pattern"],"bee_group":{"antennae":"X","wings":"2","pattern":"S","legs":"X"},"action":"harvest","summary":"good-harvest","bonus":1.1600000000000008},{"rt":14039.100000023842,"stimulus":"\n                    <p><b>Action: <em>harvest</em></b></p>\n                    <p>This is the bee that you just saw.</p>\n                    <img src=\"bees-with-color/bee-A1SF.svg\" width=\"200\">\n                    <p><span class=\"greenText\"><b>Successful harvest!</b></span><br>Your pay has increased by $0.02. Your bonus pay is now $0.56.</p>\n            ","response":0,"trial_type":"html-button-response","trial_index":8,"time_elapsed":168995,"internal_node_id":"0.0-4.0-1.0","subject_id":"5fa1b6c21acd7b324d96837a","study_id":"60edd13110225f80f9f3709b","session_id":"6196c1f38376cd07bf2cee22","condition":"full-information","relevant_dimensions":["wings","pattern"],"bee_group":{"antennae":"X","wings":"2","pattern":"S","legs":"X"},"bonus":1.1600000000000008},{"rt":1592.8999999761581,"stimulus":"bees-with-color/bee-B1DM.svg","response":1,"trial_type":"image-button-response","trial_index":9,"time_elapsed":170590,"internal_node_id":"0.0-4.0-0.1","subject_id":"5fa1b6c21acd7b324d96837a","study_id":"60edd13110225f80f9f3709b","session_id":"6196c1f38376cd07bf2cee22","condition":"full-information","relevant_dimensions":["wings","pattern"],"bee_group":{"antennae":"X","wings":"2","pattern":"S","legs":"X"},"action":"avoid","summary":"bad-avoid","bonus":1.1600000000000008},{"rt":13004.200000047684,"stimulus":"\n                    <p><b>Action: <em>avoid</em></b></p>\n                    <p>This is the bee that you just saw.</p>\n                    <img src=\"bees-with-color/bee-B1DM.svg\" width=\"200\">\n                    <p><span class=\"redText\">Bad choice,</span> the bee was friendly.<br>Your bonus pay is unchanged, and remains at $0.56.</p>\n            ","response":0,"trial_type":"html-button-response","trial_index":10,"time_elapsed":183595,"internal_node_id":"0.0-4.0-1.1","subject_id":"5fa1b6c21acd7b324d96837a","study_id":"60edd13110225f80f9f3709b","session_id":"6196c1f38376cd07bf2cee22","condition":"full-information","relevant_dimensions":["wings","pattern"],"bee_group":{"antennae":"X","wings":"2","pattern":"S","legs":"X"},"bonus":1.1600000000000008},{"rt":2526.7999999523163,"stimulus":"bees-with-color/bee-B1DF.svg","response":0,"trial_type":"image-button-response","trial_index":11,"time_elapsed":186124,"internal_node_id":"0.0-4.0-0.2","subject_id":"5fa1b6c21acd7b324d96837a","study_id":"60edd13110225f80f9f3709b","session_id":"6196c1f38376cd07bf2cee22","condition":"full-information","relevant_dimensions":["wings","pattern"],"bee_group":{"antennae":"X","wings":"2","pattern":"S","legs":"X"},"action":"harvest","summary":"good-harvest","bonus":1.1600000000000008},{"rt":4817.200000047684,"stimulus":"\n                    <p><b>Action: <em>harvest</em></b></p>\n                    <p>This is the bee that you just saw.</p>\n                    <img src=\"bees-with-color/bee-B1DF.svg\" width=\"200\">\n                    <p><span class=\"greenText\"><b>Successful harvest!</b></span><br>Your pay has increased by $0.02. Your bonus pay is now $0.58.</p>\n            ","response":0,"trial_type":"html-button-response","trial_index":12,"time_elapsed":190942,"internal_node_id":"0.0-4.0-1.2","subject_id":"5fa1b6c21acd7b324d96837a","study_id":"60edd13110225f80f9f3709b","session_id":"6196c1f38376cd07bf2cee22","condition":"full-information","relevant_dimensions":["wings","pattern"],"bee_group":{"antennae":"X","wings":"2","pattern":"S","legs":"X"},"bonus":1.1600000000000008},{"rt":4855.300000071526,"stimulus":"bees-with-color/bee-A1DF.svg","response":0,"trial_type":"image-button-response","trial_index":13,"time_elapsed":195799,"internal_node_id":"0.0-4.0-0.3","subject_id":"5fa1b6c21acd7b324d96837a","study_id":"60edd13110225f80f9f3709b","session_id":"6196c1f38376cd07bf2cee22","condition":"full-information","relevant_dimensions":["wings","pattern"],"bee_group":{"antennae":"X","wings":"2","pattern":"S","legs":"X"},"action":"harvest","summary":"good-harvest","bonus":1.1600000000000008},{"rt":5125.399999976158,"stimulus":"\n                    <p><b>Action: <em>harvest</em></b></p>\n                    <p>This is the bee that you just saw.</p>\n                    <img src=\"bees-with-color/bee-A1DF.svg\" width=\"200\">\n                    <p><span class=\"greenText\"><b>Successful harvest!</b></span><br>Your pay has increased by $0.02. Your bonus pay is now $0.60.</p>\n            ","response":0,"trial_type":"html-button-response","trial_index":14,"time_elapsed":200925,"internal_node_id":"0.0-4.0-1.3","subject_id":"5fa1b6c21acd7b324d96837a","study_id":"60edd13110225f80f9f3709b","session_id":"6196c1f38376cd07bf2cee22","condition":"full-information","relevant_dimensions":["wings","pattern"],"bee_group":{"antennae":"X","wings":"2","pattern":"S","legs":"X"},"bonus":1.1600000000000008},{"rt":1680.7999999523163,"stimulus":"bees-with-color/bee-A2DF.svg","response":1,"trial_type":"image-button-response","trial_index":15,"time_elapsed":202607,"internal_node_id":"0.0-4.0-0.4","subject_id":"5fa1b6c21acd7b324d96837a","study_id":"60edd13110225f80f9f3709b","session_id":"6196c1f38376cd07bf2cee22","condition":"full-information","relevant_dimensions":["wings","pattern"],"bee_group":{"antennae":"X","wings":"2","pattern":"S","legs":"X"},"action":"avoid","summary":"bad-avoid","bonus":1.1600000000000008},{"rt":6401.5,"stimulus":"\n                    <p><b>Action: <em>avoid</em></b></p>\n                    <p>This is the bee that you just saw.</p>\n                    <img src=\"bees-with-color/bee-A2DF.svg\" width=\"200\">\n                    <p><span class=\"redText\">Bad choice,</span> the bee was friendly.<br>Your bonus pay is unchanged, and remains at $0.60.</p>\n            ","response":0,"trial_type":"html-button-response","trial_index":16,"time_elapsed":209010,"internal_node_id":"0.0-4.0-1.4","subject_id":"5fa1b6c21acd7b324d96837a","study_id":"60edd13110225f80f9f3709b","session_id":"6196c1f38376cd07bf2cee22","condition":"full-information","relevant_dimensions":["wings","pattern"],"bee_group":{"antennae":"X","wings":"2","pattern":"S","legs":"X"},"bonus":1.1600000000000008},{"rt":2034.6000000238419,"stimulus":"bees-with-color/bee-A1SM.svg","response":1,"trial_type":"image-button-response","trial_index":17,"time_elapsed":211046,"internal_node_id":"0.0-4.0-0.5","subject_id":"5fa1b6c21acd7b324d96837a","study_id":"60edd13110225f80f9f3709b","session_id":"6196c1f38376cd07bf2cee22","condition":"full-information","relevant_dimensions":["wings","pattern"],"bee_group":{"antennae":"X","wings":"2","pattern":"S","legs":"X"},"action":"avoid","summary":"bad-avoid","bonus":1.1600000000000008},{"rt":5903.600000023842,"stimulus":"\n                    <p><b>Action: <em>avoid</em></b></p>\n                    <p>This is the bee that you just saw.</p>\n                    <img src=\"bees-with-color/bee-A1SM.svg\" width=\"200\">\n                    <p><span class=\"redText\">Bad choice,</span> the bee was friendly.<br>Your bonus pay is unchanged, and remains at $0.60.</p>\n            ","response":0,"trial_type":"html-button-response","trial_index":18,"time_elapsed":216951,"internal_node_id":"0.0-4.0-1.5","subject_id":"5fa1b6c21acd7b324d96837a","study_id":"60edd13110225f80f9f3709b","session_id":"6196c1f38376cd07bf2cee22","condition":"full-information","relevant_dimensions":["wings","pattern"],"bee_group":{"antennae":"X","wings":"2","pattern":"S","legs":"X"},"bonus":1.1600000000000008},{"rt":4980.899999976158,"stimulus":"bees-with-color/bee-B2SF.svg","response":1,"trial_type":"image-button-response","trial_index":19,"time_elapsed":221934,"internal_node_id":"0.0-4.0-0.6","subject_id":"5fa1b6c21acd7b324d96837a","study_id":"60edd13110225f80f9f3709b","session_id":"6196c1f38376cd07bf2cee22","condition":"full-information","relevant_dimensions":["wings","pattern"],"bee_group":{"antennae":"X","wings":"2","pattern":"S","legs":"X"},"action":"avoid","summary":"good-avoid","bonus":1.1600000000000008},{"rt":5103.399999976158,"stimulus":"\n                    <p><b>Action: <em>avoid</em></b></p>\n                    <p>This is the bee that you just saw.</p>\n                    <img src=\"bees-with-color/bee-B2SF.svg\" width=\"200\">\n                    <p><span class=\"greenText\">Good choice!</span>  This bee would have stung you.<br>Your bonus pay is unchanged, and remains at $0.60.</p>\n            ","response":0,"trial_type":"html-button-response","trial_index":20,"time_elapsed":227038,"internal_node_id":"0.0-4.0-1.6","subject_id":"5fa1b6c21acd7b324d96837a","study_id":"60edd13110225f80f9f3709b","session_id":"6196c1f38376cd07bf2cee22","condition":"full-information","relevant_dimensions":["wings","pattern"],"bee_group":{"antennae":"X","wings":"2","pattern":"S","legs":"X"},"bonus":1.1600000000000008},{"rt":5685.5,"stimulus":"bees-with-color/bee-B2SM.svg","response":0,"trial_type":"image-button-response","trial_index":21,"time_elapsed":232725,"internal_node_id":"0.0-4.0-0.7","subject_id":"5fa1b6c21acd7b324d96837a","study_id":"60edd13110225f80f9f3709b","session_id":"6196c1f38376cd07bf2cee22","condition":"full-information","relevant_dimensions":["wings","pattern"],"bee_group":{"antennae":"X","wings":"2","pattern":"S","legs":"X"},"action":"harvest","summary":"bad-harvest","bonus":1.1600000000000008},{"rt":2151,"stimulus":"\n                    <p><b>Action: <em>harvest</em></b></p>\n                    <p>This is the bee that you just saw.</p>\n                    <img src=\"bees-with-color/bee-B2SM.svg\" width=\"200\">\n                    <p><span class=\"redText\">Bad choice, the bee was angry.</span><br><b>You have been stung!</b><br>Your pay has been decreased by $0.10. Your bonus pay is now $0.50.</p>\n            ","response":0,"trial_type":"html-button-response","trial_index":22,"time_elapsed":234877,"internal_node_id":"0.0-4.0-1.7","subject_id":"5fa1b6c21acd7b324d96837a","study_id":"60edd13110225f80f9f3709b","session_id":"6196c1f38376cd07bf2cee22","condition":"full-information","relevant_dimensions":["wings","pattern"],"bee_group":{"antennae":"X","wings":"2","pattern":"S","legs":"X"},"bonus":1.1600000000000008},{"rt":3466.7999999523163,"stimulus":"bees-with-color/bee-A2SM.svg","response":1,"trial_type":"image-button-response","trial_index":23,"time_elapsed":238345,"internal_node_id":"0.0-4.0-0.8","subject_id":"5fa1b6c21acd7b324d96837a","study_id":"60edd13110225f80f9f3709b","session_id":"6196c1f38376cd07bf2cee22","condition":"full-information","relevant_dimensions":["wings","pattern"],"bee_group":{"antennae":"X","wings":"2","pattern":"S","legs":"X"},"action":"avoid","summary":"good-avoid","bonus":1.1600000000000008},{"rt":1289.1000000238419,"stimulus":"\n                    <p><b>Action: <em>avoid</em></b></p>\n                    <p>This is the bee that you just saw.</p>\n                    <img src=\"bees-with-color/bee-A2SM.svg\" width=\"200\">\n                    <p><span class=\"greenText\">Good choice!</span>  This bee would have stung you.<br>Your bonus pay is unchanged, and remains at $0.50.</p>\n            ","response":0,"trial_type":"html-button-response","trial_index":24,"time_elapsed":239635,"internal_node_id":"0.0-4.0-1.8","subject_id":"5fa1b6c21acd7b324d96837a","study_id":"60edd13110225f80f9f3709b","session_id":"6196c1f38376cd07bf2cee22","condition":"full-information","relevant_dimensions":["wings","pattern"],"bee_group":{"antennae":"X","wings":"2","pattern":"S","legs":"X"},"bonus":1.1600000000000008},{"rt":1935,"stimulus":"bees-with-color/bee-A1DM.svg","response":0,"trial_type":"image-button-response","trial_index":25,"time_elapsed":241571,"internal_node_id":"0.0-4.0-0.9","subject_id":"5fa1b6c21acd7b324d96837a","study_id":"60edd13110225f80f9f3709b","session_id":"6196c1f38376cd07bf2cee22","condition":"full-information","relevant_dimensions":["wings","pattern"],"bee_group":{"antennae":"X","wings":"2","pattern":"S","legs":"X"},"action":"harvest","summary":"good-harvest","bonus":1.1600000000000008},{"rt":1511,"stimulus":"\n                    <p><b>Action: <em>harvest</em></b></p>\n                    <p>This is the bee that you just saw.</p>\n                    <img src=\"bees-with-color/bee-A1DM.svg\" width=\"200\">\n                    <p><span class=\"greenText\"><b>Successful harvest!</b></span><br>Your pay has increased by $0.02. Your bonus pay is now $0.52.</p>\n            ","response":0,"trial_type":"html-button-response","trial_index":26,"time_elapsed":243083,"internal_node_id":"0.0-4.0-1.9","subject_id":"5fa1b6c21acd7b324d96837a","study_id":"60edd13110225f80f9f3709b","session_id":"6196c1f38376cd07bf2cee22","condition":"full-information","relevant_dimensions":["wings","pattern"],"bee_group":{"antennae":"X","wings":"2","pattern":"S","legs":"X"},"bonus":1.1600000000000008},{"rt":4785.700000047684,"stimulus":"bees-with-color/bee-B1SM.svg","response":0,"trial_type":"image-button-response","trial_index":27,"time_elapsed":247870,"internal_node_id":"0.0-4.0-0.10","subject_id":"5fa1b6c21acd7b324d96837a","study_id":"60edd13110225f80f9f3709b","session_id":"6196c1f38376cd07bf2cee22","condition":"full-information","relevant_dimensions":["wings","pattern"],"bee_group":{"antennae":"X","wings":"2","pattern":"S","legs":"X"},"action":"harvest","summary":"good-harvest","bonus":1.1600000000000008},{"rt":1593.1999999284744,"stimulus":"\n                    <p><b>Action: <em>harvest</em></b></p>\n                    <p>This is the bee that you just saw.</p>\n                    <img src=\"bees-with-color/bee-B1SM.svg\" width=\"200\">\n                    <p><span class=\"greenText\"><b>Successful harvest!</b></span><br>Your pay has increased by $0.02. Your bonus pay is now $0.54.</p>\n            ","response":0,"trial_type":"html-button-response","trial_index":28,"time_elapsed":249465,"internal_node_id":"0.0-4.0-1.10","subject_id":"5fa1b6c21acd7b324d96837a","study_id":"60edd13110225f80f9f3709b","session_id":"6196c1f38376cd07bf2cee22","condition":"full-information","relevant_dimensions":["wings","pattern"],"bee_group":{"antennae":"X","wings":"2","pattern":"S","legs":"X"},"bonus":1.1600000000000008},{"rt":4311.5,"stimulus":"bees-with-color/bee-B1SF.svg","response":1,"trial_type":"image-button-response","trial_index":29,"time_elapsed":253777,"internal_node_id":"0.0-4.0-0.11","subject_id":"5fa1b6c21acd7b324d96837a","study_id":"60edd13110225f80f9f3709b","session_id":"6196c1f38376cd07bf2cee22","condition":"full-information","relevant_dimensions":["wings","pattern"],"bee_group":{"antennae":"X","wings":"2","pattern":"S","legs":"X"},"action":"avoid","summary":"bad-avoid","bonus":1.1600000000000008},{"rt":2164.600000023842,"stimulus":"\n                    <p><b>Action: <em>avoid</em></b></p>\n                    <p>This is the bee that you just saw.</p>\n                    <img src=\"bees-with-color/bee-B1SF.svg\" width=\"200\">\n                    <p><span class=\"redText\">Bad choice,</span> the bee was friendly.<br>Your bonus pay is unchanged, and remains at $0.54.</p>\n            ","response":0,"trial_type":"html-button-response","trial_index":30,"time_elapsed":255943,"internal_node_id":"0.0-4.0-1.11","subject_id":"5fa1b6c21acd7b324d96837a","study_id":"60edd13110225f80f9f3709b","session_id":"6196c1f38376cd07bf2cee22","condition":"full-information","relevant_dimensions":["wings","pattern"],"bee_group":{"antennae":"X","wings":"2","pattern":"S","legs":"X"},"bonus":1.1600000000000008},{"rt":2243,"stimulus":"bees-with-color/bee-A2DM.svg","response":0,"trial_type":"image-button-response","trial_index":31,"time_elapsed":258187,"internal_node_id":"0.0-4.0-0.12","subject_id":"5fa1b6c21acd7b324d96837a","study_id":"60edd13110225f80f9f3709b","session_id":"6196c1f38376cd07bf2cee22","condition":"full-information","relevant_dimensions":["wings","pattern"],"bee_group":{"antennae":"X","wings":"2","pattern":"S","legs":"X"},"action":"harvest","summary":"good-harvest","bonus":1.1600000000000008},{"rt":1217.3000000715256,"stimulus":"\n                    <p><b>Action: <em>harvest</em></b></p>\n                    <p>This is the bee that you just saw.</p>\n                    <img src=\"bees-with-color/bee-A2DM.svg\" width=\"200\">\n                    <p><span class=\"greenText\"><b>Successful harvest!</b></span><br>Your pay has increased by $0.02. Your bonus pay is now $0.56.</p>\n            ","response":0,"trial_type":"html-button-response","trial_index":32,"time_elapsed":259405,"internal_node_id":"0.0-4.0-1.12","subject_id":"5fa1b6c21acd7b324d96837a","study_id":"60edd13110225f80f9f3709b","session_id":"6196c1f38376cd07bf2cee22","condition":"full-information","relevant_dimensions":["wings","pattern"],"bee_group":{"antennae":"X","wings":"2","pattern":"S","legs":"X"},"bonus":1.1600000000000008},{"rt":5883.400000095367,"stimulus":"bees-with-color/bee-A2SF.svg","response":1,"trial_type":"image-button-response","trial_index":33,"time_elapsed":265290,"internal_node_id":"0.0-4.0-0.13","subject_id":"5fa1b6c21acd7b324d96837a","study_id":"60edd13110225f80f9f3709b","session_id":"6196c1f38376cd07bf2cee22","condition":"full-information","relevant_dimensions":["wings","pattern"],"bee_group":{"antennae":"X","wings":"2","pattern":"S","legs":"X"},"action":"avoid","summary":"good-avoid","bonus":1.1600000000000008},{"rt":2037.1000000238419,"stimulus":"\n                    <p><b>Action: <em>avoid</em></b></p>\n                    <p>This is the bee that you just saw.</p>\n                    <img src=\"bees-with-color/bee-A2SF.svg\" width=\"200\">\n                    <p><span class=\"greenText\">Good choice!</span>  This bee would have stung you.<br>Your bonus pay is unchanged, and remains at $0.56.</p>\n            ","response":0,"trial_type":"html-button-response","trial_index":34,"time_elapsed":267328,"internal_node_id":"0.0-4.0-1.13","subject_id":"5fa1b6c21acd7b324d96837a","study_id":"60edd13110225f80f9f3709b","session_id":"6196c1f38376cd07bf2cee22","condition":"full-information","relevant_dimensions":["wings","pattern"],"bee_group":{"antennae":"X","wings":"2","pattern":"S","legs":"X"},"bonus":1.1600000000000008},{"rt":2194.8000000715256,"stimulus":"bees-with-color/bee-B2DM.svg","response":0,"trial_type":"image-button-response","trial_index":35,"time_elapsed":269524,"internal_node_id":"0.0-4.0-0.14","subject_id":"5fa1b6c21acd7b324d96837a","study_id":"60edd13110225f80f9f3709b","session_id":"6196c1f38376cd07bf2cee22","condition":"full-information","relevant_dimensions":["wings","pattern"],"bee_group":{"antennae":"X","wings":"2","pattern":"S","legs":"X"},"action":"harvest","summary":"good-harvest","bonus":1.1600000000000008},{"rt":1101,"stimulus":"\n                    <p><b>Action: <em>harvest</em></b></p>\n                    <p>This is the bee that you just saw.</p>\n                    <img src=\"bees-with-color/bee-B2DM.svg\" width=\"200\">\n                    <p><span class=\"greenText\"><b>Successful harvest!</b></span><br>Your pay has increased by $0.02. Your bonus pay is now $0.58.</p>\n            ","response":0,"trial_type":"html-button-response","trial_index":36,"time_elapsed":270627,"internal_node_id":"0.0-4.0-1.14","subject_id":"5fa1b6c21acd7b324d96837a","study_id":"60edd13110225f80f9f3709b","session_id":"6196c1f38376cd07bf2cee22","condition":"full-information","relevant_dimensions":["wings","pattern"],"bee_group":{"antennae":"X","wings":"2","pattern":"S","legs":"X"},"bonus":1.1600000000000008},{"rt":1409.1999999284744,"stimulus":"bees-with-color/bee-B2DF.svg","response":1,"trial_type":"image-button-response","trial_index":37,"time_elapsed":272037,"internal_node_id":"0.0-4.0-0.15","subject_id":"5fa1b6c21acd7b324d96837a","study_id":"60edd13110225f80f9f3709b","session_id":"6196c1f38376cd07bf2cee22","condition":"full-information","relevant_dimensions":["wings","pattern"],"bee_group":{"antennae":"X","wings":"2","pattern":"S","legs":"X"},"action":"avoid","summary":"bad-avoid","bonus":1.1600000000000008},{"rt":1325.1000000238419,"stimulus":"\n                    <p><b>Action: <em>avoid</em></b></p>\n                    <p>This is the bee that you just saw.</p>\n                    <img src=\"bees-with-color/bee-B2DF.svg\" width=\"200\">\n                    <p><span class=\"redText\">Bad choice,</span> the bee was friendly.<br>Your bonus pay is unchanged, and remains at $0.58.</p>\n            ","response":0,"trial_type":"html-button-response","trial_index":38,"time_elapsed":273363,"internal_node_id":"0.0-4.0-1.15","subject_id":"5fa1b6c21acd7b324d96837a","study_id":"60edd13110225f80f9f3709b","session_id":"6196c1f38376cd07bf2cee22","condition":"full-information","relevant_dimensions":["wings","pattern"],"bee_group":{"antennae":"X","wings":"2","pattern":"S","legs":"X"},"bonus":1.1600000000000008},{"rt":2278.9000000953674,"stimulus":"bees-with-color/bee-B2DM.svg","response":0,"trial_type":"image-button-response","trial_index":39,"time_elapsed":275643,"internal_node_id":"0.0-4.0-0.16","subject_id":"5fa1b6c21acd7b324d96837a","study_id":"60edd13110225f80f9f3709b","session_id":"6196c1f38376cd07bf2cee22","condition":"full-information","relevant_dimensions":["wings","pattern"],"bee_group":{"antennae":"X","wings":"2","pattern":"S","legs":"X"},"action":"harvest","summary":"good-harvest","bonus":1.1600000000000008},{"rt":932.7999999523163,"stimulus":"\n                    <p><b>Action: <em>harvest</em></b></p>\n                    <p>This is the bee that you just saw.</p>\n                    <img src=\"bees-with-color/bee-B2DM.svg\" width=\"200\">\n                    <p><span class=\"greenText\"><b>Successful harvest!</b></span><br>Your pay has increased by $0.02. Your bonus pay is now $0.60.</p>\n            ","response":0,"trial_type":"html-button-response","trial_index":40,"time_elapsed":276577,"internal_node_id":"0.0-4.0-1.16","subject_id":"5fa1b6c21acd7b324d96837a","study_id":"60edd13110225f80f9f3709b","session_id":"6196c1f38376cd07bf2cee22","condition":"full-information","relevant_dimensions":["wings","pattern"],"bee_group":{"antennae":"X","wings":"2","pattern":"S","legs":"X"},"bonus":1.1600000000000008},{"rt":2487.3000000715256,"stimulus":"bees-with-color/bee-B1DF.svg","response":0,"trial_type":"image-button-response","trial_index":41,"time_elapsed":279065,"internal_node_id":"0.0-4.0-0.17","subject_id":"5fa1b6c21acd7b324d96837a","study_id":"60edd13110225f80f9f3709b","session_id":"6196c1f38376cd07bf2cee22","condition":"full-information","relevant_dimensions":["wings","pattern"],"bee_group":{"antennae":"X","wings":"2","pattern":"S","legs":"X"},"action":"harvest","summary":"good-harvest","bonus":1.1600000000000008},{"rt":1123.0999999046326,"stimulus":"\n                    <p><b>Action: <em>harvest</em></b></p>\n                    <p>This is the bee that you just saw.</p>\n                    <img src=\"bees-with-color/bee-B1DF.svg\" width=\"200\">\n                    <p><span class=\"greenText\"><b>Successful harvest!</b></span><br>Your pay has increased by $0.02. Your bonus pay is now $0.62.</p>\n            ","response":0,"trial_type":"html-button-response","trial_index":42,"time_elapsed":280190,"internal_node_id":"0.0-4.0-1.17","subject_id":"5fa1b6c21acd7b324d96837a","study_id":"60edd13110225f80f9f3709b","session_id":"6196c1f38376cd07bf2cee22","condition":"full-information","relevant_dimensions":["wings","pattern"],"bee_group":{"antennae":"X","wings":"2","pattern":"S","legs":"X"},"bonus":1.1600000000000008},{"rt":1533.1000000238419,"stimulus":"bees-with-color/bee-A1SF.svg","response":0,"trial_type":"image-button-response","trial_index":43,"time_elapsed":281724,"internal_node_id":"0.0-4.0-0.18","subject_id":"5fa1b6c21acd7b324d96837a","study_id":"60edd13110225f80f9f3709b","session_id":"6196c1f38376cd07bf2cee22","condition":"full-information","relevant_dimensions":["wings","pattern"],"bee_group":{"antennae":"X","wings":"2","pattern":"S","legs":"X"},"action":"harvest","summary":"good-harvest","bonus":1.1600000000000008},{"rt":819.2000000476837,"stimulus":"\n                    <p><b>Action: <em>harvest</em></b></p>\n                    <p>This is the bee that you just saw.</p>\n                    <img src=\"bees-with-color/bee-A1SF.svg\" width=\"200\">\n                    <p><span class=\"greenText\"><b>Successful harvest!</b></span><br>Your pay has increased by $0.02. Your bonus pay is now $0.64.</p>\n            ","response":0,"trial_type":"html-button-response","trial_index":44,"time_elapsed":282544,"internal_node_id":"0.0-4.0-1.18","subject_id":"5fa1b6c21acd7b324d96837a","study_id":"60edd13110225f80f9f3709b","session_id":"6196c1f38376cd07bf2cee22","condition":"full-information","relevant_dimensions":["wings","pattern"],"bee_group":{"antennae":"X","wings":"2","pattern":"S","legs":"X"},"bonus":1.1600000000000008},{"rt":2763.600000023842,"stimulus":"bees-with-color/bee-A1SM.svg","response":0,"trial_type":"image-button-response","trial_index":45,"time_elapsed":285308,"internal_node_id":"0.0-4.0-0.19","subject_id":"5fa1b6c21acd7b324d96837a","study_id":"60edd13110225f80f9f3709b","session_id":"6196c1f38376cd07bf2cee22","condition":"full-information","relevant_dimensions":["wings","pattern"],"bee_group":{"antennae":"X","wings":"2","pattern":"S","legs":"X"},"action":"harvest","summary":"good-harvest","bonus":1.1600000000000008},{"rt":948.7999999523163,"stimulus":"\n                    <p><b>Action: <em>harvest</em></b></p>\n                    <p>This is the bee that you just saw.</p>\n                    <img src=\"bees-with-color/bee-A1SM.svg\" width=\"200\">\n                    <p><span class=\"greenText\"><b>Successful harvest!</b></span><br>Your pay has increased by $0.02. Your bonus pay is now $0.66.</p>\n            ","response":0,"trial_type":"html-button-response","trial_index":46,"time_elapsed":286258,"internal_node_id":"0.0-4.0-1.19","subject_id":"5fa1b6c21acd7b324d96837a","study_id":"60edd13110225f80f9f3709b","session_id":"6196c1f38376cd07bf2cee22","condition":"full-information","relevant_dimensions":["wings","pattern"],"bee_group":{"antennae":"X","wings":"2","pattern":"S","legs":"X"},"bonus":1.1600000000000008},{"rt":4183.5,"stimulus":"bees-with-color/bee-B1SM.svg","response":0,"trial_type":"image-button-response","trial_index":47,"time_elapsed":290443,"internal_node_id":"0.0-4.0-0.20","subject_id":"5fa1b6c21acd7b324d96837a","study_id":"60edd13110225f80f9f3709b","session_id":"6196c1f38376cd07bf2cee22","condition":"full-information","relevant_dimensions":["wings","pattern"],"bee_group":{"antennae":"X","wings":"2","pattern":"S","legs":"X"},"action":"harvest","summary":"good-harvest","bonus":1.1600000000000008},{"rt":711,"stimulus":"\n                    <p><b>Action: <em>harvest</em></b></p>\n                    <p>This is the bee that you just saw.</p>\n                    <img src=\"bees-with-color/bee-B1SM.svg\" width=\"200\">\n                    <p><span class=\"greenText\"><b>Successful harvest!</b></span><br>Your pay has increased by $0.02. Your bonus pay is now $0.68.</p>\n            ","response":0,"trial_type":"html-button-response","trial_index":48,"time_elapsed":291155,"internal_node_id":"0.0-4.0-1.20","subject_id":"5fa1b6c21acd7b324d96837a","study_id":"60edd13110225f80f9f3709b","session_id":"6196c1f38376cd07bf2cee22","condition":"full-information","relevant_dimensions":["wings","pattern"],"bee_group":{"antennae":"X","wings":"2","pattern":"S","legs":"X"},"bonus":1.1600000000000008},{"rt":1309.2999999523163,"stimulus":"bees-with-color/bee-A2SF.svg","response":1,"trial_type":"image-button-response","trial_index":49,"time_elapsed":292466,"internal_node_id":"0.0-4.0-0.21","subject_id":"5fa1b6c21acd7b324d96837a","study_id":"60edd13110225f80f9f3709b","session_id":"6196c1f38376cd07bf2cee22","condition":"full-information","relevant_dimensions":["wings","pattern"],"bee_group":{"antennae":"X","wings":"2","pattern":"S","legs":"X"},"action":"avoid","summary":"good-avoid","bonus":1.1600000000000008},{"rt":1769,"stimulus":"\n                    <p><b>Action: <em>avoid</em></b></p>\n                    <p>This is the bee that you just saw.</p>\n                    <img src=\"bees-with-color/bee-A2SF.svg\" width=\"200\">\n                    <p><span class=\"greenText\">Good choice!</span>  This bee would have stung you.<br>Your bonus pay is unchanged, and remains at $0.68.</p>\n            ","response":0,"trial_type":"html-button-response","trial_index":50,"time_elapsed":294236,"internal_node_id":"0.0-4.0-1.21","subject_id":"5fa1b6c21acd7b324d96837a","study_id":"60edd13110225f80f9f3709b","session_id":"6196c1f38376cd07bf2cee22","condition":"full-information","relevant_dimensions":["wings","pattern"],"bee_group":{"antennae":"X","wings":"2","pattern":"S","legs":"X"},"bonus":1.1600000000000008},{"rt":2088.899999976158,"stimulus":"bees-with-color/bee-B2DF.svg","response":1,"trial_type":"image-button-response","trial_index":51,"time_elapsed":296326,"internal_node_id":"0.0-4.0-0.22","subject_id":"5fa1b6c21acd7b324d96837a","study_id":"60edd13110225f80f9f3709b","session_id":"6196c1f38376cd07bf2cee22","condition":"full-information","relevant_dimensions":["wings","pattern"],"bee_group":{"antennae":"X","wings":"2","pattern":"S","legs":"X"},"action":"avoid","summary":"bad-avoid","bonus":1.1600000000000008},{"rt":1223.1000000238419,"stimulus":"\n                    <p><b>Action: <em>avoid</em></b></p>\n                    <p>This is the bee that you just saw.</p>\n                    <img src=\"bees-with-color/bee-B2DF.svg\" width=\"200\">\n                    <p><span class=\"redText\">Bad choice,</span> the bee was friendly.<br>Your bonus pay is unchanged, and remains at $0.68.</p>\n            ","response":0,"trial_type":"html-button-response","trial_index":52,"time_elapsed":297550,"internal_node_id":"0.0-4.0-1.22","subject_id":"5fa1b6c21acd7b324d96837a","study_id":"60edd13110225f80f9f3709b","session_id":"6196c1f38376cd07bf2cee22","condition":"full-information","relevant_dimensions":["wings","pattern"],"bee_group":{"antennae":"X","wings":"2","pattern":"S","legs":"X"},"bonus":1.1600000000000008},{"rt":2883.2000000476837,"stimulus":"bees-with-color/bee-B2SM.svg","response":1,"trial_type":"image-button-response","trial_index":53,"time_elapsed":300434,"internal_node_id":"0.0-4.0-0.23","subject_id":"5fa1b6c21acd7b324d96837a","study_id":"60edd13110225f80f9f3709b","session_id":"6196c1f38376cd07bf2cee22","condition":"full-information","relevant_dimensions":["wings","pattern"],"bee_group":{"antennae":"X","wings":"2","pattern":"S","legs":"X"},"action":"avoid","summary":"good-avoid","bonus":1.1600000000000008},{"rt":1087.2000000476837,"stimulus":"\n                    <p><b>Action: <em>avoid</em></b></p>\n                    <p>This is the bee that you just saw.</p>\n                    <img src=\"bees-with-color/bee-B2SM.svg\" width=\"200\">\n                    <p><span class=\"greenText\">Good choice!</span>  This bee would have stung you.<br>Your bonus pay is unchanged, and remains at $0.68.</p>\n            ","response":0,"trial_type":"html-button-response","trial_index":54,"time_elapsed":301522,"internal_node_id":"0.0-4.0-1.23","subject_id":"5fa1b6c21acd7b324d96837a","study_id":"60edd13110225f80f9f3709b","session_id":"6196c1f38376cd07bf2cee22","condition":"full-information","relevant_dimensions":["wings","pattern"],"bee_group":{"antennae":"X","wings":"2","pattern":"S","legs":"X"},"bonus":1.1600000000000008},{"rt":2539,"stimulus":"bees-with-color/bee-B2SF.svg","response":0,"trial_type":"image-button-response","trial_index":55,"time_elapsed":304063,"internal_node_id":"0.0-4.0-0.24","subject_id":"5fa1b6c21acd7b324d96837a","study_id":"60edd13110225f80f9f3709b","session_id":"6196c1f38376cd07bf2cee22","condition":"full-information","relevant_dimensions":["wings","pattern"],"bee_group":{"antennae":"X","wings":"2","pattern":"S","legs":"X"},"action":"harvest","summary":"bad-harvest","bonus":1.1600000000000008},{"rt":3295.2000000476837,"stimulus":"\n                    <p><b>Action: <em>harvest</em></b></p>\n                    <p>This is the bee that you just saw.</p>\n                    <img src=\"bees-with-color/bee-B2SF.svg\" width=\"200\">\n                    <p><span class=\"redText\">Bad choice, the bee was angry.</span><br><b>You have been stung!</b><br>Your pay has been decreased by $0.10. Your bonus pay is now $0.58.</p>\n            ","response":0,"trial_type":"html-button-response","trial_index":56,"time_elapsed":307359,"internal_node_id":"0.0-4.0-1.24","subject_id":"5fa1b6c21acd7b324d96837a","study_id":"60edd13110225f80f9f3709b","session_id":"6196c1f38376cd07bf2cee22","condition":"full-information","relevant_dimensions":["wings","pattern"],"bee_group":{"antennae":"X","wings":"2","pattern":"S","legs":"X"},"bonus":1.1600000000000008},{"rt":1897,"stimulus":"bees-with-color/bee-A1DF.svg","response":0,"trial_type":"image-button-response","trial_index":57,"time_elapsed":309257,"internal_node_id":"0.0-4.0-0.25","subject_id":"5fa1b6c21acd7b324d96837a","study_id":"60edd13110225f80f9f3709b","session_id":"6196c1f38376cd07bf2cee22","condition":"full-information","relevant_dimensions":["wings","pattern"],"bee_group":{"antennae":"X","wings":"2","pattern":"S","legs":"X"},"action":"harvest","summary":"good-harvest","bonus":1.1600000000000008},{"rt":1013.2000000476837,"stimulus":"\n                    <p><b>Action: <em>harvest</em></b></p>\n                    <p>This is the bee that you just saw.</p>\n                    <img src=\"bees-with-color/bee-A1DF.svg\" width=\"200\">\n                    <p><span class=\"greenText\"><b>Successful harvest!</b></span><br>Your pay has increased by $0.02. Your bonus pay is now $0.60.</p>\n            ","response":0,"trial_type":"html-button-response","trial_index":58,"time_elapsed":310272,"internal_node_id":"0.0-4.0-1.25","subject_id":"5fa1b6c21acd7b324d96837a","study_id":"60edd13110225f80f9f3709b","session_id":"6196c1f38376cd07bf2cee22","condition":"full-information","relevant_dimensions":["wings","pattern"],"bee_group":{"antennae":"X","wings":"2","pattern":"S","legs":"X"},"bonus":1.1600000000000008},{"rt":2035,"stimulus":"bees-with-color/bee-A1DM.svg","response":0,"trial_type":"image-button-response","trial_index":59,"time_elapsed":312307,"internal_node_id":"0.0-4.0-0.26","subject_id":"5fa1b6c21acd7b324d96837a","study_id":"60edd13110225f80f9f3709b","session_id":"6196c1f38376cd07bf2cee22","condition":"full-information","relevant_dimensions":["wings","pattern"],"bee_group":{"antennae":"X","wings":"2","pattern":"S","legs":"X"},"action":"harvest","summary":"good-harvest","bonus":1.1600000000000008},{"rt":715.0999999046326,"stimulus":"\n                    <p><b>Action: <em>harvest</em></b></p>\n                    <p>This is the bee that you just saw.</p>\n                    <img src=\"bees-with-color/bee-A1DM.svg\" width=\"200\">\n                    <p><span class=\"greenText\"><b>Successful harvest!</b></span><br>Your pay has increased by $0.02. Your bonus pay is now $0.62.</p>\n            ","response":0,"trial_type":"html-button-response","trial_index":60,"time_elapsed":313024,"internal_node_id":"0.0-4.0-1.26","subject_id":"5fa1b6c21acd7b324d96837a","study_id":"60edd13110225f80f9f3709b","session_id":"6196c1f38376cd07bf2cee22","condition":"full-information","relevant_dimensions":["wings","pattern"],"bee_group":{"antennae":"X","wings":"2","pattern":"S","legs":"X"},"bonus":1.1600000000000008},{"rt":2699.399999976158,"stimulus":"bees-with-color/bee-A2DM.svg","response":0,"trial_type":"image-button-response","trial_index":61,"time_elapsed":315724,"internal_node_id":"0.0-4.0-0.27","subject_id":"5fa1b6c21acd7b324d96837a","study_id":"60edd13110225f80f9f3709b","session_id":"6196c1f38376cd07bf2cee22","condition":"full-information","relevant_dimensions":["wings","pattern"],"bee_group":{"antennae":"X","wings":"2","pattern":"S","legs":"X"},"action":"harvest","summary":"good-harvest","bonus":1.1600000000000008},{"rt":822.7000000476837,"stimulus":"\n                    <p><b>Action: <em>harvest</em></b></p>\n                    <p>This is the bee that you just saw.</p>\n                    <img src=\"bees-with-color/bee-A2DM.svg\" width=\"200\">\n                    <p><span class=\"greenText\"><b>Successful harvest!</b></span><br>Your pay has increased by $0.02. Your bonus pay is now $0.64.</p>\n            ","response":0,"trial_type":"html-button-response","trial_index":62,"time_elapsed":316548,"internal_node_id":"0.0-4.0-1.27","subject_id":"5fa1b6c21acd7b324d96837a","study_id":"60edd13110225f80f9f3709b","session_id":"6196c1f38376cd07bf2cee22","condition":"full-information","relevant_dimensions":["wings","pattern"],"bee_group":{"antennae":"X","wings":"2","pattern":"S","legs":"X"},"bonus":1.1600000000000008},{"rt":2369,"stimulus":"bees-with-color/bee-B1DM.svg","response":0,"trial_type":"image-button-response","trial_index":63,"time_elapsed":318918,"internal_node_id":"0.0-4.0-0.28","subject_id":"5fa1b6c21acd7b324d96837a","study_id":"60edd13110225f80f9f3709b","session_id":"6196c1f38376cd07bf2cee22","condition":"full-information","relevant_dimensions":["wings","pattern"],"bee_group":{"antennae":"X","wings":"2","pattern":"S","legs":"X"},"action":"harvest","summary":"good-harvest","bonus":1.1600000000000008},{"rt":885,"stimulus":"\n                    <p><b>Action: <em>harvest</em></b></p>\n                    <p>This is the bee that you just saw.</p>\n                    <img src=\"bees-with-color/bee-B1DM.svg\" width=\"200\">\n                    <p><span class=\"greenText\"><b>Successful harvest!</b></span><br>Your pay has increased by $0.02. Your bonus pay is now $0.66.</p>\n            ","response":0,"trial_type":"html-button-response","trial_index":64,"time_elapsed":319805,"internal_node_id":"0.0-4.0-1.28","subject_id":"5fa1b6c21acd7b324d96837a","study_id":"60edd13110225f80f9f3709b","session_id":"6196c1f38376cd07bf2cee22","condition":"full-information","relevant_dimensions":["wings","pattern"],"bee_group":{"antennae":"X","wings":"2","pattern":"S","legs":"X"},"bonus":1.1600000000000008},{"rt":2624.899999976158,"stimulus":"bees-with-color/bee-A2DF.svg","response":1,"trial_type":"image-button-response","trial_index":65,"time_elapsed":322431,"internal_node_id":"0.0-4.0-0.29","subject_id":"5fa1b6c21acd7b324d96837a","study_id":"60edd13110225f80f9f3709b","session_id":"6196c1f38376cd07bf2cee22","condition":"full-information","relevant_dimensions":["wings","pattern"],"bee_group":{"antennae":"X","wings":"2","pattern":"S","legs":"X"},"action":"avoid","summary":"bad-avoid","bonus":1.1600000000000008},{"rt":1276.8999999761581,"stimulus":"\n                    <p><b>Action: <em>avoid</em></b></p>\n                    <p>This is the bee that you just saw.</p>\n                    <img src=\"bees-with-color/bee-A2DF.svg\" width=\"200\">\n                    <p><span class=\"redText\">Bad choice,</span> the bee was friendly.<br>Your bonus pay is unchanged, and remains at $0.66.</p>\n            ","response":0,"trial_type":"html-button-response","trial_index":66,"time_elapsed":323709,"internal_node_id":"0.0-4.0-1.29","subject_id":"5fa1b6c21acd7b324d96837a","study_id":"60edd13110225f80f9f3709b","session_id":"6196c1f38376cd07bf2cee22","condition":"full-information","relevant_dimensions":["wings","pattern"],"bee_group":{"antennae":"X","wings":"2","pattern":"S","legs":"X"},"bonus":1.1600000000000008},{"rt":2718.9000000953674,"stimulus":"bees-with-color/bee-A2SM.svg","response":1,"trial_type":"image-button-response","trial_index":67,"time_elapsed":326429,"internal_node_id":"0.0-4.0-0.30","subject_id":"5fa1b6c21acd7b324d96837a","study_id":"60edd13110225f80f9f3709b","session_id":"6196c1f38376cd07bf2cee22","condition":"full-information","relevant_dimensions":["wings","pattern"],"bee_group":{"antennae":"X","wings":"2","pattern":"S","legs":"X"},"action":"avoid","summary":"good-avoid","bonus":1.1600000000000008},{"rt":1651.5,"stimulus":"\n                    <p><b>Action: <em>avoid</em></b></p>\n                    <p>This is the bee that you just saw.</p>\n                    <img src=\"bees-with-color/bee-A2SM.svg\" width=\"200\">\n                    <p><span class=\"greenText\">Good choice!</span>  This bee would have stung you.<br>Your bonus pay is unchanged, and remains at $0.66.</p>\n            ","response":0,"trial_type":"html-button-response","trial_index":68,"time_elapsed":328082,"internal_node_id":"0.0-4.0-1.30","subject_id":"5fa1b6c21acd7b324d96837a","study_id":"60edd13110225f80f9f3709b","session_id":"6196c1f38376cd07bf2cee22","condition":"full-information","relevant_dimensions":["wings","pattern"],"bee_group":{"antennae":"X","wings":"2","pattern":"S","legs":"X"},"bonus":1.1600000000000008},{"rt":4899.100000023842,"stimulus":"bees-with-color/bee-B1SF.svg","response":0,"trial_type":"image-button-response","trial_index":69,"time_elapsed":332982,"internal_node_id":"0.0-4.0-0.31","subject_id":"5fa1b6c21acd7b324d96837a","study_id":"60edd13110225f80f9f3709b","session_id":"6196c1f38376cd07bf2cee22","condition":"full-information","relevant_dimensions":["wings","pattern"],"bee_group":{"antennae":"X","wings":"2","pattern":"S","legs":"X"},"action":"harvest","summary":"good-harvest","bonus":1.1600000000000008},{"rt":733.2000000476837,"stimulus":"\n                    <p><b>Action: <em>harvest</em></b></p>\n                    <p>This is the bee that you just saw.</p>\n                    <img src=\"bees-with-color/bee-B1SF.svg\" width=\"200\">\n                    <p><span class=\"greenText\"><b>Successful harvest!</b></span><br>Your pay has increased by $0.02. Your bonus pay is now $0.68.</p>\n            ","response":0,"trial_type":"html-button-response","trial_index":70,"time_elapsed":333716,"internal_node_id":"0.0-4.0-1.31","subject_id":"5fa1b6c21acd7b324d96837a","study_id":"60edd13110225f80f9f3709b","session_id":"6196c1f38376cd07bf2cee22","condition":"full-information","relevant_dimensions":["wings","pattern"],"bee_group":{"antennae":"X","wings":"2","pattern":"S","legs":"X"},"bonus":1.1600000000000008},{"rt":3189.2000000476837,"stimulus":"bees-with-color/bee-A2DM.svg","response":0,"trial_type":"image-button-response","trial_index":71,"time_elapsed":336906,"internal_node_id":"0.0-4.0-0.32","subject_id":"5fa1b6c21acd7b324d96837a","study_id":"60edd13110225f80f9f3709b","session_id":"6196c1f38376cd07bf2cee22","condition":"full-information","relevant_dimensions":["wings","pattern"],"bee_group":{"antennae":"X","wings":"2","pattern":"S","legs":"X"},"action":"harvest","summary":"good-harvest","bonus":1.1600000000000008},{"rt":769.8000000715256,"stimulus":"\n                    <p><b>Action: <em>harvest</em></b></p>\n                    <p>This is the bee that you just saw.</p>\n                    <img src=\"bees-with-color/bee-A2DM.svg\" width=\"200\">\n                    <p><span class=\"greenText\"><b>Successful harvest!</b></span><br>Your pay has increased by $0.02. Your bonus pay is now $0.70.</p>\n            ","response":0,"trial_type":"html-button-response","trial_index":72,"time_elapsed":337677,"internal_node_id":"0.0-4.0-1.32","subject_id":"5fa1b6c21acd7b324d96837a","study_id":"60edd13110225f80f9f3709b","session_id":"6196c1f38376cd07bf2cee22","condition":"full-information","relevant_dimensions":["wings","pattern"],"bee_group":{"antennae":"X","wings":"2","pattern":"S","legs":"X"},"bonus":1.1600000000000008},{"rt":1462.6000000238419,"stimulus":"bees-with-color/bee-B2SM.svg","response":1,"trial_type":"image-button-response","trial_index":73,"time_elapsed":339141,"internal_node_id":"0.0-4.0-0.33","subject_id":"5fa1b6c21acd7b324d96837a","study_id":"60edd13110225f80f9f3709b","session_id":"6196c1f38376cd07bf2cee22","condition":"full-information","relevant_dimensions":["wings","pattern"],"bee_group":{"antennae":"X","wings":"2","pattern":"S","legs":"X"},"action":"avoid","summary":"good-avoid","bonus":1.1600000000000008},{"rt":2478.100000023842,"stimulus":"\n                    <p><b>Action: <em>avoid</em></b></p>\n                    <p>This is the bee that you just saw.</p>\n                    <img src=\"bees-with-color/bee-B2SM.svg\" width=\"200\">\n                    <p><span class=\"greenText\">Good choice!</span>  This bee would have stung you.<br>Your bonus pay is unchanged, and remains at $0.70.</p>\n            ","response":0,"trial_type":"html-button-response","trial_index":74,"time_elapsed":341620,"internal_node_id":"0.0-4.0-1.33","subject_id":"5fa1b6c21acd7b324d96837a","study_id":"60edd13110225f80f9f3709b","session_id":"6196c1f38376cd07bf2cee22","condition":"full-information","relevant_dimensions":["wings","pattern"],"bee_group":{"antennae":"X","wings":"2","pattern":"S","legs":"X"},"bonus":1.1600000000000008},{"rt":1438,"stimulus":"bees-with-color/bee-A1SF.svg","response":0,"trial_type":"image-button-response","trial_index":75,"time_elapsed":343059,"internal_node_id":"0.0-4.0-0.34","subject_id":"5fa1b6c21acd7b324d96837a","study_id":"60edd13110225f80f9f3709b","session_id":"6196c1f38376cd07bf2cee22","condition":"full-information","relevant_dimensions":["wings","pattern"],"bee_group":{"antennae":"X","wings":"2","pattern":"S","legs":"X"},"action":"harvest","summary":"good-harvest","bonus":1.1600000000000008},{"rt":695.1000000238419,"stimulus":"\n                    <p><b>Action: <em>harvest</em></b></p>\n                    <p>This is the bee that you just saw.</p>\n                    <img src=\"bees-with-color/bee-A1SF.svg\" width=\"200\">\n                    <p><span class=\"greenText\"><b>Successful harvest!</b></span><br>Your pay has increased by $0.02. Your bonus pay is now $0.72.</p>\n            ","response":0,"trial_type":"html-button-response","trial_index":76,"time_elapsed":343755,"internal_node_id":"0.0-4.0-1.34","subject_id":"5fa1b6c21acd7b324d96837a","study_id":"60edd13110225f80f9f3709b","session_id":"6196c1f38376cd07bf2cee22","condition":"full-information","relevant_dimensions":["wings","pattern"],"bee_group":{"antennae":"X","wings":"2","pattern":"S","legs":"X"},"bonus":1.1600000000000008},{"rt":2619.2000000476837,"stimulus":"bees-with-color/bee-A1SM.svg","response":0,"trial_type":"image-button-response","trial_index":77,"time_elapsed":346375,"internal_node_id":"0.0-4.0-0.35","subject_id":"5fa1b6c21acd7b324d96837a","study_id":"60edd13110225f80f9f3709b","session_id":"6196c1f38376cd07bf2cee22","condition":"full-information","relevant_dimensions":["wings","pattern"],"bee_group":{"antennae":"X","wings":"2","pattern":"S","legs":"X"},"action":"harvest","summary":"good-harvest","bonus":1.1600000000000008},{"rt":727,"stimulus":"\n                    <p><b>Action: <em>harvest</em></b></p>\n                    <p>This is the bee that you just saw.</p>\n                    <img src=\"bees-with-color/bee-A1SM.svg\" width=\"200\">\n                    <p><span class=\"greenText\"><b>Successful harvest!</b></span><br>Your pay has increased by $0.02. Your bonus pay is now $0.74.</p>\n            ","response":0,"trial_type":"html-button-response","trial_index":78,"time_elapsed":347103,"internal_node_id":"0.0-4.0-1.35","subject_id":"5fa1b6c21acd7b324d96837a","study_id":"60edd13110225f80f9f3709b","session_id":"6196c1f38376cd07bf2cee22","condition":"full-information","relevant_dimensions":["wings","pattern"],"bee_group":{"antennae":"X","wings":"2","pattern":"S","legs":"X"},"bonus":1.1600000000000008},{"rt":4553.600000023842,"stimulus":"bees-with-color/bee-B1SM.svg","response":1,"trial_type":"image-button-response","trial_index":79,"time_elapsed":351657,"internal_node_id":"0.0-4.0-0.36","subject_id":"5fa1b6c21acd7b324d96837a","study_id":"60edd13110225f80f9f3709b","session_id":"6196c1f38376cd07bf2cee22","condition":"full-information","relevant_dimensions":["wings","pattern"],"bee_group":{"antennae":"X","wings":"2","pattern":"S","legs":"X"},"action":"avoid","summary":"bad-avoid","bonus":1.1600000000000008},{"rt":1693,"stimulus":"\n                    <p><b>Action: <em>avoid</em></b></p>\n                    <p>This is the bee that you just saw.</p>\n                    <img src=\"bees-with-color/bee-B1SM.svg\" width=\"200\">\n                    <p><span class=\"redText\">Bad choice,</span> the bee was friendly.<br>Your bonus pay is unchanged, and remains at $0.74.</p>\n            ","response":0,"trial_type":"html-button-response","trial_index":80,"time_elapsed":353351,"internal_node_id":"0.0-4.0-1.36","subject_id":"5fa1b6c21acd7b324d96837a","study_id":"60edd13110225f80f9f3709b","session_id":"6196c1f38376cd07bf2cee22","condition":"full-information","relevant_dimensions":["wings","pattern"],"bee_group":{"antennae":"X","wings":"2","pattern":"S","legs":"X"},"bonus":1.1600000000000008},{"rt":1443,"stimulus":"bees-with-color/bee-B2SF.svg","response":1,"trial_type":"image-button-response","trial_index":81,"time_elapsed":354796,"internal_node_id":"0.0-4.0-0.37","subject_id":"5fa1b6c21acd7b324d96837a","study_id":"60edd13110225f80f9f3709b","session_id":"6196c1f38376cd07bf2cee22","condition":"full-information","relevant_dimensions":["wings","pattern"],"bee_group":{"antennae":"X","wings":"2","pattern":"S","legs":"X"},"action":"avoid","summary":"good-avoid","bonus":1.1600000000000008},{"rt":855.2000000476837,"stimulus":"\n                    <p><b>Action: <em>avoid</em></b></p>\n                    <p>This is the bee that you just saw.</p>\n                    <img src=\"bees-with-color/bee-B2SF.svg\" width=\"200\">\n                    <p><span class=\"greenText\">Good choice!</span>  This bee would have stung you.<br>Your bonus pay is unchanged, and remains at $0.74.</p>\n            ","response":0,"trial_type":"html-button-response","trial_index":82,"time_elapsed":355652,"internal_node_id":"0.0-4.0-1.37","subject_id":"5fa1b6c21acd7b324d96837a","study_id":"60edd13110225f80f9f3709b","session_id":"6196c1f38376cd07bf2cee22","condition":"full-information","relevant_dimensions":["wings","pattern"],"bee_group":{"antennae":"X","wings":"2","pattern":"S","legs":"X"},"bonus":1.1600000000000008},{"rt":2347.1999999284744,"stimulus":"bees-with-color/bee-A1DM.svg","response":0,"trial_type":"image-button-response","trial_index":83,"time_elapsed":358000,"internal_node_id":"0.0-4.0-0.38","subject_id":"5fa1b6c21acd7b324d96837a","study_id":"60edd13110225f80f9f3709b","session_id":"6196c1f38376cd07bf2cee22","condition":"full-information","relevant_dimensions":["wings","pattern"],"bee_group":{"antennae":"X","wings":"2","pattern":"S","legs":"X"},"action":"harvest","summary":"good-harvest","bonus":1.1600000000000008},{"rt":857.1000000238419,"stimulus":"\n                    <p><b>Action: <em>harvest</em></b></p>\n                    <p>This is the bee that you just saw.</p>\n                    <img src=\"bees-with-color/bee-A1DM.svg\" width=\"200\">\n                    <p><span class=\"greenText\"><b>Successful harvest!</b></span><br>Your pay has increased by $0.02. Your bonus pay is now $0.76.</p>\n            ","response":0,"trial_type":"html-button-response","trial_index":84,"time_elapsed":358858,"internal_node_id":"0.0-4.0-1.38","subject_id":"5fa1b6c21acd7b324d96837a","study_id":"60edd13110225f80f9f3709b","session_id":"6196c1f38376cd07bf2cee22","condition":"full-information","relevant_dimensions":["wings","pattern"],"bee_group":{"antennae":"X","wings":"2","pattern":"S","legs":"X"},"bonus":1.1600000000000008},{"rt":2389.5,"stimulus":"bees-with-color/bee-B1DF.svg","response":1,"trial_type":"image-button-response","trial_index":85,"time_elapsed":361249,"internal_node_id":"0.0-4.0-0.39","subject_id":"5fa1b6c21acd7b324d96837a","study_id":"60edd13110225f80f9f3709b","session_id":"6196c1f38376cd07bf2cee22","condition":"full-information","relevant_dimensions":["wings","pattern"],"bee_group":{"antennae":"X","wings":"2","pattern":"S","legs":"X"},"action":"avoid","summary":"bad-avoid","bonus":1.1600000000000008},{"rt":732.8999999761581,"stimulus":"\n                    <p><b>Action: <em>avoid</em></b></p>\n                    <p>This is the bee that you just saw.</p>\n                    <img src=\"bees-with-color/bee-B1DF.svg\" width=\"200\">\n                    <p><span class=\"redText\">Bad choice,</span> the bee was friendly.<br>Your bonus pay is unchanged, and remains at $0.76.</p>\n            ","response":0,"trial_type":"html-button-response","trial_index":86,"time_elapsed":361983,"internal_node_id":"0.0-4.0-1.39","subject_id":"5fa1b6c21acd7b324d96837a","study_id":"60edd13110225f80f9f3709b","session_id":"6196c1f38376cd07bf2cee22","condition":"full-information","relevant_dimensions":["wings","pattern"],"bee_group":{"antennae":"X","wings":"2","pattern":"S","legs":"X"},"bonus":1.1600000000000008},{"rt":2582.899999976158,"stimulus":"bees-with-color/bee-A2DF.svg","response":1,"trial_type":"image-button-response","trial_index":87,"time_elapsed":364566,"internal_node_id":"0.0-4.0-0.40","subject_id":"5fa1b6c21acd7b324d96837a","study_id":"60edd13110225f80f9f3709b","session_id":"6196c1f38376cd07bf2cee22","condition":"full-information","relevant_dimensions":["wings","pattern"],"bee_group":{"antennae":"X","wings":"2","pattern":"S","legs":"X"},"action":"avoid","summary":"bad-avoid","bonus":1.1600000000000008},{"rt":757.2000000476837,"stimulus":"\n                    <p><b>Action: <em>avoid</em></b></p>\n                    <p>This is the bee that you just saw.</p>\n                    <img src=\"bees-with-color/bee-A2DF.svg\" width=\"200\">\n                    <p><span class=\"redText\">Bad choice,</span> the bee was friendly.<br>Your bonus pay is unchanged, and remains at $0.76.</p>\n            ","response":0,"trial_type":"html-button-response","trial_index":88,"time_elapsed":365325,"internal_node_id":"0.0-4.0-1.40","subject_id":"5fa1b6c21acd7b324d96837a","study_id":"60edd13110225f80f9f3709b","session_id":"6196c1f38376cd07bf2cee22","condition":"full-information","relevant_dimensions":["wings","pattern"],"bee_group":{"antennae":"X","wings":"2","pattern":"S","legs":"X"},"bonus":1.1600000000000008},{"rt":2901.399999976158,"stimulus":"bees-with-color/bee-A2SF.svg","response":1,"trial_type":"image-button-response","trial_index":89,"time_elapsed":368227,"internal_node_id":"0.0-4.0-0.41","subject_id":"5fa1b6c21acd7b324d96837a","study_id":"60edd13110225f80f9f3709b","session_id":"6196c1f38376cd07bf2cee22","condition":"full-information","relevant_dimensions":["wings","pattern"],"bee_group":{"antennae":"X","wings":"2","pattern":"S","legs":"X"},"action":"avoid","summary":"good-avoid","bonus":1.1600000000000008},{"rt":965.1999999284744,"stimulus":"\n                    <p><b>Action: <em>avoid</em></b></p>\n                    <p>This is the bee that you just saw.</p>\n                    <img src=\"bees-with-color/bee-A2SF.svg\" width=\"200\">\n                    <p><span class=\"greenText\">Good choice!</span>  This bee would have stung you.<br>Your bonus pay is unchanged, and remains at $0.76.</p>\n            ","response":0,"trial_type":"html-button-response","trial_index":90,"time_elapsed":369194,"internal_node_id":"0.0-4.0-1.41","subject_id":"5fa1b6c21acd7b324d96837a","study_id":"60edd13110225f80f9f3709b","session_id":"6196c1f38376cd07bf2cee22","condition":"full-information","relevant_dimensions":["wings","pattern"],"bee_group":{"antennae":"X","wings":"2","pattern":"S","legs":"X"},"bonus":1.1600000000000008},{"rt":1936.5999999046326,"stimulus":"bees-with-color/bee-B1SF.svg","response":0,"trial_type":"image-button-response","trial_index":91,"time_elapsed":371131,"internal_node_id":"0.0-4.0-0.42","subject_id":"5fa1b6c21acd7b324d96837a","study_id":"60edd13110225f80f9f3709b","session_id":"6196c1f38376cd07bf2cee22","condition":"full-information","relevant_dimensions":["wings","pattern"],"bee_group":{"antennae":"X","wings":"2","pattern":"S","legs":"X"},"action":"harvest","summary":"good-harvest","bonus":1.1600000000000008},{"rt":1735.2000000476837,"stimulus":"\n                    <p><b>Action: <em>harvest</em></b></p>\n                    <p>This is the bee that you just saw.</p>\n                    <img src=\"bees-with-color/bee-B1SF.svg\" width=\"200\">\n                    <p><span class=\"greenText\"><b>Successful harvest!</b></span><br>Your pay has increased by $0.02. Your bonus pay is now $0.78.</p>\n            ","response":0,"trial_type":"html-button-response","trial_index":92,"time_elapsed":372868,"internal_node_id":"0.0-4.0-1.42","subject_id":"5fa1b6c21acd7b324d96837a","study_id":"60edd13110225f80f9f3709b","session_id":"6196c1f38376cd07bf2cee22","condition":"full-information","relevant_dimensions":["wings","pattern"],"bee_group":{"antennae":"X","wings":"2","pattern":"S","legs":"X"},"bonus":1.1600000000000008},{"rt":1558.8000000715256,"stimulus":"bees-with-color/bee-B1DM.svg","response":0,"trial_type":"image-button-response","trial_index":93,"time_elapsed":374428,"internal_node_id":"0.0-4.0-0.43","subject_id":"5fa1b6c21acd7b324d96837a","study_id":"60edd13110225f80f9f3709b","session_id":"6196c1f38376cd07bf2cee22","condition":"full-information","relevant_dimensions":["wings","pattern"],"bee_group":{"antennae":"X","wings":"2","pattern":"S","legs":"X"},"action":"harvest","summary":"good-harvest","bonus":1.1600000000000008},{"rt":921,"stimulus":"\n                    <p><b>Action: <em>harvest</em></b></p>\n                    <p>This is the bee that you just saw.</p>\n                    <img src=\"bees-with-color/bee-B1DM.svg\" width=\"200\">\n                    <p><span class=\"greenText\"><b>Successful harvest!</b></span><br>Your pay has increased by $0.02. Your bonus pay is now $0.80.</p>\n            ","response":0,"trial_type":"html-button-response","trial_index":94,"time_elapsed":375350,"internal_node_id":"0.0-4.0-1.43","subject_id":"5fa1b6c21acd7b324d96837a","study_id":"60edd13110225f80f9f3709b","session_id":"6196c1f38376cd07bf2cee22","condition":"full-information","relevant_dimensions":["wings","pattern"],"bee_group":{"antennae":"X","wings":"2","pattern":"S","legs":"X"},"bonus":1.1600000000000008},{"rt":1643.1999999284744,"stimulus":"bees-with-color/bee-A2SM.svg","response":1,"trial_type":"image-button-response","trial_index":95,"time_elapsed":376994,"internal_node_id":"0.0-4.0-0.44","subject_id":"5fa1b6c21acd7b324d96837a","study_id":"60edd13110225f80f9f3709b","session_id":"6196c1f38376cd07bf2cee22","condition":"full-information","relevant_dimensions":["wings","pattern"],"bee_group":{"antennae":"X","wings":"2","pattern":"S","legs":"X"},"action":"avoid","summary":"good-avoid","bonus":1.1600000000000008},{"rt":834.7999999523163,"stimulus":"\n                    <p><b>Action: <em>avoid</em></b></p>\n                    <p>This is the bee that you just saw.</p>\n                    <img src=\"bees-with-color/bee-A2SM.svg\" width=\"200\">\n                    <p><span class=\"greenText\">Good choice!</span>  This bee would have stung you.<br>Your bonus pay is unchanged, and remains at $0.80.</p>\n            ","response":0,"trial_type":"html-button-response","trial_index":96,"time_elapsed":377830,"internal_node_id":"0.0-4.0-1.44","subject_id":"5fa1b6c21acd7b324d96837a","study_id":"60edd13110225f80f9f3709b","session_id":"6196c1f38376cd07bf2cee22","condition":"full-information","relevant_dimensions":["wings","pattern"],"bee_group":{"antennae":"X","wings":"2","pattern":"S","legs":"X"},"bonus":1.1600000000000008},{"rt":4363.399999976158,"stimulus":"bees-with-color/bee-B2DF.svg","response":1,"trial_type":"image-button-response","trial_index":97,"time_elapsed":382195,"internal_node_id":"0.0-4.0-0.45","subject_id":"5fa1b6c21acd7b324d96837a","study_id":"60edd13110225f80f9f3709b","session_id":"6196c1f38376cd07bf2cee22","condition":"full-information","relevant_dimensions":["wings","pattern"],"bee_group":{"antennae":"X","wings":"2","pattern":"S","legs":"X"},"action":"avoid","summary":"bad-avoid","bonus":1.1600000000000008},{"rt":1005.2000000476837,"stimulus":"\n                    <p><b>Action: <em>avoid</em></b></p>\n                    <p>This is the bee that you just saw.</p>\n                    <img src=\"bees-with-color/bee-B2DF.svg\" width=\"200\">\n                    <p><span class=\"redText\">Bad choice,</span> the bee was friendly.<br>Your bonus pay is unchanged, and remains at $0.80.</p>\n            ","response":0,"trial_type":"html-button-response","trial_index":98,"time_elapsed":383201,"internal_node_id":"0.0-4.0-1.45","subject_id":"5fa1b6c21acd7b324d96837a","study_id":"60edd13110225f80f9f3709b","session_id":"6196c1f38376cd07bf2cee22","condition":"full-information","relevant_dimensions":["wings","pattern"],"bee_group":{"antennae":"X","wings":"2","pattern":"S","legs":"X"},"bonus":1.1600000000000008},{"rt":2999.100000023842,"stimulus":"bees-with-color/bee-B2DM.svg","response":1,"trial_type":"image-button-response","trial_index":99,"time_elapsed":386201,"internal_node_id":"0.0-4.0-0.46","subject_id":"5fa1b6c21acd7b324d96837a","study_id":"60edd13110225f80f9f3709b","session_id":"6196c1f38376cd07bf2cee22","condition":"full-information","relevant_dimensions":["wings","pattern"],"bee_group":{"antennae":"X","wings":"2","pattern":"S","legs":"X"},"action":"avoid","summary":"bad-avoid","bonus":1.1600000000000008},{"rt":765.1000000238419,"stimulus":"\n                    <p><b>Action: <em>avoid</em></b></p>\n                    <p>This is the bee that you just saw.</p>\n                    <img src=\"bees-with-color/bee-B2DM.svg\" width=\"200\">\n                    <p><span class=\"redText\">Bad choice,</span> the bee was friendly.<br>Your bonus pay is unchanged, and remains at $0.80.</p>\n            ","response":0,"trial_type":"html-button-response","trial_index":100,"time_elapsed":386967,"internal_node_id":"0.0-4.0-1.46","subject_id":"5fa1b6c21acd7b324d96837a","study_id":"60edd13110225f80f9f3709b","session_id":"6196c1f38376cd07bf2cee22","condition":"full-information","relevant_dimensions":["wings","pattern"],"bee_group":{"antennae":"X","wings":"2","pattern":"S","legs":"X"},"bonus":1.1600000000000008},{"rt":2765.1999999284744,"stimulus":"bees-with-color/bee-A1DF.svg","response":1,"trial_type":"image-button-response","trial_index":101,"time_elapsed":389734,"internal_node_id":"0.0-4.0-0.47","subject_id":"5fa1b6c21acd7b324d96837a","study_id":"60edd13110225f80f9f3709b","session_id":"6196c1f38376cd07bf2cee22","condition":"full-information","relevant_dimensions":["wings","pattern"],"bee_group":{"antennae":"X","wings":"2","pattern":"S","legs":"X"},"action":"avoid","summary":"bad-avoid","bonus":1.1600000000000008},{"rt":624.8999999761581,"stimulus":"\n                    <p><b>Action: <em>avoid</em></b></p>\n                    <p>This is the bee that you just saw.</p>\n                    <img src=\"bees-with-color/bee-A1DF.svg\" width=\"200\">\n                    <p><span class=\"redText\">Bad choice,</span> the bee was friendly.<br>Your bonus pay is unchanged, and remains at $0.80.</p>\n            ","response":0,"trial_type":"html-button-response","trial_index":102,"time_elapsed":390359,"internal_node_id":"0.0-4.0-1.47","subject_id":"5fa1b6c21acd7b324d96837a","study_id":"60edd13110225f80f9f3709b","session_id":"6196c1f38376cd07bf2cee22","condition":"full-information","relevant_dimensions":["wings","pattern"],"bee_group":{"antennae":"X","wings":"2","pattern":"S","legs":"X"},"bonus":1.1600000000000008},{"rt":1205.2000000476837,"stimulus":"bees-with-color/bee-B1DM.svg","response":0,"trial_type":"image-button-response","trial_index":103,"time_elapsed":391566,"internal_node_id":"0.0-4.0-0.48","subject_id":"5fa1b6c21acd7b324d96837a","study_id":"60edd13110225f80f9f3709b","session_id":"6196c1f38376cd07bf2cee22","condition":"full-information","relevant_dimensions":["wings","pattern"],"bee_group":{"antennae":"X","wings":"2","pattern":"S","legs":"X"},"action":"harvest","summary":"good-harvest","bonus":1.1600000000000008},{"rt":692.7999999523163,"stimulus":"\n                    <p><b>Action: <em>harvest</em></b></p>\n                    <p>This is the bee that you just saw.</p>\n                    <img src=\"bees-with-color/bee-B1DM.svg\" width=\"200\">\n                    <p><span class=\"greenText\"><b>Successful harvest!</b></span><br>Your pay has increased by $0.02. Your bonus pay is now $0.82.</p>\n            ","response":0,"trial_type":"html-button-response","trial_index":104,"time_elapsed":392260,"internal_node_id":"0.0-4.0-1.48","subject_id":"5fa1b6c21acd7b324d96837a","study_id":"60edd13110225f80f9f3709b","session_id":"6196c1f38376cd07bf2cee22","condition":"full-information","relevant_dimensions":["wings","pattern"],"bee_group":{"antennae":"X","wings":"2","pattern":"S","legs":"X"},"bonus":1.1600000000000008},{"rt":2434.3000000715256,"stimulus":"bees-with-color/bee-A1SM.svg","response":0,"trial_type":"image-button-response","trial_index":105,"time_elapsed":394695,"internal_node_id":"0.0-4.0-0.49","subject_id":"5fa1b6c21acd7b324d96837a","study_id":"60edd13110225f80f9f3709b","session_id":"6196c1f38376cd07bf2cee22","condition":"full-information","relevant_dimensions":["wings","pattern"],"bee_group":{"antennae":"X","wings":"2","pattern":"S","legs":"X"},"action":"harvest","summary":"good-harvest","bonus":1.1600000000000008},{"rt":812.5,"stimulus":"\n                    <p><b>Action: <em>harvest</em></b></p>\n                    <p>This is the bee that you just saw.</p>\n                    <img src=\"bees-with-color/bee-A1SM.svg\" width=\"200\">\n                    <p><span class=\"greenText\"><b>Successful harvest!</b></span><br>Your pay has increased by $0.02. Your bonus pay is now $0.84.</p>\n            ","response":0,"trial_type":"html-button-response","trial_index":106,"time_elapsed":395508,"internal_node_id":"0.0-4.0-1.49","subject_id":"5fa1b6c21acd7b324d96837a","study_id":"60edd13110225f80f9f3709b","session_id":"6196c1f38376cd07bf2cee22","condition":"full-information","relevant_dimensions":["wings","pattern"],"bee_group":{"antennae":"X","wings":"2","pattern":"S","legs":"X"},"bonus":1.1600000000000008},{"rt":2080.899999976158,"stimulus":"bees-with-color/bee-B1SM.svg","response":0,"trial_type":"image-button-response","trial_index":107,"time_elapsed":397590,"internal_node_id":"0.0-4.0-0.50","subject_id":"5fa1b6c21acd7b324d96837a","study_id":"60edd13110225f80f9f3709b","session_id":"6196c1f38376cd07bf2cee22","condition":"full-information","relevant_dimensions":["wings","pattern"],"bee_group":{"antennae":"X","wings":"2","pattern":"S","legs":"X"},"action":"harvest","summary":"good-harvest","bonus":1.1600000000000008},{"rt":759.1000000238419,"stimulus":"\n                    <p><b>Action: <em>harvest</em></b></p>\n                    <p>This is the bee that you just saw.</p>\n                    <img src=\"bees-with-color/bee-B1SM.svg\" width=\"200\">\n                    <p><span class=\"greenText\"><b>Successful harvest!</b></span><br>Your pay has increased by $0.02. Your bonus pay is now $0.86.</p>\n            ","response":0,"trial_type":"html-button-response","trial_index":108,"time_elapsed":398350,"internal_node_id":"0.0-4.0-1.50","subject_id":"5fa1b6c21acd7b324d96837a","study_id":"60edd13110225f80f9f3709b","session_id":"6196c1f38376cd07bf2cee22","condition":"full-information","relevant_dimensions":["wings","pattern"],"bee_group":{"antennae":"X","wings":"2","pattern":"S","legs":"X"},"bonus":1.1600000000000008},{"rt":2117.1999999284744,"stimulus":"bees-with-color/bee-B2DM.svg","response":0,"trial_type":"image-button-response","trial_index":109,"time_elapsed":400469,"internal_node_id":"0.0-4.0-0.51","subject_id":"5fa1b6c21acd7b324d96837a","study_id":"60edd13110225f80f9f3709b","session_id":"6196c1f38376cd07bf2cee22","condition":"full-information","relevant_dimensions":["wings","pattern"],"bee_group":{"antennae":"X","wings":"2","pattern":"S","legs":"X"},"action":"harvest","summary":"good-harvest","bonus":1.1600000000000008},{"rt":623.3000000715256,"stimulus":"\n                    <p><b>Action: <em>harvest</em></b></p>\n                    <p>This is the bee that you just saw.</p>\n                    <img src=\"bees-with-color/bee-B2DM.svg\" width=\"200\">\n                    <p><span class=\"greenText\"><b>Successful harvest!</b></span><br>Your pay has increased by $0.02. Your bonus pay is now $0.88.</p>\n            ","response":0,"trial_type":"html-button-response","trial_index":110,"time_elapsed":401093,"internal_node_id":"0.0-4.0-1.51","subject_id":"5fa1b6c21acd7b324d96837a","study_id":"60edd13110225f80f9f3709b","session_id":"6196c1f38376cd07bf2cee22","condition":"full-information","relevant_dimensions":["wings","pattern"],"bee_group":{"antennae":"X","wings":"2","pattern":"S","legs":"X"},"bonus":1.1600000000000008},{"rt":3213.100000023842,"stimulus":"bees-with-color/bee-B1DF.svg","response":0,"trial_type":"image-button-response","trial_index":111,"time_elapsed":404307,"internal_node_id":"0.0-4.0-0.52","subject_id":"5fa1b6c21acd7b324d96837a","study_id":"60edd13110225f80f9f3709b","session_id":"6196c1f38376cd07bf2cee22","condition":"full-information","relevant_dimensions":["wings","pattern"],"bee_group":{"antennae":"X","wings":"2","pattern":"S","legs":"X"},"action":"harvest","summary":"good-harvest","bonus":1.1600000000000008},{"rt":655.1000000238419,"stimulus":"\n                    <p><b>Action: <em>harvest</em></b></p>\n                    <p>This is the bee that you just saw.</p>\n                    <img src=\"bees-with-color/bee-B1DF.svg\" width=\"200\">\n                    <p><span class=\"greenText\"><b>Successful harvest!</b></span><br>Your pay has increased by $0.02. Your bonus pay is now $0.90.</p>\n            ","response":0,"trial_type":"html-button-response","trial_index":112,"time_elapsed":404963,"internal_node_id":"0.0-4.0-1.52","subject_id":"5fa1b6c21acd7b324d96837a","study_id":"60edd13110225f80f9f3709b","session_id":"6196c1f38376cd07bf2cee22","condition":"full-information","relevant_dimensions":["wings","pattern"],"bee_group":{"antennae":"X","wings":"2","pattern":"S","legs":"X"},"bonus":1.1600000000000008},{"rt":1704.6000000238419,"stimulus":"bees-with-color/bee-B2SM.svg","response":1,"trial_type":"image-button-response","trial_index":113,"time_elapsed":406669,"internal_node_id":"0.0-4.0-0.53","subject_id":"5fa1b6c21acd7b324d96837a","study_id":"60edd13110225f80f9f3709b","session_id":"6196c1f38376cd07bf2cee22","condition":"full-information","relevant_dimensions":["wings","pattern"],"bee_group":{"antennae":"X","wings":"2","pattern":"S","legs":"X"},"action":"avoid","summary":"good-avoid","bonus":1.1600000000000008},{"rt":667.1000000238419,"stimulus":"\n                    <p><b>Action: <em>avoid</em></b></p>\n                    <p>This is the bee that you just saw.</p>\n                    <img src=\"bees-with-color/bee-B2SM.svg\" width=\"200\">\n                    <p><span class=\"greenText\">Good choice!</span>  This bee would have stung you.<br>Your bonus pay is unchanged, and remains at $0.90.</p>\n            ","response":0,"trial_type":"html-button-response","trial_index":114,"time_elapsed":407337,"internal_node_id":"0.0-4.0-1.53","subject_id":"5fa1b6c21acd7b324d96837a","study_id":"60edd13110225f80f9f3709b","session_id":"6196c1f38376cd07bf2cee22","condition":"full-information","relevant_dimensions":["wings","pattern"],"bee_group":{"antennae":"X","wings":"2","pattern":"S","legs":"X"},"bonus":1.1600000000000008},{"rt":1693.5,"stimulus":"bees-with-color/bee-A2SF.svg","response":1,"trial_type":"image-button-response","trial_index":115,"time_elapsed":409032,"internal_node_id":"0.0-4.0-0.54","subject_id":"5fa1b6c21acd7b324d96837a","study_id":"60edd13110225f80f9f3709b","session_id":"6196c1f38376cd07bf2cee22","condition":"full-information","relevant_dimensions":["wings","pattern"],"bee_group":{"antennae":"X","wings":"2","pattern":"S","legs":"X"},"action":"avoid","summary":"good-avoid","bonus":1.1600000000000008},{"rt":800.8000000715256,"stimulus":"\n                    <p><b>Action: <em>avoid</em></b></p>\n                    <p>This is the bee that you just saw.</p>\n                    <img src=\"bees-with-color/bee-A2SF.svg\" width=\"200\">\n                    <p><span class=\"greenText\">Good choice!</span>  This bee would have stung you.<br>Your bonus pay is unchanged, and remains at $0.90.</p>\n            ","response":0,"trial_type":"html-button-response","trial_index":116,"time_elapsed":409834,"internal_node_id":"0.0-4.0-1.54","subject_id":"5fa1b6c21acd7b324d96837a","study_id":"60edd13110225f80f9f3709b","session_id":"6196c1f38376cd07bf2cee22","condition":"full-information","relevant_dimensions":["wings","pattern"],"bee_group":{"antennae":"X","wings":"2","pattern":"S","legs":"X"},"bonus":1.1600000000000008},{"rt":1466.8999999761581,"stimulus":"bees-with-color/bee-A1SF.svg","response":0,"trial_type":"image-button-response","trial_index":117,"time_elapsed":411302,"internal_node_id":"0.0-4.0-0.55","subject_id":"5fa1b6c21acd7b324d96837a","study_id":"60edd13110225f80f9f3709b","session_id":"6196c1f38376cd07bf2cee22","condition":"full-information","relevant_dimensions":["wings","pattern"],"bee_group":{"antennae":"X","wings":"2","pattern":"S","legs":"X"},"action":"harvest","summary":"good-harvest","bonus":1.1600000000000008},{"rt":617,"stimulus":"\n                    <p><b>Action: <em>harvest</em></b></p>\n                    <p>This is the bee that you just saw.</p>\n                    <img src=\"bees-with-color/bee-A1SF.svg\" width=\"200\">\n                    <p><span class=\"greenText\"><b>Successful harvest!</b></span><br>Your pay has increased by $0.02. Your bonus pay is now $0.92.</p>\n            ","response":0,"trial_type":"html-button-response","trial_index":118,"time_elapsed":411921,"internal_node_id":"0.0-4.0-1.55","subject_id":"5fa1b6c21acd7b324d96837a","study_id":"60edd13110225f80f9f3709b","session_id":"6196c1f38376cd07bf2cee22","condition":"full-information","relevant_dimensions":["wings","pattern"],"bee_group":{"antennae":"X","wings":"2","pattern":"S","legs":"X"},"bonus":1.1600000000000008},{"rt":1785.2999999523163,"stimulus":"bees-with-color/bee-B2DF.svg","response":1,"trial_type":"image-button-response","trial_index":119,"time_elapsed":413707,"internal_node_id":"0.0-4.0-0.56","subject_id":"5fa1b6c21acd7b324d96837a","study_id":"60edd13110225f80f9f3709b","session_id":"6196c1f38376cd07bf2cee22","condition":"full-information","relevant_dimensions":["wings","pattern"],"bee_group":{"antennae":"X","wings":"2","pattern":"S","legs":"X"},"action":"avoid","summary":"bad-avoid","bonus":1.1600000000000008},{"rt":1031,"stimulus":"\n                    <p><b>Action: <em>avoid</em></b></p>\n                    <p>This is the bee that you just saw.</p>\n                    <img src=\"bees-with-color/bee-B2DF.svg\" width=\"200\">\n                    <p><span class=\"redText\">Bad choice,</span> the bee was friendly.<br>Your bonus pay is unchanged, and remains at $0.92.</p>\n            ","response":0,"trial_type":"html-button-response","trial_index":120,"time_elapsed":414739,"internal_node_id":"0.0-4.0-1.56","subject_id":"5fa1b6c21acd7b324d96837a","study_id":"60edd13110225f80f9f3709b","session_id":"6196c1f38376cd07bf2cee22","condition":"full-information","relevant_dimensions":["wings","pattern"],"bee_group":{"antennae":"X","wings":"2","pattern":"S","legs":"X"},"bonus":1.1600000000000008},{"rt":1611.2999999523163,"stimulus":"bees-with-color/bee-A2DM.svg","response":0,"trial_type":"image-button-response","trial_index":121,"time_elapsed":416351,"internal_node_id":"0.0-4.0-0.57","subject_id":"5fa1b6c21acd7b324d96837a","study_id":"60edd13110225f80f9f3709b","session_id":"6196c1f38376cd07bf2cee22","condition":"full-information","relevant_dimensions":["wings","pattern"],"bee_group":{"antennae":"X","wings":"2","pattern":"S","legs":"X"},"action":"harvest","summary":"good-harvest","bonus":1.1600000000000008},{"rt":707,"stimulus":"\n                    <p><b>Action: <em>harvest</em></b></p>\n                    <p>This is the bee that you just saw.</p>\n                    <img src=\"bees-with-color/bee-A2DM.svg\" width=\"200\">\n                    <p><span class=\"greenText\"><b>Successful harvest!</b></span><br>Your pay has increased by $0.02. Your bonus pay is now $0.94.</p>\n            ","response":0,"trial_type":"html-button-response","trial_index":122,"time_elapsed":417059,"internal_node_id":"0.0-4.0-1.57","subject_id":"5fa1b6c21acd7b324d96837a","study_id":"60edd13110225f80f9f3709b","session_id":"6196c1f38376cd07bf2cee22","condition":"full-information","relevant_dimensions":["wings","pattern"],"bee_group":{"antennae":"X","wings":"2","pattern":"S","legs":"X"},"bonus":1.1600000000000008},{"rt":2051.2000000476837,"stimulus":"bees-with-color/bee-A2DF.svg","response":1,"trial_type":"image-button-response","trial_index":123,"time_elapsed":419111,"internal_node_id":"0.0-4.0-0.58","subject_id":"5fa1b6c21acd7b324d96837a","study_id":"60edd13110225f80f9f3709b","session_id":"6196c1f38376cd07bf2cee22","condition":"full-information","relevant_dimensions":["wings","pattern"],"bee_group":{"antennae":"X","wings":"2","pattern":"S","legs":"X"},"action":"avoid","summary":"bad-avoid","bonus":1.1600000000000008},{"rt":496.89999997615814,"stimulus":"\n                    <p><b>Action: <em>avoid</em></b></p>\n                    <p>This is the bee that you just saw.</p>\n                    <img src=\"bees-with-color/bee-A2DF.svg\" width=\"200\">\n                    <p><span class=\"redText\">Bad choice,</span> the bee was friendly.<br>Your bonus pay is unchanged, and remains at $0.94.</p>\n            ","response":0,"trial_type":"html-button-response","trial_index":124,"time_elapsed":419609,"internal_node_id":"0.0-4.0-1.58","subject_id":"5fa1b6c21acd7b324d96837a","study_id":"60edd13110225f80f9f3709b","session_id":"6196c1f38376cd07bf2cee22","condition":"full-information","relevant_dimensions":["wings","pattern"],"bee_group":{"antennae":"X","wings":"2","pattern":"S","legs":"X"},"bonus":1.1600000000000008},{"rt":4225.200000047684,"stimulus":"bees-with-color/bee-A1DM.svg","response":0,"trial_type":"image-button-response","trial_index":125,"time_elapsed":423836,"internal_node_id":"0.0-4.0-0.59","subject_id":"5fa1b6c21acd7b324d96837a","study_id":"60edd13110225f80f9f3709b","session_id":"6196c1f38376cd07bf2cee22","condition":"full-information","relevant_dimensions":["wings","pattern"],"bee_group":{"antennae":"X","wings":"2","pattern":"S","legs":"X"},"action":"harvest","summary":"good-harvest","bonus":1.1600000000000008},{"rt":809.5,"stimulus":"\n                    <p><b>Action: <em>harvest</em></b></p>\n                    <p>This is the bee that you just saw.</p>\n                    <img src=\"bees-with-color/bee-A1DM.svg\" width=\"200\">\n                    <p><span class=\"greenText\"><b>Successful harvest!</b></span><br>Your pay has increased by $0.02. Your bonus pay is now $0.96.</p>\n            ","response":0,"trial_type":"html-button-response","trial_index":126,"time_elapsed":424646,"internal_node_id":"0.0-4.0-1.59","subject_id":"5fa1b6c21acd7b324d96837a","study_id":"60edd13110225f80f9f3709b","session_id":"6196c1f38376cd07bf2cee22","condition":"full-information","relevant_dimensions":["wings","pattern"],"bee_group":{"antennae":"X","wings":"2","pattern":"S","legs":"X"},"bonus":1.1600000000000008},{"rt":1064.5,"stimulus":"bees-with-color/bee-A2SM.svg","response":1,"trial_type":"image-button-response","trial_index":127,"time_elapsed":425712,"internal_node_id":"0.0-4.0-0.60","subject_id":"5fa1b6c21acd7b324d96837a","study_id":"60edd13110225f80f9f3709b","session_id":"6196c1f38376cd07bf2cee22","condition":"full-information","relevant_dimensions":["wings","pattern"],"bee_group":{"antennae":"X","wings":"2","pattern":"S","legs":"X"},"action":"avoid","summary":"good-avoid","bonus":1.1600000000000008},{"rt":1007.2999999523163,"stimulus":"\n                    <p><b>Action: <em>avoid</em></b></p>\n                    <p>This is the bee that you just saw.</p>\n                    <img src=\"bees-with-color/bee-A2SM.svg\" width=\"200\">\n                    <p><span class=\"greenText\">Good choice!</span>  This bee would have stung you.<br>Your bonus pay is unchanged, and remains at $0.96.</p>\n            ","response":0,"trial_type":"html-button-response","trial_index":128,"time_elapsed":426720,"internal_node_id":"0.0-4.0-1.60","subject_id":"5fa1b6c21acd7b324d96837a","study_id":"60edd13110225f80f9f3709b","session_id":"6196c1f38376cd07bf2cee22","condition":"full-information","relevant_dimensions":["wings","pattern"],"bee_group":{"antennae":"X","wings":"2","pattern":"S","legs":"X"},"bonus":1.1600000000000008},{"rt":1765.1000000238419,"stimulus":"bees-with-color/bee-B2SF.svg","response":0,"trial_type":"image-button-response","trial_index":129,"time_elapsed":428486,"internal_node_id":"0.0-4.0-0.61","subject_id":"5fa1b6c21acd7b324d96837a","study_id":"60edd13110225f80f9f3709b","session_id":"6196c1f38376cd07bf2cee22","condition":"full-information","relevant_dimensions":["wings","pattern"],"bee_group":{"antennae":"X","wings":"2","pattern":"S","legs":"X"},"action":"harvest","summary":"bad-harvest","bonus":1.1600000000000008},{"rt":1539.6000000238419,"stimulus":"\n                    <p><b>Action: <em>harvest</em></b></p>\n                    <p>This is the bee that you just saw.</p>\n                    <img src=\"bees-with-color/bee-B2SF.svg\" width=\"200\">\n                    <p><span class=\"redText\">Bad choice, the bee was angry.</span><br><b>You have been stung!</b><br>Your pay has been decreased by $0.10. Your bonus pay is now $0.86.</p>\n            ","response":0,"trial_type":"html-button-response","trial_index":130,"time_elapsed":430027,"internal_node_id":"0.0-4.0-1.61","subject_id":"5fa1b6c21acd7b324d96837a","study_id":"60edd13110225f80f9f3709b","session_id":"6196c1f38376cd07bf2cee22","condition":"full-information","relevant_dimensions":["wings","pattern"],"bee_group":{"antennae":"X","wings":"2","pattern":"S","legs":"X"},"bonus":1.1600000000000008},{"rt":1704.8000000715256,"stimulus":"bees-with-color/bee-B1SF.svg","response":1,"trial_type":"image-button-response","trial_index":131,"time_elapsed":431733,"internal_node_id":"0.0-4.0-0.62","subject_id":"5fa1b6c21acd7b324d96837a","study_id":"60edd13110225f80f9f3709b","session_id":"6196c1f38376cd07bf2cee22","condition":"full-information","relevant_dimensions":["wings","pattern"],"bee_group":{"antennae":"X","wings":"2","pattern":"S","legs":"X"},"action":"avoid","summary":"bad-avoid","bonus":1.1600000000000008},{"rt":736.7999999523163,"stimulus":"\n                    <p><b>Action: <em>avoid</em></b></p>\n                    <p>This is the bee that you just saw.</p>\n                    <img src=\"bees-with-color/bee-B1SF.svg\" width=\"200\">\n                    <p><span class=\"redText\">Bad choice,</span> the bee was friendly.<br>Your bonus pay is unchanged, and remains at $0.86.</p>\n            ","response":0,"trial_type":"html-button-response","trial_index":132,"time_elapsed":432471,"internal_node_id":"0.0-4.0-1.62","subject_id":"5fa1b6c21acd7b324d96837a","study_id":"60edd13110225f80f9f3709b","session_id":"6196c1f38376cd07bf2cee22","condition":"full-information","relevant_dimensions":["wings","pattern"],"bee_group":{"antennae":"X","wings":"2","pattern":"S","legs":"X"},"bonus":1.1600000000000008},{"rt":1409.9000000953674,"stimulus":"bees-with-color/bee-A1DF.svg","response":0,"trial_type":"image-button-response","trial_index":133,"time_elapsed":433881,"internal_node_id":"0.0-4.0-0.63","subject_id":"5fa1b6c21acd7b324d96837a","study_id":"60edd13110225f80f9f3709b","session_id":"6196c1f38376cd07bf2cee22","condition":"full-information","relevant_dimensions":["wings","pattern"],"bee_group":{"antennae":"X","wings":"2","pattern":"S","legs":"X"},"action":"harvest","summary":"good-harvest","bonus":1.1600000000000008},{"rt":542.6000000238419,"stimulus":"\n                    <p><b>Action: <em>harvest</em></b></p>\n                    <p>This is the bee that you just saw.</p>\n                    <img src=\"bees-with-color/bee-A1DF.svg\" width=\"200\">\n                    <p><span class=\"greenText\"><b>Successful harvest!</b></span><br>Your pay has increased by $0.02. Your bonus pay is now $0.88.</p>\n            ","response":0,"trial_type":"html-button-response","trial_index":134,"time_elapsed":434425,"internal_node_id":"0.0-4.0-1.63","subject_id":"5fa1b6c21acd7b324d96837a","study_id":"60edd13110225f80f9f3709b","session_id":"6196c1f38376cd07bf2cee22","condition":"full-information","relevant_dimensions":["wings","pattern"],"bee_group":{"antennae":"X","wings":"2","pattern":"S","legs":"X"},"bonus":1.1600000000000008},{"rt":7507.399999976158,"stimulus":"You have completed the first part of this experiment.<br><br>You will now begin a shorter second part, in which you will receive no feedback.<br>The same rules regarding bonus pay apply.<br><br>Press any key to begin.","response":"m","trial_type":"html-keyboard-response","trial_index":135,"time_elapsed":441933,"internal_node_id":"0.0-5.0","subject_id":"5fa1b6c21acd7b324d96837a","study_id":"60edd13110225f80f9f3709b","session_id":"6196c1f38376cd07bf2cee22","condition":"full-information","relevant_dimensions":["wings","pattern"],"bee_group":{"antennae":"X","wings":"2","pattern":"S","legs":"X"},"bonus":1.1600000000000008},{"rt":4286.899999976158,"stimulus":"bees-with-color/bee-A1SM.svg","response":0,"trial_type":"image-button-response","trial_index":136,"time_elapsed":446226,"internal_node_id":"0.0-6.0-0.0","subject_id":"5fa1b6c21acd7b324d96837a","study_id":"60edd13110225f80f9f3709b","session_id":"6196c1f38376cd07bf2cee22","condition":"full-information","relevant_dimensions":["wings","pattern"],"bee_group":{"antennae":"X","wings":"2","pattern":"S","legs":"X"},"bonus":1.1600000000000008},{"rt":7085,"stimulus":"bees-with-color/bee-B2DF.svg","response":0,"trial_type":"image-button-response","trial_index":137,"time_elapsed":453313,"internal_node_id":"0.0-6.0-0.1","subject_id":"5fa1b6c21acd7b324d96837a","study_id":"60edd13110225f80f9f3709b","session_id":"6196c1f38376cd07bf2cee22","condition":"full-information","relevant_dimensions":["wings","pattern"],"bee_group":{"antennae":"X","wings":"2","pattern":"S","legs":"X"},"bonus":1.1600000000000008},{"rt":2082.399999976158,"stimulus":"bees-with-color/bee-A1DF.svg","response":0,"trial_type":"image-button-response","trial_index":138,"time_elapsed":455397,"internal_node_id":"0.0-6.0-0.2","subject_id":"5fa1b6c21acd7b324d96837a","study_id":"60edd13110225f80f9f3709b","session_id":"6196c1f38376cd07bf2cee22","condition":"full-information","relevant_dimensions":["wings","pattern"],"bee_group":{"antennae":"X","wings":"2","pattern":"S","legs":"X"},"bonus":1.1600000000000008},{"rt":2342.7999999523163,"stimulus":"bees-with-color/bee-B1SF.svg","response":0,"trial_type":"image-button-response","trial_index":139,"time_elapsed":457742,"internal_node_id":"0.0-6.0-0.3","subject_id":"5fa1b6c21acd7b324d96837a","study_id":"60edd13110225f80f9f3709b","session_id":"6196c1f38376cd07bf2cee22","condition":"full-information","relevant_dimensions":["wings","pattern"],"bee_group":{"antennae":"X","wings":"2","pattern":"S","legs":"X"},"bonus":1.1600000000000008},{"rt":980.5,"stimulus":"bees-with-color/bee-B2SM.svg","response":1,"trial_type":"image-button-response","trial_index":140,"time_elapsed":458724,"internal_node_id":"0.0-6.0-0.4","subject_id":"5fa1b6c21acd7b324d96837a","study_id":"60edd13110225f80f9f3709b","session_id":"6196c1f38376cd07bf2cee22","condition":"full-information","relevant_dimensions":["wings","pattern"],"bee_group":{"antennae":"X","wings":"2","pattern":"S","legs":"X"},"bonus":1.1600000000000008},{"rt":2366.899999976158,"stimulus":"bees-with-color/bee-B1DF.svg","response":0,"trial_type":"image-button-response","trial_index":141,"time_elapsed":461092,"internal_node_id":"0.0-6.0-0.5","subject_id":"5fa1b6c21acd7b324d96837a","study_id":"60edd13110225f80f9f3709b","session_id":"6196c1f38376cd07bf2cee22","condition":"full-information","relevant_dimensions":["wings","pattern"],"bee_group":{"antennae":"X","wings":"2","pattern":"S","legs":"X"},"bonus":1.1600000000000008},{"rt":832.5,"stimulus":"bees-with-color/bee-A2SM.svg","response":1,"trial_type":"image-button-response","trial_index":142,"time_elapsed":461926,"internal_node_id":"0.0-6.0-0.6","subject_id":"5fa1b6c21acd7b324d96837a","study_id":"60edd13110225f80f9f3709b","session_id":"6196c1f38376cd07bf2cee22","condition":"full-information","relevant_dimensions":["wings","pattern"],"bee_group":{"antennae":"X","wings":"2","pattern":"S","legs":"X"},"bonus":1.1600000000000008},{"rt":2774.7999999523163,"stimulus":"bees-with-color/bee-B1SM.svg","response":0,"trial_type":"image-button-response","trial_index":143,"time_elapsed":464702,"internal_node_id":"0.0-6.0-0.7","subject_id":"5fa1b6c21acd7b324d96837a","study_id":"60edd13110225f80f9f3709b","session_id":"6196c1f38376cd07bf2cee22","condition":"full-information","relevant_dimensions":["wings","pattern"],"bee_group":{"antennae":"X","wings":"2","pattern":"S","legs":"X"},"bonus":1.1600000000000008},{"rt":3302.5999999046326,"stimulus":"bees-with-color/bee-B2DM.svg","response":1,"trial_type":"image-button-response","trial_index":144,"time_elapsed":468007,"internal_node_id":"0.0-6.0-0.8","subject_id":"5fa1b6c21acd7b324d96837a","study_id":"60edd13110225f80f9f3709b","session_id":"6196c1f38376cd07bf2cee22","condition":"full-information","relevant_dimensions":["wings","pattern"],"bee_group":{"antennae":"X","wings":"2","pattern":"S","legs":"X"},"bonus":1.1600000000000008},{"rt":1942.7999999523163,"stimulus":"bees-with-color/bee-B2SF.svg","response":1,"trial_type":"image-button-response","trial_index":145,"time_elapsed":469951,"internal_node_id":"0.0-6.0-0.9","subject_id":"5fa1b6c21acd7b324d96837a","study_id":"60edd13110225f80f9f3709b","session_id":"6196c1f38376cd07bf2cee22","condition":"full-information","relevant_dimensions":["wings","pattern"],"bee_group":{"antennae":"X","wings":"2","pattern":"S","legs":"X"},"bonus":1.1600000000000008},{"rt":2158.5,"stimulus":"bees-with-color/bee-A2DM.svg","response":1,"trial_type":"image-button-response","trial_index":146,"time_elapsed":472111,"internal_node_id":"0.0-6.0-0.10","subject_id":"5fa1b6c21acd7b324d96837a","study_id":"60edd13110225f80f9f3709b","session_id":"6196c1f38376cd07bf2cee22","condition":"full-information","relevant_dimensions":["wings","pattern"],"bee_group":{"antennae":"X","wings":"2","pattern":"S","legs":"X"},"bonus":1.1600000000000008},{"rt":1760.7000000476837,"stimulus":"bees-with-color/bee-A2DF.svg","response":0,"trial_type":"image-button-response","trial_index":147,"time_elapsed":473873,"internal_node_id":"0.0-6.0-0.11","subject_id":"5fa1b6c21acd7b324d96837a","study_id":"60edd13110225f80f9f3709b","session_id":"6196c1f38376cd07bf2cee22","condition":"full-information","relevant_dimensions":["wings","pattern"],"bee_group":{"antennae":"X","wings":"2","pattern":"S","legs":"X"},"bonus":1.1600000000000008},{"rt":1359.2000000476837,"stimulus":"bees-with-color/bee-B1DM.svg","response":0,"trial_type":"image-button-response","trial_index":148,"time_elapsed":475233,"internal_node_id":"0.0-6.0-0.12","subject_id":"5fa1b6c21acd7b324d96837a","study_id":"60edd13110225f80f9f3709b","session_id":"6196c1f38376cd07bf2cee22","condition":"full-information","relevant_dimensions":["wings","pattern"],"bee_group":{"antennae":"X","wings":"2","pattern":"S","legs":"X"},"bonus":1.1600000000000008},{"rt":1863.7000000476837,"stimulus":"bees-with-color/bee-A1SF.svg","response":0,"trial_type":"image-button-response","trial_index":149,"time_elapsed":477099,"internal_node_id":"0.0-6.0-0.13","subject_id":"5fa1b6c21acd7b324d96837a","study_id":"60edd13110225f80f9f3709b","session_id":"6196c1f38376cd07bf2cee22","condition":"full-information","relevant_dimensions":["wings","pattern"],"bee_group":{"antennae":"X","wings":"2","pattern":"S","legs":"X"},"bonus":1.1600000000000008},{"rt":2836.9000000953674,"stimulus":"bees-with-color/bee-A1DM.svg","response":1,"trial_type":"image-button-response","trial_index":150,"time_elapsed":479937,"internal_node_id":"0.0-6.0-0.14","subject_id":"5fa1b6c21acd7b324d96837a","study_id":"60edd13110225f80f9f3709b","session_id":"6196c1f38376cd07bf2cee22","condition":"full-information","relevant_dimensions":["wings","pattern"],"bee_group":{"antennae":"X","wings":"2","pattern":"S","legs":"X"},"bonus":1.1600000000000008},{"rt":1454.4000000953674,"stimulus":"bees-with-color/bee-A2SF.svg","response":1,"trial_type":"image-button-response","trial_index":151,"time_elapsed":481393,"internal_node_id":"0.0-6.0-0.15","subject_id":"5fa1b6c21acd7b324d96837a","study_id":"60edd13110225f80f9f3709b","session_id":"6196c1f38376cd07bf2cee22","condition":"full-information","relevant_dimensions":["wings","pattern"],"bee_group":{"antennae":"X","wings":"2","pattern":"S","legs":"X"},"bonus":1.1600000000000008},{"rt":3083.2999999523163,"stimulus":"bees-with-color/bee-A2DM.svg","response":0,"trial_type":"image-button-response","trial_index":152,"time_elapsed":484478,"internal_node_id":"0.0-6.0-0.16","subject_id":"5fa1b6c21acd7b324d96837a","study_id":"60edd13110225f80f9f3709b","session_id":"6196c1f38376cd07bf2cee22","condition":"full-information","relevant_dimensions":["wings","pattern"],"bee_group":{"antennae":"X","wings":"2","pattern":"S","legs":"X"},"bonus":1.1600000000000008},{"rt":2841,"stimulus":"bees-with-color/bee-A2SM.svg","response":1,"trial_type":"image-button-response","trial_index":153,"time_elapsed":487320,"internal_node_id":"0.0-6.0-0.17","subject_id":"5fa1b6c21acd7b324d96837a","study_id":"60edd13110225f80f9f3709b","session_id":"6196c1f38376cd07bf2cee22","condition":"full-information","relevant_dimensions":["wings","pattern"],"bee_group":{"antennae":"X","wings":"2","pattern":"S","legs":"X"},"bonus":1.1600000000000008},{"rt":2612.9000000953674,"stimulus":"bees-with-color/bee-A2DF.svg","response":0,"trial_type":"image-button-response","trial_index":154,"time_elapsed":489934,"internal_node_id":"0.0-6.0-0.18","subject_id":"5fa1b6c21acd7b324d96837a","study_id":"60edd13110225f80f9f3709b","session_id":"6196c1f38376cd07bf2cee22","condition":"full-information","relevant_dimensions":["wings","pattern"],"bee_group":{"antennae":"X","wings":"2","pattern":"S","legs":"X"},"bonus":1.1600000000000008},{"rt":1656.8999999761581,"stimulus":"bees-with-color/bee-A2SF.svg","response":0,"trial_type":"image-button-response","trial_index":155,"time_elapsed":491592,"internal_node_id":"0.0-6.0-0.19","subject_id":"5fa1b6c21acd7b324d96837a","study_id":"60edd13110225f80f9f3709b","session_id":"6196c1f38376cd07bf2cee22","condition":"full-information","relevant_dimensions":["wings","pattern"],"bee_group":{"antennae":"X","wings":"2","pattern":"S","legs":"X"},"bonus":1.1600000000000008},{"rt":4727.899999976158,"stimulus":"bees-with-color/bee-A1SM.svg","response":0,"trial_type":"image-button-response","trial_index":156,"time_elapsed":496322,"internal_node_id":"0.0-6.0-0.20","subject_id":"5fa1b6c21acd7b324d96837a","study_id":"60edd13110225f80f9f3709b","session_id":"6196c1f38376cd07bf2cee22","condition":"full-information","relevant_dimensions":["wings","pattern"],"bee_group":{"antennae":"X","wings":"2","pattern":"S","legs":"X"},"bonus":1.1600000000000008},{"rt":1978.2999999523163,"stimulus":"bees-with-color/bee-B1SM.svg","response":1,"trial_type":"image-button-response","trial_index":157,"time_elapsed":498301,"internal_node_id":"0.0-6.0-0.21","subject_id":"5fa1b6c21acd7b324d96837a","study_id":"60edd13110225f80f9f3709b","session_id":"6196c1f38376cd07bf2cee22","condition":"full-information","relevant_dimensions":["wings","pattern"],"bee_group":{"antennae":"X","wings":"2","pattern":"S","