[{"success":true,"trial_type":"fullscreen","trial_index":0,"time_elapsed":110551,"internal_node_id":"0.0-0.0","subject_id":"60edab8a3f60c5904187ffc4","study_id":"6197b3f67c2b5cd3b6d9596a","session_id":"619bfbdfb346e215be1a2afd","condition":"full-information","relevant_dimensions":["antennae","pattern"],"bee_group":{"antennae":"B","wings":"X","pattern":"D","legs":"X"},"bonus":1.1200000000000006},{"success":true,"timeout":false,"failed_images":[],"failed_audio":[],"failed_video":[],"trial_type":"preload","trial_index":1,"time_elapsed":112327,"internal_node_id":"0.0-1.0","subject_id":"60edab8a3f60c5904187ffc4","study_id":"6197b3f67c2b5cd3b6d9596a","session_id":"619bfbdfb346e215be1a2afd","condition":"full-information","relevant_dimensions":["antennae","pattern"],"bee_group":{"antennae":"B","wings":"X","pattern":"D","legs":"X"},"bonus":1.1200000000000006},{"rt":2956.600000023842,"stimulus":"Welcome! Press any key to begin.","response":" ","trial_type":"html-keyboard-response","trial_index":2,"time_elapsed":115284,"internal_node_id":"0.0-2.0","subject_id":"60edab8a3f60c5904187ffc4","study_id":"6197b3f67c2b5cd3b6d9596a","session_id":"619bfbdfb346e215be1a2afd","condition":"full-information","relevant_dimensions":["antennae","pattern"],"bee_group":{"antennae":"B","wings":"X","pattern":"D","legs":"X"},"bonus":1.1200000000000006},{"view_history":[{"page_index":0,"viewing_time":7526.199999928474},{"page_index":1,"viewing_time":28770.899999976158},{"page_index":2,"viewing_time":11827},{"page_index":3,"viewing_time":15451},{"page_index":4,"viewing_time":12371.900000095367},{"page_index":5,"viewing_time":18236.099999904633},{"page_index":6,"viewing_time":14773.900000095367},{"page_index":7,"viewing_time":12139},{"page_index":8,"viewing_time":5713.099999904633},{"page_index":9,"viewing_time":3658},{"page_index":10,"viewing_time":5316.200000047684},{"page_index":11,"viewing_time":10002.600000023842},{"page_index":12,"viewing_time":14098.100000023842},{"page_index":13,"viewing_time":1881},{"page_index":14,"viewing_time":3539}],"rt":165304.59999990463,"trial_type":"instructions","trial_index":3,"time_elapsed":280589,"internal_node_id":"0.0-3.0-0.0","subject_id":"60edab8a3f60c5904187ffc4","study_id":"6197b3f67c2b5cd3b6d9596a","session_id":"619bfbdfb346e215be1a2afd","condition":"full-information","relevant_dimensions":["antennae","pattern"],"bee_group":{"antennae":"B","wings":"X","pattern":"D","legs":"X"},"bonus":1.1200000000000006},{"rt":12467.299999952316,"response":{"Q0":["Two or six legs","Stripes or spots on body","Single or double wings","Antennae or no antennae"]},"question_order":[0],"trial_type":"survey-multi-select","trial_index":4,"time_elapsed":293063,"internal_node_id":"0.0-3.0-1.0","subject_id":"60edab8a3f60c5904187ffc4","study_id":"6197b3f67c2b5cd3b6d9596a","session_id":"619bfbdfb346e215be1a2afd","condition":"full-information","relevant_dimensions":["antennae","pattern"],"bee_group":{"antennae":"B","wings":"X","pattern":"D","legs":"X"},"correct":true,"bonus":1.1200000000000006},{"rt":36564.5,"response":{"Q1":"No.","Q2":"Based on the four features of the bee.","Q3":"You learn if it was friendly or dangerous, but do not alter your bonus."},"question_order":[0,1,2],"trial_type":"survey-multi-choice","trial_index":5,"time_elapsed":329630,"internal_node_id":"0.0-3.0-2.0","subject_id":"60edab8a3f60c5904187ffc4","study_id":"6197b3f67c2b5cd3b6d9596a","session_id":"619bfbdfb346e215be1a2afd","condition":"full-information","relevant_dimensions":["antennae","pattern"],"bee_group":{"antennae":"B","wings":"X","pattern":"D","legs":"X"},"correct":true,"bonus":1.1200000000000006},{"rt":3569.100000023842,"stimulus":"<p>Congrats, you got everything right<br>When you're ready, click the button below to continue to the experiment.</p>","response":0,"trial_type":"html-button-response","trial_index":6,"time_elapsed":333203,"internal_node_id":"0.0-3.0-3.0","subject_id":"60edab8a3f60c5904187ffc4","study_id":"6197b3f67c2b5cd3b6d9596a","session_id":"619bfbdfb346e215be1a2afd","condition":"full-information","relevant_dimensions":["antennae","pattern"],"bee_group":{"antennae":"B","wings":"X","pattern":"D","legs":"X"},"bonus":1.1200000000000006},{"rt":8715,"stimulus":"bees-with-color/bee-A2DM.svg","response":1,"trial_type":"image-button-response","trial_index":7,"time_elapsed":341919,"internal_node_id":"0.0-4.0-0.0","subject_id":"60edab8a3f60c5904187ffc4","study_id":"6197b3f67c2b5cd3b6d9596a","session_id":"619bfbdfb346e215be1a2afd","condition":"full-information","relevant_dimensions":["antennae","pattern"],"bee_group":{"antennae":"B","wings":"X","pattern":"D","legs":"X"},"action":"avoid","summary":"bad-avoid","bonus":1.1200000000000006},{"rt":8753.799999952316,"stimulus":"\n                    <p><b>Action: <em>avoid</em></b></p>\n                    <p>This is the bee that you just saw.</p>\n                    <img src=\"bees-with-color/bee-A2DM.svg\" width=\"200\">\n                    <p><span class=\"redText\">Bad choice,</span> the bee was friendly.<br>Your bonus pay is unchanged, and remains at $0.54.</p>\n            ","response":0,"trial_type":"html-button-response","trial_index":8,"time_elapsed":350675,"internal_node_id":"0.0-4.0-1.0","subject_id":"60edab8a3f60c5904187ffc4","study_id":"6197b3f67c2b5cd3b6d9596a","session_id":"619bfbdfb346e215be1a2afd","condition":"full-information","relevant_dimensions":["antennae","pattern"],"bee_group":{"antennae":"B","wings":"X","pattern":"D","legs":"X"},"bonus":1.1200000000000006},{"rt":2596.399999976158,"stimulus":"bees-with-color/bee-B2DM.svg","response":1,"trial_type":"image-button-response","trial_index":9,"time_elapsed":353273,"internal_node_id":"0.0-4.0-0.1","subject_id":"60edab8a3f60c5904187ffc4","study_id":"6197b3f67c2b5cd3b6d9596a","session_id":"619bfbdfb346e215be1a2afd","condition":"full-information","relevant_dimensions":["antennae","pattern"],"bee_group":{"antennae":"B","wings":"X","pattern":"D","legs":"X"},"action":"avoid","summary":"good-avoid","bonus":1.1200000000000006},{"rt":6150.899999976158,"stimulus":"\n                    <p><b>Action: <em>avoid</em></b></p>\n                    <p>This is the bee that you just saw.</p>\n                    <img src=\"bees-with-color/bee-B2DM.svg\" width=\"200\">\n                    <p><span class=\"greenText\">Good choice!</span>  This bee would have stung you.<br>Your bonus pay is unchanged, and remains at $0.54.</p>\n            ","response":0,"trial_type":"html-button-response","trial_index":10,"time_elapsed":359425,"internal_node_id":"0.0-4.0-1.1","subject_id":"60edab8a3f60c5904187ffc4","study_id":"6197b3f67c2b5cd3b6d9596a","session_id":"619bfbdfb346e215be1a2afd","condition":"full-information","relevant_dimensions":["antennae","pattern"],"bee_group":{"antennae":"B","wings":"X","pattern":"D","legs":"X"},"bonus":1.1200000000000006},{"rt":2964.100000023842,"stimulus":"bees-with-color/bee-B2DF.svg","response":1,"trial_type":"image-button-response","trial_index":11,"time_elapsed":362391,"internal_node_id":"0.0-4.0-0.2","subject_id":"60edab8a3f60c5904187ffc4","study_id":"6197b3f67c2b5cd3b6d9596a","session_id":"619bfbdfb346e215be1a2afd","condition":"full-information","relevant_dimensions":["antennae","pattern"],"bee_group":{"antennae":"B","wings":"X","pattern":"D","legs":"X"},"action":"avoid","summary":"good-avoid","bonus":1.1200000000000006},{"rt":2231.899999976158,"stimulus":"\n                    <p><b>Action: <em>avoid</em></b></p>\n                    <p>This is the bee that you just saw.</p>\n                    <img src=\"bees-with-color/bee-B2DF.svg\" width=\"200\">\n                    <p><span class=\"greenText\">Good choice!</span>  This bee would have stung you.<br>Your bonus pay is unchanged, and remains at $0.54.</p>\n            ","response":0,"trial_type":"html-button-response","trial_index":12,"time_elapsed":364624,"internal_node_id":"0.0-4.0-1.2","subject_id":"60edab8a3f60c5904187ffc4","study_id":"6197b3f67c2b5cd3b6d9596a","session_id":"619bfbdfb346e215be1a2afd","condition":"full-information","relevant_dimensions":["antennae","pattern"],"bee_group":{"antennae":"B","wings":"X","pattern":"D","legs":"X"},"bonus":1.1200000000000006},{"rt":1615.5,"stimulus":"bees-with-color/bee-A1SF.svg","response":0,"trial_type":"image-button-response","trial_index":13,"time_elapsed":366241,"internal_node_id":"0.0-4.0-0.3","subject_id":"60edab8a3f60c5904187ffc4","study_id":"6197b3f67c2b5cd3b6d9596a","session_id":"619bfbdfb346e215be1a2afd","condition":"full-information","relevant_dimensions":["antennae","pattern"],"bee_group":{"antennae":"B","wings":"X","pattern":"D","legs":"X"},"action":"harvest","summary":"good-harvest","bonus":1.1200000000000006},{"rt":5417.5,"stimulus":"\n                    <p><b>Action: <em>harvest</em></b></p>\n                    <p>This is the bee that you just saw.</p>\n                    <img src=\"bees-with-color/bee-A1SF.svg\" width=\"200\">\n                    <p><span class=\"greenText\"><b>Successful harvest!</b></span><br>Your pay has increased by $0.02. Your bonus pay is now $0.56.</p>\n            ","response":0,"trial_type":"html-button-response","trial_index":14,"time_elapsed":371660,"internal_node_id":"0.0-4.0-1.3","subject_id":"60edab8a3f60c5904187ffc4","study_id":"6197b3f67c2b5cd3b6d9596a","session_id":"619bfbdfb346e215be1a2afd","condition":"full-information","relevant_dimensions":["antennae","pattern"],"bee_group":{"antennae":"B","wings":"X","pattern":"D","legs":"X"},"bonus":1.1200000000000006},{"rt":1656.6000000238419,"stimulus":"bees-with-color/bee-B2SF.svg","response":1,"trial_type":"image-button-response","trial_index":15,"time_elapsed":373318,"internal_node_id":"0.0-4.0-0.4","subject_id":"60edab8a3f60c5904187ffc4","study_id":"6197b3f67c2b5cd3b6d9596a","session_id":"619bfbdfb346e215be1a2afd","condition":"full-information","relevant_dimensions":["antennae","pattern"],"bee_group":{"antennae":"B","wings":"X","pattern":"D","legs":"X"},"action":"avoid","summary":"bad-avoid","bonus":1.1200000000000006},{"rt":2866.100000023842,"stimulus":"\n                    <p><b>Action: <em>avoid</em></b></p>\n                    <p>This is the bee that you just saw.</p>\n                    <img src=\"bees-with-color/bee-B2SF.svg\" width=\"200\">\n                    <p><span class=\"redText\">Bad choice,</span> the bee was friendly.<br>Your bonus pay is unchanged, and remains at $0.56.</p>\n            ","response":0,"trial_type":"html-button-response","trial_index":16,"time_elapsed":376185,"internal_node_id":"0.0-4.0-1.4","subject_id":"60edab8a3f60c5904187ffc4","study_id":"6197b3f67c2b5cd3b6d9596a","session_id":"619bfbdfb346e215be1a2afd","condition":"full-information","relevant_dimensions":["antennae","pattern"],"bee_group":{"antennae":"B","wings":"X","pattern":"D","legs":"X"},"bonus":1.1200000000000006},{"rt":2606.600000023842,"stimulus":"bees-with-color/bee-A2SM.svg","response":0,"trial_type":"image-button-response","trial_index":17,"time_elapsed":378793,"internal_node_id":"0.0-4.0-0.5","subject_id":"60edab8a3f60c5904187ffc4","study_id":"6197b3f67c2b5cd3b6d9596a","session_id":"619bfbdfb346e215be1a2afd","condition":"full-information","relevant_dimensions":["antennae","pattern"],"bee_group":{"antennae":"B","wings":"X","pattern":"D","legs":"X"},"action":"harvest","summary":"good-harvest","bonus":1.1200000000000006},{"rt":3137.600000023842,"stimulus":"\n                    <p><b>Action: <em>harvest</em></b></p>\n                    <p>This is the bee that you just saw.</p>\n                    <img src=\"bees-with-color/bee-A2SM.svg\" width=\"200\">\n                    <p><span class=\"greenText\"><b>Successful harvest!</b></span><br>Your pay has increased by $0.02. Your bonus pay is now $0.58.</p>\n            ","response":0,"trial_type":"html-button-response","trial_index":18,"time_elapsed":381932,"internal_node_id":"0.0-4.0-1.5","subject_id":"60edab8a3f60c5904187ffc4","study_id":"6197b3f67c2b5cd3b6d9596a","session_id":"619bfbdfb346e215be1a2afd","condition":"full-information","relevant_dimensions":["antennae","pattern"],"bee_group":{"antennae":"B","wings":"X","pattern":"D","legs":"X"},"bonus":1.1200000000000006},{"rt":2401.5,"stimulus":"bees-with-color/bee-A2DF.svg","response":1,"trial_type":"image-button-response","trial_index":19,"time_elapsed":384335,"internal_node_id":"0.0-4.0-0.6","subject_id":"60edab8a3f60c5904187ffc4","study_id":"6197b3f67c2b5cd3b6d9596a","session_id":"619bfbdfb346e215be1a2afd","condition":"full-information","relevant_dimensions":["antennae","pattern"],"bee_group":{"antennae":"B","wings":"X","pattern":"D","legs":"X"},"action":"avoid","summary":"bad-avoid","bonus":1.1200000000000006},{"rt":1296.8999999761581,"stimulus":"\n                    <p><b>Action: <em>avoid</em></b></p>\n                    <p>This is the bee that you just saw.</p>\n                    <img src=\"bees-with-color/bee-A2DF.svg\" width=\"200\">\n                    <p><span class=\"redText\">Bad choice,</span> the bee was friendly.<br>Your bonus pay is unchanged, and remains at $0.58.</p>\n            ","response":0,"trial_type":"html-button-response","trial_index":20,"time_elapsed":385633,"internal_node_id":"0.0-4.0-1.6","subject_id":"60edab8a3f60c5904187ffc4","study_id":"6197b3f67c2b5cd3b6d9596a","session_id":"619bfbdfb346e215be1a2afd","condition":"full-information","relevant_dimensions":["antennae","pattern"],"bee_group":{"antennae":"B","wings":"X","pattern":"D","legs":"X"},"bonus":1.1200000000000006},{"rt":1134.6000000238419,"stimulus":"bees-with-color/bee-B2SM.svg","response":0,"trial_type":"image-button-response","trial_index":21,"time_elapsed":386769,"internal_node_id":"0.0-4.0-0.7","subject_id":"60edab8a3f60c5904187ffc4","study_id":"6197b3f67c2b5cd3b6d9596a","session_id":"619bfbdfb346e215be1a2afd","condition":"full-information","relevant_dimensions":["antennae","pattern"],"bee_group":{"antennae":"B","wings":"X","pattern":"D","legs":"X"},"action":"harvest","summary":"good-harvest","bonus":1.1200000000000006},{"rt":1410.7999999523163,"stimulus":"\n                    <p><b>Action: <em>harvest</em></b></p>\n                    <p>This is the bee that you just saw.</p>\n                    <img src=\"bees-with-color/bee-B2SM.svg\" width=\"200\">\n                    <p><span class=\"greenText\"><b>Successful harvest!</b></span><br>Your pay has increased by $0.02. Your bonus pay is now $0.60.</p>\n            ","response":0,"trial_type":"html-button-response","trial_index":22,"time_elapsed":388181,"internal_node_id":"0.0-4.0-1.7","subject_id":"60edab8a3f60c5904187ffc4","study_id":"6197b3f67c2b5cd3b6d9596a","session_id":"619bfbdfb346e215be1a2afd","condition":"full-information","relevant_dimensions":["antennae","pattern"],"bee_group":{"antennae":"B","wings":"X","pattern":"D","legs":"X"},"bonus":1.1200000000000006},{"rt":1610.7999999523163,"stimulus":"bees-with-color/bee-B1DM.svg","response":1,"trial_type":"image-button-response","trial_index":23,"time_elapsed":389793,"internal_node_id":"0.0-4.0-0.8","subject_id":"60edab8a3f60c5904187ffc4","study_id":"6197b3f67c2b5cd3b6d9596a","session_id":"619bfbdfb346e215be1a2afd","condition":"full-information","relevant_dimensions":["antennae","pattern"],"bee_group":{"antennae":"B","wings":"X","pattern":"D","legs":"X"},"action":"avoid","summary":"good-avoid","bonus":1.1200000000000006},{"rt":2504.7999999523163,"stimulus":"\n                    <p><b>Action: <em>avoid</em></b></p>\n                    <p>This is the bee that you just saw.</p>\n                    <img src=\"bees-with-color/bee-B1DM.svg\" width=\"200\">\n                    <p><span class=\"greenText\">Good choice!</span>  This bee would have stung you.<br>Your bonus pay is unchanged, and remains at $0.60.</p>\n            ","response":0,"trial_type":"html-button-response","trial_index":24,"time_elapsed":392299,"internal_node_id":"0.0-4.0-1.8","subject_id":"60edab8a3f60c5904187ffc4","study_id":"6197b3f67c2b5cd3b6d9596a","session_id":"619bfbdfb346e215be1a2afd","condition":"full-information","relevant_dimensions":["antennae","pattern"],"bee_group":{"antennae":"B","wings":"X","pattern":"D","legs":"X"},"bonus":1.1200000000000006},{"rt":1258.5,"stimulus":"bees-with-color/bee-A2SF.svg","response":0,"trial_type":"image-button-response","trial_index":25,"time_elapsed":393559,"internal_node_id":"0.0-4.0-0.9","subject_id":"60edab8a3f60c5904187ffc4","study_id":"6197b3f67c2b5cd3b6d9596a","session_id":"619bfbdfb346e215be1a2afd","condition":"full-information","relevant_dimensions":["antennae","pattern"],"bee_group":{"antennae":"B","wings":"X","pattern":"D","legs":"X"},"action":"harvest","summary":"good-harvest","bonus":1.1200000000000006},{"rt":2895.7000000476837,"stimulus":"\n                    <p><b>Action: <em>harvest</em></b></p>\n                    <p>This is the bee that you just saw.</p>\n                    <img src=\"bees-with-color/bee-A2SF.svg\" width=\"200\">\n                    <p><span class=\"greenText\"><b>Successful harvest!</b></span><br>Your pay has increased by $0.02. Your bonus pay is now $0.62.</p>\n            ","response":0,"trial_type":"html-button-response","trial_index":26,"time_elapsed":396456,"internal_node_id":"0.0-4.0-1.9","subject_id":"60edab8a3f60c5904187ffc4","study_id":"6197b3f67c2b5cd3b6d9596a","session_id":"619bfbdfb346e215be1a2afd","condition":"full-information","relevant_dimensions":["antennae","pattern"],"bee_group":{"antennae":"B","wings":"X","pattern":"D","legs":"X"},"bonus":1.1200000000000006},{"rt":2043.3999999761581,"stimulus":"bees-with-color/bee-A1DF.svg","response":0,"trial_type":"image-button-response","trial_index":27,"time_elapsed":398501,"internal_node_id":"0.0-4.0-0.10","subject_id":"60edab8a3f60c5904187ffc4","study_id":"6197b3f67c2b5cd3b6d9596a","session_id":"619bfbdfb346e215be1a2afd","condition":"full-information","relevant_dimensions":["antennae","pattern"],"bee_group":{"antennae":"B","wings":"X","pattern":"D","legs":"X"},"action":"harvest","summary":"good-harvest","bonus":1.1200000000000006},{"rt":2691.6999999284744,"stimulus":"\n                    <p><b>Action: <em>harvest</em></b></p>\n                    <p>This is the bee that you just saw.</p>\n                    <img src=\"bees-with-color/bee-A1DF.svg\" width=\"200\">\n                    <p><span class=\"greenText\"><b>Successful harvest!</b></span><br>Your pay has increased by $0.02. Your bonus pay is now $0.64.</p>\n            ","response":0,"trial_type":"html-button-response","trial_index":28,"time_elapsed":401194,"internal_node_id":"0.0-4.0-1.10","subject_id":"60edab8a3f60c5904187ffc4","study_id":"6197b3f67c2b5cd3b6d9596a","session_id":"619bfbdfb346e215be1a2afd","condition":"full-information","relevant_dimensions":["antennae","pattern"],"bee_group":{"antennae":"B","wings":"X","pattern":"D","legs":"X"},"bonus":1.1200000000000006},{"rt":1132.5999999046326,"stimulus":"bees-with-color/bee-B1SF.svg","response":1,"trial_type":"image-button-response","trial_index":29,"time_elapsed":402328,"internal_node_id":"0.0-4.0-0.11","subject_id":"60edab8a3f60c5904187ffc4","study_id":"6197b3f67c2b5cd3b6d9596a","session_id":"619bfbdfb346e215be1a2afd","condition":"full-information","relevant_dimensions":["antennae","pattern"],"bee_group":{"antennae":"B","wings":"X","pattern":"D","legs":"X"},"action":"avoid","summary":"bad-avoid","bonus":1.1200000000000006},{"rt":1521.8999999761581,"stimulus":"\n                    <p><b>Action: <em>avoid</em></b></p>\n                    <p>This is the bee that you just saw.</p>\n                    <img src=\"bees-with-color/bee-B1SF.svg\" width=\"200\">\n                    <p><span class=\"redText\">Bad choice,</span> the bee was friendly.<br>Your bonus pay is unchanged, and remains at $0.64.</p>\n            ","response":0,"trial_type":"html-button-response","trial_index":30,"time_elapsed":403850,"internal_node_id":"0.0-4.0-1.11","subject_id":"60edab8a3f60c5904187ffc4","study_id":"6197b3f67c2b5cd3b6d9596a","session_id":"619bfbdfb346e215be1a2afd","condition":"full-information","relevant_dimensions":["antennae","pattern"],"bee_group":{"antennae":"B","wings":"X","pattern":"D","legs":"X"},"bonus":1.1200000000000006},{"rt":1098.7999999523163,"stimulus":"bees-with-color/bee-B1DF.svg","response":1,"trial_type":"image-button-response","trial_index":31,"time_elapsed":404950,"internal_node_id":"0.0-4.0-0.12","subject_id":"60edab8a3f60c5904187ffc4","study_id":"6197b3f67c2b5cd3b6d9596a","session_id":"619bfbdfb346e215be1a2afd","condition":"full-information","relevant_dimensions":["antennae","pattern"],"bee_group":{"antennae":"B","wings":"X","pattern":"D","legs":"X"},"action":"avoid","summary":"good-avoid","bonus":1.1200000000000006},{"rt":1398,"stimulus":"\n                    <p><b>Action: <em>avoid</em></b></p>\n                    <p>This is the bee that you just saw.</p>\n                    <img src=\"bees-with-color/bee-B1DF.svg\" width=\"200\">\n                    <p><span class=\"greenText\">Good choice!</span>  This bee would have stung you.<br>Your bonus pay is unchanged, and remains at $0.64.</p>\n            ","response":0,"trial_type":"html-button-response","trial_index":32,"time_elapsed":406350,"internal_node_id":"0.0-4.0-1.12","subject_id":"60edab8a3f60c5904187ffc4","study_id":"6197b3f67c2b5cd3b6d9596a","session_id":"619bfbdfb346e215be1a2afd","condition":"full-information","relevant_dimensions":["antennae","pattern"],"bee_group":{"antennae":"B","wings":"X","pattern":"D","legs":"X"},"bonus":1.1200000000000006},{"rt":1473.7999999523163,"stimulus":"bees-with-color/bee-A1DM.svg","response":0,"trial_type":"image-button-response","trial_index":33,"time_elapsed":407825,"internal_node_id":"0.0-4.0-0.13","subject_id":"60edab8a3f60c5904187ffc4","study_id":"6197b3f67c2b5cd3b6d9596a","session_id":"619bfbdfb346e215be1a2afd","condition":"full-information","relevant_dimensions":["antennae","pattern"],"bee_group":{"antennae":"B","wings":"X","pattern":"D","legs":"X"},"action":"harvest","summary":"good-harvest","bonus":1.1200000000000006},{"rt":2304.7999999523163,"stimulus":"\n                    <p><b>Action: <em>harvest</em></b></p>\n                    <p>This is the bee that you just saw.</p>\n                    <img src=\"bees-with-color/bee-A1DM.svg\" width=\"200\">\n                    <p><span class=\"greenText\"><b>Successful harvest!</b></span><br>Your pay has increased by $0.02. Your bonus pay is now $0.66.</p>\n            ","response":0,"trial_type":"html-button-response","trial_index":34,"time_elapsed":410131,"internal_node_id":"0.0-4.0-1.13","subject_id":"60edab8a3f60c5904187ffc4","study_id":"6197b3f67c2b5cd3b6d9596a","session_id":"619bfbdfb346e215be1a2afd","condition":"full-information","relevant_dimensions":["antennae","pattern"],"bee_group":{"antennae":"B","wings":"X","pattern":"D","legs":"X"},"bonus":1.1200000000000006},{"rt":1090.7999999523163,"stimulus":"bees-with-color/bee-B1SM.svg","response":1,"trial_type":"image-button-response","trial_index":35,"time_elapsed":411223,"internal_node_id":"0.0-4.0-0.14","subject_id":"60edab8a3f60c5904187ffc4","study_id":"6197b3f67c2b5cd3b6d9596a","session_id":"619bfbdfb346e215be1a2afd","condition":"full-information","relevant_dimensions":["antennae","pattern"],"bee_group":{"antennae":"B","wings":"X","pattern":"D","legs":"X"},"action":"avoid","summary":"bad-avoid","bonus":1.1200000000000006},{"rt":1021.6999999284744,"stimulus":"\n                    <p><b>Action: <em>avoid</em></b></p>\n                    <p>This is the bee that you just saw.</p>\n                    <img src=\"bees-with-color/bee-B1SM.svg\" width=\"200\">\n                    <p><span class=\"redText\">Bad choice,</span> the bee was friendly.<br>Your bonus pay is unchanged, and remains at $0.66.</p>\n            ","response":0,"trial_type":"html-button-response","trial_index":36,"time_elapsed":412246,"internal_node_id":"0.0-4.0-1.14","subject_id":"60edab8a3f60c5904187ffc4","study_id":"6197b3f67c2b5cd3b6d9596a","session_id":"619bfbdfb346e215be1a2afd","condition":"full-information","relevant_dimensions":["antennae","pattern"],"bee_group":{"antennae":"B","wings":"X","pattern":"D","legs":"X"},"bonus":1.1200000000000006},{"rt":1484.8999999761581,"stimulus":"bees-with-color/bee-A1SM.svg","response":1,"trial_type":"image-button-response","trial_index":37,"time_elapsed":413732,"internal_node_id":"0.0-4.0-0.15","subject_id":"60edab8a3f60c5904187ffc4","study_id":"6197b3f67c2b5cd3b6d9596a","session_id":"619bfbdfb346e215be1a2afd","condition":"full-information","relevant_dimensions":["antennae","pattern"],"bee_group":{"antennae":"B","wings":"X","pattern":"D","legs":"X"},"action":"avoid","summary":"bad-avoid","bonus":1.1200000000000006},{"rt":976.6999999284744,"stimulus":"\n                    <p><b>Action: <em>avoid</em></b></p>\n                    <p>This is the bee that you just saw.</p>\n                    <img src=\"bees-with-color/bee-A1SM.svg\" width=\"200\">\n                    <p><span class=\"redText\">Bad choice,</span> the bee was friendly.<br>Your bonus pay is unchanged, and remains at $0.66.</p>\n            ","response":0,"trial_type":"html-button-response","trial_index":38,"time_elapsed":414710,"internal_node_id":"0.0-4.0-1.15","subject_id":"60edab8a3f60c5904187ffc4","study_id":"6197b3f67c2b5cd3b6d9596a","session_id":"619bfbdfb346e215be1a2afd","condition":"full-information","relevant_dimensions":["antennae","pattern"],"bee_group":{"antennae":"B","wings":"X","pattern":"D","legs":"X"},"bonus":1.1200000000000006},{"rt":1092.7999999523163,"stimulus":"bees-with-color/bee-B2SM.svg","response":1,"trial_type":"image-button-response","trial_index":39,"time_elapsed":415804,"internal_node_id":"0.0-4.0-0.16","subject_id":"60edab8a3f60c5904187ffc4","study_id":"6197b3f67c2b5cd3b6d9596a","session_id":"619bfbdfb346e215be1a2afd","condition":"full-information","relevant_dimensions":["antennae","pattern"],"bee_group":{"antennae":"B","wings":"X","pattern":"D","legs":"X"},"action":"avoid","summary":"bad-avoid","bonus":1.1200000000000006},{"rt":888.8999999761581,"stimulus":"\n                    <p><b>Action: <em>avoid</em></b></p>\n                    <p>This is the bee that you just saw.</p>\n                    <img src=\"bees-with-color/bee-B2SM.svg\" width=\"200\">\n                    <p><span class=\"redText\">Bad choice,</span> the bee was friendly.<br>Your bonus pay is unchanged, and remains at $0.66.</p>\n            ","response":0,"trial_type":"html-button-response","trial_index":40,"time_elapsed":416694,"internal_node_id":"0.0-4.0-1.16","subject_id":"60edab8a3f60c5904187ffc4","study_id":"6197b3f67c2b5cd3b6d9596a","session_id":"619bfbdfb346e215be1a2afd","condition":"full-information","relevant_dimensions":["antennae","pattern"],"bee_group":{"antennae":"B","wings":"X","pattern":"D","legs":"X"},"bonus":1.1200000000000006},{"rt":1055.8999999761581,"stimulus":"bees-with-color/bee-B1DM.svg","response":1,"trial_type":"image-button-response","trial_index":41,"time_elapsed":417751,"internal_node_id":"0.0-4.0-0.17","subject_id":"60edab8a3f60c5904187ffc4","study_id":"6197b3f67c2b5cd3b6d9596a","session_id":"619bfbdfb346e215be1a2afd","condition":"full-information","relevant_dimensions":["antennae","pattern"],"bee_group":{"antennae":"B","wings":"X","pattern":"D","legs":"X"},"action":"avoid","summary":"good-avoid","bonus":1.1200000000000006},{"rt":1042.7999999523163,"stimulus":"\n                    <p><b>Action: <em>avoid</em></b></p>\n                    <p>This is the bee that you just saw.</p>\n                    <img src=\"bees-with-color/bee-B1DM.svg\" width=\"200\">\n                    <p><span class=\"greenText\">Good choice!</span>  This bee would have stung you.<br>Your bonus pay is unchanged, and remains at $0.66.</p>\n            ","response":0,"trial_type":"html-button-response","trial_index":42,"time_elapsed":418795,"internal_node_id":"0.0-4.0-1.17","subject_id":"60edab8a3f60c5904187ffc4","study_id":"6197b3f67c2b5cd3b6d9596a","session_id":"619bfbdfb346e215be1a2afd","condition":"full-information","relevant_dimensions":["antennae","pattern"],"bee_group":{"antennae":"B","wings":"X","pattern":"D","legs":"X"},"bonus":1.1200000000000006},{"rt":1260.8999999761581,"stimulus":"bees-with-color/bee-B1SF.svg","response":1,"trial_type":"image-button-response","trial_index":43,"time_elapsed":420057,"internal_node_id":"0.0-4.0-0.18","subject_id":"60edab8a3f60c5904187ffc4","study_id":"6197b3f67c2b5cd3b6d9596a","session_id":"619bfbdfb346e215be1a2afd","condition":"full-information","relevant_dimensions":["antennae","pattern"],"bee_group":{"antennae":"B","wings":"X","pattern":"D","legs":"X"},"action":"avoid","summary":"bad-avoid","bonus":1.1200000000000006},{"rt":951.7999999523163,"stimulus":"\n                    <p><b>Action: <em>avoid</em></b></p>\n                    <p>This is the bee that you just saw.</p>\n                    <img src=\"bees-with-color/bee-B1SF.svg\" width=\"200\">\n                    <p><span class=\"redText\">Bad choice,</span> the bee was friendly.<br>Your bonus pay is unchanged, and remains at $0.66.</p>\n            ","response":0,"trial_type":"html-button-response","trial_index":44,"time_elapsed":421010,"internal_node_id":"0.0-4.0-1.18","subject_id":"60edab8a3f60c5904187ffc4","study_id":"6197b3f67c2b5cd3b6d9596a","session_id":"619bfbdfb346e215be1a2afd","condition":"full-information","relevant_dimensions":["antennae","pattern"],"bee_group":{"antennae":"B","wings":"X","pattern":"D","legs":"X"},"bonus":1.1200000000000006},{"rt":1408.9000000953674,"stimulus":"bees-with-color/bee-A1DM.svg","response":0,"trial_type":"image-button-response","trial_index":45,"time_elapsed":422420,"internal_node_id":"0.0-4.0-0.19","subject_id":"60edab8a3f60c5904187ffc4","study_id":"6197b3f67c2b5cd3b6d9596a","session_id":"619bfbdfb346e215be1a2afd","condition":"full-information","relevant_dimensions":["antennae","pattern"],"bee_group":{"antennae":"B","wings":"X","pattern":"D","legs":"X"},"action":"harvest","summary":"good-harvest","bonus":1.1200000000000006},{"rt":1295.6999999284744,"stimulus":"\n                    <p><b>Action: <em>harvest</em></b></p>\n                    <p>This is the bee that you just saw.</p>\n                    <img src=\"bees-with-color/bee-A1DM.svg\" width=\"200\">\n                    <p><span class=\"greenText\"><b>Successful harvest!</b></span><br>Your pay has increased by $0.02. Your bonus pay is now $0.68.</p>\n            ","response":0,"trial_type":"html-button-response","trial_index":46,"time_elapsed":423717,"internal_node_id":"0.0-4.0-1.19","subject_id":"60edab8a3f60c5904187ffc4","study_id":"6197b3f67c2b5cd3b6d9596a","session_id":"619bfbdfb346e215be1a2afd","condition":"full-information","relevant_dimensions":["antennae","pattern"],"bee_group":{"antennae":"B","wings":"X","pattern":"D","legs":"X"},"bonus":1.1200000000000006},{"rt":1353.6000000238419,"stimulus":"bees-with-color/bee-B2SF.svg","response":1,"trial_type":"image-button-response","trial_index":47,"time_elapsed":425071,"internal_node_id":"0.0-4.0-0.20","subject_id":"60edab8a3f60c5904187ffc4","study_id":"6197b3f67c2b5cd3b6d9596a","session_id":"619bfbdfb346e215be1a2afd","condition":"full-information","relevant_dimensions":["antennae","pattern"],"bee_group":{"antennae":"B","wings":"X","pattern":"D","legs":"X"},"action":"avoid","summary":"bad-avoid","bonus":1.1200000000000006},{"rt":2385.1999999284744,"stimulus":"\n                    <p><b>Action: <em>avoid</em></b></p>\n                    <p>This is the bee that you just saw.</p>\n                    <img src=\"bees-with-color/bee-B2SF.svg\" width=\"200\">\n                    <p><span class=\"redText\">Bad choice,</span> the bee was friendly.<br>Your bonus pay is unchanged, and remains at $0.68.</p>\n            ","response":0,"trial_type":"html-button-response","trial_index":48,"time_elapsed":427458,"internal_node_id":"0.0-4.0-1.20","subject_id":"60edab8a3f60c5904187ffc4","study_id":"6197b3f67c2b5cd3b6d9596a","session_id":"619bfbdfb346e215be1a2afd","condition":"full-information","relevant_dimensions":["antennae","pattern"],"bee_group":{"antennae":"B","wings":"X","pattern":"D","legs":"X"},"bonus":1.1200000000000006},{"rt":1713.6000000238419,"stimulus":"bees-with-color/bee-A2DF.svg","response":1,"trial_type":"image-button-response","trial_index":49,"time_elapsed":429172,"internal_node_id":"0.0-4.0-0.21","subject_id":"60edab8a3f60c5904187ffc4","study_id":"6197b3f67c2b5cd3b6d9596a","session_id":"619bfbdfb346e215be1a2afd","condition":"full-information","relevant_dimensions":["antennae","pattern"],"bee_group":{"antennae":"B","wings":"X","pattern":"D","legs":"X"},"action":"avoid","summary":"bad-avoid","bonus":1.1200000000000006},{"rt":1092.9000000953674,"stimulus":"\n                    <p><b>Action: <em>avoid</em></b></p>\n                    <p>This is the bee that you just saw.</p>\n                    <img src=\"bees-with-color/bee-A2DF.svg\" width=\"200\">\n                    <p><span class=\"redText\">Bad choice,</span> the bee was friendly.<br>Your bonus pay is unchanged, and remains at $0.68.</p>\n            ","response":0,"trial_type":"html-button-response","trial_index":50,"time_elapsed":430267,"internal_node_id":"0.0-4.0-1.21","subject_id":"60edab8a3f60c5904187ffc4","study_id":"6197b3f67c2b5cd3b6d9596a","session_id":"619bfbdfb346e215be1a2afd","condition":"full-information","relevant_dimensions":["antennae","pattern"],"bee_group":{"antennae":"B","wings":"X","pattern":"D","legs":"X"},"bonus":1.1200000000000006},{"rt":987,"stimulus":"bees-with-color/bee-B2DM.svg","response":0,"trial_type":"image-button-response","trial_index":51,"time_elapsed":431255,"internal_node_id":"0.0-4.0-0.22","subject_id":"60edab8a3f60c5904187ffc4","study_id":"6197b3f67c2b5cd3b6d9596a","session_id":"619bfbdfb346e215be1a2afd","condition":"full-information","relevant_dimensions":["antennae","pattern"],"bee_group":{"antennae":"B","wings":"X","pattern":"D","legs":"X"},"action":"harvest","summary":"bad-harvest","bonus":1.1200000000000006},{"rt":2308.899999976158,"stimulus":"\n                    <p><b>Action: <em>harvest</em></b></p>\n                    <p>This is the bee that you just saw.</p>\n                    <img src=\"bees-with-color/bee-B2DM.svg\" width=\"200\">\n                    <p><span class=\"redText\">Bad choice, the bee was angry.</span><br><b>You have been stung!</b><br>Your pay has been decreased by $0.10. Your bonus pay is now $0.58.</p>\n            ","response":0,"trial_type":"html-button-response","trial_index":52,"time_elapsed":433565,"internal_node_id":"0.0-4.0-1.22","subject_id":"60edab8a3f60c5904187ffc4","study_id":"6197b3f67c2b5cd3b6d9596a","session_id":"619bfbdfb346e215be1a2afd","condition":"full-information","relevant_dimensions":["antennae","pattern"],"bee_group":{"antennae":"B","wings":"X","pattern":"D","legs":"X"},"bonus":1.1200000000000006},{"rt":1403.6999999284744,"stimulus":"bees-with-color/bee-A2DM.svg","response":0,"trial_type":"image-button-response","trial_index":53,"time_elapsed":434970,"internal_node_id":"0.0-4.0-0.23","subject_id":"60edab8a3f60c5904187ffc4","study_id":"6197b3f67c2b5cd3b6d9596a","session_id":"619bfbdfb346e215be1a2afd","condition":"full-information","relevant_dimensions":["antennae","pattern"],"bee_group":{"antennae":"B","wings":"X","pattern":"D","legs":"X"},"action":"harvest","summary":"good-harvest","bonus":1.1200000000000006},{"rt":1483,"stimulus":"\n                    <p><b>Action: <em>harvest</em></b></p>\n                    <p>This is the bee that you just saw.</p>\n                    <img src=\"bees-with-color/bee-A2DM.svg\" width=\"200\">\n                    <p><span class=\"greenText\"><b>Successful harvest!</b></span><br>Your pay has increased by $0.02. Your bonus pay is now $0.60.</p>\n            ","response":0,"trial_type":"html-button-response","trial_index":54,"time_elapsed":436454,"internal_node_id":"0.0-4.0-1.23","subject_id":"60edab8a3f60c5904187ffc4","study_id":"6197b3f67c2b5cd3b6d9596a","session_id":"619bfbdfb346e215be1a2afd","condition":"full-information","relevant_dimensions":["antennae","pattern"],"bee_group":{"antennae":"B","wings":"X","pattern":"D","legs":"X"},"bonus":1.1200000000000006},{"rt":1161.6000000238419,"stimulus":"bees-with-color/bee-B1DF.svg","response":1,"trial_type":"image-button-response","trial_index":55,"time_elapsed":437616,"internal_node_id":"0.0-4.0-0.24","subject_id":"60edab8a3f60c5904187ffc4","study_id":"6197b3f67c2b5cd3b6d9596a","session_id":"619bfbdfb346e215be1a2afd","condition":"full-information","relevant_dimensions":["antennae","pattern"],"bee_group":{"antennae":"B","wings":"X","pattern":"D","legs":"X"},"action":"avoid","summary":"good-avoid","bonus":1.1200000000000006},{"rt":1264.8999999761581,"stimulus":"\n                    <p><b>Action: <em>avoid</em></b></p>\n                    <p>This is the bee that you just saw.</p>\n                    <img src=\"bees-with-color/bee-B1DF.svg\" width=\"200\">\n                    <p><span class=\"greenText\">Good choice!</span>  This bee would have stung you.<br>Your bonus pay is unchanged, and remains at $0.60.</p>\n            ","response":0,"trial_type":"html-button-response","trial_index":56,"time_elapsed":438883,"internal_node_id":"0.0-4.0-1.24","subject_id":"60edab8a3f60c5904187ffc4","study_id":"6197b3f67c2b5cd3b6d9596a","session_id":"619bfbdfb346e215be1a2afd","condition":"full-information","relevant_dimensions":["antennae","pattern"],"bee_group":{"antennae":"B","wings":"X","pattern":"D","legs":"X"},"bonus":1.1200000000000006},{"rt":1490.8000000715256,"stimulus":"bees-with-color/bee-A1SM.svg","response":0,"trial_type":"image-button-response","trial_index":57,"time_elapsed":440375,"internal_node_id":"0.0-4.0-0.25","subject_id":"60edab8a3f60c5904187ffc4","study_id":"6197b3f67c2b5cd3b6d9596a","session_id":"619bfbdfb346e215be1a2afd","condition":"full-information","relevant_dimensions":["antennae","pattern"],"bee_group":{"antennae":"B","wings":"X","pattern":"D","legs":"X"},"action":"harvest","summary":"good-harvest","bonus":1.1200000000000006},{"rt":2425.600000023842,"stimulus":"\n                    <p><b>Action: <em>harvest</em></b></p>\n                    <p>This is the bee that you just saw.</p>\n                    <img src=\"bees-with-color/bee-A1SM.svg\" width=\"200\">\n                    <p><span class=\"greenText\"><b>Successful harvest!</b></span><br>Your pay has increased by $0.02. Your bonus pay is now $0.62.</p>\n            ","response":0,"trial_type":"html-button-response","trial_index":58,"time_elapsed":442802,"internal_node_id":"0.0-4.0-1.25","subject_id":"60edab8a3f60c5904187ffc4","study_id":"6197b3f67c2b5cd3b6d9596a","session_id":"619bfbdfb346e215be1a2afd","condition":"full-information","relevant_dimensions":["antennae","pattern"],"bee_group":{"antennae":"B","wings":"X","pattern":"D","legs":"X"},"bonus":1.1200000000000006},{"rt":1879.3000000715256,"stimulus":"bees-with-color/bee-A1SF.svg","response":1,"trial_type":"image-button-response","trial_index":59,"time_elapsed":444683,"internal_node_id":"0.0-4.0-0.26","subject_id":"60edab8a3f60c5904187ffc4","study_id":"6197b3f67c2b5cd3b6d9596a","session_id":"619bfbdfb346e215be1a2afd","condition":"full-information","relevant_dimensions":["antennae","pattern"],"bee_group":{"antennae":"B","wings":"X","pattern":"D","legs":"X"},"action":"avoid","summary":"bad-avoid","bonus":1.1200000000000006},{"rt":964.6000000238419,"stimulus":"\n                    <p><b>Action: <em>avoid</em></b></p>\n                    <p>This is the bee that you just saw.</p>\n                    <img src=\"bees-with-color/bee-A1SF.svg\" width=\"200\">\n                    <p><span class=\"redText\">Bad choice,</span> the bee was friendly.<br>Your bonus pay is unchanged, and remains at $0.62.</p>\n            ","response":0,"trial_type":"html-button-response","trial_index":60,"time_elapsed":445649,"internal_node_id":"0.0-4.0-1.26","subject_id":"60edab8a3f60c5904187ffc4","study_id":"6197b3f67c2b5cd3b6d9596a","session_id":"619bfbdfb346e215be1a2afd","condition":"full-information","relevant_dimensions":["antennae","pattern"],"bee_group":{"antennae":"B","wings":"X","pattern":"D","legs":"X"},"bonus":1.1200000000000006},{"rt":1242.8999999761581,"stimulus":"bees-with-color/bee-A2SF.svg","response":0,"trial_type":"image-button-response","trial_index":61,"time_elapsed":446893,"internal_node_id":"0.0-4.0-0.27","subject_id":"60edab8a3f60c5904187ffc4","study_id":"6197b3f67c2b5cd3b6d9596a","session_id":"619bfbdfb346e215be1a2afd","condition":"full-information","relevant_dimensions":["antennae","pattern"],"bee_group":{"antennae":"B","wings":"X","pattern":"D","legs":"X"},"action":"harvest","summary":"good-harvest","bonus":1.1200000000000006},{"rt":1447.8999999761581,"stimulus":"\n                    <p><b>Action: <em>harvest</em></b></p>\n                    <p>This is the bee that you just saw.</p>\n                    <img src=\"bees-with-color/bee-A2SF.svg\" width=\"200\">\n                    <p><span class=\"greenText\"><b>Successful harvest!</b></span><br>Your pay has increased by $0.02. Your bonus pay is now $0.64.</p>\n            ","response":0,"trial_type":"html-button-response","trial_index":62,"time_elapsed":448342,"internal_node_id":"0.0-4.0-1.27","subject_id":"60edab8a3f60c5904187ffc4","study_id":"6197b3f67c2b5cd3b6d9596a","session_id":"619bfbdfb346e215be1a2afd","condition":"full-information","relevant_dimensions":["antennae","pattern"],"bee_group":{"antennae":"B","wings":"X","pattern":"D","legs":"X"},"bonus":1.1200000000000006},{"rt":993.9000000953674,"stimulus":"bees-with-color/bee-B1SM.svg","response":1,"trial_type":"image-button-response","trial_index":63,"time_elapsed":449336,"internal_node_id":"0.0-4.0-0.28","subject_id":"60edab8a3f60c5904187ffc4","study_id":"6197b3f67c2b5cd3b6d9596a","session_id":"619bfbdfb346e215be1a2afd","condition":"full-information","relevant_dimensions":["antennae","pattern"],"bee_group":{"antennae":"B","wings":"X","pattern":"D","legs":"X"},"action":"avoid","summary":"bad-avoid","bonus":1.1200000000000006},{"rt":893.0999999046326,"stimulus":"\n                    <p><b>Action: <em>avoid</em></b></p>\n                    <p>This is the bee that you just saw.</p>\n                    <img src=\"bees-with-color/bee-B1SM.svg\" width=\"200\">\n                    <p><span class=\"redText\">Bad choice,</span> the bee was friendly.<br>Your bonus pay is unchanged, and remains at $0.64.</p>\n            ","response":0,"trial_type":"html-button-response","trial_index":64,"time_elapsed":450230,"internal_node_id":"0.0-4.0-1.28","subject_id":"60edab8a3f60c5904187ffc4","study_id":"6197b3f67c2b5cd3b6d9596a","session_id":"619bfbdfb346e215be1a2afd","condition":"full-information","relevant_dimensions":["antennae","pattern"],"bee_group":{"antennae":"B","wings":"X","pattern":"D","legs":"X"},"bonus":1.1200000000000006},{"rt":1161.0999999046326,"stimulus":"bees-with-color/bee-B2DF.svg","response":1,"trial_type":"image-button-response","trial_index":65,"time_elapsed":451392,"internal_node_id":"0.0-4.0-0.29","subject_id":"60edab8a3f60c5904187ffc4","study_id":"6197b3f67c2b5cd3b6d9596a","session_id":"619bfbdfb346e215be1a2afd","condition":"full-information","relevant_dimensions":["antennae","pattern"],"bee_group":{"antennae":"B","wings":"X","pattern":"D","legs":"X"},"action":"avoid","summary":"good-avoid","bonus":1.1200000000000006},{"rt":1062,"stimulus":"\n                    <p><b>Action: <em>avoid</em></b></p>\n                    <p>This is the bee that you just saw.</p>\n                    <img src=\"bees-with-color/bee-B2DF.svg\" width=\"200\">\n                    <p><span class=\"greenText\">Good choice!</span>  This bee would have stung you.<br>Your bonus pay is unchanged, and remains at $0.64.</p>\n            ","response":0,"trial_type":"html-button-response","trial_index":66,"time_elapsed":452456,"internal_node_id":"0.0-4.0-1.29","subject_id":"60edab8a3f60c5904187ffc4","study_id":"6197b3f67c2b5cd3b6d9596a","session_id":"619bfbdfb346e215be1a2afd","condition":"full-information","relevant_dimensions":["antennae","pattern"],"bee_group":{"antennae":"B","wings":"X","pattern":"D","legs":"X"},"bonus":1.1200000000000006},{"rt":907.9000000953674,"stimulus":"bees-with-color/bee-A2SM.svg","response":0,"trial_type":"image-button-response","trial_index":67,"time_elapsed":453364,"internal_node_id":"0.0-4.0-0.30","subject_id":"60edab8a3f60c5904187ffc4","study_id":"6197b3f67c2b5cd3b6d9596a","session_id":"619bfbdfb346e215be1a2afd","condition":"full-information","relevant_dimensions":["antennae","pattern"],"bee_group":{"antennae":"B","wings":"X","pattern":"D","legs":"X"},"action":"harvest","summary":"good-harvest","bonus":1.1200000000000006},{"rt":967.0999999046326,"stimulus":"\n                    <p><b>Action: <em>harvest</em></b></p>\n                    <p>This is the bee that you just saw.</p>\n                    <img src=\"bees-with-color/bee-A2SM.svg\" width=\"200\">\n                    <p><span class=\"greenText\"><b>Successful harvest!</b></span><br>Your pay has increased by $0.02. Your bonus pay is now $0.66.</p>\n            ","response":0,"trial_type":"html-button-response","trial_index":68,"time_elapsed":454333,"internal_node_id":"0.0-4.0-1.30","subject_id":"60edab8a3f60c5904187ffc4","study_id":"6197b3f67c2b5cd3b6d9596a","session_id":"619bfbdfb346e215be1a2afd","condition":"full-information","relevant_dimensions":["antennae","pattern"],"bee_group":{"antennae":"B","wings":"X","pattern":"D","legs":"X"},"bonus":1.1200000000000006},{"rt":1509.9000000953674,"stimulus":"bees-with-color/bee-A1DF.svg","response":0,"trial_type":"image-button-response","trial_index":69,"time_elapsed":455843,"internal_node_id":"0.0-4.0-0.31","subject_id":"60edab8a3f60c5904187ffc4","study_id":"6197b3f67c2b5cd3b6d9596a","session_id":"619bfbdfb346e215be1a2afd","condition":"full-information","relevant_dimensions":["antennae","pattern"],"bee_group":{"antennae":"B","wings":"X","pattern":"D","legs":"X"},"action":"harvest","summary":"good-harvest","bonus":1.1200000000000006},{"rt":971.9000000953674,"stimulus":"\n                    <p><b>Action: <em>harvest</em></b></p>\n                    <p>This is the bee that you just saw.</p>\n                    <img src=\"bees-with-color/bee-A1DF.svg\" width=\"200\">\n                    <p><span class=\"greenText\"><b>Successful harvest!</b></span><br>Your pay has increased by $0.02. Your bonus pay is now $0.68.</p>\n            ","response":0,"trial_type":"html-button-response","trial_index":70,"time_elapsed":456816,"internal_node_id":"0.0-4.0-1.31","subject_id":"60edab8a3f60c5904187ffc4","study_id":"6197b3f67c2b5cd3b6d9596a","session_id":"619bfbdfb346e215be1a2afd","condition":"full-information","relevant_dimensions":["antennae","pattern"],"bee_group":{"antennae":"B","wings":"X","pattern":"D","legs":"X"},"bonus":1.1200000000000006},{"rt":872,"stimulus":"bees-with-color/bee-B1SF.svg","response":1,"trial_type":"image-button-response","trial_index":71,"time_elapsed":457689,"internal_node_id":"0.0-4.0-0.32","subject_id":"60edab8a3f60c5904187ffc4","study_id":"6197b3f67c2b5cd3b6d9596a","session_id":"619bfbdfb346e215be1a2afd","condition":"full-information","relevant_dimensions":["antennae","pattern"],"bee_group":{"antennae":"B","wings":"X","pattern":"D","legs":"X"},"action":"avoid","summary":"bad-avoid","bonus":1.1200000000000006},{"rt":870,"stimulus":"\n                    <p><b>Action: <em>avoid</em></b></p>\n                    <p>This is the bee that you just saw.</p>\n                    <img src=\"bees-with-color/bee-B1SF.svg\" width=\"200\">\n                    <p><span class=\"redText\">Bad choice,</span> the bee was friendly.<br>Your bonus pay is unchanged, and remains at $0.68.</p>\n            ","response":0,"trial_type":"html-button-response","trial_index":72,"time_elapsed":458561,"internal_node_id":"0.0-4.0-1.32","subject_id":"60edab8a3f60c5904187ffc4","study_id":"6197b3f67c2b5cd3b6d9596a","session_id":"619bfbdfb346e215be1a2afd","condition":"full-information","relevant_dimensions":["antennae","pattern"],"bee_group":{"antennae":"B","wings":"X","pattern":"D","legs":"X"},"bonus":1.1200000000000006},{"rt":762.7000000476837,"stimulus":"bees-with-color/bee-A2DM.svg","response":1,"trial_type":"image-button-response","trial_index":73,"time_elapsed":459324,"internal_node_id":"0.0-4.0-0.33","subject_id":"60edab8a3f60c5904187ffc4","study_id":"6197b3f67c2b5cd3b6d9596a","session_id":"619bfbdfb346e215be1a2afd","condition":"full-information","relevant_dimensions":["antennae","pattern"],"bee_group":{"antennae":"B","wings":"X","pattern":"D","legs":"X"},"action":"avoid","summary":"bad-avoid","bonus":1.1200000000000006},{"rt":662.9000000953674,"stimulus":"\n                    <p><b>Action: <em>avoid</em></b></p>\n                    <p>This is the bee that you just saw.</p>\n                    <img src=\"bees-with-color/bee-A2DM.svg\" width=\"200\">\n                    <p><span class=\"redText\">Bad choice,</span> the bee was friendly.<br>Your bonus pay is unchanged, and remains at $0.68.</p>\n            ","response":0,"trial_type":"html-button-response","trial_index":74,"time_elapsed":459988,"internal_node_id":"0.0-4.0-1.33","subject_id":"60edab8a3f60c5904187ffc4","study_id":"6197b3f67c2b5cd3b6d9596a","session_id":"619bfbdfb346e215be1a2afd","condition":"full-information","relevant_dimensions":["antennae","pattern"],"bee_group":{"antennae":"B","wings":"X","pattern":"D","legs":"X"},"bonus":1.1200000000000006},{"rt":725.8000000715256,"stimulus":"bees-with-color/bee-B1DF.svg","response":1,"trial_type":"image-button-response","trial_index":75,"time_elapsed":460715,"internal_node_id":"0.0-4.0-0.34","subject_id":"60edab8a3f60c5904187ffc4","study_id":"6197b3f67c2b5cd3b6d9596a","session_id":"619bfbdfb346e215be1a2afd","condition":"full-information","relevant_dimensions":["antennae","pattern"],"bee_group":{"antennae":"B","wings":"X","pattern":"D","legs":"X"},"action":"avoid","summary":"good-avoid","bonus":1.1200000000000006},{"rt":1124.9000000953674,"stimulus":"\n                    <p><b>Action: <em>avoid</em></b></p>\n                    <p>This is the bee that you just saw.</p>\n                    <img src=\"bees-with-color/bee-B1DF.svg\" width=\"200\">\n                    <p><span class=\"greenText\">Good choice!</span>  This bee would have stung you.<br>Your bonus pay is unchanged, and remains at $0.68.</p>\n            ","response":0,"trial_type":"html-button-response","trial_index":76,"time_elapsed":461842,"internal_node_id":"0.0-4.0-1.34","subject_id":"60edab8a3f60c5904187ffc4","study_id":"6197b3f67c2b5cd3b6d9596a","session_id":"619bfbdfb346e215be1a2afd","condition":"full-information","relevant_dimensions":["antennae","pattern"],"bee_group":{"antennae":"B","wings":"X","pattern":"D","legs":"X"},"bonus":1.1200000000000006},{"rt":825.6999999284744,"stimulus":"bees-with-color/bee-B1SM.svg","response":0,"trial_type":"image-button-response","trial_index":77,"time_elapsed":462669,"internal_node_id":"0.0-4.0-0.35","subject_id":"60edab8a3f60c5904187ffc4","study_id":"6197b3f67c2b5cd3b6d9596a","session_id":"619bfbdfb346e215be1a2afd","condition":"full-information","relevant_dimensions":["antennae","pattern"],"bee_group":{"antennae":"B","wings":"X","pattern":"D","legs":"X"},"action":"harvest","summary":"good-harvest","bonus":1.1200000000000006},{"rt":960.8999999761581,"stimulus":"\n                    <p><b>Action: <em>harvest</em></b></p>\n                    <p>This is the bee that you just saw.</p>\n                    <img src=\"bees-with-color/bee-B1SM.svg\" width=\"200\">\n                    <p><span class=\"greenText\"><b>Successful harvest!</b></span><br>Your pay has increased by $0.02. Your bonus pay is now $0.70.</p>\n            ","response":0,"trial_type":"html-button-response","trial_index":78,"time_elapsed":463631,"internal_node_id":"0.0-4.0-1.35","subject_id":"60edab8a3f60c5904187ffc4","study_id":"6197b3f67c2b5cd3b6d9596a","session_id":"619bfbdfb346e215be1a2afd","condition":"full-information","relevant_dimensions":["antennae","pattern"],"bee_group":{"antennae":"B","wings":"X","pattern":"D","legs":"X"},"bonus":1.1200000000000006},{"rt":4569.900000095367,"stimulus":"bees-with-color/bee-A2SF.svg","response":0,"trial_type":"image-button-response","trial_index":79,"time_elapsed":468201,"internal_node_id":"0.0-4.0-0.36","subject_id":"60edab8a3f60c5904187ffc4","study_id":"6197b3f67c2b5cd3b6d9596a","session_id":"619bfbdfb346e215be1a2afd","condition":"full-information","relevant_dimensions":["antennae","pattern"],"bee_group":{"antennae":"B","wings":"X","pattern":"D","legs":"X"},"action":"harvest","summary":"good-harvest","bonus":1.1200000000000006},{"rt":1159,"stimulus":"\n                    <p><b>Action: <em>harvest</em></b></p>\n                    <p>This is the bee that you just saw.</p>\n                    <img src=\"bees-with-color/bee-A2SF.svg\" width=\"200\">\n                    <p><span class=\"greenText\"><b>Successful harvest!</b></span><br>Your pay has increased by $0.02. Your bonus pay is now $0.72.</p>\n            ","response":0,"trial_type":"html-button-response","trial_index":80,"time_elapsed":469362,"internal_node_id":"0.0-4.0-1.36","subject_id":"60edab8a3f60c5904187ffc4","study_id":"6197b3f67c2b5cd3b6d9596a","session_id":"619bfbdfb346e215be1a2afd","condition":"full-information","relevant_dimensions":["antennae","pattern"],"bee_group":{"antennae":"B","wings":"X","pattern":"D","legs":"X"},"bonus":1.1200000000000006},{"rt":1476.7000000476837,"stimulus":"bees-with-color/bee-A1SM.svg","response":0,"trial_type":"image-button-response","trial_index":81,"time_elapsed":470839,"internal_node_id":"0.0-4.0-0.37","subject_id":"60edab8a3f60c5904187ffc4","study_id":"6197b3f67c2b5cd3b6d9596a","session_id":"619bfbdfb346e215be1a2afd","condition":"full-information","relevant_dimensions":["antennae","pattern"],"bee_group":{"antennae":"B","wings":"X","pattern":"D","legs":"X"},"action":"harvest","summary":"good-harvest","bonus":1.1200000000000006},{"rt":1090.9000000953674,"stimulus":"\n                    <p><b>Action: <em>harvest</em></b></p>\n                    <p>This is the bee that you just saw.</p>\n                    <img src=\"bees-with-color/bee-A1SM.svg\" width=\"200\">\n                    <p><span class=\"greenText\"><b>Successful harvest!</b></span><br>Your pay has increased by $0.02. Your bonus pay is now $0.74.</p>\n            ","response":0,"trial_type":"html-button-response","trial_index":82,"time_elapsed":471931,"internal_node_id":"0.0-4.0-1.37","subject_id":"60edab8a3f60c5904187ffc4","study_id":"6197b3f67c2b5cd3b6d9596a","session_id":"619bfbdfb346e215be1a2afd","condition":"full-information","relevant_dimensions":["antennae","pattern"],"bee_group":{"antennae":"B","wings":"X","pattern":"D","legs":"X"},"bonus":1.1200000000000006},{"rt":1004.8000000715256,"stimulus":"bees-with-color/bee-B1DM.svg","response":1,"trial_type":"image-button-response","trial_index":83,"time_elapsed":472937,"internal_node_id":"0.0-4.0-0.38","subject_id":"60edab8a3f60c5904187ffc4","study_id":"6197b3f67c2b5cd3b6d9596a","session_id":"619bfbdfb346e215be1a2afd","condition":"full-information","relevant_dimensions":["antennae","pattern"],"bee_group":{"antennae":"B","wings":"X","pattern":"D","legs":"X"},"action":"avoid","summary":"good-avoid","bonus":1.1200000000000006},{"rt":1369.0999999046326,"stimulus":"\n                    <p><b>Action: <em>avoid</em></b></p>\n                    <p>This is the bee that you just saw.</p>\n                    <img src=\"bees-with-color/bee-B1DM.svg\" width=\"200\">\n                    <p><span class=\"greenText\">Good choice!</span>  This bee would have stung you.<br>Your bonus pay is unchanged, and remains at $0.74.</p>\n            ","response":0,"trial_type":"html-button-response","trial_index":84,"time_elapsed":474308,"internal_node_id":"0.0-4.0-1.38","subject_id":"60edab8a3f60c5904187ffc4","study_id":"6197b3f67c2b5cd3b6d9596a","session_id":"619bfbdfb346e215be1a2afd","condition":"full-information","relevant_dimensions":["antennae","pattern"],"bee_group":{"antennae":"B","wings":"X","pattern":"D","legs":"X"},"bonus":1.1200000000000006},{"rt":1042.8000000715256,"stimulus":"bees-with-color/bee-A2DF.svg","response":0,"trial_type":"image-button-response","trial_index":85,"time_elapsed":475351,"internal_node_id":"0.0-4.0-0.39","subject_id":"60edab8a3f60c5904187ffc4","study_id":"6197b3f67c2b5cd3b6d9596a","session_id":"619bfbdfb346e215be1a2afd","condition":"full-information","relevant_dimensions":["antennae","pattern"],"bee_group":{"antennae":"B","wings":"X","pattern":"D","legs":"X"},"action":"harvest","summary":"good-harvest","bonus":1.1200000000000006},{"rt":1010.8999999761581,"stimulus":"\n                    <p><b>Action: <em>harvest</em></b></p>\n                    <p>This is the bee that you just saw.</p>\n                    <img src=\"bees-with-color/bee-A2DF.svg\" width=\"200\">\n                    <p><span class=\"greenText\"><b>Successful harvest!</b></span><br>Your pay has increased by $0.02. Your bonus pay is now $0.76.</p>\n            ","response":0,"trial_type":"html-button-response","trial_index":86,"time_elapsed":476363,"internal_node_id":"0.0-4.0-1.39","subject_id":"60edab8a3f60c5904187ffc4","study_id":"6197b3f67c2b5cd3b6d9596a","session_id":"619bfbdfb346e215be1a2afd","condition":"full-information","relevant_dimensions":["antennae","pattern"],"bee_group":{"antennae":"B","wings":"X","pattern":"D","legs":"X"},"bonus":1.1200000000000006},{"rt":5335.100000023842,"stimulus":"bees-with-color/bee-A1DM.svg","response":0,"trial_type":"image-button-response","trial_index":87,"time_elapsed":481699,"internal_node_id":"0.0-4.0-0.40","subject_id":"60edab8a3f60c5904187ffc4","study_id":"6197b3f67c2b5cd3b6d9596a","session_id":"619bfbdfb346e215be1a2afd","condition":"full-information","relevant_dimensions":["antennae","pattern"],"bee_group":{"antennae":"B","wings":"X","pattern":"D","legs":"X"},"action":"harvest","summary":"good-harvest","bonus":1.1200000000000006},{"rt":1040,"stimulus":"\n                    <p><b>Action: <em>harvest</em></b></p>\n                    <p>This is the bee that you just saw.</p>\n                    <img src=\"bees-with-color/bee-A1DM.svg\" width=\"200\">\n                    <p><span class=\"greenText\"><b>Successful harvest!</b></span><br>Your pay has increased by $0.02. Your bonus pay is now $0.78.</p>\n            ","response":0,"trial_type":"html-button-response","trial_index":88,"time_elapsed":482741,"internal_node_id":"0.0-4.0-1.40","subject_id":"60edab8a3f60c5904187ffc4","study_id":"6197b3f67c2b5cd3b6d9596a","session_id":"619bfbdfb346e215be1a2afd","condition":"full-information","relevant_dimensions":["antennae","pattern"],"bee_group":{"antennae":"B","wings":"X","pattern":"D","legs":"X"},"bonus":1.1200000000000006},{"rt":1374.6000000238419,"stimulus":"bees-with-color/bee-A1DF.svg","response":1,"trial_type":"image-button-response","trial_index":89,"time_elapsed":484117,"internal_node_id":"0.0-4.0-0.41","subject_id":"60edab8a3f60c5904187ffc4","study_id":"6197b3f67c2b5cd3b6d9596a","session_id":"619bfbdfb346e215be1a2afd","condition":"full-information","relevant_dimensions":["antennae","pattern"],"bee_group":{"antennae":"B","wings":"X","pattern":"D","legs":"X"},"action":"avoid","summary":"bad-avoid","bonus":1.1200000000000006},{"rt":853.9000000953674,"stimulus":"\n                    <p><b>Action: <em>avoid</em></b></p>\n                    <p>This is the bee that you just saw.</p>\n                    <img src=\"bees-with-color/bee-A1DF.svg\" width=\"200\">\n                    <p><span class=\"redText\">Bad choice,</span> the bee was friendly.<br>Your bonus pay is unchanged, and remains at $0.78.</p>\n            ","response":0,"trial_type":"html-button-response","trial_index":90,"time_elapsed":484972,"internal_node_id":"0.0-4.0-1.41","subject_id":"60edab8a3f60c5904187ffc4","study_id":"6197b3f67c2b5cd3b6d9596a","session_id":"619bfbdfb346e215be1a2afd","condition":"full-information","relevant_dimensions":["antennae","pattern"],"bee_group":{"antennae":"B","wings":"X","pattern":"D","legs":"X"},"bonus":1.1200000000000006},{"rt":877.8000000715256,"stimulus":"bees-with-color/bee-B2DF.svg","response":1,"trial_type":"image-button-response","trial_index":91,"time_elapsed":485850,"internal_node_id":"0.0-4.0-0.42","subject_id":"60edab8a3f60c5904187ffc4","study_id":"6197b3f67c2b5cd3b6d9596a","session_id":"619bfbdfb346e215be1a2afd","condition":"full-information","relevant_dimensions":["antennae","pattern"],"bee_group":{"antennae":"B","wings":"X","pattern":"D","legs":"X"},"action":"avoid","summary":"good-avoid","bonus":1.1200000000000006},{"rt":1262.7000000476837,"stimulus":"\n                    <p><b>Action: <em>avoid</em></b></p>\n                    <p>This is the bee that you just saw.</p>\n                    <img src=\"bees-with-color/bee-B2DF.svg\" width=\"200\">\n                    <p><span class=\"greenText\">Good choice!</span>  This bee would have stung you.<br>Your bonus pay is unchanged, and remains at $0.78.</p>\n            ","response":0,"trial_type":"html-button-response","trial_index":92,"time_elapsed":487114,"internal_node_id":"0.0-4.0-1.42","subject_id":"60edab8a3f60c5904187ffc4","study_id":"6197b3f67c2b5cd3b6d9596a","session_id":"619bfbdfb346e215be1a2afd","condition":"full-information","relevant_dimensions":["antennae","pattern"],"bee_group":{"antennae":"B","wings":"X","pattern":"D","legs":"X"},"bonus":1.1200000000000006},{"rt":775,"stimulus":"bees-with-color/bee-A1SF.svg","response":0,"trial_type":"image-button-response","trial_index":93,"time_elapsed":487890,"internal_node_id":"0.0-4.0-0.43","subject_id":"60edab8a3f60c5904187ffc4","study_id":"6197b3f67c2b5cd3b6d9596a","session_id":"619bfbdfb346e215be1a2afd","condition":"full-information","relevant_dimensions":["antennae","pattern"],"bee_group":{"antennae":"B","wings":"X","pattern":"D","legs":"X"},"action":"harvest","summary":"good-harvest","bonus":1.1200000000000006},{"rt":988.8000000715256,"stimulus":"\n                    <p><b>Action: <em>harvest</em></b></p>\n                    <p>This is the bee that you just saw.</p>\n                    <img src=\"bees-with-color/bee-A1SF.svg\" width=\"200\">\n                    <p><span class=\"greenText\"><b>Successful harvest!</b></span><br>Your pay has increased by $0.02. Your bonus pay is now $0.80.</p>\n            ","response":0,"trial_type":"html-button-response","trial_index":94,"time_elapsed":488881,"internal_node_id":"0.0-4.0-1.43","subject_id":"60edab8a3f60c5904187ffc4","study_id":"6197b3f67c2b5cd3b6d9596a","session_id":"619bfbdfb346e215be1a2afd","condition":"full-information","relevant_dimensions":["antennae","pattern"],"bee_group":{"antennae":"B","wings":"X","pattern":"D","legs":"X"},"bonus":1.1200000000000006},{"rt":1002.8000000715256,"stimulus":"bees-with-color/bee-B2SF.svg","response":1,"trial_type":"image-button-response","trial_index":95,"time_elapsed":489884,"internal_node_id":"0.0-4.0-0.44","subject_id":"60edab8a3f60c5904187ffc4","study_id":"6197b3f67c2b5cd3b6d9596a","session_id":"619bfbdfb346e215be1a2afd","condition":"full-information","relevant_dimensions":["antennae","pattern"],"bee_group":{"antennae":"B","wings":"X","pattern":"D","legs":"X"},"action":"avoid","summary":"bad-avoid","bonus":1.1200000000000006},{"rt":1042.7000000476837,"stimulus":"\n                    <p><b>Action: <em>avoid</em></b></p>\n                    <p>This is the bee that you just saw.</p>\n                    <img src=\"bees-with-color/bee-B2SF.svg\" width=\"200\">\n                    <p><span class=\"redText\">Bad choice,</span> the bee was friendly.<br>Your bonus pay is unchanged, and remains at $0.80.</p>\n            ","response":0,"trial_type":"html-button-response","trial_index":96,"time_elapsed":490928,"internal_node_id":"0.0-4.0-1.44","subject_id":"60edab8a3f60c5904187ffc4","study_id":"6197b3f67c2b5cd3b6d9596a","session_id":"619bfbdfb346e215be1a2afd","condition":"full-information","relevant_dimensions":["antennae","pattern"],"bee_group":{"antennae":"B","wings":"X","pattern":"D","legs":"X"},"bonus":1.1200000000000006},{"rt":1082.0999999046326,"stimulus":"bees-with-color/bee-B2DM.svg","response":1,"trial_type":"image-button-response","trial_index":97,"time_elapsed":492012,"internal_node_id":"0.0-4.0-0.45","subject_id":"60edab8a3f60c5904187ffc4","study_id":"6197b3f67c2b5cd3b6d9596a","session_id":"619bfbdfb346e215be1a2afd","condition":"full-information","relevant_dimensions":["antennae","pattern"],"bee_group":{"antennae":"B","wings":"X","pattern":"D","legs":"X"},"action":"avoid","summary":"good-avoid","bonus":1.1200000000000006},{"rt":1232.8000000715256,"stimulus":"\n                    <p><b>Action: <em>avoid</em></b></p>\n                    <p>This is the bee that you just saw.</p>\n                    <img src=\"bees-with-color/bee-B2DM.svg\" width=\"200\">\n                    <p><span class=\"greenText\">Good choice!</span>  This bee would have stung you.<br>Your bonus pay is unchanged, and remains at $0.80.</p>\n            ","response":0,"trial_type":"html-button-response","trial_index":98,"time_elapsed":493245,"internal_node_id":"0.0-4.0-1.45","subject_id":"60edab8a3f60c5904187ffc4","study_id":"6197b3f67c2b5cd3b6d9596a","session_id":"619bfbdfb346e215be1a2afd","condition":"full-information","relevant_dimensions":["antennae","pattern"],"bee_group":{"antennae":"B","wings":"X","pattern":"D","legs":"X"},"bonus":1.1200000000000006},{"rt":1063.1000000238419,"stimulus":"bees-with-color/bee-B2SM.svg","response":0,"trial_type":"image-button-response","trial_index":99,"time_elapsed":494309,"internal_node_id":"0.0-4.0-0.46","subject_id":"60edab8a3f60c5904187ffc4","study_id":"6197b3f67c2b5cd3b6d9596a","session_id":"619bfbdfb346e215be1a2afd","condition":"full-information","relevant_dimensions":["antennae","pattern"],"bee_group":{"antennae":"B","wings":"X","pattern":"D","legs":"X"},"action":"harvest","summary":"good-harvest","bonus":1.1200000000000006},{"rt":893,"stimulus":"\n                    <p><b>Action: <em>harvest</em></b></p>\n                    <p>This is the bee that you just saw.</p>\n                    <img src=\"bees-with-color/bee-B2SM.svg\" width=\"200\">\n                    <p><span class=\"greenText\"><b>Successful harvest!</b></span><br>Your pay has increased by $0.02. Your bonus pay is now $0.82.</p>\n            ","response":0,"trial_type":"html-button-response","trial_index":100,"time_elapsed":495203,"internal_node_id":"0.0-4.0-1.46","subject_id":"60edab8a3f60c5904187ffc4","study_id":"6197b3f67c2b5cd3b6d9596a","session_id":"619bfbdfb346e215be1a2afd","condition":"full-information","relevant_dimensions":["antennae","pattern"],"bee_group":{"antennae":"B","wings":"X","pattern":"D","legs":"X"},"bonus":1.1200000000000006},{"rt":1609.9000000953674,"stimulus":"bees-with-color/bee-A2SM.svg","response":1,"trial_type":"image-button-response","trial_index":101,"time_elapsed":496814,"internal_node_id":"0.0-4.0-0.47","subject_id":"60edab8a3f60c5904187ffc4","study_id":"6197b3f67c2b5cd3b6d9596a","session_id":"619bfbdfb346e215be1a2afd","condition":"full-information","relevant_dimensions":["antennae","pattern"],"bee_group":{"antennae":"B","wings":"X","pattern":"D","legs":"X"},"action":"avoid","summary":"bad-avoid","bonus":1.1200000000000006},{"rt":968,"stimulus":"\n                    <p><b>Action: <em>avoid</em></b></p>\n                    <p>This is the bee that you just saw.</p>\n                    <img src=\"bees-with-color/bee-A2SM.svg\" width=\"200\">\n                    <p><span class=\"redText\">Bad choice,</span> the bee was friendly.<br>Your bonus pay is unchanged, and remains at $0.82.</p>\n            ","response":0,"trial_type":"html-button-response","trial_index":102,"time_elapsed":497783,"internal_node_id":"0.0-4.0-1.47","subject_id":"60edab8a3f60c5904187ffc4","study_id":"6197b3f67c2b5cd3b6d9596a","session_id":"619bfbdfb346e215be1a2afd","condition":"full-information","relevant_dimensions":["antennae","pattern"],"bee_group":{"antennae":"B","wings":"X","pattern":"D","legs":"X"},"bonus":1.1200000000000006},{"rt":1530.7000000476837,"stimulus":"bees-with-color/bee-A1SM.svg","response":0,"trial_type":"image-button-response","trial_index":103,"time_elapsed":499315,"internal_node_id":"0.0-4.0-0.48","subject_id":"60edab8a3f60c5904187ffc4","study_id":"6197b3f67c2b5cd3b6d9596a","session_id":"619bfbdfb346e215be1a2afd","condition":"full-information","relevant_dimensions":["antennae","pattern"],"bee_group":{"antennae":"B","wings":"X","pattern":"D","legs":"X"},"action":"harvest","summary":"good-harvest","bonus":1.1200000000000006},{"rt":1028.8999999761581,"stimulus":"\n                    <p><b>Action: <em>harvest</em></b></p>\n                    <p>This is the bee that you just saw.</p>\n                    <img src=\"bees-with-color/bee-A1SM.svg\" width=\"200\">\n                    <p><span class=\"greenText\"><b>Successful harvest!</b></span><br>Your pay has increased by $0.02. Your bonus pay is now $0.84.</p>\n            ","response":0,"trial_type":"html-button-response","trial_index":104,"time_elapsed":500345,"internal_node_id":"0.0-4.0-1.48","subject_id":"60edab8a3f60c5904187ffc4","study_id":"6197b3f67c2b5cd3b6d9596a","session_id":"619bfbdfb346e215be1a2afd","condition":"full-information","relevant_dimensions":["antennae","pattern"],"bee_group":{"antennae":"B","wings":"X","pattern":"D","legs":"X"},"bonus":1.1200000000000006},{"rt":2425.899999976158,"stimulus":"bees-with-color/bee-B2SM.svg","response":1,"trial_type":"image-button-response","trial_index":105,"time_elapsed":502773,"internal_node_id":"0.0-4.0-0.49","subject_id":"60edab8a3f60c5904187ffc4","study_id":"6197b3f67c2b5cd3b6d9596a","session_id":"619bfbdfb346e215be1a2afd","condition":"full-information","relevant_dimensions":["antennae","pattern"],"bee_group":{"antennae":"B","wings":"X","pattern":"D","legs":"X"},"action":"avoid","summary":"bad-avoid","bonus":1.1200000000000006},{"rt":1067.9000000953674,"stimulus":"\n                    <p><b>Action: <em>avoid</em></b></p>\n                    <p>This is the bee that you just saw.</p>\n                    <img src=\"bees-with-color/bee-B2SM.svg\" width=\"200\">\n                    <p><span class=\"redText\">Bad choice,</span> the bee was friendly.<br>Your bonus pay is unchanged, and remains at $0.84.</p>\n            ","response":0,"trial_type":"html-button-response","trial_index":106,"time_elapsed":503842,"internal_node_id":"0.0-4.0-1.49","subject_id":"60edab8a3f60c5904187ffc4","study_id":"6197b3f67c2b5cd3b6d9596a","session_id":"619bfbdfb346e215be1a2afd","condition":"full-information","relevant_dimensions":["antennae","pattern"],"bee_group":{"antennae":"B","wings":"X","pattern":"D","legs":"X"},"bonus":1.1200000000000006},{"rt":1107.6000000238419,"stimulus":"bees-with-color/bee-A1SF.svg","response":1,"trial_type":"image-button-response","trial_index":107,"time_elapsed":504951,"internal_node_id":"0.0-4.0-0.50","subject_id":"60edab8a3f60c5904187ffc4","study_id":"6197b3f67c2b5cd3b6d9596a","session_id":"619bfbdfb346e215be1a2afd","condition":"full-information","relevant_dimensions":["antennae","pattern"],"bee_group":{"antennae":"B","wings":"X","pattern":"D","legs":"X"},"action":"avoid","summary":"bad-avoid","bonus":1.1200000000000006},{"rt":883.7000000476837,"stimulus":"\n                    <p><b>Action: <em>avoid</em></b></p>\n                    <p>This is the bee that you just saw.</p>\n                    <img src=\"bees-with-color/bee-A1SF.svg\" width=\"200\">\n                    <p><span class=\"redText\">Bad choice,</span> the bee was friendly.<br>Your bonus pay is unchanged, and remains at $0.84.</p>\n            ","response":0,"trial_type":"html-button-response","trial_index":108,"time_elapsed":505835,"internal_node_id":"0.0-4.0-1.50","subject_id":"60edab8a3f60c5904187ffc4","study_id":"6197b3f67c2b5cd3b6d9596a","session_id":"619bfbdfb346e215be1a2afd","condition":"full-information","relevant_dimensions":["antennae","pattern"],"bee_group":{"antennae":"B","wings":"X","pattern":"D","legs":"X"},"bonus":1.1200000000000006},{"rt":1287.8000000715256,"stimulus":"bees-with-color/bee-A2DM.svg","response":1,"trial_type":"image-button-response","trial_index":109,"time_elapsed":507124,"internal_node_id":"0.0-4.0-0.51","subject_id":"60edab8a3f60c5904187ffc4","study_id":"6197b3f67c2b5cd3b6d9596a","session_id":"619bfbdfb346e215be1a2afd","condition":"full-information","relevant_dimensions":["antennae","pattern"],"bee_group":{"antennae":"B","wings":"X","pattern":"D","legs":"X"},"action":"avoid","summary":"bad-avoid","bonus":1.1200000000000006},{"rt":812.7000000476837,"stimulus":"\n                    <p><b>Action: <em>avoid</em></b></p>\n                    <p>This is the bee that you just saw.</p>\n                    <img src=\"bees-with-color/bee-A2DM.svg\" width=\"200\">\n                    <p><span class=\"redText\">Bad choice,</span> the bee was friendly.<br>Your bonus pay is unchanged, and remains at $0.84.</p>\n            ","response":0,"trial_type":"html-button-response","trial_index":110,"time_elapsed":507938,"internal_node_id":"0.0-4.0-1.51","subject_id":"60edab8a3f60c5904187ffc4","study_id":"6197b3f67c2b5cd3b6d9596a","session_id":"619bfbdfb346e215be1a2afd","condition":"full-information","relevant_dimensions":["antennae","pattern"],"bee_group":{"antennae":"B","wings":"X","pattern":"D","legs":"X"},"bonus":1.1200000000000006},{"rt":1188,"stimulus":"bees-with-color/bee-A1DF.svg","response":1,"trial_type":"image-button-response","trial_index":111,"time_elapsed":509128,"internal_node_id":"0.0-4.0-0.52","subject_id":"60edab8a3f60c5904187ffc4","study_id":"6197b3f67c2b5cd3b6d9596a","session_id":"619bfbdfb346e215be1a2afd","condition":"full-information","relevant_dimensions":["antennae","pattern"],"bee_group":{"antennae":"B","wings":"X","pattern":"D","legs":"X"},"action":"avoid","summary":"bad-avoid","bonus":1.1200000000000006},{"rt":776.5,"stimulus":"\n                    <p><b>Action: <em>avoid</em></b></p>\n                    <p>This is the bee that you just saw.</p>\n                    <img src=\"bees-with-color/bee-A1DF.svg\" width=\"200\">\n                    <p><span class=\"redText\">Bad choice,</span> the bee was friendly.<br>Your bonus pay is unchanged, and remains at $0.84.</p>\n            ","response":0,"trial_type":"html-button-response","trial_index":112,"time_elapsed":509905,"internal_node_id":"0.0-4.0-1.52","subject_id":"60edab8a3f60c5904187ffc4","study_id":"6197b3f67c2b5cd3b6d9596a","session_id":"619bfbdfb346e215be1a2afd","condition":"full-information","relevant_dimensions":["antennae","pattern"],"bee_group":{"antennae":"B","wings":"X","pattern":"D","legs":"X"},"bonus":1.1200000000000006},{"rt":1068.1000000238419,"stimulus":"bees-with-color/bee-B1DF.svg","response":1,"trial_type":"image-button-response","trial_index":113,"time_elapsed":510974,"internal_node_id":"0.0-4.0-0.53","subject_id":"60edab8a3f60c5904187ffc4","study_id":"6197b3f67c2b5cd3b6d9596a","session_id":"619bfbdfb346e215be1a2afd","condition":"full-information","relevant_dimensions":["antennae","pattern"],"bee_group":{"antennae":"B","wings":"X","pattern":"D","legs":"X"},"action":"avoid","summary":"good-avoid","bonus":1.1200000000000006},{"rt":1088.9000000953674,"stimulus":"\n                    <p><b>Action: <em>avoid</em></b></p>\n                    <p>This is the bee that you just saw.</p>\n                    <img src=\"bees-with-color/bee-B1DF.svg\" width=\"200\">\n                    <p><span class=\"greenText\">Good choice!</span>  This bee would have stung you.<br>Your bonus pay is unchanged, and remains at $0.84.</p>\n            ","response":0,"trial_type":"html-button-response","trial_index":114,"time_elapsed":512065,"internal_node_id":"0.0-4.0-1.53","subject_id":"60edab8a3f60c5904187ffc4","study_id":"6197b3f67c2b5cd3b6d9596a","session_id":"619bfbdfb346e215be1a2afd","condition":"full-information","relevant_dimensions":["antennae","pattern"],"bee_group":{"antennae":"B","wings":"X","pattern":"D","legs":"X"},"bonus":1.1200000000000006},{"rt":933.8000000715256,"stimulus":"bees-with-color/bee-A2SM.svg","response":0,"trial_type":"image-button-response","trial_index":115,"time_elapsed":512999,"internal_node_id":"0.0-4.0-0.54","subject_id":"60edab8a3f60c5904187ffc4","study_id":"6197b3f67c2b5cd3b6d9596a","session_id":"619bfbdfb346e215be1a2afd","condition":"full-information","relevant_dimensions":["antennae","pattern"],"bee_group":{"antennae":"B","wings":"X","pattern":"D","legs":"X"},"action":"harvest","summary":"good-harvest","bonus":1.1200000000000006},{"rt":1082.8999999761581,"stimulus":"\n                    <p><b>Action: <em>harvest</em></b></p>\n                    <p>This is the bee that you just saw.</p>\n                    <img src=\"bees-with-color/bee-A2SM.svg\" width=\"200\">\n                    <p><span class=\"greenText\"><b>Successful harvest!</b></span><br>Your pay has increased by $0.02. Your bonus pay is now $0.86.</p>\n            ","response":0,"trial_type":"html-button-response","trial_index":116,"time_elapsed":514083,"internal_node_id":"0.0-4.0-1.54","subject_id":"60edab8a3f60c5904187ffc4","study_id":"6197b3f67c2b5cd3b6d9596a","session_id":"619bfbdfb346e215be1a2afd","condition":"full-information","relevant_dimensions":["antennae","pattern"],"bee_group":{"antennae":"B","wings":"X","pattern":"D","legs":"X"},"bonus":1.1200000000000006},{"rt":5518.899999976158,"stimulus":"bees-with-color/bee-B2DM.svg","response":1,"trial_type":"image-button-response","trial_index":117,"time_elapsed":519603,"internal_node_id":"0.0-4.0-0.55","subject_id":"60edab8a3f60c5904187ffc4","study_id":"6197b3f67c2b5cd3b6d9596a","session_id":"619bfbdfb346e215be1a2afd","condition":"full-information","relevant_dimensions":["antennae","pattern"],"bee_group":{"antennae":"B","wings":"X","pattern":"D","legs":"X"},"action":"avoid","summary":"good-avoid","bonus":1.1200000000000006},{"rt":1252.6000000238419,"stimulus":"\n                    <p><b>Action: <em>avoid</em></b></p>\n                    <p>This is the bee that you just saw.</p>\n                    <img src=\"bees-with-color/bee-B2DM.svg\" width=\"200\">\n                    <p><span class=\"greenText\">Good choice!</span>  This bee would have stung you.<br>Your bonus pay is unchanged, and remains at $0.86.</p>\n            ","response":0,"trial_type":"html-button-response","trial_index":118,"time_elapsed":520857,"internal_node_id":"0.0-4.0-1.55","subject_id":"60edab8a3f60c5904187ffc4","study_id":"6197b3f67c2b5cd3b6d9596a","session_id":"619bfbdfb346e215be1a2afd","condition":"full-information","relevant_dimensions":["antennae","pattern"],"bee_group":{"antennae":"B","wings":"X","pattern":"D","legs":"X"},"bonus":1.1200000000000006},{"rt":1066.7000000476837,"stimulus":"bees-with-color/bee-B2DF.svg","response":1,"trial_type":"image-button-response","trial_index":119,"time_elapsed":521925,"internal_node_id":"0.0-4.0-0.56","subject_id":"60edab8a3f60c5904187ffc4","study_id":"6197b3f67c2b5cd3b6d9596a","session_id":"619bfbdfb346e215be1a2afd","condition":"full-information","relevant_dimensions":["antennae","pattern"],"bee_group":{"antennae":"B","wings":"X","pattern":"D","legs":"X"},"action":"avoid","summary":"good-avoid","bonus":1.1200000000000006},{"rt":1030.2999999523163,"stimulus":"\n                    <p><b>Action: <em>avoid</em></b></p>\n                    <p>This is the bee that you just saw.</p>\n                    <img src=\"bees-with-color/bee-B2DF.svg\" width=\"200\">\n                    <p><span class=\"greenText\">Good choice!</span>  This bee would have stung you.<br>Your bonus pay is unchanged, and remains at $0.86.</p>\n            ","response":0,"trial_type":"html-button-response","trial_index":120,"time_elapsed":522957,"internal_node_id":"0.0-4.0-1.56","subject_id":"60edab8a3f60c5904187ffc4","study_id":"6197b3f67c2b5cd3b6d9596a","session_id":"619bfbdfb346e215be1a2afd","condition":"full-information","relevant_dimensions":["antennae","pattern"],"bee_group":{"antennae":"B","wings":"X","pattern":"D","legs":"X"},"bonus":1.1200000000000006},{"rt":1071.6000000238419,"stimulus":"bees-with-color/bee-B1SF.svg","response":1,"trial_type":"image-button-response","trial_index":121,"time_elapsed":524030,"internal_node_id":"0.0-4.0-0.57","subject_id":"60edab8a3f60c5904187ffc4","study_id":"6197b3f67c2b5cd3b6d9596a","session_id":"619bfbdfb346e215be1a2afd","condition":"full-information","relevant_dimensions":["antennae","pattern"],"bee_group":{"antennae":"B","wings":"X","pattern":"D","legs":"X"},"action":"avoid","summary":"bad-avoid","bonus":1.1200000000000006},{"rt":904.6000000238419,"stimulus":"\n                    <p><b>Action: <em>avoid</em></b></p>\n                    <p>This is the bee that you just saw.</p>\n                    <img src=\"bees-with-color/bee-B1SF.svg\" width=\"200\">\n                    <p><span class=\"redText\">Bad choice,</span> the bee was friendly.<br>Your bonus pay is unchanged, and remains at $0.86.</p>\n            ","response":0,"trial_type":"html-button-response","trial_index":122,"time_elapsed":524935,"internal_node_id":"0.0-4.0-1.57","subject_id":"60edab8a3f60c5904187ffc4","study_id":"6197b3f67c2b5cd3b6d9596a","session_id":"619bfbdfb346e215be1a2afd","condition":"full-information","relevant_dimensions":["antennae","pattern"],"bee_group":{"antennae":"B","wings":"X","pattern":"D","legs":"X"},"bonus":1.1200000000000006},{"rt":979.8999999761581,"stimulus":"bees-with-color/bee-B1SM.svg","response":1,"trial_type":"image-button-response","trial_index":123,"time_elapsed":525916,"internal_node_id":"0.0-4.0-0.58","subject_id":"60edab8a3f60c5904187ffc4","study_id":"6197b3f67c2b5cd3b6d9596a","session_id":"619bfbdfb346e215be1a2afd","condition":"full-information","relevant_dimensions":["antennae","pattern"],"bee_group":{"antennae":"B","wings":"X","pattern":"D","legs":"X"},"action":"avoid","summary":"bad-avoid","bonus":1.1200000000000006},{"rt":836.3999999761581,"stimulus":"\n                    <p><b>Action: <em>avoid</em></b></p>\n                    <p>This is the bee that you just saw.</p>\n                    <img src=\"bees-with-color/bee-B1SM.svg\" width=\"200\">\n                    <p><span class=\"redText\">Bad choice,</span> the bee was friendly.<br>Your bonus pay is unchanged, and remains at $0.86.</p>\n            ","response":0,"trial_type":"html-button-response","trial_index":124,"time_elapsed":526754,"internal_node_id":"0.0-4.0-1.58","subject_id":"60edab8a3f60c5904187ffc4","study_id":"6197b3f67c2b5cd3b6d9596a","session_id":"619bfbdfb346e215be1a2afd","condition":"full-information","relevant_dimensions":["antennae","pattern"],"bee_group":{"antennae":"B","wings":"X","pattern":"D","legs":"X"},"bonus":1.1200000000000006},{"rt":1897.5,"stimulus":"bees-with-color/bee-A2DF.svg","response":0,"trial_type":"image-button-response","trial_index":125,"time_elapsed":528652,"internal_node_id":"0.0-4.0-0.59","subject_id":"60edab8a3f60c5904187ffc4","study_id":"6197b3f67c2b5cd3b6d9596a","session_id":"619bfbdfb346e215be1a2afd","condition":"full-information","relevant_dimensions":["antennae","pattern"],"bee_group":{"antennae":"B","wings":"X","pattern":"D","legs":"X"},"action":"harvest","summary":"good-harvest","bonus":1.1200000000000006},{"rt":996.7000000476837,"stimulus":"\n                    <p><b>Action: <em>harvest</em></b></p>\n                    <p>This is the bee that you just saw.</p>\n                    <img src=\"bees-with-color/bee-A2DF.svg\" width=\"200\">\n                    <p><span class=\"greenText\"><b>Successful harvest!</b></span><br>Your pay has increased by $0.02. Your bonus pay is now $0.88.</p>\n            ","response":0,"trial_type":"html-button-response","trial_index":126,"time_elapsed":529650,"internal_node_id":"0.0-4.0-1.59","subject_id":"60edab8a3f60c5904187ffc4","study_id":"6197b3f67c2b5cd3b6d9596a","session_id":"619bfbdfb346e215be1a2afd","condition":"full-information","relevant_dimensions":["antennae","pattern"],"bee_group":{"antennae":"B","wings":"X","pattern":"D","legs":"X"},"bonus":1.1200000000000006},{"rt":1362.8000000715256,"stimulus":"bees-with-color/bee-B2SF.svg","response":1,"trial_type":"image-button-response","trial_index":127,"time_elapsed":531016,"internal_node_id":"0.0-4.0-0.60","subject_id":"60edab8a3f60c5904187ffc4","study_id":"6197b3f67c2b5cd3b6d9596a","session_id":"619bfbdfb346e215be1a2afd","condition":"full-information","relevant_dimensions":["antennae","pattern"],"bee_group":{"antennae":"B","wings":"X","pattern":"D","legs":"X"},"action":"avoid","summary":"bad-avoid","bonus":1.1200000000000006},{"rt":802.6000000238419,"stimulus":"\n                    <p><b>Action: <em>avoid</em></b></p>\n                    <p>This is the bee that you just saw.</p>\n                    <img src=\"bees-with-color/bee-B2SF.svg\" width=\"200\">\n                    <p><span class=\"redText\">Bad choice,</span> the bee was friendly.<br>Your bonus pay is unchanged, and remains at $0.88.</p>\n            ","response":0,"trial_type":"html-button-response","trial_index":128,"time_elapsed":531820,"internal_node_id":"0.0-4.0-1.60","subject_id":"60edab8a3f60c5904187ffc4","study_id":"6197b3f67c2b5cd3b6d9596a","session_id":"619bfbdfb346e215be1a2afd","condition":"full-information","relevant_dimensions":["antennae","pattern"],"bee_group":{"antennae":"B","wings":"X","pattern":"D","legs":"X"},"bonus":1.1200000000000006},{"rt":1622.1999999284744,"stimulus":"bees-with-color/bee-A1DM.svg","response":0,"trial_type":"image-button-response","trial_index":129,"time_elapsed":533443,"internal_node_id":"0.0-4.0-0.61","subject_id":"60edab8a3f60c5904187ffc4","study_id":"6197b3f67c2b5cd3b6d9596a","session_id":"619bfbdfb346e215be1a2afd","condition":"full-information","relevant_dimensions":["antennae","pattern"],"bee_group":{"antennae":"B","wings":"X","pattern":"D","legs":"X"},"action":"harvest","summary":"good-harvest","bonus":1.1200000000000006},{"rt":927.5,"stimulus":"\n                    <p><b>Action: <em>harvest</em></b></p>\n                    <p>This is the bee that you just saw.</p>\n                    <img src=\"bees-with-color/bee-A1DM.svg\" width=\"200\">\n                    <p><span class=\"greenText\"><b>Successful harvest!</b></span><br>Your pay has increased by $0.02. Your bonus pay is now $0.90.</p>\n            ","response":0,"trial_type":"html-button-response","trial_index":130,"time_elapsed":534372,"internal_node_id":"0.0-4.0-1.61","subject_id":"60edab8a3f60c5904187ffc4","study_id":"6197b3f67c2b5cd3b6d9596a","session_id":"619bfbdfb346e215be1a2afd","condition":"full-information","relevant_dimensions":["antennae","pattern"],"bee_group":{"antennae":"B","wings":"X","pattern":"D","legs":"X"},"bonus":1.1200000000000006},{"rt":2113.2000000476837,"stimulus":"bees-with-color/bee-B1DM.svg","response":1,"trial_type":"image-button-response","trial_index":131,"time_elapsed":536486,"internal_node_id":"0.0-4.0-0.62","subject_id":"60edab8a3f60c5904187ffc4","study_id":"6197b3f67c2b5cd3b6d9596a","session_id":"619bfbdfb346e215be1a2afd","condition":"full-information","relevant_dimensions":["antennae","pattern"],"bee_group":{"antennae":"B","wings":"X","pattern":"D","legs":"X"},"action":"avoid","summary":"good-avoid","bonus":1.1200000000000006},{"rt":1120.6000000238419,"stimulus":"\n                    <p><b>Action: <em>avoid</em></b></p>\n                    <p>This is the bee that you just saw.</p>\n                    <img src=\"bees-with-color/bee-B1DM.svg\" width=\"200\">\n                    <p><span class=\"greenText\">Good choice!</span>  This bee would have stung you.<br>Your bonus pay is unchanged, and remains at $0.90.</p>\n            ","response":0,"trial_type":"html-button-response","trial_index":132,"time_elapsed":537608,"internal_node_id":"0.0-4.0-1.62","subject_id":"60edab8a3f60c5904187ffc4","study_id":"6197b3f67c2b5cd3b6d9596a","session_id":"619bfbdfb346e215be1a2afd","condition":"full-information","relevant_dimensions":["antennae","pattern"],"bee_group":{"antennae":"B","wings":"X","pattern":"D","legs":"X"},"bonus":1.1200000000000006},{"rt":1064.8000000715256,"stimulus":"bees-with-color/bee-A2SF.svg","response":0,"trial_type":"image-button-response","trial_index":133,"time_elapsed":538674,"internal_node_id":"0.0-4.0-0.63","subject_id":"60edab8a3f60c5904187ffc4","study_id":"6197b3f67c2b5cd3b6d9596a","session_id":"619bfbdfb346e215be1a2afd","condition":"full-information","relevant_dimensions":["antennae","pattern"],"bee_group":{"antennae":"B","wings":"X","pattern":"D","legs":"X"},"action":"harvest","summary":"good-harvest","bonus":1.1200000000000006},{"rt":959,"stimulus":"\n                    <p><b>Action: <em>harvest</em></b></p>\n                    <p>This is the bee that you just saw.</p>\n                    <img src=\"bees-with-color/bee-A2SF.svg\" width=\"200\">\n                    <p><span class=\"greenText\"><b>Successful harvest!</b></span><br>Your pay has increased by $0.02. Your bonus pay is now $0.92.</p>\n            ","response":0,"trial_type":"html-button-response","trial_index":134,"time_elapsed":539634,"internal_node_id":"0.0-4.0-1.63","subject_id":"60edab8a3f60c5904187ffc4","study_id":"6197b3f67c2b5cd3b6d9596a","session_id":"619bfbdfb346e215be1a2afd","condition":"full-information","relevant_dimensions":["antennae","pattern"],"bee_group":{"antennae":"B","wings":"X","pattern":"D","legs":"X"},"bonus":1.1200000000000006},{"rt":15925.799999952316,"stimulus":"You have completed the first part of this experiment.<br><br>You will now begin a shorter second part, in which you will receive no feedback.<br>The same rules regarding bonus pay apply.<br><br>Press any key to begin.","response":" ","trial_type":"html-keyboard-response","trial_index":135,"time_elapsed":555561,"internal_node_id":"0.0-5.0","subject_id":"60edab8a3f60c5904187ffc4","study_id":"6197b3f67c2b5cd3b6d9596a","session_id":"619bfbdfb346e215be1a2afd","condition":"full-information","relevant_dimensions":["antennae","pattern"],"bee_group":{"antennae":"B","wings":"X","pattern":"D","legs":"X"},"bonus":1.1200000000000006},{"rt":3542.9000000953674,"stimulus":"bees-with-color/bee-B2DF.svg","response":1,"trial_type":"image-button-response","trial_index":136,"time_elapsed":559110,"internal_node_id":"0.0-6.0-0.0","subject_id":"60edab8a3f60c5904187ffc4","study_id":"6197b3f67c2b5cd3b6d9596a","session_id":"619bfbdfb346e215be1a2afd","condition":"full-information","relevant_dimensions":["antennae","pattern"],"bee_group":{"antennae":"B","wings":"X","pattern":"D","legs":"X"},"bonus":1.1200000000000006},{"rt":1561.4000000953674,"stimulus":"bees-with-color/bee-B1SF.svg","response":1,"trial_type":"image-button-response","trial_index":137,"time_elapsed":560673,"internal_node_id":"0.0-6.0-0.1","subject_id":"60edab8a3f60c5904187ffc4","study_id":"6197b3f67c2b5cd3b6d9596a","session_id":"619bfbdfb346e215be1a2afd","condition":"full-information","relevant_dimensions":["antennae","pattern"],"bee_group":{"antennae":"B","wings":"X","pattern":"D","legs":"X"},"bonus":1.1200000000000006},{"rt":1467.2999999523163,"stimulus":"bees-with-color/bee-A1SM.svg","response":0,"trial_type":"image-button-response","trial_index":138,"time_elapsed":562142,"internal_node_id":"0.0-6.0-0.2","subject_id":"60edab8a3f60c5904187ffc4","study_id":"6197b3f67c2b5cd3b6d9596a","session_id":"619bfbdfb346e215be1a2afd","condition":"full-information","relevant_dimensions":["antennae","pattern"],"bee_group":{"antennae":"B","wings":"X","pattern":"D","legs":"X"},"bonus":1.1200000000000006},{"rt":1301.3999999761581,"stimulus":"bees-with-color/bee-A2DM.svg","response":0,"trial_type":"image-button-response","trial_index":139,"time_elapsed":563445,"internal_node_id":"0.0-6.0-0.3","subject_id":"60edab8a3f60c5904187ffc4","study_id":"6197b3f67c2b5cd3b6d9596a","session_id":"619bfbdfb346e215be1a2afd","condition":"full-information","relevant_dimensions":["antennae","pattern"],"bee_group":{"antennae":"B","wings":"X","pattern":"D","legs":"X"},"bonus":1.1200000000000006},{"rt":2238.5,"stimulus":"bees-with-color/bee-A1SF.svg","response":0,"trial_type":"image-button-response","trial_index":140,"time_elapsed":565685,"internal_node_id":"0.0-6.0-0.4","subject_id":"60edab8a3f60c5904187ffc4","study_id":"6197b3f67c2b5cd3b6d9596a","session_id":"619bfbdfb346e215be1a2afd","condition":"full-information","relevant_dimensions":["antennae","pattern"],"bee_group":{"antennae":"B","wings":"X","pattern":"D","legs":"X"},"bonus":1.1200000000000006},{"rt":2023.2000000476837,"stimulus":"bees-with-color/bee-A1DM.svg","response":1,"trial_type":"image-button-response","trial_index":141,"time_elapsed":567710,"internal_node_id":"0.0-6.0-0.5","subject_id":"60edab8a3f60c5904187ffc4","study_id":"6197b3f67c2b5cd3b6d9596a","session_id":"619bfbdfb346e215be1a2afd","condition":"full-information","relevant_dimensions":["antennae","pattern"],"bee_group":{"antennae":"B","wings":"X","pattern":"D","legs":"X"},"bonus":1.1200000000000006},{"rt":1213.3999999761581,"stimulus":"bees-with-color/bee-B2SF.svg","response":1,"trial_type":"image-button-response","trial_index":142,"time_elapsed":568925,"internal_node_id":"0.0-6.0-0.6","subject_id":"60edab8a3f60c5904187ffc4","study_id":"6197b3f67c2b5cd3b6d9596a","session_id":"619bfbdfb346e215be1a2afd","condition":"full-information","relevant_dimensions":["antennae","pattern"],"bee_group":{"antennae":"B","wings":"X","pattern":"D","legs":"X"},"bonus":1.1200000000000006},{"rt":824.2999999523163,"stimulus":"bees-with-color/bee-B1DF.svg","response":1,"trial_type":"image-button-response","trial_index":143,"time_elapsed":569751,"internal_node_id":"0.0-6.0-0.7","subject_id":"60edab8a3f60c5904187ffc4","study_id":"6197b3f67c2b5cd3b6d9596a","session_id":"619bfbdfb346e215be1a2afd","condition":"full-information","relevant_dimensions":["antennae","pattern"],"bee_group":{"antennae":"B","wings":"X","pattern":"D","legs":"X"},"bonus":1.1200000000000006},{"rt":1121.5,"stimulus":"bees-with-color/bee-A2SM.svg","response":0,"trial_type":"image-button-response","trial_index":144,"time_elapsed":570874,"internal_node_id":"0.0-6.0-0.8","subject_id":"60edab8a3f60c5904187ffc4","study_id":"6197b3f67c2b5cd3b6d9596a","session_id":"619bfbdfb346e215be1a2afd","condition":"full-information","relevant_dimensions":["antennae","pattern"],"bee_group":{"antennae":"B","wings":"X","pattern":"D","legs":"X"},"bonus":1.1200000000000006},{"rt":905.7000000476837,"stimulus":"bees-with-color/bee-B1SM.svg","response":1,"trial_type":"image-button-response","trial_index":145,"time_elapsed":571781,"internal_node_id":"0.0-6.0-0.9","subject_id":"60edab8a3f60c5904187ffc4","study_id":"6197b3f67c2b5cd3b6d9596a","session_id":"619bfbdfb346e215be1a2afd","condition":"full-information","relevant_dimensions":["antennae","pattern"],"bee_group":{"antennae":"B","wings":"X","pattern":"D","legs":"X"},"bonus":1.1200000000000006},{"rt":693.6000000238419,"stimulus":"bees-with-color/bee-B1DM.svg","response":1,"trial_type":"image-button-response","trial_index":146,"time_elapsed":572476,"internal_node_id":"0.0-6.0-0.10","subject_id":"60edab8a3f60c5904187ffc4","study_id":"6197b3f67c2b5cd3b6d9596a","session_id":"619bfbdfb346e215be1a2afd","condition":"full-information","relevant_dimensions":["antennae","pattern"],"bee_group":{"antennae":"B","wings":"X","pattern":"D","legs":"X"},"bonus":1.1200000000000006},{"rt":2984.600000023842,"stimulus":"bees-with-color/bee-A1DF.svg","response":0,"trial_type":"image-button-response","trial_index":147,"time_elapsed":575462,"internal_node_id":"0.0-6.0-0.11","subject_id":"60edab8a3f60c5904187ffc4","study_id":"6197b3f67c2b5cd3b6d9596a","session_id":"619bfbdfb346e215be1a2afd","condition":"full-information","relevant_dimensions":["antennae","pattern"],"bee_group":{"antennae":"B","wings":"X","pattern":"D","legs":"X"},"bonus":1.1200000000000006},{"rt":720.6000000238419,"stimulus":"bees-with-color/bee-A2DF.svg","response":1,"trial_type":"image-button-response","trial_index":148,"time_elapsed":576184,"internal_node_id":"0.0-6.0-0.12","subject_id":"60edab8a3f60c5904187ffc4","study_id":"6197b3f67c2b5cd3b6d9596a","session_id":"619bfbdfb346e215be1a2afd","condition":"full-information","relevant_dimensions":["antennae","pattern"],"bee_group":{"antennae":"B","wings":"X","pattern":"D","legs":"X"},"bonus":1.1200000000000006},{"rt":543.6000000238419,"stimulus":"bees-with-color/bee-B2DM.svg","response":1,"trial_type":"image-button-response","trial_index":149,"time_elapsed":576729,"internal_node_id":"0.0-6.0-0.13","subject_id":"60edab8a3f60c5904187ffc4","study_id":"6197b3f67c2b5cd3b6d9596a","session_id":"619bfbdfb346e215be1a2afd","condition":"full-information","relevant_dimensions":["antennae","pattern"],"bee_group":{"antennae":"B","wings":"X","pattern":"D","legs":"X"},"bonus":1.1200000000000006},{"rt":1063.6000000238419,"stimulus":"bees-with-color/bee-A2SF.svg","response":1,"trial_type":"image-button-response","trial_index":150,"time_elapsed":577794,"internal_node_id":"0.0-6.0-0.14","subject_id":"60edab8a3f60c5904187ffc4","study_id":"6197b3f67c2b5cd3b6d9596a","session_id":"619bfbdfb346e215be1a2afd","condition":"full-information","relevant_dimensions":["antennae","pattern"],"bee_group":{"antennae":"B","wings":"X","pattern":"D","legs":"X"},"bonus":1.1200000000000006},{"rt":728.2999999523163,"stimulus":"bees-with-color/bee-B2SM.svg","response":1,"trial_type":"image-button-response","trial_index":151,"time_elapsed":578523,"internal_node_id":"0.0-6.0-0.15","subject_id":"60edab8a3f60c5904187ffc4","study_id":"6197b3f67c2b5cd3b6d9596a","session_id":"619bfbdfb346e215be1a2afd","condition":"full-information","relevant_dimensions":["antennae","pattern"],"bee_group":{"antennae":"B","wings":"X","pattern":"D","legs":"X"},"bonus":1.1200000000000006},{"rt":634.8000000715256,"stimulus":"bees-with-color/bee-B2DM.svg","response":1,"trial_type":"image-button-response","trial_index":152,"time_elapsed":579160,"internal_node_id":"0.0-6.0-0.16","subject_id":"60edab8a3f60c5904187ffc4","study_id":"6197b3f67c2b5cd3b6d9596a","session_id":"619bfbdfb346e215be1a2afd","condition":"full-information","relevant_dimensions":["antennae","pattern"],"bee_group":{"antennae":"B","wings":"X","pattern":"D","legs":"X"},"bonus":1.1200000000000006},{"rt":787.5,"stimulus":"bees-with-color/bee-A2DM.svg","response":0,"trial_type":"image-button-response","trial_index":153,"time_elapsed":579949,"internal_node_id":"0.0-6.0-0.17","subject_id":"60edab8a3f60c5904187ffc4","study_id":"6197b3f67c2b5cd3b6d9596a","session_id":"619bfbdfb346e215be1a2afd","condition":"full-information","relevant_dimensions":["antennae","pattern"],"bee_group":{"antennae":"B","wings":"X","pattern":"D","legs":"X"},"bonus":1.1200000000000006},{"rt":751.7000000476837,"stimulus":"bees-with-color/bee-A1SF.svg","response":1,"trial_type":"image-button-response","trial_index":154,"time_elapsed":580702,"internal_node_id":"0.0-6.0-0.18","subject_id":"60edab8a3f60c5904187ffc4","study_id":"6197b3f67c2b5cd3b6d9596a","session_id":"619bfbdfb346e215be1a2afd","condition":"full-information","relevant_dimensions":["antennae","pattern"],"bee_group":{"antennae":"B","wings":"X","pattern":"D","legs":"X"},"bonus":1.1200000000000006},{"rt":651.6000000238419,"stimulus":"bees-with-color/bee-B2SM.svg","response":0,"trial_type":"image-button-response","trial_index":155,"time_elapsed":581355,"internal_node_id":"0.0-6.0-0.19","subject_id":"60edab8a3f60c5904187ffc4","study_id":"6197b3f67c2b5cd3b6d9596a","session_id":"619bfbdfb346e215be1a2afd","condition":"full-information","relevant_dimensions":["antennae","pattern"],"bee_group":{"antennae":"B","wings":"X","pattern":"D","legs":"X"},"bonus":1.1200000000000006},{"rt":541.7999999523163,"stimulus":"bees-with-color/bee-A2DF.svg","response":1,"trial_type":"image-button-response","trial_index":156,"time_elapsed":581898,"internal_node_id":"0.0-6.0-0.20","subject_id":"60edab8a3f60c5904187ffc4","study_id":"6197b3f67c2b5cd3b6d9596a","session_id":"619bfbdfb346e215be1a2afd","condition":"full-information","relevant_dimensions":["antennae","pattern"],"bee_group":{"antennae":"B","wings":"X","pattern":"D","legs":"X"},"bonus":1.1200000000000006},{"rt":776.6000000238419,"s