[{"success":true,"trial_type":"fullscreen","trial_index":0,"time_elapsed":6821,"internal_node_id":"0.0-0.0","subject_id":"610a8e124478d80547e94b98","study_id":"6197b3f67c2b5cd3b6d9596a","session_id":"619be31c28ab871265639f81","condition":"contingent","relevant_dimensions":["antennae","pattern"],"bee_group":{"antennae":"A","wings":"X","pattern":"D","legs":"X"},"bonus":0.9600000000000012},{"success":true,"timeout":false,"failed_images":[],"failed_audio":[],"failed_video":[],"trial_type":"preload","trial_index":1,"time_elapsed":12117,"internal_node_id":"0.0-1.0","subject_id":"610a8e124478d80547e94b98","study_id":"6197b3f67c2b5cd3b6d9596a","session_id":"619be31c28ab871265639f81","condition":"contingent","relevant_dimensions":["antennae","pattern"],"bee_group":{"antennae":"A","wings":"X","pattern":"D","legs":"X"},"bonus":0.9600000000000012},{"rt":1756.8999999910593,"stimulus":"Welcome! Press any key to begin.","response":"d","trial_type":"html-keyboard-response","trial_index":2,"time_elapsed":13876,"internal_node_id":"0.0-2.0","subject_id":"610a8e124478d80547e94b98","study_id":"6197b3f67c2b5cd3b6d9596a","session_id":"619be31c28ab871265639f81","condition":"contingent","relevant_dimensions":["antennae","pattern"],"bee_group":{"antennae":"A","wings":"X","pattern":"D","legs":"X"},"bonus":0.9600000000000012},{"view_history":[{"page_index":0,"viewing_time":5742.29999999702},{"page_index":1,"viewing_time":18357.59999999404},{"page_index":2,"viewing_time":13081.20000000298},{"page_index":3,"viewing_time":29645.70000000298},{"page_index":4,"viewing_time":6042.79999999702},{"page_index":5,"viewing_time":19291.5},{"page_index":6,"viewing_time":22523.20000000298},{"page_index":7,"viewing_time":20270.20000000298},{"page_index":8,"viewing_time":4002.0999999940395},{"page_index":7,"viewing_time":1662.6000000089407},{"page_index":8,"viewing_time":3916.199999988079},{"page_index":7,"viewing_time":2461.1000000089407},{"page_index":8,"viewing_time":7479.899999991059},{"page_index":9,"viewing_time":9532.800000011921},{"page_index":10,"viewing_time":6304.29999999702},{"page_index":11,"viewing_time":10616.59999999404},{"page_index":12,"viewing_time":13784.20000000298},{"page_index":13,"viewing_time":1530.0999999940395},{"page_index":14,"viewing_time":3967.9000000059605}],"rt":200212.79999999702,"trial_type":"instructions","trial_index":3,"time_elapsed":214088,"internal_node_id":"0.0-3.0-0.0","subject_id":"610a8e124478d80547e94b98","study_id":"6197b3f67c2b5cd3b6d9596a","session_id":"619be31c28ab871265639f81","condition":"contingent","relevant_dimensions":["antennae","pattern"],"bee_group":{"antennae":"A","wings":"X","pattern":"D","legs":"X"},"bonus":0.9600000000000012},{"rt":14348.89999999106,"response":{"Q0":["Two or six legs","Stripes or spots on body","Single or double wings","Antennae or no antennae"]},"question_order":[0],"trial_type":"survey-multi-select","trial_index":4,"time_elapsed":228442,"internal_node_id":"0.0-3.0-1.0","subject_id":"610a8e124478d80547e94b98","study_id":"6197b3f67c2b5cd3b6d9596a","session_id":"619be31c28ab871265639f81","condition":"contingent","relevant_dimensions":["antennae","pattern"],"bee_group":{"antennae":"A","wings":"X","pattern":"D","legs":"X"},"correct":true,"bonus":0.9600000000000012},{"rt":24698.29999999702,"response":{"Q1":"No.","Q2":"Based on the four features of the bee.","Q3":"You do not learn if it was friendly or dangerous, and do not alter your bonus."},"question_order":[0,1,2],"trial_type":"survey-multi-choice","trial_index":5,"time_elapsed":253143,"internal_node_id":"0.0-3.0-2.0","subject_id":"610a8e124478d80547e94b98","study_id":"6197b3f67c2b5cd3b6d9596a","session_id":"619be31c28ab871265639f81","condition":"contingent","relevant_dimensions":["antennae","pattern"],"bee_group":{"antennae":"A","wings":"X","pattern":"D","legs":"X"},"correct":true,"bonus":0.9600000000000012},{"rt":3960.9000000059605,"stimulus":"<p>Congrats, you got everything right<br>When you're ready, click the button below to continue to the experiment.</p>","response":0,"trial_type":"html-button-response","trial_index":6,"time_elapsed":257106,"internal_node_id":"0.0-3.0-3.0","subject_id":"610a8e124478d80547e94b98","study_id":"6197b3f67c2b5cd3b6d9596a","session_id":"619be31c28ab871265639f81","condition":"contingent","relevant_dimensions":["antennae","pattern"],"bee_group":{"antennae":"A","wings":"X","pattern":"D","legs":"X"},"bonus":0.9600000000000012},{"rt":8297.40000000596,"stimulus":"bees-with-color/bee-B2DM.svg","response":0,"trial_type":"image-button-response","trial_index":7,"time_elapsed":265407,"internal_node_id":"0.0-4.0-0.0","subject_id":"610a8e124478d80547e94b98","study_id":"6197b3f67c2b5cd3b6d9596a","session_id":"619be31c28ab871265639f81","condition":"contingent","relevant_dimensions":["antennae","pattern"],"bee_group":{"antennae":"A","wings":"X","pattern":"D","legs":"X"},"action":"harvest","summary":"good-harvest","bonus":0.9600000000000012},{"rt":11950,"stimulus":"\n                    <p><b>Action: <em>harvest</em></b></p>\n                    <p>This is the bee that you just saw.</p>\n                    <img src=\"bees-with-color/bee-B2DM.svg\" width=\"200\">\n                    <p><span class=\"greenText\"><b>Successful harvest!</b></span><br>Your pay has increased by $0.02. Your bonus pay is now $0.56.</p>\n            ","response":0,"trial_type":"html-button-response","trial_index":8,"time_elapsed":277361,"internal_node_id":"0.0-4.0-1.0","subject_id":"610a8e124478d80547e94b98","study_id":"6197b3f67c2b5cd3b6d9596a","session_id":"619be31c28ab871265639f81","condition":"contingent","relevant_dimensions":["antennae","pattern"],"bee_group":{"antennae":"A","wings":"X","pattern":"D","legs":"X"},"bonus":0.9600000000000012},{"rt":7908.20000000298,"stimulus":"bees-with-color/bee-A2DF.svg","response":1,"trial_type":"image-button-response","trial_index":9,"time_elapsed":285271,"internal_node_id":"0.0-4.0-0.1","subject_id":"610a8e124478d80547e94b98","study_id":"6197b3f67c2b5cd3b6d9596a","session_id":"619be31c28ab871265639f81","condition":"contingent","relevant_dimensions":["antennae","pattern"],"bee_group":{"antennae":"A","wings":"X","pattern":"D","legs":"X"},"action":"avoid","summary":"good-avoid","bonus":0.9600000000000012},{"rt":5870.5,"stimulus":"\n                    <p><b>Action: <em>avoid</em></b></p>\n                    <p>This is the bee that you just saw.</p>\n                    <img src=\"bees-with-color/bee-A2DF.svg\" width=\"200\">\n                    <p><br>Your bonus pay is unchanged, and remains at $0.56.</p>\n            ","response":0,"trial_type":"html-button-response","trial_index":10,"time_elapsed":291144,"internal_node_id":"0.0-4.0-1.1","subject_id":"610a8e124478d80547e94b98","study_id":"6197b3f67c2b5cd3b6d9596a","session_id":"619be31c28ab871265639f81","condition":"contingent","relevant_dimensions":["antennae","pattern"],"bee_group":{"antennae":"A","wings":"X","pattern":"D","legs":"X"},"bonus":0.9600000000000012},{"rt":3307.9000000059605,"stimulus":"bees-with-color/bee-B2DF.svg","response":0,"trial_type":"image-button-response","trial_index":11,"time_elapsed":294454,"internal_node_id":"0.0-4.0-0.2","subject_id":"610a8e124478d80547e94b98","study_id":"6197b3f67c2b5cd3b6d9596a","session_id":"619be31c28ab871265639f81","condition":"contingent","relevant_dimensions":["antennae","pattern"],"bee_group":{"antennae":"A","wings":"X","pattern":"D","legs":"X"},"action":"harvest","summary":"good-harvest","bonus":0.9600000000000012},{"rt":11547.90000000596,"stimulus":"\n                    <p><b>Action: <em>harvest</em></b></p>\n                    <p>This is the bee that you just saw.</p>\n                    <img src=\"bees-with-color/bee-B2DF.svg\" width=\"200\">\n                    <p><span class=\"greenText\"><b>Successful harvest!</b></span><br>Your pay has increased by $0.02. Your bonus pay is now $0.58.</p>\n            ","response":0,"trial_type":"html-button-response","trial_index":12,"time_elapsed":306003,"internal_node_id":"0.0-4.0-1.2","subject_id":"610a8e124478d80547e94b98","study_id":"6197b3f67c2b5cd3b6d9596a","session_id":"619be31c28ab871265639f81","condition":"contingent","relevant_dimensions":["antennae","pattern"],"bee_group":{"antennae":"A","wings":"X","pattern":"D","legs":"X"},"bonus":0.9600000000000012},{"rt":4053.2000000029802,"stimulus":"bees-with-color/bee-B2SF.svg","response":0,"trial_type":"image-button-response","trial_index":13,"time_elapsed":310058,"internal_node_id":"0.0-4.0-0.3","subject_id":"610a8e124478d80547e94b98","study_id":"6197b3f67c2b5cd3b6d9596a","session_id":"619be31c28ab871265639f81","condition":"contingent","relevant_dimensions":["antennae","pattern"],"bee_group":{"antennae":"A","wings":"X","pattern":"D","legs":"X"},"action":"harvest","summary":"good-harvest","bonus":0.9600000000000012},{"rt":3628.5,"stimulus":"\n                    <p><b>Action: <em>harvest</em></b></p>\n                    <p>This is the bee that you just saw.</p>\n                    <img src=\"bees-with-color/bee-B2SF.svg\" width=\"200\">\n                    <p><span class=\"greenText\"><b>Successful harvest!</b></span><br>Your pay has increased by $0.02. Your bonus pay is now $0.60.</p>\n            ","response":0,"trial_type":"html-button-response","trial_index":14,"time_elapsed":313689,"internal_node_id":"0.0-4.0-1.3","subject_id":"610a8e124478d80547e94b98","study_id":"6197b3f67c2b5cd3b6d9596a","session_id":"619be31c28ab871265639f81","condition":"contingent","relevant_dimensions":["antennae","pattern"],"bee_group":{"antennae":"A","wings":"X","pattern":"D","legs":"X"},"bonus":0.9600000000000012},{"rt":5649.199999988079,"stimulus":"bees-with-color/bee-A1DF.svg","response":1,"trial_type":"image-button-response","trial_index":15,"time_elapsed":319340,"internal_node_id":"0.0-4.0-0.4","subject_id":"610a8e124478d80547e94b98","study_id":"6197b3f67c2b5cd3b6d9596a","session_id":"619be31c28ab871265639f81","condition":"contingent","relevant_dimensions":["antennae","pattern"],"bee_group":{"antennae":"A","wings":"X","pattern":"D","legs":"X"},"action":"avoid","summary":"good-avoid","bonus":0.9600000000000012},{"rt":2672.9000000059605,"stimulus":"\n                    <p><b>Action: <em>avoid</em></b></p>\n                    <p>This is the bee that you just saw.</p>\n                    <img src=\"bees-with-color/bee-A1DF.svg\" width=\"200\">\n                    <p><br>Your bonus pay is unchanged, and remains at $0.60.</p>\n            ","response":0,"trial_type":"html-button-response","trial_index":16,"time_elapsed":322014,"internal_node_id":"0.0-4.0-1.4","subject_id":"610a8e124478d80547e94b98","study_id":"6197b3f67c2b5cd3b6d9596a","session_id":"619be31c28ab871265639f81","condition":"contingent","relevant_dimensions":["antennae","pattern"],"bee_group":{"antennae":"A","wings":"X","pattern":"D","legs":"X"},"bonus":0.9600000000000012},{"rt":1809,"stimulus":"bees-with-color/bee-B1DM.svg","response":0,"trial_type":"image-button-response","trial_index":17,"time_elapsed":323826,"internal_node_id":"0.0-4.0-0.5","subject_id":"610a8e124478d80547e94b98","study_id":"6197b3f67c2b5cd3b6d9596a","session_id":"619be31c28ab871265639f81","condition":"contingent","relevant_dimensions":["antennae","pattern"],"bee_group":{"antennae":"A","wings":"X","pattern":"D","legs":"X"},"action":"harvest","summary":"good-harvest","bonus":0.9600000000000012},{"rt":2011.699999988079,"stimulus":"\n                    <p><b>Action: <em>harvest</em></b></p>\n                    <p>This is the bee that you just saw.</p>\n                    <img src=\"bees-with-color/bee-B1DM.svg\" width=\"200\">\n                    <p><span class=\"greenText\"><b>Successful harvest!</b></span><br>Your pay has increased by $0.02. Your bonus pay is now $0.62.</p>\n            ","response":0,"trial_type":"html-button-response","trial_index":18,"time_elapsed":325840,"internal_node_id":"0.0-4.0-1.5","subject_id":"610a8e124478d80547e94b98","study_id":"6197b3f67c2b5cd3b6d9596a","session_id":"619be31c28ab871265639f81","condition":"contingent","relevant_dimensions":["antennae","pattern"],"bee_group":{"antennae":"A","wings":"X","pattern":"D","legs":"X"},"bonus":0.9600000000000012},{"rt":2456.7000000029802,"stimulus":"bees-with-color/bee-A1SM.svg","response":0,"trial_type":"image-button-response","trial_index":19,"time_elapsed":328298,"internal_node_id":"0.0-4.0-0.6","subject_id":"610a8e124478d80547e94b98","study_id":"6197b3f67c2b5cd3b6d9596a","session_id":"619be31c28ab871265639f81","condition":"contingent","relevant_dimensions":["antennae","pattern"],"bee_group":{"antennae":"A","wings":"X","pattern":"D","legs":"X"},"action":"harvest","summary":"good-harvest","bonus":0.9600000000000012},{"rt":8063.29999999702,"stimulus":"\n                    <p><b>Action: <em>harvest</em></b></p>\n                    <p>This is the bee that you just saw.</p>\n                    <img src=\"bees-with-color/bee-A1SM.svg\" width=\"200\">\n                    <p><span class=\"greenText\"><b>Successful harvest!</b></span><br>Your pay has increased by $0.02. Your bonus pay is now $0.64.</p>\n            ","response":0,"trial_type":"html-button-response","trial_index":20,"time_elapsed":336363,"internal_node_id":"0.0-4.0-1.6","subject_id":"610a8e124478d80547e94b98","study_id":"6197b3f67c2b5cd3b6d9596a","session_id":"619be31c28ab871265639f81","condition":"contingent","relevant_dimensions":["antennae","pattern"],"bee_group":{"antennae":"A","wings":"X","pattern":"D","legs":"X"},"bonus":0.9600000000000012},{"rt":6257.0999999940395,"stimulus":"bees-with-color/bee-A2SF.svg","response":0,"trial_type":"image-button-response","trial_index":21,"time_elapsed":342623,"internal_node_id":"0.0-4.0-0.7","subject_id":"610a8e124478d80547e94b98","study_id":"6197b3f67c2b5cd3b6d9596a","session_id":"619be31c28ab871265639f81","condition":"contingent","relevant_dimensions":["antennae","pattern"],"bee_group":{"antennae":"A","wings":"X","pattern":"D","legs":"X"},"action":"harvest","summary":"good-harvest","bonus":0.9600000000000012},{"rt":4719.9000000059605,"stimulus":"\n                    <p><b>Action: <em>harvest</em></b></p>\n                    <p>This is the bee that you just saw.</p>\n                    <img src=\"bees-with-color/bee-A2SF.svg\" width=\"200\">\n                    <p><span class=\"greenText\"><b>Successful harvest!</b></span><br>Your pay has increased by $0.02. Your bonus pay is now $0.66.</p>\n            ","response":0,"trial_type":"html-button-response","trial_index":22,"time_elapsed":347344,"internal_node_id":"0.0-4.0-1.7","subject_id":"610a8e124478d80547e94b98","study_id":"6197b3f67c2b5cd3b6d9596a","session_id":"619be31c28ab871265639f81","condition":"contingent","relevant_dimensions":["antennae","pattern"],"bee_group":{"antennae":"A","wings":"X","pattern":"D","legs":"X"},"bonus":0.9600000000000012},{"rt":4563.100000008941,"stimulus":"bees-with-color/bee-A1SF.svg","response":0,"trial_type":"image-button-response","trial_index":23,"time_elapsed":351909,"internal_node_id":"0.0-4.0-0.8","subject_id":"610a8e124478d80547e94b98","study_id":"6197b3f67c2b5cd3b6d9596a","session_id":"619be31c28ab871265639f81","condition":"contingent","relevant_dimensions":["antennae","pattern"],"bee_group":{"antennae":"A","wings":"X","pattern":"D","legs":"X"},"action":"harvest","summary":"good-harvest","bonus":0.9600000000000012},{"rt":1750.2999999970198,"stimulus":"\n                    <p><b>Action: <em>harvest</em></b></p>\n                    <p>This is the bee that you just saw.</p>\n                    <img src=\"bees-with-color/bee-A1SF.svg\" width=\"200\">\n                    <p><span class=\"greenText\"><b>Successful harvest!</b></span><br>Your pay has increased by $0.02. Your bonus pay is now $0.68.</p>\n            ","response":0,"trial_type":"html-button-response","trial_index":24,"time_elapsed":353661,"internal_node_id":"0.0-4.0-1.8","subject_id":"610a8e124478d80547e94b98","study_id":"6197b3f67c2b5cd3b6d9596a","session_id":"619be31c28ab871265639f81","condition":"contingent","relevant_dimensions":["antennae","pattern"],"bee_group":{"antennae":"A","wings":"X","pattern":"D","legs":"X"},"bonus":0.9600000000000012},{"rt":2979.1000000089407,"stimulus":"bees-with-color/bee-B1SF.svg","response":1,"trial_type":"image-button-response","trial_index":25,"time_elapsed":356642,"internal_node_id":"0.0-4.0-0.9","subject_id":"610a8e124478d80547e94b98","study_id":"6197b3f67c2b5cd3b6d9596a","session_id":"619be31c28ab871265639f81","condition":"contingent","relevant_dimensions":["antennae","pattern"],"bee_group":{"antennae":"A","wings":"X","pattern":"D","legs":"X"},"action":"avoid","summary":"bad-avoid","bonus":0.9600000000000012},{"rt":2472.699999988079,"stimulus":"\n                    <p><b>Action: <em>avoid</em></b></p>\n                    <p>This is the bee that you just saw.</p>\n                    <img src=\"bees-with-color/bee-B1SF.svg\" width=\"200\">\n                    <p><br>Your bonus pay is unchanged, and remains at $0.68.</p>\n            ","response":0,"trial_type":"html-button-response","trial_index":26,"time_elapsed":359117,"internal_node_id":"0.0-4.0-1.9","subject_id":"610a8e124478d80547e94b98","study_id":"6197b3f67c2b5cd3b6d9596a","session_id":"619be31c28ab871265639f81","condition":"contingent","relevant_dimensions":["antennae","pattern"],"bee_group":{"antennae":"A","wings":"X","pattern":"D","legs":"X"},"bonus":0.9600000000000012},{"rt":1597,"stimulus":"bees-with-color/bee-B1DF.svg","response":0,"trial_type":"image-button-response","trial_index":27,"time_elapsed":360716,"internal_node_id":"0.0-4.0-0.10","subject_id":"610a8e124478d80547e94b98","study_id":"6197b3f67c2b5cd3b6d9596a","session_id":"619be31c28ab871265639f81","condition":"contingent","relevant_dimensions":["antennae","pattern"],"bee_group":{"antennae":"A","wings":"X","pattern":"D","legs":"X"},"action":"harvest","summary":"good-harvest","bonus":0.9600000000000012},{"rt":1446.7000000029802,"stimulus":"\n                    <p><b>Action: <em>harvest</em></b></p>\n                    <p>This is the bee that you just saw.</p>\n                    <img src=\"bees-with-color/bee-B1DF.svg\" width=\"200\">\n                    <p><span class=\"greenText\"><b>Successful harvest!</b></span><br>Your pay has increased by $0.02. Your bonus pay is now $0.70.</p>\n            ","response":0,"trial_type":"html-button-response","trial_index":28,"time_elapsed":362165,"internal_node_id":"0.0-4.0-1.10","subject_id":"610a8e124478d80547e94b98","study_id":"6197b3f67c2b5cd3b6d9596a","session_id":"619be31c28ab871265639f81","condition":"contingent","relevant_dimensions":["antennae","pattern"],"bee_group":{"antennae":"A","wings":"X","pattern":"D","legs":"X"},"bonus":0.9600000000000012},{"rt":1944.7000000029802,"stimulus":"bees-with-color/bee-A1DM.svg","response":0,"trial_type":"image-button-response","trial_index":29,"time_elapsed":364112,"internal_node_id":"0.0-4.0-0.11","subject_id":"610a8e124478d80547e94b98","study_id":"6197b3f67c2b5cd3b6d9596a","session_id":"619be31c28ab871265639f81","condition":"contingent","relevant_dimensions":["antennae","pattern"],"bee_group":{"antennae":"A","wings":"X","pattern":"D","legs":"X"},"action":"harvest","summary":"bad-harvest","bonus":0.9600000000000012},{"rt":16928.09999999404,"stimulus":"\n                    <p><b>Action: <em>harvest</em></b></p>\n                    <p>This is the bee that you just saw.</p>\n                    <img src=\"bees-with-color/bee-A1DM.svg\" width=\"200\">\n                    <p><span class=\"redText\">Bad choice, the bee was angry.</span><br><b>You have been stung!</b><br>Your pay has been decreased by $0.10. Your bonus pay is now $0.60.</p>\n            ","response":0,"trial_type":"html-button-response","trial_index":30,"time_elapsed":381041,"internal_node_id":"0.0-4.0-1.11","subject_id":"610a8e124478d80547e94b98","study_id":"6197b3f67c2b5cd3b6d9596a","session_id":"619be31c28ab871265639f81","condition":"contingent","relevant_dimensions":["antennae","pattern"],"bee_group":{"antennae":"A","wings":"X","pattern":"D","legs":"X"},"bonus":0.9600000000000012},{"rt":1661,"stimulus":"bees-with-color/bee-B2SM.svg","response":0,"trial_type":"image-button-response","trial_index":31,"time_elapsed":382704,"internal_node_id":"0.0-4.0-0.12","subject_id":"610a8e124478d80547e94b98","study_id":"6197b3f67c2b5cd3b6d9596a","session_id":"619be31c28ab871265639f81","condition":"contingent","relevant_dimensions":["antennae","pattern"],"bee_group":{"antennae":"A","wings":"X","pattern":"D","legs":"X"},"action":"harvest","summary":"good-harvest","bonus":0.9600000000000012},{"rt":1982.7000000029802,"stimulus":"\n                    <p><b>Action: <em>harvest</em></b></p>\n                    <p>This is the bee that you just saw.</p>\n                    <img src=\"bees-with-color/bee-B2SM.svg\" width=\"200\">\n                    <p><span class=\"greenText\"><b>Successful harvest!</b></span><br>Your pay has increased by $0.02. Your bonus pay is now $0.62.</p>\n            ","response":0,"trial_type":"html-button-response","trial_index":32,"time_elapsed":384688,"internal_node_id":"0.0-4.0-1.12","subject_id":"610a8e124478d80547e94b98","study_id":"6197b3f67c2b5cd3b6d9596a","session_id":"619be31c28ab871265639f81","condition":"contingent","relevant_dimensions":["antennae","pattern"],"bee_group":{"antennae":"A","wings":"X","pattern":"D","legs":"X"},"bonus":0.9600000000000012},{"rt":6184.5,"stimulus":"bees-with-color/bee-A2DM.svg","response":0,"trial_type":"image-button-response","trial_index":33,"time_elapsed":390874,"internal_node_id":"0.0-4.0-0.13","subject_id":"610a8e124478d80547e94b98","study_id":"6197b3f67c2b5cd3b6d9596a","session_id":"619be31c28ab871265639f81","condition":"contingent","relevant_dimensions":["antennae","pattern"],"bee_group":{"antennae":"A","wings":"X","pattern":"D","legs":"X"},"action":"harvest","summary":"bad-harvest","bonus":0.9600000000000012},{"rt":2455.3999999910593,"stimulus":"\n                    <p><b>Action: <em>harvest</em></b></p>\n                    <p>This is the bee that you just saw.</p>\n                    <img src=\"bees-with-color/bee-A2DM.svg\" width=\"200\">\n                    <p><span class=\"redText\">Bad choice, the bee was angry.</span><br><b>You have been stung!</b><br>Your pay has been decreased by $0.10. Your bonus pay is now $0.52.</p>\n            ","response":0,"trial_type":"html-button-response","trial_index":34,"time_elapsed":393331,"internal_node_id":"0.0-4.0-1.13","subject_id":"610a8e124478d80547e94b98","study_id":"6197b3f67c2b5cd3b6d9596a","session_id":"619be31c28ab871265639f81","condition":"contingent","relevant_dimensions":["antennae","pattern"],"bee_group":{"antennae":"A","wings":"X","pattern":"D","legs":"X"},"bonus":0.9600000000000012},{"rt":1602,"stimulus":"bees-with-color/bee-B1SM.svg","response":0,"trial_type":"image-button-response","trial_index":35,"time_elapsed":394935,"internal_node_id":"0.0-4.0-0.14","subject_id":"610a8e124478d80547e94b98","study_id":"6197b3f67c2b5cd3b6d9596a","session_id":"619be31c28ab871265639f81","condition":"contingent","relevant_dimensions":["antennae","pattern"],"bee_group":{"antennae":"A","wings":"X","pattern":"D","legs":"X"},"action":"harvest","summary":"good-harvest","bonus":0.9600000000000012},{"rt":3937.7999999970198,"stimulus":"\n                    <p><b>Action: <em>harvest</em></b></p>\n                    <p>This is the bee that you just saw.</p>\n                    <img src=\"bees-with-color/bee-B1SM.svg\" width=\"200\">\n                    <p><span class=\"greenText\"><b>Successful harvest!</b></span><br>Your pay has increased by $0.02. Your bonus pay is now $0.54.</p>\n            ","response":0,"trial_type":"html-button-response","trial_index":36,"time_elapsed":398875,"internal_node_id":"0.0-4.0-1.14","subject_id":"610a8e124478d80547e94b98","study_id":"6197b3f67c2b5cd3b6d9596a","session_id":"619be31c28ab871265639f81","condition":"contingent","relevant_dimensions":["antennae","pattern"],"bee_group":{"antennae":"A","wings":"X","pattern":"D","legs":"X"},"bonus":0.9600000000000012},{"rt":1563.7000000029802,"stimulus":"bees-with-color/bee-A2SM.svg","response":0,"trial_type":"image-button-response","trial_index":37,"time_elapsed":400441,"internal_node_id":"0.0-4.0-0.15","subject_id":"610a8e124478d80547e94b98","study_id":"6197b3f67c2b5cd3b6d9596a","session_id":"619be31c28ab871265639f81","condition":"contingent","relevant_dimensions":["antennae","pattern"],"bee_group":{"antennae":"A","wings":"X","pattern":"D","legs":"X"},"action":"harvest","summary":"good-harvest","bonus":0.9600000000000012},{"rt":2047.2000000029802,"stimulus":"\n                    <p><b>Action: <em>harvest</em></b></p>\n                    <p>This is the bee that you just saw.</p>\n                    <img src=\"bees-with-color/bee-A2SM.svg\" width=\"200\">\n                    <p><span class=\"greenText\"><b>Successful harvest!</b></span><br>Your pay has increased by $0.02. Your bonus pay is now $0.56.</p>\n            ","response":0,"trial_type":"html-button-response","trial_index":38,"time_elapsed":402489,"internal_node_id":"0.0-4.0-1.15","subject_id":"610a8e124478d80547e94b98","study_id":"6197b3f67c2b5cd3b6d9596a","session_id":"619be31c28ab871265639f81","condition":"contingent","relevant_dimensions":["antennae","pattern"],"bee_group":{"antennae":"A","wings":"X","pattern":"D","legs":"X"},"bonus":0.9600000000000012},{"rt":2634,"stimulus":"bees-with-color/bee-B1DM.svg","response":0,"trial_type":"image-button-response","trial_index":39,"time_elapsed":405125,"internal_node_id":"0.0-4.0-0.16","subject_id":"610a8e124478d80547e94b98","study_id":"6197b3f67c2b5cd3b6d9596a","session_id":"619be31c28ab871265639f81","condition":"contingent","relevant_dimensions":["antennae","pattern"],"bee_group":{"antennae":"A","wings":"X","pattern":"D","legs":"X"},"action":"harvest","summary":"good-harvest","bonus":0.9600000000000012},{"rt":1408.3999999910593,"stimulus":"\n                    <p><b>Action: <em>harvest</em></b></p>\n                    <p>This is the bee that you just saw.</p>\n                    <img src=\"bees-with-color/bee-B1DM.svg\" width=\"200\">\n                    <p><span class=\"greenText\"><b>Successful harvest!</b></span><br>Your pay has increased by $0.02. Your bonus pay is now $0.58.</p>\n            ","response":0,"trial_type":"html-button-response","trial_index":40,"time_elapsed":406535,"internal_node_id":"0.0-4.0-1.16","subject_id":"610a8e124478d80547e94b98","study_id":"6197b3f67c2b5cd3b6d9596a","session_id":"619be31c28ab871265639f81","condition":"contingent","relevant_dimensions":["antennae","pattern"],"bee_group":{"antennae":"A","wings":"X","pattern":"D","legs":"X"},"bonus":0.9600000000000012},{"rt":3379.6000000089407,"stimulus":"bees-with-color/bee-A1SF.svg","response":0,"trial_type":"image-button-response","trial_index":41,"time_elapsed":409917,"internal_node_id":"0.0-4.0-0.17","subject_id":"610a8e124478d80547e94b98","study_id":"6197b3f67c2b5cd3b6d9596a","session_id":"619be31c28ab871265639f81","condition":"contingent","relevant_dimensions":["antennae","pattern"],"bee_group":{"antennae":"A","wings":"X","pattern":"D","legs":"X"},"action":"harvest","summary":"good-harvest","bonus":0.9600000000000012},{"rt":1328.5,"stimulus":"\n                    <p><b>Action: <em>harvest</em></b></p>\n                    <p>This is the bee that you just saw.</p>\n                    <img src=\"bees-with-color/bee-A1SF.svg\" width=\"200\">\n                    <p><span class=\"greenText\"><b>Successful harvest!</b></span><br>Your pay has increased by $0.02. Your bonus pay is now $0.60.</p>\n            ","response":0,"trial_type":"html-button-response","trial_index":42,"time_elapsed":411248,"internal_node_id":"0.0-4.0-1.17","subject_id":"610a8e124478d80547e94b98","study_id":"6197b3f67c2b5cd3b6d9596a","session_id":"619be31c28ab871265639f81","condition":"contingent","relevant_dimensions":["antennae","pattern"],"bee_group":{"antennae":"A","wings":"X","pattern":"D","legs":"X"},"bonus":0.9600000000000012},{"rt":2942.5,"stimulus":"bees-with-color/bee-B1SF.svg","response":1,"trial_type":"image-button-response","trial_index":43,"time_elapsed":414192,"internal_node_id":"0.0-4.0-0.18","subject_id":"610a8e124478d80547e94b98","study_id":"6197b3f67c2b5cd3b6d9596a","session_id":"619be31c28ab871265639f81","condition":"contingent","relevant_dimensions":["antennae","pattern"],"bee_group":{"antennae":"A","wings":"X","pattern":"D","legs":"X"},"action":"avoid","summary":"bad-avoid","bonus":0.9600000000000012},{"rt":1706.7999999970198,"stimulus":"\n                    <p><b>Action: <em>avoid</em></b></p>\n                    <p>This is the bee that you just saw.</p>\n                    <img src=\"bees-with-color/bee-B1SF.svg\" width=\"200\">\n                    <p><br>Your bonus pay is unchanged, and remains at $0.60.</p>\n            ","response":0,"trial_type":"html-button-response","trial_index":44,"time_elapsed":415901,"internal_node_id":"0.0-4.0-1.18","subject_id":"610a8e124478d80547e94b98","study_id":"6197b3f67c2b5cd3b6d9596a","session_id":"619be31c28ab871265639f81","condition":"contingent","relevant_dimensions":["antennae","pattern"],"bee_group":{"antennae":"A","wings":"X","pattern":"D","legs":"X"},"bonus":0.9600000000000012},{"rt":2879.7000000029802,"stimulus":"bees-with-color/bee-A2DF.svg","response":0,"trial_type":"image-button-response","trial_index":45,"time_elapsed":418783,"internal_node_id":"0.0-4.0-0.19","subject_id":"610a8e124478d80547e94b98","study_id":"6197b3f67c2b5cd3b6d9596a","session_id":"619be31c28ab871265639f81","condition":"contingent","relevant_dimensions":["antennae","pattern"],"bee_group":{"antennae":"A","wings":"X","pattern":"D","legs":"X"},"action":"harvest","summary":"bad-harvest","bonus":0.9600000000000012},{"rt":2000.5,"stimulus":"\n                    <p><b>Action: <em>harvest</em></b></p>\n                    <p>This is the bee that you just saw.</p>\n                    <img src=\"bees-with-color/bee-A2DF.svg\" width=\"200\">\n                    <p><span class=\"redText\">Bad choice, the bee was angry.</span><br><b>You have been stung!</b><br>Your pay has been decreased by $0.10. Your bonus pay is now $0.50.</p>\n            ","response":0,"trial_type":"html-button-response","trial_index":46,"time_elapsed":420785,"internal_node_id":"0.0-4.0-1.19","subject_id":"610a8e124478d80547e94b98","study_id":"6197b3f67c2b5cd3b6d9596a","session_id":"619be31c28ab871265639f81","condition":"contingent","relevant_dimensions":["antennae","pattern"],"bee_group":{"antennae":"A","wings":"X","pattern":"D","legs":"X"},"bonus":0.9600000000000012},{"rt":2079.6000000089407,"stimulus":"bees-with-color/bee-B2SM.svg","response":0,"trial_type":"image-button-response","trial_index":47,"time_elapsed":422866,"internal_node_id":"0.0-4.0-0.20","subject_id":"610a8e124478d80547e94b98","study_id":"6197b3f67c2b5cd3b6d9596a","session_id":"619be31c28ab871265639f81","condition":"contingent","relevant_dimensions":["antennae","pattern"],"bee_group":{"antennae":"A","wings":"X","pattern":"D","legs":"X"},"action":"harvest","summary":"good-harvest","bonus":0.9600000000000012},{"rt":1068.4000000059605,"stimulus":"\n                    <p><b>Action: <em>harvest</em></b></p>\n                    <p>This is the bee that you just saw.</p>\n                    <img src=\"bees-with-color/bee-B2SM.svg\" width=\"200\">\n                    <p><span class=\"greenText\"><b>Successful harvest!</b></span><br>Your pay has increased by $0.02. Your bonus pay is now $0.52.</p>\n            ","response":0,"trial_type":"html-button-response","trial_index":48,"time_elapsed":423936,"internal_node_id":"0.0-4.0-1.20","subject_id":"610a8e124478d80547e94b98","study_id":"6197b3f67c2b5cd3b6d9596a","session_id":"619be31c28ab871265639f81","condition":"contingent","relevant_dimensions":["antennae","pattern"],"bee_group":{"antennae":"A","wings":"X","pattern":"D","legs":"X"},"bonus":0.9600000000000012},{"rt":1988.8999999910593,"stimulus":"bees-with-color/bee-B1SM.svg","response":0,"trial_type":"image-button-response","trial_index":49,"time_elapsed":425927,"internal_node_id":"0.0-4.0-0.21","subject_id":"610a8e124478d80547e94b98","study_id":"6197b3f67c2b5cd3b6d9596a","session_id":"619be31c28ab871265639f81","condition":"contingent","relevant_dimensions":["antennae","pattern"],"bee_group":{"antennae":"A","wings":"X","pattern":"D","legs":"X"},"action":"harvest","summary":"good-harvest","bonus":0.9600000000000012},{"rt":1144.5,"stimulus":"\n                    <p><b>Action: <em>harvest</em></b></p>\n                    <p>This is the bee that you just saw.</p>\n                    <img src=\"bees-with-color/bee-B1SM.svg\" width=\"200\">\n                    <p><span class=\"greenText\"><b>Successful harvest!</b></span><br>Your pay has increased by $0.02. Your bonus pay is now $0.54.</p>\n            ","response":0,"trial_type":"html-button-response","trial_index":50,"time_elapsed":427074,"internal_node_id":"0.0-4.0-1.21","subject_id":"610a8e124478d80547e94b98","study_id":"6197b3f67c2b5cd3b6d9596a","session_id":"619be31c28ab871265639f81","condition":"contingent","relevant_dimensions":["antennae","pattern"],"bee_group":{"antennae":"A","wings":"X","pattern":"D","legs":"X"},"bonus":0.9600000000000012},{"rt":1291.5999999940395,"stimulus":"bees-with-color/bee-A1SM.svg","response":0,"trial_type":"image-button-response","trial_index":51,"time_elapsed":428368,"internal_node_id":"0.0-4.0-0.22","subject_id":"610a8e124478d80547e94b98","study_id":"6197b3f67c2b5cd3b6d9596a","session_id":"619be31c28ab871265639f81","condition":"contingent","relevant_dimensions":["antennae","pattern"],"bee_group":{"antennae":"A","wings":"X","pattern":"D","legs":"X"},"action":"harvest","summary":"good-harvest","bonus":0.9600000000000012},{"rt":1259.9000000059605,"stimulus":"\n                    <p><b>Action: <em>harvest</em></b></p>\n                    <p>This is the bee that you just saw.</p>\n                    <img src=\"bees-with-color/bee-A1SM.svg\" width=\"200\">\n                    <p><span class=\"greenText\"><b>Successful harvest!</b></span><br>Your pay has increased by $0.02. Your bonus pay is now $0.56.</p>\n            ","response":0,"trial_type":"html-button-response","trial_index":52,"time_elapsed":429630,"internal_node_id":"0.0-4.0-1.22","subject_id":"610a8e124478d80547e94b98","study_id":"6197b3f67c2b5cd3b6d9596a","session_id":"619be31c28ab871265639f81","condition":"contingent","relevant_dimensions":["antennae","pattern"],"bee_group":{"antennae":"A","wings":"X","pattern":"D","legs":"X"},"bonus":0.9600000000000012},{"rt":2600.3999999910593,"stimulus":"bees-with-color/bee-A2DM.svg","response":1,"trial_type":"image-button-response","trial_index":53,"time_elapsed":432232,"internal_node_id":"0.0-4.0-0.23","subject_id":"610a8e124478d80547e94b98","study_id":"6197b3f67c2b5cd3b6d9596a","session_id":"619be31c28ab871265639f81","condition":"contingent","relevant_dimensions":["antennae","pattern"],"bee_group":{"antennae":"A","wings":"X","pattern":"D","legs":"X"},"action":"avoid","summary":"good-avoid","bonus":0.9600000000000012},{"rt":1509.6000000089407,"stimulus":"\n                    <p><b>Action: <em>avoid</em></b></p>\n                    <p>This is the bee that you just saw.</p>\n                    <img src=\"bees-with-color/bee-A2DM.svg\" width=\"200\">\n                    <p><br>Your bonus pay is unchanged, and remains at $0.56.</p>\n            ","response":0,"trial_type":"html-button-response","trial_index":54,"time_elapsed":433744,"internal_node_id":"0.0-4.0-1.23","subject_id":"610a8e124478d80547e94b98","study_id":"6197b3f67c2b5cd3b6d9596a","session_id":"619be31c28ab871265639f81","condition":"contingent","relevant_dimensions":["antennae","pattern"],"bee_group":{"antennae":"A","wings":"X","pattern":"D","legs":"X"},"bonus":0.9600000000000012},{"rt":1933.6000000089407,"stimulus":"bees-with-color/bee-A1DF.svg","response":0,"trial_type":"image-button-response","trial_index":55,"time_elapsed":435679,"internal_node_id":"0.0-4.0-0.24","subject_id":"610a8e124478d80547e94b98","study_id":"6197b3f67c2b5cd3b6d9596a","session_id":"619be31c28ab871265639f81","condition":"contingent","relevant_dimensions":["antennae","pattern"],"bee_group":{"antennae":"A","wings":"X","pattern":"D","legs":"X"},"action":"harvest","summary":"bad-harvest","bonus":0.9600000000000012},{"rt":1436.2000000029802,"stimulus":"\n                    <p><b>Action: <em>harvest</em></b></p>\n                    <p>This is the bee that you just saw.</p>\n                    <img src=\"bees-with-color/bee-A1DF.svg\" width=\"200\">\n                    <p><span class=\"redText\">Bad choice, the bee was angry.</span><br><b>You have been stung!</b><br>Your pay has been decreased by $0.10. Your bonus pay is now $0.46.</p>\n            ","response":0,"trial_type":"html-button-response","trial_index":56,"time_elapsed":437117,"internal_node_id":"0.0-4.0-1.24","subject_id":"610a8e124478d80547e94b98","study_id":"6197b3f67c2b5cd3b6d9596a","session_id":"619be31c28ab871265639f81","condition":"contingent","relevant_dimensions":["antennae","pattern"],"bee_group":{"antennae":"A","wings":"X","pattern":"D","legs":"X"},"bonus":0.9600000000000012},{"rt":1902.5,"stimulus":"bees-with-color/bee-B2DF.svg","response":0,"trial_type":"image-button-response","trial_index":57,"time_elapsed":439022,"internal_node_id":"0.0-4.0-0.25","subject_id":"610a8e124478d80547e94b98","study_id":"6197b3f67c2b5cd3b6d9596a","session_id":"619be31c28ab871265639f81","condition":"contingent","relevant_dimensions":["antennae","pattern"],"bee_group":{"antennae":"A","wings":"X","pattern":"D","legs":"X"},"action":"harvest","summary":"good-harvest","bonus":0.9600000000000012},{"rt":1210.3999999910593,"stimulus":"\n                    <p><b>Action: <em>harvest</em></b></p>\n                    <p>This is the bee that you just saw.</p>\n                    <img src=\"bees-with-color/bee-B2DF.svg\" width=\"200\">\n                    <p><span class=\"greenText\"><b>Successful harvest!</b></span><br>Your pay has increased by $0.02. Your bonus pay is now $0.48.</p>\n            ","response":0,"trial_type":"html-button-response","trial_index":58,"time_elapsed":440234,"internal_node_id":"0.0-4.0-1.25","subject_id":"610a8e124478d80547e94b98","study_id":"6197b3f67c2b5cd3b6d9596a","session_id":"619be31c28ab871265639f81","condition":"contingent","relevant_dimensions":["antennae","pattern"],"bee_group":{"antennae":"A","wings":"X","pattern":"D","legs":"X"},"bonus":0.9600000000000012},{"rt":2565.7999999970198,"stimulus":"bees-with-color/bee-A2SM.svg","response":0,"trial_type":"image-button-response","trial_index":59,"time_elapsed":442802,"internal_node_id":"0.0-4.0-0.26","subject_id":"610a8e124478d80547e94b98","study_id":"6197b3f67c2b5cd3b6d9596a","session_id":"619be31c28ab871265639f81","condition":"contingent","relevant_dimensions":["antennae","pattern"],"bee_group":{"antennae":"A","wings":"X","pattern":"D","legs":"X"},"action":"harvest","summary":"good-harvest","bonus":0.9600000000000012},{"rt":1210.0999999940395,"stimulus":"\n                    <p><b>Action: <em>harvest</em></b></p>\n                    <p>This is the bee that you just saw.</p>\n                    <img src=\"bees-with-color/bee-A2SM.svg\" width=\"200\">\n                    <p><span class=\"greenText\"><b>Successful harvest!</b></span><br>Your pay has increased by $0.02. Your bonus pay is now $0.50.</p>\n            ","response":0,"trial_type":"html-button-response","trial_index":60,"time_elapsed":444014,"internal_node_id":"0.0-4.0-1.26","subject_id":"610a8e124478d80547e94b98","study_id":"6197b3f67c2b5cd3b6d9596a","session_id":"619be31c28ab871265639f81","condition":"contingent","relevant_dimensions":["antennae","pattern"],"bee_group":{"antennae":"A","wings":"X","pattern":"D","legs":"X"},"bonus":0.9600000000000012},{"rt":4645.20000000298,"stimulus":"bees-with-color/bee-B2SF.svg","response":0,"trial_type":"image-button-response","trial_index":61,"time_elapsed":448661,"internal_node_id":"0.0-4.0-0.27","subject_id":"610a8e124478d80547e94b98","study_id":"6197b3f67c2b5cd3b6d9596a","session_id":"619be31c28ab871265639f81","condition":"contingent","relevant_dimensions":["antennae","pattern"],"bee_group":{"antennae":"A","wings":"X","pattern":"D","legs":"X"},"action":"harvest","summary":"good-harvest","bonus":0.9600000000000012},{"rt":1275.800000011921,"stimulus":"\n                    <p><b>Action: <em>harvest</em></b></p>\n                    <p>This is the bee that you just saw.</p>\n                    <img src=\"bees-with-color/bee-B2SF.svg\" width=\"200\">\n                    <p><span class=\"greenText\"><b>Successful harvest!</b></span><br>Your pay has increased by $0.02. Your bonus pay is now $0.52.</p>\n            ","response":0,"trial_type":"html-button-response","trial_index":62,"time_elapsed":449939,"internal_node_id":"0.0-4.0-1.27","subject_id":"610a8e124478d80547e94b98","study_id":"6197b3f67c2b5cd3b6d9596a","session_id":"619be31c28ab871265639f81","condition":"contingent","relevant_dimensions":["antennae","pattern"],"bee_group":{"antennae":"A","wings":"X","pattern":"D","legs":"X"},"bonus":0.9600000000000012},{"rt":1318.7000000029802,"stimulus":"bees-with-color/bee-B2DM.svg","response":1,"trial_type":"image-button-response","trial_index":63,"time_elapsed":451259,"internal_node_id":"0.0-4.0-0.28","subject_id":"610a8e124478d80547e94b98","study_id":"6197b3f67c2b5cd3b6d9596a","session_id":"619be31c28ab871265639f81","condition":"contingent","relevant_dimensions":["antennae","pattern"],"bee_group":{"antennae":"A","wings":"X","pattern":"D","legs":"X"},"action":"avoid","summary":"bad-avoid","bonus":0.9600000000000012},{"rt":1112.7000000029802,"stimulus":"\n                    <p><b>Action: <em>avoid</em></b></p>\n                    <p>This is the bee that you just saw.</p>\n                    <img src=\"bees-with-color/bee-B2DM.svg\" width=\"200\">\n                    <p><br>Your bonus pay is unchanged, and remains at $0.52.</p>\n            ","response":0,"trial_type":"html-button-response","trial_index":64,"time_elapsed":452374,"internal_node_id":"0.0-4.0-1.28","subject_id":"610a8e124478d80547e94b98","study_id":"6197b3f67c2b5cd3b6d9596a","session_id":"619be31c28ab871265639f81","condition":"contingent","relevant_dimensions":["antennae","pattern"],"bee_group":{"antennae":"A","wings":"X","pattern":"D","legs":"X"},"bonus":0.9600000000000012},{"rt":1899.8999999910593,"stimulus":"bees-with-color/bee-A1DM.svg","response":1,"trial_type":"image-button-response","trial_index":65,"time_elapsed":454275,"internal_node_id":"0.0-4.0-0.29","subject_id":"610a8e124478d80547e94b98","study_id":"6197b3f67c2b5cd3b6d9596a","session_id":"619be31c28ab871265639f81","condition":"contingent","relevant_dimensions":["antennae","pattern"],"bee_group":{"antennae":"A","wings":"X","pattern":"D","legs":"X"},"action":"avoid","summary":"good-avoid","bonus":0.9600000000000012},{"rt":1224.9000000059605,"stimulus":"\n                    <p><b>Action: <em>avoid</em></b></p>\n                    <p>This is the bee that you just saw.</p>\n                    <img src=\"bees-with-color/bee-A1DM.svg\" width=\"200\">\n                    <p><br>Your bonus pay is unchanged, and remains at $0.52.</p>\n            ","response":0,"trial_type":"html-button-response","trial_index":66,"time_elapsed":455502,"internal_node_id":"0.0-4.0-1.29","subject_id":"610a8e124478d80547e94b98","study_id":"6197b3f67c2b5cd3b6d9596a","session_id":"619be31c28ab871265639f81","condition":"contingent","relevant_dimensions":["antennae","pattern"],"bee_group":{"antennae":"A","wings":"X","pattern":"D","legs":"X"},"bonus":0.9600000000000012},{"rt":1878.1000000089407,"stimulus":"bees-with-color/bee-B1DF.svg","response":0,"trial_type":"image-button-response","trial_index":67,"time_elapsed":457381,"internal_node_id":"0.0-4.0-0.30","subject_id":"610a8e124478d80547e94b98","study_id":"6197b3f67c2b5cd3b6d9596a","session_id":"619be31c28ab871265639f81","condition":"contingent","relevant_dimensions":["antennae","pattern"],"bee_group":{"antennae":"A","wings":"X","pattern":"D","legs":"X"},"action":"harvest","summary":"good-harvest","bonus":0.9600000000000012},{"rt":6548.399999991059,"stimulus":"\n                    <p><b>Action: <em>harvest</em></b></p>\n                    <p>This is the bee that you just saw.</p>\n                    <img src=\"bees-with-color/bee-B1DF.svg\" width=\"200\">\n                    <p><span class=\"greenText\"><b>Successful harvest!</b></span><br>Your pay has increased by $0.02. Your bonus pay is now $0.54.</p>\n            ","response":0,"trial_type":"html-button-response","trial_index":68,"time_elapsed":463931,"internal_node_id":"0.0-4.0-1.30","subject_id":"610a8e124478d80547e94b98","study_id":"6197b3f67c2b5cd3b6d9596a","session_id":"619be31c28ab871265639f81","condition":"contingent","relevant_dimensions":["antennae","pattern"],"bee_group":{"antennae":"A","wings":"X","pattern":"D","legs":"X"},"bonus":0.9600000000000012},{"rt":2775.4000000059605,"stimulus":"bees-with-color/bee-A2SF.svg","response":0,"trial_type":"image-button-response","trial_index":69,"time_elapsed":466709,"internal_node_id":"0.0-4.0-0.31","subject_id":"610a8e124478d80547e94b98","study_id":"6197b3f67c2b5cd3b6d9596a","session_id":"619be31c28ab871265639f81","condition":"contingent","relevant_dimensions":["antennae","pattern"],"bee_group":{"antennae":"A","wings":"X","pattern":"D","legs":"X"},"action":"harvest","summary":"good-harvest","bonus":0.9600000000000012},{"rt":1894.5,"stimulus":"\n                    <p><b>Action: <em>harvest</em></b></p>\n                    <p>This is the bee that you just saw.</p>\n                    <img src=\"bees-with-color/bee-A2SF.svg\" width=\"200\">\n                    <p><span class=\"greenText\"><b>Successful harvest!</b></span><br>Your pay has increased by $0.02. Your bonus pay is now $0.56.</p>\n            ","response":0,"trial_type":"html-button-response","trial_index":70,"time_elapsed":468605,"internal_node_id":"0.0-4.0-1.31","subject_id":"610a8e124478d80547e94b98","study_id":"6197b3f67c2b5cd3b6d9596a","session_id":"619be31c28ab871265639f81","condition":"contingent","relevant_dimensions":["antennae","pattern"],"bee_group":{"antennae":"A","wings":"X","pattern":"D","legs":"X"},"bonus":0.9600000000000012},{"rt":3501.2000000029802,"stimulus":"bees-with-color/bee-B1DF.svg","response":1,"trial_type":"image-button-response","trial_index":71,"time_elapsed":472108,"internal_node_id":"0.0-4.0-0.32","subject_id":"610a8e124478d80547e94b98","study_id":"6197b3f67c2b5cd3b6d9596a","session_id":"619be31c28ab871265639f81","condition":"contingent","relevant_dimensions":["antennae","pattern"],"bee_group":{"antennae":"A","wings":"X","pattern":"D","legs":"X"},"action":"avoid","summary":"bad-avoid","bonus":0.9600000000000012},{"rt":999.6000000089407,"stimulus":"\n                    <p><b>Action: <em>avoid</em></b></p>\n                    <p>This is the bee that you just saw.</p>\n                    <img src=\"bees-with-color/bee-B1DF.svg\" width=\"200\">\n                    <p><br>Your bonus pay is unchanged, and remains at $0.56.</p>\n            ","response":0,"trial_type":"html-button-response","trial_index":72,"time_elapsed":473109,"internal_node_id":"0.0-4.0-1.32","subject_id":"610a8e124478d80547e94b98","study_id":"6197b3f67c2b5cd3b6d9596a","session_id":"619be31c28ab871265639f81","condition":"contingent","relevant_dimensions":["antennae","pattern"],"bee_group":{"antennae":"A","wings":"X","pattern":"D","legs":"X"},"bonus":0.9600000000000012},{"rt":2089.2000000029802,"stimulus":"bees-with-color/bee-A1SF.svg","response":1,"trial_type":"image-button-response","trial_index":73,"time_elapsed":475200,"internal_node_id":"0.0-4.0-0.33","subject_id":"610a8e124478d80547e94b98","study_id":"6197b3f67c2b5cd3b6d9596a","session_id":"619be31c28ab871265639f81","condition":"contingent","relevant_dimensions":["antennae","pattern"],"bee_group":{"antennae":"A","wings":"X","pattern":"D","legs":"X"},"action":"avoid","summary":"bad-avoid","bonus":0.9600000000000012},{"rt":1192.0999999940395,"stimulus":"\n                    <p><b>Action: <em>avoid</em></b></p>\n                    <p>This is the bee that you just saw.</p>\n                    <img src=\"bees-with-color/bee-A1SF.svg\" width=\"200\">\n                    <p><br>Your bonus pay is unchanged, and remains at $0.56.</p>\n            ","response":0,"trial_type":"html-button-response","trial_index":74,"time_elapsed":476394,"internal_node_id":"0.0-4.0-1.33","subject_id":"610a8e124478d80547e94b98","study_id":"6197b3f67c2b5cd3b6d9596a","session_id":"619be31c28ab871265639f81","condition":"contingent","relevant_dimensions":["antennae","pattern"],"bee_group":{"antennae":"A","wings":"X","pattern":"D","legs":"X"},"bonus":0.9600000000000012},{"rt":1682,"stimulus":"bees-with-color/bee-A1DM.svg","response":0,"trial_type":"image-button-response","trial_index":75,"time_elapsed":478078,"internal_node_id":"0.0-4.0-0.34","subject_id":"610a8e124478d80547e94b98","study_id":"6197b3f67c2b5cd3b6d9596a","session_id":"619be31c28ab871265639f81","condition":"contingent","relevant_dimensions":["antennae","pattern"],"bee_group":{"antennae":"A","wings":"X","pattern":"D","legs":"X"},"action":"harvest","summary":"bad-harvest","bonus":0.9600000000000012},{"rt":1512.1000000089407,"stimulus":"\n                    <p><b>Action: <em>harvest</em></b></p>\n                    <p>This is the bee that you just saw.</p>\n                    <img src=\"bees-with-color/bee-A1DM.svg\" width=\"200\">\n                    <p><span class=\"redText\">Bad choice, the bee was angry.</span><br><b>You have been stung!</b><br>Your pay has been decreased by $0.10. Your bonus pay is now $0.46.</p>\n            ","response":0,"trial_type":"html-button-response","trial_index":76,"time_elapsed":479592,"internal_node_id":"0.0-4.0-1.34","subject_id":"610a8e124478d80547e94b98","study_id":"6197b3f67c2b5cd3b6d9596a","session_id":"619be31c28ab871265639f81","condition":"contingent","relevant_dimensions":["antennae","pattern"],"bee_group":{"antennae":"A","wings":"X","pattern":"D","legs":"X"},"bonus":0.9600000000000012},{"rt":1044.7999999970198,"stimulus":"bees-with-color/bee-A2DM.svg","response":0,"trial_type":"image-button-response","trial_index":77,"time_elapsed":480638,"internal_node_id":"0.0-4.0-0.35","subject_id":"610a8e124478d80547e94b98","study_id":"6197b3f67c2b5cd3b6d9596a","session_id":"619be31c28ab871265639f81","condition":"contingent","relevant_dimensions":["antennae","pattern"],"bee_group":{"antennae":"A","wings":"X","pattern":"D","legs":"X"},"action":"harvest","summary":"bad-harvest","bonus":0.9600000000000012},{"rt":1328.7000000029802,"stimulus":"\n                    <p><b>Action: <em>harvest</em></b></p>\n                    <p>This is the bee that you just saw.</p>\n                    <img src=\"bees-with-color/bee-A2DM.svg\" width=\"200\">\n                    <p><span class=\"redText\">Bad choice, the bee was angry.</span><br><b>You have been stung!</b><br>Your pay has been decreased by $0.10. Your bonus pay is now $0.36.</p>\n            ","response":0,"trial_type":"html-button-response","trial_index":78,"time_elapsed":481968,"internal_node_id":"0.0-4.0-1.35","subject_id":"610a8e124478d80547e94b98","study_id":"6197b3f67c2b5cd3b6d9596a","session_id":"619be31c28ab871265639f81","condition":"contingent","relevant_dimensions":["antennae","pattern"],"bee_group":{"antennae":"A","wings":"X","pattern":"D","legs":"X"},"bonus":0.9600000000000012},{"rt":1043.7999999970198,"stimulus":"bees-with-color/bee-B2DF.svg","response":0,"trial_type":"image-button-response","trial_index":79,"time_elapsed":483014,"internal_node_id":"0.0-4.0-0.36","subject_id":"610a8e124478d80547e94b98","study_id":"6197b3f67c2b5cd3b6d9596a","session_id":"619be31c28ab871265639f81","condition":"contingent","relevant_dimensions":["antennae","pattern"],"bee_group":{"antennae":"A","wings":"X","pattern":"D","legs":"X"},"action":"harvest","summary":"good-harvest","bonus":0.9600000000000012},{"rt":1133.1000000089407,"stimulus":"\n                    <p><b>Action: <em>harvest</em></b></p>\n                    <p>This is the bee that you just saw.</p>\n                    <img src=\"bees-with-color/bee-B2DF.svg\" width=\"200\">\n                    <p><span class=\"greenText\"><b>Successful harvest!</b></span><br>Your pay has increased by $0.02. Your bonus pay is now $0.38.</p>\n            ","response":0,"trial_type":"html-button-response","trial_index":80,"time_elapsed":484149,"internal_node_id":"0.0-4.0-1.36","subject_id":"610a8e124478d80547e94b98","study_id":"6197b3f67c2b5cd3b6d9596a","session_id":"619be31c28ab871265639f81","condition":"contingent","relevant_dimensions":["antennae","pattern"],"bee_group":{"antennae":"A","wings":"X","pattern":"D","legs":"X"},"bonus":0.9600000000000012},{"rt":1440.199999988079,"stimulus":"bees-with-color/bee-B2SM.svg","response":0,"trial_type":"image-button-response","trial_index":81,"time_elapsed":485590,"internal_node_id":"0.0-4.0-0.37","subject_id":"610a8e124478d80547e94b98","study_id":"6197b3f67c2b5cd3b6d9596a","session_id":"619be31c28ab871265639f81","condition":"contingent","relevant_dimensions":["antennae","pattern"],"bee_group":{"antennae":"A","wings":"X","pattern":"D","legs":"X"},"action":"harvest","summary":"good-harvest","bonus":0.9600000000000012},{"rt":1078.5,"stimulus":"\n                    <p><b>Action: <em>harvest</em></b></p>\n                    <p>This is the bee that you just saw.</p>\n                    <img src=\"bees-with-color/bee-B2SM.svg\" width=\"200\">\n                    <p><span class=\"greenText\"><b>Successful harvest!</b></span><br>Your pay has increased by $0.02. Your bonus pay is now $0.40.</p>\n            ","response":0,"trial_type":"html-button-response","trial_index":82,"time_elapsed":486670,"internal_node_id":"0.0-4.0-1.37","subject_id":"610a8e124478d80547e94b98","study_id":"6197b3f67c2b5cd3b6d9596a","session_id":"619be31c28ab871265639f81","condition":"contingent","relevant_dimensions":["antennae","pattern"],"bee_group":{"antennae":"A","wings":"X","pattern":"D","legs":"X"},"bonus":0.9600000000000012},{"rt":1443.2999999970198,"stimulus":"bees-with-color/bee-A1SM.svg","response":0,"trial_type":"image-button-response","trial_index":83,"time_elapsed":488115,"internal_node_id":"0.0-4.0-0.38","subject_id":"610a8e124478d80547e94b98","study_id":"6197b3f67c2b5cd3b6d9596a","session_id":"619be31c28ab871265639f81","condition":"contingent","relevant_dimensions":["antennae","pattern"],"bee_group":{"antennae":"A","wings":"X","pattern":"D","legs":"X"},"action":"harvest","summary":"good-harvest","bonus":0.9600000000000012},{"rt":1069.2000000029802,"stimulus":"\n                    <p><b>Action: <em>harvest</em></b></p>\n                    <p>This is the bee that you just saw.</p>\n                    <img src=\"bees-with-color/bee-A1SM.svg\" width=\"200\">\n                    <p><span class=\"greenText\"><b>Successful harvest!</b></span><br>Your pay has increased by $0.02. Your bonus pay is now $0.42.</p>\n            ","response":0,"trial_type":"html-button-response","trial_index":84,"time_elapsed":489186,"internal_node_id":"0.0-4.0-1.38","subject_id":"610a8e124478d80547e94b98","study_id":"6197b3f67c2b5cd3b6d9596a","session_id":"619be31c28ab871265639f81","condition":"contingent","relevant_dimensions":["antennae","pattern"],"bee_group":{"antennae":"A","wings":"X","pattern":"D","legs":"X"},"bonus":0.9600000000000012},{"rt":1676.1000000089407,"stimulus":"bees-with-color/bee-A2SF.svg","response":0,"trial_type":"image-button-response","trial_index":85,"time_elapsed":490864,"internal_node_id":"0.0-4.0-0.39","subject_id":"610a8e124478d80547e94b98","study_id":"6197b3f67c2b5cd3b6d9596a","session_id":"619be31c28ab871265639f81","condition":"contingent","relevant_dimensions":["antennae","pattern"],"bee_group":{"antennae":"A","wings":"X","pattern":"D","legs":"X"},"action":"harvest","summary":"good-harvest","bonus":0.9600000000000012},{"rt":1080.2000000029802,"stimulus":"\n                    <p><b>Action: <em>harvest</em></b></p>\n                    <p>This is the bee that you just saw.</p>\n                    <img src=\"bees-with-color/bee-A2SF.svg\" width=\"200\">\n                    <p><span class=\"greenText\"><b>Successful harvest!</b></span><br>Your pay has increased by $0.02. Your bonus pay is now $0.44.</p>\n            ","response":0,"trial_type":"html-button-response","trial_index":86,"time_elapsed":491946,"internal_node_id":"0.0-4.0-1.39","subject_id":"610a8e124478d80547e94b98","study_id":"6197b3f67c2b5cd3b6d9596a","session_id":"619be31c28ab871265639f81","condition":"contingent","relevant_dimensions":["antennae","pattern"],"bee_group":{"antennae":"A","wings":"X","pattern":"D","legs":"X"},"bonus":0.9600000000000012},{"rt":1921.2999999970198,"stimulus":"bees-with-color/bee-A2SM.svg","response":0,"trial_type":"image-button-response","trial_index":87,"time_elapsed":493869,"internal_node_id":"0.0-4.0-0.40","subject_id":"610a8e124478d80547e94b98","study_id":"6197b3f67c2b5cd3b6d9596a","session_id":"619be31c28ab871265639f81","condition":"contingent","relevant_dimensions":["antennae","pattern"],"bee_group":{"antennae":"A","wings":"X","pattern":"D","legs":"X"},"action":"harvest","summary":"good-harvest","bonus":0.9600000000000012},{"rt":1092.0999999940395,"stimulus":"\n                    <p><b>Action: <em>harvest</em></b></p>\n                    <p>This is the bee that you just saw.</p>\n                    <img src=\"bees-with-color/bee-A2SM.svg\" width=\"200\">\n                    <p><span class=\"greenText\"><b>Successful harvest!</b></span><br>Your pay has increased by $0.02. Your bonus pay is now $0.46.</p>\n            ","response":0,"trial_type":"html-button-response","trial_index":88,"time_elapsed":494964,"internal_node_id":"0.0-4.0-1.40","subject_id":"610a8e124478d80547e94b98","study_id":"6197b3f67c2b5cd3b6d9596a","session_id":"619be31c28ab871265639f81","condition":"contingent","relevant_dimensions":["antennae","pattern"],"bee_group":{"antennae":"A","wings":"X","pattern":"D","legs":"X"},"bonus":0.9600000000000012},{"rt":2229,"stimulus":"bees-with-color/bee-A1DF.svg","response":1,"trial_type":"image-button-response","trial_index":89,"time_elapsed":497195,"internal_node_id":"0.0-4.0-0.41","subject_id":"610a8e124478d80547e94b98","study_id":"6197b3f67c2b5cd3b6d9596a","session_id":"619be31c28ab871265639f81","condition":"contingent","relevant_dimensions":["antennae","pattern"],"bee_group":{"antennae":"A","wings":"X","pattern":"D","legs":"X"},"action":"avoid","summary":"good-avoid","bonus":0.9600000000000012},{"rt":977.5,"stimulus":"\n                    <p><b>Action: <em>avoid</em></b></p>\n                    <p>This is the bee that you just saw.</p>\n                    <img src=\"bees-with-color/bee-A1DF.svg\" width=\"200\">\n                    <p><br>Your bonus pay is unchanged, and remains at $0.46.</p>\n            ","response":0,"trial_type":"html-button-response","trial_index":90,"time_elapsed":498175,"internal_node_id":"0.0-4.0-1.41","subject_id":"610a8e124478d80547e94b98","study_id":"6197b3f67c2b5cd3b6d9596a","session_id":"619be31c28ab871265639f81","condition":"contingent","relevant_dimensions":["antennae","pattern"],"bee_group":{"antennae":"A","wings":"X","pattern":"D","legs":"X"},"bonus":0.9600000000000012},{"rt":1111.5999999940395,"stimulus":"bees-with-color/bee-B1DM.svg","response":1,"trial_type":"image-button-response","trial_index":91,"time_elapsed":499289,"internal_node_id":"0.0-4.0-0.42","subject_id":"610a8e124478d80547e94b98","study_id":"6197b3f67c2b5cd3b6d9596a","session_id":"619be31c28ab871265639f81","condition":"contingent","relevant_dimensions":["antennae","pattern"],"bee_group":{"antennae":"A","wings":"X","pattern":"D","legs":"X"},"action":"avoid","summary":"bad-avoid","bonus":0.9600000000000012},{"rt":918.9000000059605,"stimulus":"\n                    <p><b>Action: <em>avoid</em></b></p>\n                    <p>This is the bee that you just saw.</p>\n                    <img src=\"bees-with-color/bee-B1DM.svg\" width=\"200\">\n                    <p><br>Your bonus pay is unchanged, and remains at $0.46.</p>\n            ","response":0,"trial_type":"html-button-response","trial_index":92,"time_elapsed":500210,"internal_node_id":"0.0-4.0-1.42","subject_id":"610a8e124478d80547e94b98","study_id":"6197b3f67c2b5cd3b6d9596a","session_id":"619be31c28ab871265639f81","condition":"contingent","relevant_dimensions":["antennae","pattern"],"bee_group":{"antennae":"A","wings":"X","pattern":"D","legs":"X"},"bonus":0.9600000000000012},{"rt":1515.6000000089407,"stimulus":"bees-with-color/bee-A2DF.svg","response":1,"trial_type":"image-button-response","trial_index":93,"time_elapsed":501727,"internal_node_id":"0.0-4.0-0.43","subject_id":"610a8e124478d80547e94b98","study_id":"6197b3f67c2b5cd3b6d9596a","session_id":"619be31c28ab871265639f81","condition":"contingent","relevant_dimensions":["antennae","pattern"],"bee_group":{"antennae":"A","wings":"X","pattern":"D","legs":"X"},"action":"avoid","summary":"good-avoid","bonus":0.9600000000000012},{"rt":905.2000000029802,"stimulus":"\n                    <p><b>Action: <em>avoid</em></b></p>\n                    <p>This is the bee that you just saw.</p>\n                    <img src=\"bees-with-color/bee-A2DF.svg\" width=\"200\">\n                    <p><br>Your bonus pay is unchanged, and remains at $0.46.</p>\n            ","response":0,"trial_type":"html-button-response","trial_index":94,"time_elapsed":502634,"internal_node_id":"0.0-4.0-1.43","subject_id":"610a8e124478d80547e94b98","study_id":"6197b3f67c2b5cd3b6d9596a","session_id":"619be31c28ab871265639f81","condition":"contingent","relevant_dimensions":["antennae","pattern"],"bee_group":{"antennae":"A","wings":"X","pattern":"D","legs":"X"},"bonus":0.9600000000000012},{"rt":1042.7999999970198,"stimulus":"bees-with-color/bee-B2SF.svg","response":0,"trial_type":"image-button-response","trial_index":95,"time_elapsed":503678,"internal_node_id":"0.0-4.0-0.44","subject_id":"610a8e124478d80547e94b98","study_id":"6197b3f67c2b5cd3b6d9596a","session_id":"619be31c28ab871265639f81","condition":"contingent","relevant_dimensions":["antennae","pattern"],"bee_group":{"antennae":"A","wings":"X","pattern":"D","legs":"X"},"action":"harvest","summary":"good-harvest","bonus":0.9600000000000012},{"rt":1257.7999999970198,"stimulus":"\n                    <p><b>Action: <em>harvest</em></b></p>\n                    <p>This is the bee that you just saw.</p>\n                    <img src=\"bees-with-color/bee-B2SF.svg\" width=\"200\">\n                    <p><span class=\"greenText\"><b>Successful harvest!</b></span><br>Your pay has increased by $0.02. Your bonus pay is now $0.48.</p>\n            ","response":0,"trial_type":"html-button-response","trial_index":96,"time_elapsed":504938,"internal_node_id":"0.0-4.0-1.44","subject_id":"610a8e124478d80547e94b98","study_id":"6197b3f67c2b5cd3b6d9596a","session_id":"619be31c28ab871265639f81","condition":"contingent","relevant_dimensions":["antennae","pattern"],"bee_group":{"antennae":"A","wings":"X","pattern":"D","legs":"X"},"bonus":0.9600000000000012},{"rt":1947,"stimulus":"bees-with-color/bee-B1SM.svg","response":0,"trial_type":"image-button-response","trial_index":97,"time_elapsed":506887,"internal_node_id":"0.0-4.0-0.45","subject_id":"610a8e124478d80547e94b98","study_id":"6197b3f67c2b5cd3b6d9596a","session_id":"619be31c28ab871265639f81","condition":"contingent","relevant_dimensions":["antennae","pattern"],"bee_group":{"antennae":"A","wings":"X","pattern":"D","legs":"X"},"action":"harvest","summary":"good-harvest","bonus":0.9600000000000012},{"rt":1106.800000011921,"stimulus":"\n                    <p><b>Action: <em>harvest</em></b></p>\n                    <p>This is the bee that you just saw.</p>\n                    <img src=\"bees-with-color/bee-B1SM.svg\" width=\"200\">\n                    <p><span class=\"greenText\"><b>Successful harvest!</b></span><br>Your pay has increased by $0.02. Your bonus pay is now $0.50.</p>\n            ","response":0,"trial_type":"html-button-response","trial_index":98,"time_elapsed":507995,"internal_node_id":"0.0-4.0-1.45","subject_id":"610a8e124478d80547e94b98","study_id":"6197b3f67c2b5cd3b6d9596a","session_id":"619be31c28ab871265639f81","condition":"contingent","relevant_dimensions":["antennae","pattern"],"bee_group":{"antennae":"A","wings":"X","pattern":"D","legs":"X"},"bonus":0.9600000000000012},{"rt":1317.1000000089407,"stimulus":"bees-with-color/bee-B1SF.svg","response":0,"trial_type":"image-button-response","trial_index":99,"time_elapsed":509314,"internal_node_id":"0.0-4.0-0.46","subject_id":"610a8e124478d80547e94b98","study_id":"6197b3f67c2b5cd3b6d9596a","session_id":"619be31c28ab871265639f81","condition":"contingent","relevant_dimensions":["antennae","pattern"],"bee_group":{"antennae":"A","wings":"X","pattern":"D","legs":"X"},"action":"harvest","summary":"good-harvest","bonus":0.9600000000000012},{"rt":1162.7999999970198,"stimulus":"\n                    <p><b>Action: <em>harvest</em></b></p>\n                    <p>This is the bee that you just saw.</p>\n                    <img src=\"bees-with-color/bee-B1SF.svg\" width=\"200\">\n                    <p><span class=\"greenText\"><b>Successful harvest!</b></span><br>Your pay has increased by $0.02. Your bonus pay is now $0.52.</p>\n            ","response":0,"trial_type":"html-button-response","trial_index":100,"time_elapsed":510479,"internal_node_id":"0.0-4.0-1.46","subject_id":"610a8e124478d80547e94b98","study_id":"6197b3f67c2b5cd3b6d9596a","session_id":"619be31c28ab871265639f81","condition":"contingent","relevant_dimensions":["antennae","pattern"],"bee_group":{"antennae":"A","wings":"X","pattern":"D","legs":"X"},"bonus":0.9600000000000012},{"rt":6900.4000000059605,"stimulus":"bees-with-color/bee-B2DM.svg","response":1,"trial_type":"image-button-response","trial_index":101,"time_elapsed":517381,"internal_node_id":"0.0-4.0-0.47","subject_id":"610a8e124478d80547e94b98","study_id":"6197b3f67c2b5cd3b6d9596a","session_id":"619be31c28ab871265639f81","condition":"contingent","relevant_dimensions":["antennae","pattern"],"bee_group":{"antennae":"A","wings":"X","pattern":"D","legs":"X"},"action":"avoid","summary":"bad-avoid","bonus":0.9600000000000012},{"rt":1085.4000000059605,"stimulus":"\n                    <p><b>Action: <em>avoid</em></b></p>\n                    <p>This is the bee that you just saw.</p>\n                    <img src=\"bees-with-color/bee-B2DM.svg\" width=\"200\">\n                    <p><br>Your bonus pay is unchanged, and remains at $0.52.</p>\n            ","response":0,"trial_type":"html-button-response","trial_index":102,"time_elapsed":518468,"internal_node_id":"0.0-4.0-1.47","subject_id":"610a8e124478d80547e94b98","study_id":"6197b3f67c2b5cd3b6d9596a","session_id":"619be31c28ab871265639f81","condition":"contingent","relevant_dimensions":["antennae","pattern"],"bee_group":{"antennae":"A","wings":"X","pattern":"D","legs":"X"},"bonus":0.9600000000000012},{"rt":2042.6000000089407,"stimulus":"bees-with-color/bee-A2SM.svg","response":0,"trial_type":"image-button-response","trial_index":103,"time_elapsed":520512,"internal_node_id":"0.0-4.0-0.48","subject_id":"610a8e124478d80547e94b98","study_id":"6197b3f67c2b5cd3b6d9596a","session_id":"619be31c28ab871265639f81","condition":"contingent","relevant_dimensions":["antennae","pattern"],"bee_group":{"antennae":"A","wings":"X","pattern":"D","legs":"X"},"action":"harvest","summary":"good-harvest","bonus":0.9600000000000012},{"rt":1210.6000000089407,"stimulus":"\n                    <p><b>Action: <em>harvest</em></b></p>\n                    <p>This is the bee that you just saw.</p>\n                    <img src=\"bees-with-color/bee-A2SM.svg\" width=\"200\">\n                    <p><span class=\"greenText\"><b>Successful harvest!</b></span><br>Your pay has increased by $0.02. Your bonus pay is now $0.54.</p>\n            ","response":0,"trial_type":"html-button-response","trial_index":104,"time_elapsed":521724,"internal_node_id":"0.0-4.0-1.48","subject_id":"610a8e124478d80547e94b98","study_id":"6197b3f67c2b5cd3b6d9596a","session_id":"619be31c28ab871265639f81","condition":"contingent","relevant_dimensions":["antennae","pattern"],"bee_group":{"antennae":"A","wings":"X","pattern":"D","legs":"X"},"bonus":0.9600000000000012},{"rt":2940.4000000059605,"stimulus":"bees-with-color/bee-A2DF.svg","response":1,"trial_type":"image-button-response","trial_index":105,"time_elapsed":524666,"internal_node_id":"0.0-4.0-0.49","subject_id":"610a8e124478d80547e94b98","study_id":"6197b3f67c2b5cd3b6d9596a","session_id":"619be31c28ab871265639f81","condition":"contingent","relevant_dimensions":["antennae","pattern"],"bee_group":{"antennae":"A","wings":"X","pattern":"D","legs":"X"},"action":"avoid","summary":"good-avoid","bonus":0.9600000000000012},{"rt":1042.3999999910593,"stimulus":"\n                    <p><b>Action: <em>avoid</em></b></p>\n                    <p>This is the bee that you just saw.</p>\n                    <img src=\"bees-with-color/bee-A2DF.svg\" width=\"200\">\n                    <p><br>Your bonus pay is unchanged, and remains at $0.54.</p>\n            ","response":0,"trial_type":"html-button-response","trial_index":106,"time_elapsed":525710,"internal_node_id":"0.0-4.0-1.49","subject_id":"610a8e124478d80547e94b98","study_id":"6197b3f67c2b5cd3b6d9596a","session_id":"619be31c28ab871265639f81","condition":"contingent","relevant_dimensions":["antennae","pattern"],"bee_group":{"antennae":"A","wings":"X","pattern":"D","legs":"X"},"bonus":0.9600000000000012},{"rt":1468.9000000059605,"stimulus":"bees-with-color/bee-A1SF.svg","response":0,"trial_type":"image-button-response","trial_index":107,"time_elapsed":527181,"internal_node_id":"0.0-4.0-0.50","subject_id":"610a8e124478d80547e94b98","study_id":"6197b3f67c2b5cd3b6d9596a","session_id":"619be31c28ab871265639f81","condition":"contingent","relevant_dimensions":["antennae","pattern"],"bee_group":{"antennae":"A","wings":"X","pattern":"D","legs":"X"},"action":"harvest","summary":"good-harvest","bonus":0.9600000000000012},{"rt":1115.2000000029802,"stimulus":"\n                    <p><b>Action: <em>harvest</em></b></p>\n                    <p>This is the bee that you just saw.</p>\n                    <img src=\"bees-with-color/bee-A1SF.svg\" width=\"200\">\n                    <p><span class=\"greenText\"><b>Successful harvest!</b></span><br>Your pay has increased by $0.02. Your bonus pay is now $0.56.</p>\n            ","response":0,"trial_type":"html-button-response","trial_index":108,"time_elapsed":528298,"internal_node_id":"0.0-4.0-1.50","subject_id":"610a8e124478d80547e94b98","study_id":"6197b3f67c2b5cd3b6d9596a","session_id":"619be31c28ab871265639f81","condition":"contingent","relevant_dimensions":["antennae","pattern"],"bee_group":{"antennae":"A","wings":"X","pattern":"D","legs":"X"},"bonus":0.9600000000000012},{"rt":1461.7000000029802,"stimulus":"bees-with-color/bee-B1DM.svg","response":1,"trial_type":"image-button-response","trial_index":109,"time_elapsed":529761,"internal_node_id":"0.0-4.0-0.51","subject_id":"610a8e124478d80547e94b98","study_id":"6197b3f67c2b5cd3b6d9596a","session_id":"619be31c28ab871265639f81","condition":"contingent","relevant_dimensions":["antennae","pattern"],"bee_group":{"antennae":"A","wings":"X","pattern":"D","legs":"X"},"action":"avoid","summary":"bad-avoid","bonus":0.9600000000000012},{"rt":864.9000000059605,"stimulus":"\n                    <p><b>Action: <em>avoid</em></b></p>\n                    <p>This is the bee that you just saw.</p>\n                    <img src=\"bees-with-color/bee-B1DM.svg\" width=\"200\">\n                    <p><br>Your bonus pay is unchanged, and remains at $0.56.</p>\n            ","response":0,"trial_type":"html-button-response","trial_index":110,"time_elapsed":530629,"internal_node_id":"0.0-4.0-1.51","subject_id":"610a8e124478d80547e94b98","study_id":"6197b3f67c2b5cd3b6d9596a","session_id":"619be31c28ab871265639f81","condition":"contingent","relevant_dimensions":["antennae","pattern"],"bee_group":{"antennae":"A","wings":"X","pattern":"D","legs":"X"},"bonus":0.9600000000000012},{"rt":1564.2000000029802,"stimulus":"bees-with-color/bee-B1SM.svg","response":0,"trial_type":"image-button-response","trial_index":111,"time_elapsed":532195,"internal_node_id":"0.0-4.0-0.52","subject_id":"610a8e124478d80547e94b98","study_id":"6197b3f67c2b5cd3b6d9596a","session_id":"619be31c28ab871265639f81","condition":"contingent","relevant_dimensions":["antennae","pattern"],"bee_group":{"antennae":"A","wings":"X","pattern":"D","legs":"X"},"action":"harvest","summary":"good-harvest","bonus":0.9600000000000012},{"rt":1121.2999999970198,"stimulus":"\n                    <p><b>Action: <em>harvest</em></b></p>\n                    <p>This is the bee that you just saw.</p>\n                    <img src=\"bees-with-color/bee-B1SM.svg\" width=\"200\">\n                    <p><span class=\"greenText\"><b>Successful harvest!</b></span><br>Your pay has increased by $0.02. Your bonus pay is now $0.58.</p>\n            ","response":0,"trial_type":"html-button-response","trial_index":112,"time_elapsed":533318,"internal_node_id":"0.0-4.0-1.52","subject_id":"610a8e124478d80547e94b98","study_id":"6197b3f67c2b5cd3b6d9596a","session_id":"619be31c28ab871265639f81","condition":"contingent","relevant_dimensions":["antennae","pattern"],"bee_group":{"antennae":"A","wings":"X","pattern":"D","legs":"X"},"bonus":0.9600000000000012},{"rt":3977.7999999970198,"stimulus":"bees-with-color/bee-B2SF.svg","response":0,"trial_type":"image-button-response","trial_index":113,"time_elapsed":537297,"internal_node_id":"0.0-4.0-0.53","subject_id":"610a8e124478d80547e94b98","study_id":"6197b3f67c2b5cd3b6d9596a","session_id":"619be31c28ab871265639f81","condition":"contingent","relevant_dimensions":["antennae","pattern"],"bee_group":{"antennae":"A","wings":"X","pattern":"D","legs":"X"},"action":"harvest","summary":"good-harvest","bonus":0.9600000000000012},{"rt":1073.2000000029802,"stimulus":"\n                    <p><b>Action: <em>harvest</em></b></p>\n                    <p>This is the bee that you just saw.</p>\n                    <img src=\"bees-with-color/bee-B2SF.svg\" width=\"200\">\n                    <p><span class=\"greenText\"><b>Successful harvest!</b></span><br>Your pay has increased by $0.02. Your bonus pay is now $0.60.</p>\n            ","response":0,"trial_type":"html-button-response","trial_index":114,"time_elapsed":538372,"internal_node_id":"0.0-4.0-1.53","subject_id":"610a8e124478d80547e94b98","study_id":"6197b3f67c2b5cd3b6d9596a","session_id":"619be31c28ab871265639f81","condition":"contingent","relevant_dimensions":["antennae","pattern"],"bee_group":{"antennae":"A","wings":"X","pattern":"D","legs":"X"},"bonus":0.9600000000000012},{"rt":3883.9000000059605,"stimulus":"bees-with-color/bee-B2SM.svg","response":1,"trial_type":"image-button-response","trial_index":115,"time_elapsed":542258,"internal_node_id":"0.0-4.0-0.54","subject_id":"610a8e124478d80547e94b98","study_id":"6197b3f67c2b5cd3b6d9596a","session_id":"619be31c28ab871265639f81","condition":"contingent","relevant_dimensions":["antennae","pattern"],"bee_group":{"antennae":"A","wings":"X","pattern":"D","legs":"X"},"action":"avoid","summary":"bad-avoid","bonus":0.9600000000000012},{"rt":910.2000000029802,"stimulus":"\n                    <p><b>Action: <em>avoid</em></b></p>\n                    <p>This is the bee that you just saw.</p>\n                    <img src=\"bees-with-color/bee-B2SM.svg\" width=\"200\">\n                    <p><br>Your bonus pay is unchanged, and remains at $0.60.</p>\n            ","response":0,"trial_type":"html-button-response","trial_index":116,"time_elapsed":543170,"internal_node_id":"0.0-4.0-1.54","subject_id":"610a8e124478d80547e94b98","study_id":"6197b3f67c2b5cd3b6d9596a","session_id":"619be31c28ab871265639f81","condition":"contingent","relevant_dimensions":["antennae","pattern"],"bee_group":{"antennae":"A","wings":"X","pattern":"D","legs":"X"},"bonus":0.9600000000000012},{"rt":1309.3999999910593,"stimulus":"bees-with-color/bee-A1DM.svg","response":1,"trial_type":"image-button-response","trial_index":117,"time_elapsed":544481,"internal_node_id":"0.0-4.0-0.55","subject_id":"610a8e124478d80547e94b98","study_id":"6197b3f67c2b5cd3b6d9596a","session_id":"619be31c28ab871265639f81","condition":"contingent","relevant_dimensions":["antennae","pattern"],"bee_group":{"antennae":"A","wings":"X","pattern":"D","legs":"X"},"action":"avoid","summary":"good-avoid","bonus":0.9600000000000012},{"rt":828.6000000089407,"stimulus":"\n                    <p><b>Action: <em>avoid</em></b></p>\n                    <p>This is the bee that you just saw.</p>\n                    <img src=\"bees-with-color/bee-A1DM.svg\" width=\"200\">\n                    <p><br>Your bonus pay is unchanged, and remains at $0.60.</p>\n            ","response":0,"trial_type":"html-button-response","trial_index":118,"time_elapsed":545312,"internal_node_id":"0.0-4.0-1.55","subject_id":"610a8e124478d80547e94b98","study_id":"6197b3f67c2b5cd3b6d9596a","session_id":"619be31c28ab871265639f81","condition":"contingent","relevant_dimensions":["antennae","pattern"],"bee_group":{"antennae":"A","wings":"X","pattern":"D","legs":"X"},"bonus":0.9600000000000012},{"rt":1135.5,"stimulus":"bees-with-color/bee-A2SF.svg","response":0,"trial_type":"image-button-response","trial_index":119,"time_elapsed":546449,"internal_node_id":"0.0-4.0-0.56","subject_id":"610a8e124478d80547e94b98","study_id":"6197b3f67c2b5cd3b6d9596a","session_id":"619be31c28ab871265639f81","condition":"contingent","relevant_dimensions":["antennae","pattern"],"bee_group":{"antennae":"A","wings":"X","pattern":"D","legs":"X"},"action":"harvest","summary":"good-harvest","bonus":0.9600000000000012},{"rt":1106.300000011921,"stimulus":"\n                    <p><b>Action: <em>harvest</em></b></p>\n                    <p>This is the bee that you just saw.</p>\n                    <img src=\"bees-with-color/bee-A2SF.svg\" width=\"200\">\n                    <p><span class=\"greenText\"><b>Successful harvest!</b></span><br>Your pay has increased by $0.02. Your bonus pay is now $0.62.</p>\n            ","response":0,"trial_type":"html-button-response","trial_index":120,"time_elapsed":547557,"internal_node_id":"0.0-4.0-1.56","subject_id":"610a8e124478d80547e94b98","study_id":"6197b3f67c2b5cd3b6d9596a","session_id":"619be31c28ab871265639f81","condition":"contingent","relevant_dimensions":["antennae","pattern"],"bee_group":{"antennae":"A","wings":"X","pattern":"D","legs":"X"},"bonus":0.9600000000000012},{"rt":1151.5999999940395,"stimulus":"bees-with-color/bee-B1SF.svg","response":0,"trial_type":"image-button-response","trial_index":121,"time_elapsed":548711,"internal_node_id":"0.0-4.0-0.57","subject_id":"610a8e124478d80547e94b98","study_id":"6197b3f67c2b5cd3b6d9596a","session_id":"619be31c28ab871265639f81","condition":"contingent","relevant_dimensions":["antennae","pattern"],"bee_group":{"antennae":"A","wings":"X","pattern":"D","legs":"X"},"action":"harvest","summary":"good-harvest","bonus":0.9600000000000012},{"rt":1179.2000000029802,"stimulus":"\n                    <p><b>Action: <em>harvest</em></b></p>\n                    <p>This is the bee that you just saw.</p>\n                    <img src=\"bees-with-color/bee-B1SF.svg\" width=\"200\">\n                    <p><span class=\"greenText\"><b>Successful harvest!</b></span><br>Your pay has increased by $0.02. Your bonus pay is now $0.64.</p>\n            ","response":0,"trial_type":"html-button-response","trial_index":122,"time_elapsed":549891,"internal_node_id":"0.0-4.0-1.57","subject_id":"610a8e124478d80547e94b98","study_id":"6197b3f67c2b5cd3b6d9596a","session_id":"619be31c28ab871265639f81","condition":"contingent","relevant_dimensions":["antennae","pattern"],"bee_group":{"antennae":"A","wings":"X","pattern":"D","legs":"X"},"bonus":0.9600000000000012},{"rt":2195.5,"stimulus":"bees-with-color/bee-A1DF.svg","response":1,"trial_type":"image-button-response","trial_index":123,"time_elapsed":552088,"internal_node_id":"0.0-4.0-0.58","subject_id":"610a8e124478d80547e94b98","study_id":"6197b3f67c2b5cd3b6d9596a","session_id":"619be31c28ab871265639f81","condition":"contingent","relevant_dimensions":["antennae","pattern"],"bee_group":{"antennae":"A","wings":"X","pattern":"D","legs":"X"},"action":"avoid","summary":"good-avoid","bonus":0.9600000000000012},{"rt":920.4000000059605,"stimulus":"\n                    <p><b>Action: <em>avoid</em></b></p>\n                    <p>This is the bee that you just saw.</p>\n                    <img src=\"bees-with-color/bee-A1DF.svg\" width=\"200\">\n                    <p><br>Your bonus pay is unchanged, and remains at $0.64.</p>\n            ","response":0,"trial_type":"html-button-response","trial_index":124,"time_elapsed":553011,"internal_node_id":"0.0-4.0-1.58","subject_id":"610a8e124478d80547e94b98","study_id":"6197b3f67c2b5cd3b6d9596a","session_id":"619be31c28ab871265639f81","condition":"contingent","relevant_dimensions":["antennae","pattern"],"bee_group":{"antennae":"A","wings":"X","pattern":"D","legs":"X"},"bonus":0.9600000000000012},{"rt":1846.2999999970198,"stimulus":"bees-with-color/bee-B2DF.svg","response":1,"trial_type":"image-button-response","trial_index":125,"time_elapsed":554859,"internal_node_id":"0.0-4.0-0.59","subject_id":"610a8e124478d80547e94b98","study_id":"6197b3f67c2b5cd3b6d9596a","session_id":"619be31c28ab871265639f81","condition":"contingent","relevant_dimensions":["antennae","pattern"],"bee_group":{"antennae":"A","wings":"X","pattern":"D","legs":"X"},"action":"avoid","summary":"bad-avoid","bonus":0.9600000000000012},{"rt":822.7999999970198,"stimulus":"\n                    <p><b>Action: <em>avoid</em></b></p>\n                    <p>This is the bee that you just saw.</p>\n                    <img src=\"bees-with-color/bee-B2DF.svg\" width=\"200\">\n                    <p><br>Your bonus pay is unchanged, and remains at $0.64.</p>\n            ","response":0,"trial_type":"html-button-response","trial_index":126,"time_elapsed":555683,"internal_node_id":"0.0-4.0-1.59","subject_id":"610a8e124478d80547e94b98","study_id":"6197b3f67c2b5cd3b6d9596a","session_id":"619be31c28ab871265639f81","condition":"contingent","relevant_dimensions":["antennae","pattern"],"bee_group":{"antennae":"A","wings":"X","pattern":"D","legs":"X"},"bonus":0.9600000000000012},{"rt":2154.1000000089407,"stimulus":"bees-with-color/bee-B2DM.svg","response":1,"trial_type":"image-button-response","trial_index":127,"time_elapsed":557839,"internal_node_id":"0.0-4.0-0.60","subject_id":"610a8e124478d80547e94b98","study_id":"6197b3f67c2b5cd3b6d9596a","session_id":"619be31c28ab871265639f81","condition":"contingent","relevant_dimensions":["antennae","pattern"],"bee_group":{"antennae":"A","wings":"X","pattern":"D","legs":"X"},"action":"avoid","summary":"bad-avoid","bonus":0.9600000000000012},{"rt":1099,"stimulus":"\n                    <p><b>Action: <em>avoid</em></b></p>\n                    <p>This is the bee that you just saw.</p>\n                    <img src=\"bees-with-color/bee-B2DM.svg\" width=\"200\">\n                    <p><br>Your bonus pay is unchanged, and remains at $0.64.</p>\n            ","response":0,"trial_type":"html-button-response","trial_index":128,"time_elapsed":558940,"internal_node_id":"0.0-4.0-1.60","subject_id":"610a8e124478d80547e94b98","study_id":"6197b3f67c2b5cd3b6d9596a","session_id":"619be31c28ab871265639f81","condition":"contingent","relevant_dimensions":["antennae","pattern"],"bee_group":{"antennae":"A","wings":"X","pattern":"D","legs":"X"},"bonus":0.9600000000000012},{"rt":1023,"stimulus":"bees-with-color/bee-A1SM.svg","response":0,"trial_type":"image-button-response","trial_index":129,"time_elapsed":559965,"internal_node_id":"0.0-4.0-0.61","subject_id":"610a8e124478d80547e94b98","study_id":"6197b3f67c2b5cd3b6d9596a","session_id":"619be31c28ab871265639f81","condition":"contingent","relevant_dimensions":["antennae","pattern"],"bee_group":{"antennae":"A","wings":"X","pattern":"D","legs":"X"},"action":"harvest","summary":"good-harvest","bonus":0.9600000000000012},{"rt":1096.9000000059605,"stimulus":"\n                    <p><b>Action: <em>harvest</em></b></p>\n                    <p>This is the bee that you just saw.</p>\n                    <img src=\"bees-with-color/bee-A1SM.svg\" width=\"200\">\n                    <p><span class=\"greenText\"><b>Successful harvest!</b></span><br>Your pay has increased by $0.02. Your bonus pay is now $0.66.</p>\n            ","response":0,"trial_type":"html-button-response","trial_index":130,"time_elapsed":561063,"internal_node_id":"0.0-4.0-1.61","subject_id":"610a8e124478d80547e94b98","study_id":"6197b3f67c2b5cd3b6d9596a","session_id":"619be31c28ab871265639f81","condition":"contingent","relevant_dimensions":["antennae","pattern"],"bee_group":{"antennae":"A","wings":"X","pattern":"D","legs":"X"},"bonus":0.9600000000000012},{"rt":3328.4000000059605,"stimulus":"bees-with-color/bee-B1DF.svg","response":0,"trial_type":"image-button-response","trial_index":131,"time_elapsed":564393,"internal_node_id":"0.0-4.0-0.62","subject_id":"610a8e124478d80547e94b98","study_id":"6197b3f67c2b5cd3b6d9596a","session_id":"619be31c28ab871265639f81","condition":"contingent","relevant_dimensions":["antennae","pattern"],"bee_group":{"antennae":"A","wings":"X","pattern":"D","legs":"X"},"action":"harvest","summary":"good-harvest","bonus":0.9600000000000012},{"rt":1106.300000011921,"stimulus":"\n                    <p><b>Action: <em>harvest</em></b></p>\n                    <p>This is the bee that you just saw.</p>\n                    <img src=\"bees-with-color/bee-B1DF.svg\" width=\"200\">\n                    <p><span class=\"greenText\"><b>Successful harvest!</b></span><br>Your pay has increased by $0.02. Your bonus pay is now $0.68.</p>\n            ","response":0,"trial_type":"html-button-response","trial_index":132,"time_elapsed":565501,"internal_node_id":"0.0-4.0-1.62","subject_id":"610a8e124478d80547e94b98","study_id":"6197b3f67c2b5cd3b6d9596a","session_id":"619be31c28ab871265639f81","condition":"contingent","relevant_dimensions":["antennae","pattern"],"bee_group":{"antennae":"A","wings":"X","pattern":"D","legs":"X"},"bonus":0.9600000000000012},{"rt":2647.2999999970198,"stimulus":"bees-with-color/bee-A2DM.svg","response":1,"trial_type":"image-button-response","trial_index":133,"time_elapsed":568150,"internal_node_id":"0.0-4.0-0.63","subject_id":"610a8e124478d80547e94b98","study_id":"6197b3f67c2b5cd3b6d9596a","session_id":"619be31c28ab871265639f81","condition":"contingent","relevant_dimensions":["antennae","pattern"],"bee_group":{"antennae":"A","wings":"X","pattern":"D","legs":"X"},"action":"avoid","summary":"good-avoid","bonus":0.9600000000000012},{"rt":781,"stimulus":"\n                    <p><b>Action: <em>avoid</em></b></p>\n                    <p>This is the bee that you just saw.</p>\n                    <img src=\"bees-with-color/bee-A2DM.svg\" width=\"200\">\n                    <p><br>Your bonus pay is unchanged, and remains at $0.68.</p>\n            ","response":0,"trial_type":"html-button-response","trial_index":134,"time_elapsed":568933,"internal_node_id":"0.0-4.0-1.63","subject_id":"610a8e124478d80547e94b98","study_id":"6197b3f67c2b5cd3b6d9596a","session_id":"619be31c28ab871265639f81","condition":"contingent","relevant_dimensions":["antennae","pattern"],"bee_group":{"antennae":"A","wings":"X","pattern":"D","legs":"X"},"bonus":0.9600000000000012},{"rt":8227.300000011921,"stimulus":"You have completed the first part of this experiment.<br><br>You will now begin a shorter second part, in which you will receive no feedback.<br>The same rules regarding bonus pay apply.<br><br>Press any key to begin.","response":"l","trial_type":"html-keyboard-response","trial_index":135,"time_elapsed":577162,"internal_node_id":"0.0-5.0","subject_id":"610a8e124478d80547e94b98","study_id":"6197b3f67c2b5cd3b6d9596a","session_id":"619be31c28ab871265639f81","condition":"contingent","relevant_dimensions":["antennae","pattern"],"bee_group":{"antennae":"A","wings":"X","pattern":"D","legs":"X"},"bonus":0.9600000000000012},{"rt":1240.2999999970198,"stimulus":"bees-with-color/bee-B2SM.svg","response":0,"trial_type":"image-button-response","trial_index":136,"time_elapsed":578414,"internal_node_id":"0.0-6.0-0.0","subject_id":"610a8e124478d80547e94b98","study_id":"6197b3f67c2b5cd3b6d9596a","session_id":"619be31c28ab871265639f81","condition":"contingent","relevant_dimensions":["antennae","pattern"],"bee_group":{"antennae":"A","wings":"X","pattern":"D","legs":"X"},"bonus":0.9600000000000012},{"rt":3588.3999999910593,"stimulus":"bees-with-color/bee-B2DF.svg","response":1,"trial_type":"image-button-response","trial_index":137,"time_elapsed":582006,"internal_node_id":"0.0-6.0-0.1","subject_id":"610a8e124478d80547e94b98","study_id":"6197b3f67c2b5cd3b6d9596a","session_id":"619be31c28ab871265639f81","condition":"contingent","relevant_dimensions":["antennae","pattern"],"bee_group":{"antennae":"A","wings":"X","pattern":"D","legs":"X"},"bonus":0.9600000000000012},{"rt":1475.0999999940395,"stimulus":"bees-with-color/bee-A1SF.svg","response":0,"trial_type":"image-button-response","trial_index":138,"time_elapsed":583484,"internal_node_id":"0.0-6.0-0.2","subject_id":"610a8e124478d80547e94b98","study_id":"6197b3f67c2b5cd3b6d9596a","session_id":"619be31c28ab871265639f81","condition":"contingent","relevant_dimensions":["antennae","pattern"],"bee_group":{"antennae":"A","wings":"X","pattern":"D","legs":"X"},"bonus":0.9600000000000012},{"rt":956.5999999940395,"stimulus":"bees-with-color/bee-B2SF.svg","response":0,"trial_type":"image-button-response","trial_index":139,"time_elapsed":584444,"internal_node_id":"0.0-6.0-0.3","subject_id":"610a8e124478d80547e94b98","study_id":"6197b3f67c2b5cd3b6d9596a","session_id":"619be31c28ab871265639f81","condition":"contingent","relevant_dimensions":["antennae","pattern"],"bee_group":{"antennae":"A","wings":"X","pattern":"D","legs":"X"},"bonus":0.9600000000000012},{"rt":1291.4000000059605,"stimulus":"bees-with-color/bee-B1SM.svg","response":0,"trial_type":"image-button-response","trial_index":140,"time_elapsed":585738,"internal_node_id":"0.0-6.0-0.4","subject_id":"610a8e124478d80547e94b98","study_id":"6197b3f67c2b5cd3b6d9596a","session_id":"619be31c28ab871265639f81","condition":"contingent","relevant_dimensions":["antennae","pattern"],"bee_group":{"antennae":"A","wings":"X","pattern":"D","legs":"X"},"bonus":0.9600000000000012},{"rt":1088.9000000059605,"stimulus":"bees-with-color/bee-A2DF.svg","response":1,"trial_type":"image-button-response","trial_index":141,"time_elapsed":586830,"internal_node_id":"0.0-6.0-0.5","subject_id":"610a8e124478d80547e94b98","study_id":"6197b3f67c2b5cd3b6d9596a","session_id":"619be31c28ab871265639f81","condition":"contingent","relevant_dimensions":["antennae","pattern"],"bee_group":{"antennae":"A","wings":"X","pattern":"D","legs":"X"},"bonus":0.9600000000000012},{"rt":1094.9000000059605,"stimulus":"bees-with-color/bee-A2DM.svg","response":1,"trial_type":"image-button-response","trial_index":142,"time_elapsed":587927,"internal_node_id":"0.0-6.0-0.6","subject_id":"610a8e124478d80547e94b98","study_id":"6197b3f67c2b5cd3b6d9596a","session_id":"619be31c28ab871265639f81","condition":"contingent","relevant_dimensions":["antennae","pattern"],"bee_group":{"antennae":"A","wings":"X","pattern":"D","legs":"X"},"bonus":0.9600000000000012},{"rt":1144.4000000059605,"stimulus":"bees-with-color/bee-A2SM.svg","response":0,"trial_type":"image-button-response","trial_index":143,"time_elapsed":589074,"internal_node_id":"0.0-6.0-0.7","subject_id":"610a8e124478d80547e94b98","study_id":"6197b3f67c2b5cd3b6d9596a","session_id":"619be31c28ab871265639f81","condition":"contingent","relevant_dimensions":["antennae","pattern"],"bee_group":{"antennae":"A","wings":"X","pattern":"D","legs":"X"},"bonus":0.9600000000000012},{"rt":1460.5,"stimulus":"bees-with-color/bee-B1DM.svg","response":1,"trial_type":"image-button-response","trial_index":144,"time_elapsed":590538,"internal_node_id":"0.0-6.0-0.8","subject_id":"610a8e124478d80547e94b98","study_id":"6197b3f67c2b5cd3b6d9596a","session_id":"619be31c28ab871265639f81","condition":"contingent","relevant_dimensions":["antennae","pattern"],"bee_group":{"antennae":"A","wings":"X","pattern":"D","legs":"X"},"bonus":0.9600000000000012},{"rt":1483.5,"stimulus":"bees-with-color/bee-A1DF.svg","response":1,"trial_type":"image-button-response","trial_index":145,"time_elapsed":592024,"internal_node_id":"0.0-6.0-0.9","subject_id":"610a8e124478d80547e94b98","study_id":"6197b3f67c2b5cd3b6d9596a","session_id":"619be31c28ab871265639f81","condition":"contingent","relevant_dimensions":["antennae","pattern"],"bee_group":{"antennae":"A","wings":"X","pattern":"D","legs":"X"},"bonus":0.9600000000000012},{"rt":950.2000000029802,"stimulus":"bees-with-color/bee-A2SF.svg","response":0,"trial_type":"image-button-response","trial_index":146,"time_elapsed":592977,"internal_node_id":"0.0-6.0-0.10","subject_id":"610a8e124478d80547e94b98","study_id":"6197b3f67c2b5cd3b6d9596a","session_id":"619be31c28ab871265639f81","condition":"contingent","relevant_dimensions":["antennae","pattern"],"bee_group":{"antennae":"A","wings":"X","pattern":"D","legs":"X"},"bonus":0.9600000000000012},{"rt":1714.699999988079,"stimulus":"bees-with-color/bee-B2DM.svg","response":0,"trial_type":"image-button-response","trial_index":147,"time_elapsed":594694,"internal_node_id":"0.0-6.0-0.11","subject_id":"610a8e124478d80547e94b98","study_id":"6197b3f67c2b5cd3b6d9596a","session_id":"619be31c28ab871265639f81","condition":"contingent","relevant_dimensions":["antennae","pattern"],"bee_group":{"antennae":"A","wings":"X","pattern":"D","legs":"X"},"bonus":0.9600000000000012},{"rt":1099.5,"stimulus":"bees-with-color/bee-B1SF.svg","response":0,"trial_type":"image-button-response","trial_index":148,"time_elapsed":595797,"internal_node_id":"0.0-6.0-0.12","subject_id":"610a8e124478d80547e94b98","study_id":"6197b3f67c2b5cd3b6d9596a","session_id":"619be31c28ab871265639f81","condition":"contingent","relevant_dimensions":["antennae","pattern"],"bee_group":{"antennae":"A","wings":"X","pattern":"D","legs":"X"},"bonus":0.9600000000000012},{"rt":2099.199999988079,"stimulus":"bees-with-color/bee-B1DF.svg","response":0,"trial_type":"image-button-response","trial_index":149,"time_elapsed":597899,"internal_node_id":"0.0-6.0-0.13","subject_id":"610a8e124478d80547e94b98","study_id":"6197b3f67c2b5cd3b6d9596a","session_id":"619be31c28ab871265639f81","condition":"contingent","relevant_dimensions":["antennae","pattern"],"bee_group":{"antennae":"A","wings":"X","pattern":"D","legs":"X"},"bonus":0.9600000000000012},{"rt":1450.3999999910593,"stimulus":"bees-with-color/bee-A1SM.svg","response":0,"trial_type":"image-button-response","trial_index":150,"time_elapsed":599353,"internal_node_id":"0.0-6.0-0.14","subject_id":"610a8e124478d80547e94b98","study_id":"6197b3f67c2b5cd3b6d9596a","session_id":"619be31c28ab871265639f81","condition":"contingent","relevant_dimensions":["antennae","pattern"],"bee_group":{"antennae":"A","wings":"X","pattern":"D","legs":"X"},"bonus":0.9600000000000012},{"rt":978.1000000089407,"stimulus":"bees-with-color/bee-A1DM.svg","response":1,"trial_type":"image-button-response","trial_index":151,"time_elapsed":600334,"internal_node_id":"0.0-6.0-0.15","subject_id":"610a8e124478d80547e94b98","study_id":"6197b3f67c2b5cd3b6d9596a","session_id":"619be31c28ab871265639f81","condition":"contingent","relevant_dimensions":["antennae","pattern"],"bee_group":{"antennae":"A","wings":"X","pattern":"D","legs":"X"},"bonus":0.9600000000000012},{"rt":1857.5,"stimulus":"bees-with-color/bee-B2SM.svg","response":0,"trial_type":"image-button-response","trial_index":152,"time_elapsed":602193,"internal_node_id":"0.0-6.0-0.16","subject_id":"610a8e124478d80547e94b98","study_id":"6197b3f67c2b5cd3b6d9596a","session_id":"619be31c28ab871265639f81","condition":"contingent","relevant_dimensions":["antennae","pattern"],"bee_group":{"antennae":"A","wings":"X","pattern":"D","legs":"X"},"bonus":0.9600000000000012},{"rt":1161.4000000059605,"stimulus":"bees-with-color/bee-A1SF.svg","response":0,"trial_type":"image-button-response","trial_index":153,"time_elapsed":603357,"internal_node_id":"0.0-6.0-0.17","subject_id":"610a8e124478d80547e94b98","study_id":"6197b3f67c2b5cd3b6d9596a","session_id":"619be31c28ab871265639f81","condition":"contingent","relevant_dimensions":["antennae","pattern"],"bee_group":{"antennae":"A","wings":"X","pattern":"D","legs":"X"},"bonus":0.9600000000000012},{"rt":1520.7999999970198,"stimulus":"bees-with-color/bee-B2SF.svg","response":0,"trial_type":"image-button-response","trial_index":154,"time_elapsed":604879,"internal_node_id":"0.0-6.0-0.18","subject_id":"610a8e124478d80547e94b98","study_id":"6197b3f67c2b5cd3b6d9596a","session_id":"619be31c28ab871265639f81","condition":"contingent","relevant_dimensions":["antennae","pattern"],"bee_group":{"antennae":"A","wings":"X","pattern":"D","legs":"X"},"bonus":0.9600000000000012},{"rt":1114.0999999940395,"stimulus":"bees-with-color/bee-A1DM.svg","response":1,"trial_type":"image-button-response","trial_index":155,"time_elapsed":605995,"internal_node_id":"0.0-6.0-0.19","subject_id":"610a8e124478d80547e94b98","study_id":"6197b3f67c2b5cd3b6d9596a","session_id":"619be31c28ab871265639f81","condition":"contingent","relevant_dimensions":["antennae","pattern"],"bee_group":{"antennae":"A","wings":"X","pattern":"D","legs":"X"},"bonus":0.9600000000000012},{"rt":1129.8999999910593,"stimulus":"bees-with-color/bee-A2SM.svg","response":0,"trial_type":"image-button-response","trial_index":156,"time_elapsed":607128,"internal_node_id":"0.0-6.0-0.20","subject_id":"610a8e124478d80547e94b98","study_id":"6197b3f67c2b5cd3b6d9596a","session_id":"619be31c28ab871265639f81","condition":"contingent","relevant_dimensions":["antennae","pattern"],"bee_group":{"antennae":"A","wings":"X","pattern":"D","legs":"X"},"bonus":0.9600000000000012},{"rt":1501.2000000029802,"stimulus":"bees-with-color/bee-A1DF.svg","response":1,"trial_type":"image-button-response","trial_index":157,"time_elapsed":608631,"internal_node_id":"0.0-6.0-0.21","subject_id":"610a8e124478d80547e94b98","study_id":"6197b3f67c2b5cd3b6d9596a","session_id":"619be31c28ab871265639f81","condition":"contingent","relevant_dimensions":["antennae","pattern"],"bee_group":{"antennae":"A","wings":"X","pattern":"D","legs":"X"},"bonus":0.9600000000000012},{"rt":1195.8999999910593,"stimulus":"bees-with-color/bee-B1DM.svg","response":1,"trial_type":"image-button-response","trial_index":158,"time_elapsed":609829,"internal_node_id":"0.0-6.0-0.22","subject_id":"610a8e124478d80547e94b98","study_id":"6197b3f67c2b5cd3b6d9596a","session_id":"619be31c28ab871265639f81","condition":"contingent","relevant_dimensions":["antennae","pattern"],"bee_group":{"antennae":"A","wings":"X","pattern":"D","legs":"X"},"bonus":0.9600000000000012},{"rt":1519.1000000089407,"stimulus":"bees-with-color/bee-B2DM.svg","response":1,"trial_type":"image-button-response","trial_index":159,"time_elapsed":611350,"internal_node_id":"0.0-6.0-0.23","subject_id":"610a8e124478d80547e94b98","study_id":"6197b3f67c2b5cd3b6d9596a","session_id":"619be31c28ab871265639f81","condition":"contingent","relevant_dimensions":["antennae","pattern"],"bee_group":{"antennae":"A","wings":"X","pattern":"D","legs":"X"},"bonus":0.9600000000000012},{"rt":1195.7000000029802,"stimulus":"bees-with-color/bee-B2DF.svg","response":1,"trial_type":"image-button-response","trial_index":160,"time_elapsed":612549,"internal_node_id":"0.0-6.0-0.24","subject_id":"610a8e124478d80547e94b98","study_id":"6197b3f67c2b5cd3b6d9596a","session_id":"619be31c28ab871265639f81","condition":"contingent","relevant_dimensions":["antennae","pattern"],"bee_group":{"antennae":"A","wings":"X","pattern":"