[{"success":true,"trial_type":"fullscreen","trial_index":0,"time_elapsed":4412,"internal_node_id":"0.0-0.0","subject_id":"60fdd675fca33b0ce3d19a7f","study_id":"60edd13110225f80f9f3709b","session_id":"6196c1f381972c7d99b43d01","condition":"full-information","relevant_dimensions":["pattern","legs"],"bee_group":{"antennae":"X","wings":"X","pattern":"D","legs":"F"},"bonus":0.02},{"success":true,"timeout":false,"failed_images":[],"failed_audio":[],"failed_video":[],"trial_type":"preload","trial_index":1,"time_elapsed":6871,"internal_node_id":"0.0-1.0","subject_id":"60fdd675fca33b0ce3d19a7f","study_id":"60edd13110225f80f9f3709b","session_id":"6196c1f381972c7d99b43d01","condition":"full-information","relevant_dimensions":["pattern","legs"],"bee_group":{"antennae":"X","wings":"X","pattern":"D","legs":"F"},"bonus":0.02},{"rt":4467.699999988079,"stimulus":"Welcome! Press any key to begin.","response":" ","trial_type":"html-keyboard-response","trial_index":2,"time_elapsed":11342,"internal_node_id":"0.0-2.0","subject_id":"60fdd675fca33b0ce3d19a7f","study_id":"60edd13110225f80f9f3709b","session_id":"6196c1f381972c7d99b43d01","condition":"full-information","relevant_dimensions":["pattern","legs"],"bee_group":{"antennae":"X","wings":"X","pattern":"D","legs":"F"},"bonus":0.02},{"view_history":[{"page_index":0,"viewing_time":4643},{"page_index":1,"viewing_time":14543.800000011921},{"page_index":2,"viewing_time":13107.699999988079},{"page_index":3,"viewing_time":37744.30000001192},{"page_index":4,"viewing_time":6688.0999999940395},{"page_index":5,"viewing_time":6845.5},{"page_index":6,"viewing_time":8995.199999988079},{"page_index":7,"viewing_time":5067.200000017881},{"page_index":8,"viewing_time":4903.799999982119},{"page_index":9,"viewing_time":1963.9000000059605},{"page_index":10,"viewing_time":2296.9000000059605},{"page_index":11,"viewing_time":10711.59999999404},{"page_index":12,"viewing_time":16751.40000000596},{"page_index":13,"viewing_time":1100},{"page_index":14,"viewing_time":3012.0999999940395}],"rt":138375.69999998808,"trial_type":"instructions","trial_index":3,"time_elapsed":149720,"internal_node_id":"0.0-3.0-0.0","subject_id":"60fdd675fca33b0ce3d19a7f","study_id":"60edd13110225f80f9f3709b","session_id":"6196c1f381972c7d99b43d01","condition":"full-information","relevant_dimensions":["pattern","legs"],"bee_group":{"antennae":"X","wings":"X","pattern":"D","legs":"F"},"bonus":0.02},{"rt":17889.59999999404,"response":{"Q0":["Stripes or spots on body","Single or double wings","Antennae or no antennae"]},"question_order":[0],"trial_type":"survey-multi-select","trial_index":4,"time_elapsed":167630,"internal_node_id":"0.0-3.0-1.0","subject_id":"60fdd675fca33b0ce3d19a7f","study_id":"60edd13110225f80f9f3709b","session_id":"6196c1f381972c7d99b43d01","condition":"full-information","relevant_dimensions":["pattern","legs"],"bee_group":{"antennae":"X","wings":"X","pattern":"D","legs":"F"},"correct":false,"bonus":0.02},{"rt":24160.79999998212,"response":{"Q1":"No.","Q2":"Based on the four features of the bee.","Q3":"You learn if it was friendly or dangerous, but do not alter your bonus."},"question_order":[0,1,2],"trial_type":"survey-multi-choice","trial_index":5,"time_elapsed":191809,"internal_node_id":"0.0-3.0-2.0","subject_id":"60fdd675fca33b0ce3d19a7f","study_id":"60edd13110225f80f9f3709b","session_id":"6196c1f381972c7d99b43d01","condition":"full-information","relevant_dimensions":["pattern","legs"],"bee_group":{"antennae":"X","wings":"X","pattern":"D","legs":"F"},"correct":true,"bonus":0.02},{"rt":3233,"stimulus":"<p>You did not answer all comprehension questions correctly.<br>Press <b>continue</b> to review the instructions again.</p>","response":0,"trial_type":"html-button-response","trial_index":6,"time_elapsed":195057,"internal_node_id":"0.0-3.0-3.0","subject_id":"60fdd675fca33b0ce3d19a7f","study_id":"60edd13110225f80f9f3709b","session_id":"6196c1f381972c7d99b43d01","condition":"full-information","relevant_dimensions":["pattern","legs"],"bee_group":{"antennae":"X","wings":"X","pattern":"D","legs":"F"},"bonus":0.02},{"view_history":[{"page_index":0,"viewing_time":2388.7999999821186},{"page_index":1,"viewing_time":3092.100000023842},{"page_index":2,"viewing_time":4232.199999988079},{"page_index":3,"viewing_time":1216},{"page_index":4,"viewing_time":1108.699999988079},{"page_index":5,"viewing_time":1715.5},{"page_index":6,"viewing_time":1256.1000000238419},{"page_index":7,"viewing_time":4576.199999988079},{"page_index":8,"viewing_time":4103.5},{"page_index":9,"viewing_time":1243.800000011921},{"page_index":10,"viewing_time":912.0999999940395},{"page_index":11,"viewing_time":1244.4000000059605},{"page_index":12,"viewing_time":920.2999999821186},{"page_index":13,"viewing_time":855.4000000059605},{"page_index":14,"viewing_time":1292.5999999940395}],"rt":30158.5,"trial_type":"instructions","trial_index":7,"time_elapsed":225219,"internal_node_id":"0.0-3.0-4.0-0.0","subject_id":"60fdd675fca33b0ce3d19a7f","study_id":"60edd13110225f80f9f3709b","session_id":"6196c1f381972c7d99b43d01","condition":"full-information","relevant_dimensions":["pattern","legs"],"bee_group":{"antennae":"X","wings":"X","pattern":"D","legs":"F"},"bonus":0.02},{"rt":9773.90000000596,"response":{"Q0":["Two or six legs","Stripes or spots on body","Single or double wings","Antennae or no antennae"]},"question_order":[0],"trial_type":"survey-multi-select","trial_index":8,"time_elapsed":235000,"internal_node_id":"0.0-3.0-4.0-1.0","subject_id":"60fdd675fca33b0ce3d19a7f","study_id":"60edd13110225f80f9f3709b","session_id":"6196c1f381972c7d99b43d01","condition":"full-information","relevant_dimensions":["pattern","legs"],"bee_group":{"antennae":"X","wings":"X","pattern":"D","legs":"F"},"correct":true,"bonus":0.02},{"rt":14258.90000000596,"response":{"Q1":"No.","Q2":"Based on the four features of the bee.","Q3":"You learn if it was friendly or dangerous, but do not alter your bonus."},"question_order":[0,1,2],"trial_type":"survey-multi-choice","trial_index":9,"time_elapsed":249273,"internal_node_id":"0.0-3.0-4.0-2.0","subject_id":"60fdd675fca33b0ce3d19a7f","study_id":"60edd13110225f80f9f3709b","session_id":"6196c1f381972c7d99b43d01","condition":"full-information","relevant_dimensions":["pattern","legs"],"bee_group":{"antennae":"X","wings":"X","pattern":"D","legs":"F"},"correct":true,"bonus":0.02},{"rt":1402.4000000059605,"stimulus":"<p>Congrats, you got everything right<br>When you're ready, click the button below to continue to the experiment.</p>","response":0,"trial_type":"html-button-response","trial_index":10,"time_elapsed":250694,"internal_node_id":"0.0-3.0-4.0-3.0","subject_id":"60fdd675fca33b0ce3d19a7f","study_id":"60edd13110225f80f9f3709b","session_id":"6196c1f381972c7d99b43d01","condition":"full-information","relevant_dimensions":["pattern","legs"],"bee_group":{"antennae":"X","wings":"X","pattern":"D","legs":"F"},"bonus":0.02},{"rt":10981.699999988079,"stimulus":"bees-with-color/bee-A1DF.svg","response":0,"trial_type":"image-button-response","trial_index":11,"time_elapsed":261685,"internal_node_id":"0.0-4.0-0.0","subject_id":"60fdd675fca33b0ce3d19a7f","study_id":"60edd13110225f80f9f3709b","session_id":"6196c1f381972c7d99b43d01","condition":"full-information","relevant_dimensions":["pattern","legs"],"bee_group":{"antennae":"X","wings":"X","pattern":"D","legs":"F"},"action":"harvest","summary":"bad-harvest","bonus":0.02},{"rt":19488.70000001788,"stimulus":"\n                    <p><b>Action: <em>harvest</em></b></p>\n                    <p>This is the bee that you just saw.</p>\n                    <img src=\"bees-with-color/bee-A1DF.svg\" width=\"200\">\n                    <p><span class=\"redText\">Bad choice, the bee was angry.</span><br><b>You have been stung!</b><br>Your pay has been decreased by $0.10. Your bonus pay is now $0.44.</p>\n            ","response":0,"trial_type":"html-button-response","trial_index":12,"time_elapsed":281183,"internal_node_id":"0.0-4.0-1.0","subject_id":"60fdd675fca33b0ce3d19a7f","study_id":"60edd13110225f80f9f3709b","session_id":"6196c1f381972c7d99b43d01","condition":"full-information","relevant_dimensions":["pattern","legs"],"bee_group":{"antennae":"X","wings":"X","pattern":"D","legs":"F"},"bonus":0.02},{"rt":2174,"stimulus":"bees-with-color/bee-B1SF.svg","response":0,"trial_type":"image-button-response","trial_index":13,"time_elapsed":283364,"internal_node_id":"0.0-4.0-0.1","subject_id":"60fdd675fca33b0ce3d19a7f","study_id":"60edd13110225f80f9f3709b","session_id":"6196c1f381972c7d99b43d01","condition":"full-information","relevant_dimensions":["pattern","legs"],"bee_group":{"antennae":"X","wings":"X","pattern":"D","legs":"F"},"action":"harvest","summary":"good-harvest","bonus":0.02},{"rt":11004.5,"stimulus":"\n                    <p><b>Action: <em>harvest</em></b></p>\n                    <p>This is the bee that you just saw.</p>\n                    <img src=\"bees-with-color/bee-B1SF.svg\" width=\"200\">\n                    <p><span class=\"greenText\"><b>Successful harvest!</b></span><br>Your pay has increased by $0.02. Your bonus pay is now $0.46.</p>\n            ","response":0,"trial_type":"html-button-response","trial_index":14,"time_elapsed":294375,"internal_node_id":"0.0-4.0-1.1","subject_id":"60fdd675fca33b0ce3d19a7f","study_id":"60edd13110225f80f9f3709b","session_id":"6196c1f381972c7d99b43d01","condition":"full-information","relevant_dimensions":["pattern","legs"],"bee_group":{"antennae":"X","wings":"X","pattern":"D","legs":"F"},"bonus":0.02},{"rt":1563,"stimulus":"bees-with-color/bee-B1DM.svg","response":1,"trial_type":"image-button-response","trial_index":15,"time_elapsed":295947,"internal_node_id":"0.0-4.0-0.2","subject_id":"60fdd675fca33b0ce3d19a7f","study_id":"60edd13110225f80f9f3709b","session_id":"6196c1f381972c7d99b43d01","condition":"full-information","relevant_dimensions":["pattern","legs"],"bee_group":{"antennae":"X","wings":"X","pattern":"D","legs":"F"},"action":"avoid","summary":"bad-avoid","bonus":0.02},{"rt":11539.09999999404,"stimulus":"\n                    <p><b>Action: <em>avoid</em></b></p>\n                    <p>This is the bee that you just saw.</p>\n                    <img src=\"bees-with-color/bee-B1DM.svg\" width=\"200\">\n                    <p><span class=\"redText\">Bad choice,</span> the bee was friendly.<br>Your bonus pay is unchanged, and remains at $0.46.</p>\n            ","response":0,"trial_type":"html-button-response","trial_index":16,"time_elapsed":307491,"internal_node_id":"0.0-4.0-1.2","subject_id":"60fdd675fca33b0ce3d19a7f","study_id":"60edd13110225f80f9f3709b","session_id":"6196c1f381972c7d99b43d01","condition":"full-information","relevant_dimensions":["pattern","legs"],"bee_group":{"antennae":"X","wings":"X","pattern":"D","legs":"F"},"bonus":0.02},{"rt":99813.90000000596,"stimulus":"bees-with-color/bee-A1SF.svg","response":1,"trial_type":"image-button-response","trial_index":17,"time_elapsed":407311,"internal_node_id":"0.0-4.0-0.3","subject_id":"60fdd675fca33b0ce3d19a7f","study_id":"60edd13110225f80f9f3709b","session_id":"6196c1f381972c7d99b43d01","condition":"full-information","relevant_dimensions":["pattern","legs"],"bee_group":{"antennae":"X","wings":"X","pattern":"D","legs":"F"},"action":"avoid","summary":"bad-avoid","bonus":0.02},{"rt":10969.40000000596,"stimulus":"\n                    <p><b>Action: <em>avoid</em></b></p>\n                    <p>This is the bee that you just saw.</p>\n                    <img src=\"bees-with-color/bee-A1SF.svg\" width=\"200\">\n                    <p><span class=\"redText\">Bad choice,</span> the bee was friendly.<br>Your bonus pay is unchanged, and remains at $0.46.</p>\n            ","response":0,"trial_type":"html-button-response","trial_index":18,"time_elapsed":418287,"internal_node_id":"0.0-4.0-1.3","subject_id":"60fdd675fca33b0ce3d19a7f","study_id":"60edd13110225f80f9f3709b","session_id":"6196c1f381972c7d99b43d01","condition":"full-information","relevant_dimensions":["pattern","legs"],"bee_group":{"antennae":"X","wings":"X","pattern":"D","legs":"F"},"bonus":0.02},{"rt":8590.40000000596,"stimulus":"bees-with-color/bee-B2SF.svg","response":1,"trial_type":"image-button-response","trial_index":19,"time_elapsed":426883,"internal_node_id":"0.0-4.0-0.4","subject_id":"60fdd675fca33b0ce3d19a7f","study_id":"60edd13110225f80f9f3709b","session_id":"6196c1f381972c7d99b43d01","condition":"full-information","relevant_dimensions":["pattern","legs"],"bee_group":{"antennae":"X","wings":"X","pattern":"D","legs":"F"},"action":"avoid","summary":"bad-avoid","bonus":0.02},{"rt":24859.09999999404,"stimulus":"\n                    <p><b>Action: <em>avoid</em></b></p>\n                    <p>This is the bee that you just saw.</p>\n                    <img src=\"bees-with-color/bee-B2SF.svg\" width=\"200\">\n                    <p><span class=\"redText\">Bad choice,</span> the bee was friendly.<br>Your bonus pay is unchanged, and remains at $0.46.</p>\n            ","response":0,"trial_type":"html-button-response","trial_index":20,"time_elapsed":451747,"internal_node_id":"0.0-4.0-1.4","subject_id":"60fdd675fca33b0ce3d19a7f","study_id":"60edd13110225f80f9f3709b","session_id":"6196c1f381972c7d99b43d01","condition":"full-information","relevant_dimensions":["pattern","legs"],"bee_group":{"antennae":"X","wings":"X","pattern":"D","legs":"F"},"bonus":0.02},{"rt":5541.199999988079,"stimulus":"bees-with-color/bee-A2DF.svg","response":0,"trial_type":"image-button-response","trial_index":21,"time_elapsed":457297,"internal_node_id":"0.0-4.0-0.5","subject_id":"60fdd675fca33b0ce3d19a7f","study_id":"60edd13110225f80f9f3709b","session_id":"6196c1f381972c7d99b43d01","condition":"full-information","relevant_dimensions":["pattern","legs"],"bee_group":{"antennae":"X","wings":"X","pattern":"D","legs":"F"},"action":"harvest","summary":"bad-harvest","bonus":0.02},{"rt":2338.9000000059605,"stimulus":"\n                    <p><b>Action: <em>harvest</em></b></p>\n                    <p>This is the bee that you just saw.</p>\n                    <img src=\"bees-with-color/bee-A2DF.svg\" width=\"200\">\n                    <p><span class=\"redText\">Bad choice, the bee was angry.</span><br><b>You have been stung!</b><br>Your pay has been decreased by $0.10. Your bonus pay is now $0.36.</p>\n            ","response":0,"trial_type":"html-button-response","trial_index":22,"time_elapsed":459644,"internal_node_id":"0.0-4.0-1.5","subject_id":"60fdd675fca33b0ce3d19a7f","study_id":"60edd13110225f80f9f3709b","session_id":"6196c1f381972c7d99b43d01","condition":"full-information","relevant_dimensions":["pattern","legs"],"bee_group":{"antennae":"X","wings":"X","pattern":"D","legs":"F"},"bonus":0.02},{"rt":6248.9000000059605,"stimulus":"bees-with-color/bee-A2SF.svg","response":1,"trial_type":"image-button-response","trial_index":23,"time_elapsed":465903,"internal_node_id":"0.0-4.0-0.6","subject_id":"60fdd675fca33b0ce3d19a7f","study_id":"60edd13110225f80f9f3709b","session_id":"6196c1f381972c7d99b43d01","condition":"full-information","relevant_dimensions":["pattern","legs"],"bee_group":{"antennae":"X","wings":"X","pattern":"D","legs":"F"},"action":"avoid","summary":"bad-avoid","bonus":0.02},{"rt":3288.199999988079,"stimulus":"\n                    <p><b>Action: <em>avoid</em></b></p>\n                    <p>This is the bee that you just saw.</p>\n                    <img src=\"bees-with-color/bee-A2SF.svg\" width=\"200\">\n                    <p><span class=\"redText\">Bad choice,</span> the bee was friendly.<br>Your bonus pay is unchanged, and remains at $0.36.</p>\n            ","response":0,"trial_type":"html-button-response","trial_index":24,"time_elapsed":469194,"internal_node_id":"0.0-4.0-1.6","subject_id":"60fdd675fca33b0ce3d19a7f","study_id":"60edd13110225f80f9f3709b","session_id":"6196c1f381972c7d99b43d01","condition":"full-information","relevant_dimensions":["pattern","legs"],"bee_group":{"antennae":"X","wings":"X","pattern":"D","legs":"F"},"bonus":0.02},{"rt":10583.799999982119,"stimulus":"bees-with-color/bee-A2DM.svg","response":1,"trial_type":"image-button-response","trial_index":25,"time_elapsed":479786,"internal_node_id":"0.0-4.0-0.7","subject_id":"60fdd675fca33b0ce3d19a7f","study_id":"60edd13110225f80f9f3709b","session_id":"6196c1f381972c7d99b43d01","condition":"full-information","relevant_dimensions":["pattern","legs"],"bee_group":{"antennae":"X","wings":"X","pattern":"D","legs":"F"},"action":"avoid","summary":"bad-avoid","bonus":0.02},{"rt":2100.7999999821186,"stimulus":"\n                    <p><b>Action: <em>avoid</em></b></p>\n                    <p>This is the bee that you just saw.</p>\n                    <img src=\"bees-with-color/bee-A2DM.svg\" width=\"200\">\n                    <p><span class=\"redText\">Bad choice,</span> the bee was friendly.<br>Your bonus pay is unchanged, and remains at $0.36.</p>\n            ","response":0,"trial_type":"html-button-response","trial_index":26,"time_elapsed":481890,"internal_node_id":"0.0-4.0-1.7","subject_id":"60fdd675fca33b0ce3d19a7f","study_id":"60edd13110225f80f9f3709b","session_id":"6196c1f381972c7d99b43d01","condition":"full-information","relevant_dimensions":["pattern","legs"],"bee_group":{"antennae":"X","wings":"X","pattern":"D","legs":"F"},"bonus":0.02},{"rt":5956.399999976158,"stimulus":"bees-with-color/bee-A1DM.svg","response":1,"trial_type":"image-button-response","trial_index":27,"time_elapsed":487854,"internal_node_id":"0.0-4.0-0.8","subject_id":"60fdd675fca33b0ce3d19a7f","study_id":"60edd13110225f80f9f3709b","session_id":"6196c1f381972c7d99b43d01","condition":"full-information","relevant_dimensions":["pattern","legs"],"bee_group":{"antennae":"X","wings":"X","pattern":"D","legs":"F"},"action":"avoid","summary":"bad-avoid","bonus":0.02},{"rt":1352.5999999940395,"stimulus":"\n                    <p><b>Action: <em>avoid</em></b></p>\n                    <p>This is the bee that you just saw.</p>\n                    <img src=\"bees-with-color/bee-A1DM.svg\" width=\"200\">\n                    <p><span class=\"redText\">Bad choice,</span> the bee was friendly.<br>Your bonus pay is unchanged, and remains at $0.36.</p>\n            ","response":0,"trial_type":"html-button-response","trial_index":28,"time_elapsed":489210,"internal_node_id":"0.0-4.0-1.8","subject_id":"60fdd675fca33b0ce3d19a7f","study_id":"60edd13110225f80f9f3709b","session_id":"6196c1f381972c7d99b43d01","condition":"full-information","relevant_dimensions":["pattern","legs"],"bee_group":{"antennae":"X","wings":"X","pattern":"D","legs":"F"},"bonus":0.02},{"rt":1347.800000011921,"stimulus":"bees-with-color/bee-A2SM.svg","response":0,"trial_type":"image-button-response","trial_index":29,"time_elapsed":490563,"internal_node_id":"0.0-4.0-0.9","subject_id":"60fdd675fca33b0ce3d19a7f","study_id":"60edd13110225f80f9f3709b","session_id":"6196c1f381972c7d99b43d01","condition":"full-information","relevant_dimensions":["pattern","legs"],"bee_group":{"antennae":"X","wings":"X","pattern":"D","legs":"F"},"action":"harvest","summary":"good-harvest","bonus":0.02},{"rt":1839.300000011921,"stimulus":"\n                    <p><b>Action: <em>harvest</em></b></p>\n                    <p>This is the bee that you just saw.</p>\n                    <img src=\"bees-with-color/bee-A2SM.svg\" width=\"200\">\n                    <p><span class=\"greenText\"><b>Successful harvest!</b></span><br>Your pay has increased by $0.02. Your bonus pay is now $0.38.</p>\n            ","response":0,"trial_type":"html-button-response","trial_index":30,"time_elapsed":492407,"internal_node_id":"0.0-4.0-1.9","subject_id":"60fdd675fca33b0ce3d19a7f","study_id":"60edd13110225f80f9f3709b","session_id":"6196c1f381972c7d99b43d01","condition":"full-information","relevant_dimensions":["pattern","legs"],"bee_group":{"antennae":"X","wings":"X","pattern":"D","legs":"F"},"bonus":0.02},{"rt":962.8000000119209,"stimulus":"bees-with-color/bee-B2DM.svg","response":1,"trial_type":"image-button-response","trial_index":31,"time_elapsed":493375,"internal_node_id":"0.0-4.0-0.10","subject_id":"60fdd675fca33b0ce3d19a7f","study_id":"60edd13110225f80f9f3709b","session_id":"6196c1f381972c7d99b43d01","condition":"full-information","relevant_dimensions":["pattern","legs"],"bee_group":{"antennae":"X","wings":"X","pattern":"D","legs":"F"},"action":"avoid","summary":"bad-avoid","bonus":0.02},{"rt":934.6999999880791,"stimulus":"\n                    <p><b>Action: <em>avoid</em></b></p>\n                    <p>This is the bee that you just saw.</p>\n                    <img src=\"bees-with-color/bee-B2DM.svg\" width=\"200\">\n                    <p><span class=\"redText\">Bad choice,</span> the bee was friendly.<br>Your bonus pay is unchanged, and remains at $0.38.</p>\n            ","response":0,"trial_type":"html-button-response","trial_index":32,"time_elapsed":494314,"internal_node_id":"0.0-4.0-1.10","subject_id":"60fdd675fca33b0ce3d19a7f","study_id":"60edd13110225f80f9f3709b","session_id":"6196c1f381972c7d99b43d01","condition":"full-information","relevant_dimensions":["pattern","legs"],"bee_group":{"antennae":"X","wings":"X","pattern":"D","legs":"F"},"bonus":0.02},{"rt":700.5999999940395,"stimulus":"bees-with-color/bee-A1SM.svg","response":0,"trial_type":"image-button-response","trial_index":33,"time_elapsed":495018,"internal_node_id":"0.0-4.0-0.11","subject_id":"60fdd675fca33b0ce3d19a7f","study_id":"60edd13110225f80f9f3709b","session_id":"6196c1f381972c7d99b43d01","condition":"full-information","relevant_dimensions":["pattern","legs"],"bee_group":{"antennae":"X","wings":"X","pattern":"D","legs":"F"},"action":"harvest","summary":"good-harvest","bonus":0.02},{"rt":1308.7999999821186,"stimulus":"\n                    <p><b>Action: <em>harvest</em></b></p>\n                    <p>This is the bee that you just saw.</p>\n                    <img src=\"bees-with-color/bee-A1SM.svg\" width=\"200\">\n                    <p><span class=\"greenText\"><b>Successful harvest!</b></span><br>Your pay has increased by $0.02. Your bonus pay is now $0.40.</p>\n            ","response":0,"trial_type":"html-button-response","trial_index":34,"time_elapsed":496330,"internal_node_id":"0.0-4.0-1.11","subject_id":"60fdd675fca33b0ce3d19a7f","study_id":"60edd13110225f80f9f3709b","session_id":"6196c1f381972c7d99b43d01","condition":"full-information","relevant_dimensions":["pattern","legs"],"bee_group":{"antennae":"X","wings":"X","pattern":"D","legs":"F"},"bonus":0.02},{"rt":593.1000000238419,"stimulus":"bees-with-color/bee-B1SM.svg","response":1,"trial_type":"image-button-response","trial_index":35,"time_elapsed":496926,"internal_node_id":"0.0-4.0-0.12","subject_id":"60fdd675fca33b0ce3d19a7f","study_id":"60edd13110225f80f9f3709b","session_id":"6196c1f381972c7d99b43d01","condition":"full-information","relevant_dimensions":["pattern","legs"],"bee_group":{"antennae":"X","wings":"X","pattern":"D","legs":"F"},"action":"avoid","summary":"bad-avoid","bonus":0.02},{"rt":1076.699999988079,"stimulus":"\n                    <p><b>Action: <em>avoid</em></b></p>\n                    <p>This is the bee that you just saw.</p>\n                    <img src=\"bees-with-color/bee-B1SM.svg\" width=\"200\">\n                    <p><span class=\"redText\">Bad choice,</span> the bee was friendly.<br>Your bonus pay is unchanged, and remains at $0.40.</p>\n            ","response":0,"trial_type":"html-button-response","trial_index":36,"time_elapsed":498007,"internal_node_id":"0.0-4.0-1.12","subject_id":"60fdd675fca33b0ce3d19a7f","study_id":"60edd13110225f80f9f3709b","session_id":"6196c1f381972c7d99b43d01","condition":"full-information","relevant_dimensions":["pattern","legs"],"bee_group":{"antennae":"X","wings":"X","pattern":"D","legs":"F"},"bonus":0.02},{"rt":5422.9000000059605,"stimulus":"bees-with-color/bee-B1DF.svg","response":1,"trial_type":"image-button-response","trial_index":37,"time_elapsed":503434,"internal_node_id":"0.0-4.0-0.13","subject_id":"60fdd675fca33b0ce3d19a7f","study_id":"60edd13110225f80f9f3709b","session_id":"6196c1f381972c7d99b43d01","condition":"full-information","relevant_dimensions":["pattern","legs"],"bee_group":{"antennae":"X","wings":"X","pattern":"D","legs":"F"},"action":"avoid","summary":"good-avoid","bonus":0.02},{"rt":15768.5,"stimulus":"\n                    <p><b>Action: <em>avoid</em></b></p>\n                    <p>This is the bee that you just saw.</p>\n                    <img src=\"bees-with-color/bee-B1DF.svg\" width=\"200\">\n                    <p><span class=\"greenText\">Good choice!</span>  This bee would have stung you.<br>Your bonus pay is unchanged, and remains at $0.40.</p>\n            ","response":0,"trial_type":"html-button-response","trial_index":38,"time_elapsed":519206,"internal_node_id":"0.0-4.0-1.13","subject_id":"60fdd675fca33b0ce3d19a7f","study_id":"60edd13110225f80f9f3709b","session_id":"6196c1f381972c7d99b43d01","condition":"full-information","relevant_dimensions":["pattern","legs"],"bee_group":{"antennae":"X","wings":"X","pattern":"D","legs":"F"},"bonus":0.02},{"rt":10444.09999999404,"stimulus":"bees-with-color/bee-B2DF.svg","response":0,"trial_type":"image-button-response","trial_index":39,"time_elapsed":529655,"internal_node_id":"0.0-4.0-0.14","subject_id":"60fdd675fca33b0ce3d19a7f","study_id":"60edd13110225f80f9f3709b","session_id":"6196c1f381972c7d99b43d01","condition":"full-information","relevant_dimensions":["pattern","legs"],"bee_group":{"antennae":"X","wings":"X","pattern":"D","legs":"F"},"action":"harvest","summary":"bad-harvest","bonus":0.02},{"rt":1586.5,"stimulus":"\n                    <p><b>Action: <em>harvest</em></b></p>\n                    <p>This is the bee that you just saw.</p>\n                    <img src=\"bees-with-color/bee-B2DF.svg\" width=\"200\">\n                    <p><span class=\"redText\">Bad choice, the bee was angry.</span><br><b>You have been stung!</b><br>Your pay has been decreased by $0.10. Your bonus pay is now $0.30.</p>\n            ","response":0,"trial_type":"html-button-response","trial_index":40,"time_elapsed":531248,"internal_node_id":"0.0-4.0-1.14","subject_id":"60fdd675fca33b0ce3d19a7f","study_id":"60edd13110225f80f9f3709b","session_id":"6196c1f381972c7d99b43d01","condition":"full-information","relevant_dimensions":["pattern","legs"],"bee_group":{"antennae":"X","wings":"X","pattern":"D","legs":"F"},"bonus":0.02},{"rt":887.5,"stimulus":"bees-with-color/bee-B2SM.svg","response":1,"trial_type":"image-button-response","trial_index":41,"time_elapsed":532142,"internal_node_id":"0.0-4.0-0.15","subject_id":"60fdd675fca33b0ce3d19a7f","study_id":"60edd13110225f80f9f3709b","session_id":"6196c1f381972c7d99b43d01","condition":"full-information","relevant_dimensions":["pattern","legs"],"bee_group":{"antennae":"X","wings":"X","pattern":"D","legs":"F"},"action":"avoid","summary":"bad-avoid","bonus":0.02},{"rt":464.30000001192093,"stimulus":"\n                    <p><b>Action: <em>avoid</em></b></p>\n                    <p>This is the bee that you just saw.</p>\n                    <img src=\"bees-with-color/bee-B2SM.svg\" width=\"200\">\n                    <p><span class=\"redText\">Bad choice,</span> the bee was friendly.<br>Your bonus pay is unchanged, and remains at $0.30.</p>\n            ","response":0,"trial_type":"html-button-response","trial_index":42,"time_elapsed":532610,"internal_node_id":"0.0-4.0-1.15","subject_id":"60fdd675fca33b0ce3d19a7f","study_id":"60edd13110225f80f9f3709b","session_id":"6196c1f381972c7d99b43d01","condition":"full-information","relevant_dimensions":["pattern","legs"],"bee_group":{"antennae":"X","wings":"X","pattern":"D","legs":"F"},"bonus":0.02},{"rt":605.0999999940395,"stimulus":"bees-with-color/bee-B2SF.svg","response":0,"trial_type":"image-button-response","trial_index":43,"time_elapsed":533219,"internal_node_id":"0.0-4.0-0.16","subject_id":"60fdd675fca33b0ce3d19a7f","study_id":"60edd13110225f80f9f3709b","session_id":"6196c1f381972c7d99b43d01","condition":"full-information","relevant_dimensions":["pattern","legs"],"bee_group":{"antennae":"X","wings":"X","pattern":"D","legs":"F"},"action":"harvest","summary":"good-harvest","bonus":0.02},{"rt":652,"stimulus":"\n                    <p><b>Action: <em>harvest</em></b></p>\n                    <p>This is the bee that you just saw.</p>\n                    <img src=\"bees-with-color/bee-B2SF.svg\" width=\"200\">\n                    <p><span class=\"greenText\"><b>Successful harvest!</b></span><br>Your pay has increased by $0.02. Your bonus pay is now $0.32.</p>\n            ","response":0,"trial_type":"html-button-response","trial_index":44,"time_elapsed":533874,"internal_node_id":"0.0-4.0-1.16","subject_id":"60fdd675fca33b0ce3d19a7f","study_id":"60edd13110225f80f9f3709b","session_id":"6196c1f381972c7d99b43d01","condition":"full-information","relevant_dimensions":["pattern","legs"],"bee_group":{"antennae":"X","wings":"X","pattern":"D","legs":"F"},"bonus":0.02},{"rt":653.4000000059605,"stimulus":"bees-with-color/bee-A1SM.svg","response":1,"trial_type":"image-button-response","trial_index":45,"time_elapsed":534531,"internal_node_id":"0.0-4.0-0.17","subject_id":"60fdd675fca33b0ce3d19a7f","study_id":"60edd13110225f80f9f3709b","session_id":"6196c1f381972c7d99b43d01","condition":"full-information","relevant_dimensions":["pattern","legs"],"bee_group":{"antennae":"X","wings":"X","pattern":"D","legs":"F"},"action":"avoid","summary":"bad-avoid","bonus":0.02},{"rt":3691.2999999821186,"stimulus":"\n                    <p><b>Action: <em>avoid</em></b></p>\n                    <p>This is the bee that you just saw.</p>\n                    <img src=\"bees-with-color/bee-A1SM.svg\" width=\"200\">\n                    <p><span class=\"redText\">Bad choice,</span> the bee was friendly.<br>Your bonus pay is unchanged, and remains at $0.32.</p>\n            ","response":0,"trial_type":"html-button-response","trial_index":46,"time_elapsed":538227,"internal_node_id":"0.0-4.0-1.17","subject_id":"60fdd675fca33b0ce3d19a7f","study_id":"60edd13110225f80f9f3709b","session_id":"6196c1f381972c7d99b43d01","condition":"full-information","relevant_dimensions":["pattern","legs"],"bee_group":{"antennae":"X","wings":"X","pattern":"D","legs":"F"},"bonus":0.02},{"rt":505.30000001192093,"stimulus":"bees-with-color/bee-A2DM.svg","response":0,"trial_type":"image-button-response","trial_index":47,"time_elapsed":538738,"internal_node_id":"0.0-4.0-0.18","subject_id":"60fdd675fca33b0ce3d19a7f","study_id":"60edd13110225f80f9f3709b","session_id":"6196c1f381972c7d99b43d01","condition":"full-information","relevant_dimensions":["pattern","legs"],"bee_group":{"antennae":"X","wings":"X","pattern":"D","legs":"F"},"action":"harvest","summary":"good-harvest","bonus":0.02},{"rt":3548.0999999940395,"stimulus":"\n                    <p><b>Action: <em>harvest</em></b></p>\n                    <p>This is the bee that you just saw.</p>\n                    <img src=\"bees-with-color/bee-A2DM.svg\" width=\"200\">\n                    <p><span class=\"greenText\"><b>Successful harvest!</b></span><br>Your pay has increased by $0.02. Your bonus pay is now $0.34.</p>\n            ","response":0,"trial_type":"html-button-response","trial_index":48,"time_elapsed":542290,"internal_node_id":"0.0-4.0-1.18","subject_id":"60fdd675fca33b0ce3d19a7f","study_id":"60edd13110225f80f9f3709b","session_id":"6196c1f381972c7d99b43d01","condition":"full-information","relevant_dimensions":["pattern","legs"],"bee_group":{"antennae":"X","wings":"X","pattern":"D","legs":"F"},"bonus":0.02},{"rt":1734.699999988079,"stimulus":"bees-with-color/bee-A2DF.svg","response":0,"trial_type":"image-button-response","trial_index":49,"time_elapsed":544031,"internal_node_id":"0.0-4.0-0.19","subject_id":"60fdd675fca33b0ce3d19a7f","study_id":"60edd13110225f80f9f3709b","session_id":"6196c1f381972c7d99b43d01","condition":"full-information","relevant_dimensions":["pattern","legs"],"bee_group":{"antennae":"X","wings":"X","pattern":"D","legs":"F"},"action":"harvest","summary":"bad-harvest","bonus":0.02},{"rt":1153.0999999940395,"stimulus":"\n                    <p><b>Action: <em>harvest</em></b></p>\n                    <p>This is the bee that you just saw.</p>\n                    <img src=\"bees-with-color/bee-A2DF.svg\" width=\"200\">\n                    <p><span class=\"redText\">Bad choice, the bee was angry.</span><br><b>You have been stung!</b><br>Your pay has been decreased by $0.10. Your bonus pay is now $0.24.</p>\n            ","response":0,"trial_type":"html-button-response","trial_index":50,"time_elapsed":545190,"internal_node_id":"0.0-4.0-1.19","subject_id":"60fdd675fca33b0ce3d19a7f","study_id":"60edd13110225f80f9f3709b","session_id":"6196c1f381972c7d99b43d01","condition":"full-information","relevant_dimensions":["pattern","legs"],"bee_group":{"antennae":"X","wings":"X","pattern":"D","legs":"F"},"bonus":0.02},{"rt":1085.2000000178814,"stimulus":"bees-with-color/bee-A1DM.svg","response":1,"trial_type":"image-button-response","trial_index":51,"time_elapsed":546279,"internal_node_id":"0.0-4.0-0.20","subject_id":"60fdd675fca33b0ce3d19a7f","study_id":"60edd13110225f80f9f3709b","session_id":"6196c1f381972c7d99b43d01","condition":"full-information","relevant_dimensions":["pattern","legs"],"bee_group":{"antennae":"X","wings":"X","pattern":"D","legs":"F"},"action":"avoid","summary":"bad-avoid","bonus":0.02},{"rt":1550.699999988079,"stimulus":"\n                    <p><b>Action: <em>avoid</em></b></p>\n                    <p>This is the bee that you just saw.</p>\n                    <img src=\"bees-with-color/bee-A1DM.svg\" width=\"200\">\n                    <p><span class=\"redText\">Bad choice,</span> the bee was friendly.<br>Your bonus pay is unchanged, and remains at $0.24.</p>\n            ","response":0,"trial_type":"html-button-response","trial_index":52,"time_elapsed":547834,"internal_node_id":"0.0-4.0-1.20","subject_id":"60fdd675fca33b0ce3d19a7f","study_id":"60edd13110225f80f9f3709b","session_id":"6196c1f381972c7d99b43d01","condition":"full-information","relevant_dimensions":["pattern","legs"],"bee_group":{"antennae":"X","wings":"X","pattern":"D","legs":"F"},"bonus":0.02},{"rt":1356.199999988079,"stimulus":"bees-with-color/bee-B2SM.svg","response":1,"trial_type":"image-button-response","trial_index":53,"time_elapsed":549195,"internal_node_id":"0.0-4.0-0.21","subject_id":"60fdd675fca33b0ce3d19a7f","study_id":"60edd13110225f80f9f3709b","session_id":"6196c1f381972c7d99b43d01","condition":"full-information","relevant_dimensions":["pattern","legs"],"bee_group":{"antennae":"X","wings":"X","pattern":"D","legs":"F"},"action":"avoid","summary":"bad-avoid","bonus":0.02},{"rt":746.3999999761581,"stimulus":"\n                    <p><b>Action: <em>avoid</em></b></p>\n                    <p>This is the bee that you just saw.</p>\n                    <img src=\"bees-with-color/bee-B2SM.svg\" width=\"200\">\n                    <p><span class=\"redText\">Bad choice,</span> the bee was friendly.<br>Your bonus pay is unchanged, and remains at $0.24.</p>\n            ","response":0,"trial_type":"html-button-response","trial_index":54,"time_elapsed":549946,"internal_node_id":"0.0-4.0-1.21","subject_id":"60fdd675fca33b0ce3d19a7f","study_id":"60edd13110225f80f9f3709b","session_id":"6196c1f381972c7d99b43d01","condition":"full-information","relevant_dimensions":["pattern","legs"],"bee_group":{"antennae":"X","wings":"X","pattern":"D","legs":"F"},"bonus":0.02},{"rt":831.9000000059605,"stimulus":"bees-with-color/bee-A1DF.svg","response":1,"trial_type":"image-button-response","trial_index":55,"time_elapsed":550782,"internal_node_id":"0.0-4.0-0.22","subject_id":"60fdd675fca33b0ce3d19a7f","study_id":"60edd13110225f80f9f3709b","session_id":"6196c1f381972c7d99b43d01","condition":"full-information","relevant_dimensions":["pattern","legs"],"bee_group":{"antennae":"X","wings":"X","pattern":"D","legs":"F"},"action":"avoid","summary":"good-avoid","bonus":0.02},{"rt":1403.9000000059605,"stimulus":"\n                    <p><b>Action: <em>avoid</em></b></p>\n                    <p>This is the bee that you just saw.</p>\n                    <img src=\"bees-with-color/bee-A1DF.svg\" width=\"200\">\n                    <p><span class=\"greenText\">Good choice!</span>  This bee would have stung you.<br>Your bonus pay is unchanged, and remains at $0.24.</p>\n            ","response":0,"trial_type":"html-button-response","trial_index":56,"time_elapsed":552190,"internal_node_id":"0.0-4.0-1.22","subject_id":"60fdd675fca33b0ce3d19a7f","study_id":"60edd13110225f80f9f3709b","session_id":"6196c1f381972c7d99b43d01","condition":"full-information","relevant_dimensions":["pattern","legs"],"bee_group":{"antennae":"X","wings":"X","pattern":"D","legs":"F"},"bonus":0.02},{"rt":1054.300000011921,"stimulus":"bees-with-color/bee-B1DM.svg","response":0,"trial_type":"image-button-response","trial_index":57,"time_elapsed":553250,"internal_node_id":"0.0-4.0-0.23","subject_id":"60fdd675fca33b0ce3d19a7f","study_id":"60edd13110225f80f9f3709b","session_id":"6196c1f381972c7d99b43d01","condition":"full-information","relevant_dimensions":["pattern","legs"],"bee_group":{"antennae":"X","wings":"X","pattern":"D","legs":"F"},"action":"harvest","summary":"good-harvest","bonus":0.02},{"rt":940.4000000059605,"stimulus":"\n                    <p><b>Action: <em>harvest</em></b></p>\n                    <p>This is the bee that you just saw.</p>\n                    <img src=\"bees-with-color/bee-B1DM.svg\" width=\"200\">\n                    <p><span class=\"greenText\"><b>Successful harvest!</b></span><br>Your pay has increased by $0.02. Your bonus pay is now $0.26.</p>\n            ","response":0,"trial_type":"html-button-response","trial_index":58,"time_elapsed":554195,"internal_node_id":"0.0-4.0-1.23","subject_id":"60fdd675fca33b0ce3d19a7f","study_id":"60edd13110225f80f9f3709b","session_id":"6196c1f381972c7d99b43d01","condition":"full-information","relevant_dimensions":["pattern","legs"],"bee_group":{"antennae":"X","wings":"X","pattern":"D","legs":"F"},"bonus":0.02},{"rt":828.4000000059605,"stimulus":"bees-with-color/bee-B1SM.svg","response":0,"trial_type":"image-button-response","trial_index":59,"time_elapsed":555027,"internal_node_id":"0.0-4.0-0.24","subject_id":"60fdd675fca33b0ce3d19a7f","study_id":"60edd13110225f80f9f3709b","session_id":"6196c1f381972c7d99b43d01","condition":"full-information","relevant_dimensions":["pattern","legs"],"bee_group":{"antennae":"X","wings":"X","pattern":"D","legs":"F"},"action":"harvest","summary":"good-harvest","bonus":0.02},{"rt":910.5,"stimulus":"\n                    <p><b>Action: <em>harvest</em></b></p>\n                    <p>This is the bee that you just saw.</p>\n                    <img src=\"bees-with-color/bee-B1SM.svg\" width=\"200\">\n                    <p><span class=\"greenText\"><b>Successful harvest!</b></span><br>Your pay has increased by $0.02. Your bonus pay is now $0.28.</p>\n            ","response":0,"trial_type":"html-button-response","trial_index":60,"time_elapsed":555945,"internal_node_id":"0.0-4.0-1.24","subject_id":"60fdd675fca33b0ce3d19a7f","study_id":"60edd13110225f80f9f3709b","session_id":"6196c1f381972c7d99b43d01","condition":"full-information","relevant_dimensions":["pattern","legs"],"bee_group":{"antennae":"X","wings":"X","pattern":"D","legs":"F"},"bonus":0.02},{"rt":2805.5999999940395,"stimulus":"bees-with-color/bee-A1SF.svg","response":1,"trial_type":"image-button-response","trial_index":61,"time_elapsed":558755,"internal_node_id":"0.0-4.0-0.25","subject_id":"60fdd675fca33b0ce3d19a7f","study_id":"60edd13110225f80f9f3709b","session_id":"6196c1f381972c7d99b43d01","condition":"full-information","relevant_dimensions":["pattern","legs"],"bee_group":{"antennae":"X","wings":"X","pattern":"D","legs":"F"},"action":"avoid","summary":"bad-avoid","bonus":0.02},{"rt":2933.4000000059605,"stimulus":"\n                    <p><b>Action: <em>avoid</em></b></p>\n                    <p>This is the bee that you just saw.</p>\n                    <img src=\"bees-with-color/bee-A1SF.svg\" width=\"200\">\n                    <p><span class=\"redText\">Bad choice,</span> the bee was friendly.<br>Your bonus pay is unchanged, and remains at $0.28.</p>\n            ","response":0,"trial_type":"html-button-response","trial_index":62,"time_elapsed":561694,"internal_node_id":"0.0-4.0-1.25","subject_id":"60fdd675fca33b0ce3d19a7f","study_id":"60edd13110225f80f9f3709b","session_id":"6196c1f381972c7d99b43d01","condition":"full-information","relevant_dimensions":["pattern","legs"],"bee_group":{"antennae":"X","wings":"X","pattern":"D","legs":"F"},"bonus":0.02},{"rt":1163.5,"stimulus":"bees-with-color/bee-B2DF.svg","response":0,"trial_type":"image-button-response","trial_index":63,"time_elapsed":562863,"internal_node_id":"0.0-4.0-0.26","subject_id":"60fdd675fca33b0ce3d19a7f","study_id":"60edd13110225f80f9f3709b","session_id":"6196c1f381972c7d99b43d01","condition":"full-information","relevant_dimensions":["pattern","legs"],"bee_group":{"antennae":"X","wings":"X","pattern":"D","legs":"F"},"action":"harvest","summary":"bad-harvest","bonus":0.02},{"rt":735.2999999821186,"stimulus":"\n                    <p><b>Action: <em>harvest</em></b></p>\n                    <p>This is the bee that you just saw.</p>\n                    <img src=\"bees-with-color/bee-B2DF.svg\" width=\"200\">\n                    <p><span class=\"redText\">Bad choice, the bee was angry.</span><br><b>You have been stung!</b><br>Your pay has been decreased by $0.10. Your bonus pay is now $0.18.</p>\n            ","response":0,"trial_type":"html-button-response","trial_index":64,"time_elapsed":563602,"internal_node_id":"0.0-4.0-1.26","subject_id":"60fdd675fca33b0ce3d19a7f","study_id":"60edd13110225f80f9f3709b","session_id":"6196c1f381972c7d99b43d01","condition":"full-information","relevant_dimensions":["pattern","legs"],"bee_group":{"antennae":"X","wings":"X","pattern":"D","legs":"F"},"bonus":0.02},{"rt":1051.2999999821186,"stimulus":"bees-with-color/bee-B1SF.svg","response":0,"trial_type":"image-button-response","trial_index":65,"time_elapsed":564658,"internal_node_id":"0.0-4.0-0.27","subject_id":"60fdd675fca33b0ce3d19a7f","study_id":"60edd13110225f80f9f3709b","session_id":"6196c1f381972c7d99b43d01","condition":"full-information","relevant_dimensions":["pattern","legs"],"bee_group":{"antennae":"X","wings":"X","pattern":"D","legs":"F"},"action":"harvest","summary":"good-harvest","bonus":0.02},{"rt":554.9000000059605,"stimulus":"\n                    <p><b>Action: <em>harvest</em></b></p>\n                    <p>This is the bee that you just saw.</p>\n                    <img src=\"bees-with-color/bee-B1SF.svg\" width=\"200\">\n                    <p><span class=\"greenText\"><b>Successful harvest!</b></span><br>Your pay has increased by $0.02. Your bonus pay is now $0.20.</p>\n            ","response":0,"trial_type":"html-button-response","trial_index":66,"time_elapsed":565218,"internal_node_id":"0.0-4.0-1.27","subject_id":"60fdd675fca33b0ce3d19a7f","study_id":"60edd13110225f80f9f3709b","session_id":"6196c1f381972c7d99b43d01","condition":"full-information","relevant_dimensions":["pattern","legs"],"bee_group":{"antennae":"X","wings":"X","pattern":"D","legs":"F"},"bonus":0.02},{"rt":1281.699999988079,"stimulus":"bees-with-color/bee-B1DF.svg","response":1,"trial_type":"image-button-response","trial_index":67,"time_elapsed":566502,"internal_node_id":"0.0-4.0-0.28","subject_id":"60fdd675fca33b0ce3d19a7f","study_id":"60edd13110225f80f9f3709b","session_id":"6196c1f381972c7d99b43d01","condition":"full-information","relevant_dimensions":["pattern","legs"],"bee_group":{"antennae":"X","wings":"X","pattern":"D","legs":"F"},"action":"avoid","summary":"good-avoid","bonus":0.02},{"rt":2655.2000000178814,"stimulus":"\n                    <p><b>Action: <em>avoid</em></b></p>\n                    <p>This is the bee that you just saw.</p>\n                    <img src=\"bees-with-color/bee-B1DF.svg\" width=\"200\">\n                    <p><span class=\"greenText\">Good choice!</span>  This bee would have stung you.<br>Your bonus pay is unchanged, and remains at $0.20.</p>\n            ","response":0,"trial_type":"html-button-response","trial_index":68,"time_elapsed":569162,"internal_node_id":"0.0-4.0-1.28","subject_id":"60fdd675fca33b0ce3d19a7f","study_id":"60edd13110225f80f9f3709b","session_id":"6196c1f381972c7d99b43d01","condition":"full-information","relevant_dimensions":["pattern","legs"],"bee_group":{"antennae":"X","wings":"X","pattern":"D","legs":"F"},"bonus":0.02},{"rt":1035.7999999821186,"stimulus":"bees-with-color/bee-A2SF.svg","response":1,"trial_type":"image-button-response","trial_index":69,"time_elapsed":570202,"internal_node_id":"0.0-4.0-0.29","subject_id":"60fdd675fca33b0ce3d19a7f","study_id":"60edd13110225f80f9f3709b","session_id":"6196c1f381972c7d99b43d01","condition":"full-information","relevant_dimensions":["pattern","legs"],"bee_group":{"antennae":"X","wings":"X","pattern":"D","legs":"F"},"action":"avoid","summary":"bad-avoid","bonus":0.02},{"rt":1871.5999999940395,"stimulus":"\n                    <p><b>Action: <em>avoid</em></b></p>\n                    <p>This is the bee that you just saw.</p>\n                    <img src=\"bees-with-color/bee-A2SF.svg\" width=\"200\">\n                    <p><span class=\"redText\">Bad choice,</span> the bee was friendly.<br>Your bonus pay is unchanged, and remains at $0.20.</p>\n            ","response":0,"trial_type":"html-button-response","trial_index":70,"time_elapsed":572079,"internal_node_id":"0.0-4.0-1.29","subject_id":"60fdd675fca33b0ce3d19a7f","study_id":"60edd13110225f80f9f3709b","session_id":"6196c1f381972c7d99b43d01","condition":"full-information","relevant_dimensions":["pattern","legs"],"bee_group":{"antennae":"X","wings":"X","pattern":"D","legs":"F"},"bonus":0.02},{"rt":1232.4000000059605,"stimulus":"bees-with-color/bee-A2SM.svg","response":1,"trial_type":"image-button-response","trial_index":71,"time_elapsed":573318,"internal_node_id":"0.0-4.0-0.30","subject_id":"60fdd675fca33b0ce3d19a7f","study_id":"60edd13110225f80f9f3709b","session_id":"6196c1f381972c7d99b43d01","condition":"full-information","relevant_dimensions":["pattern","legs"],"bee_group":{"antennae":"X","wings":"X","pattern":"D","legs":"F"},"action":"avoid","summary":"bad-avoid","bonus":0.02},{"rt":766.5,"stimulus":"\n                    <p><b>Action: <em>avoid</em></b></p>\n                    <p>This is the bee that you just saw.</p>\n                    <img src=\"bees-with-color/bee-A2SM.svg\" width=\"200\">\n                    <p><span class=\"redText\">Bad choice,</span> the bee was friendly.<br>Your bonus pay is unchanged, and remains at $0.20.</p>\n            ","response":0,"trial_type":"html-button-response","trial_index":72,"time_elapsed":574090,"internal_node_id":"0.0-4.0-1.30","subject_id":"60fdd675fca33b0ce3d19a7f","study_id":"60edd13110225f80f9f3709b","session_id":"6196c1f381972c7d99b43d01","condition":"full-information","relevant_dimensions":["pattern","legs"],"bee_group":{"antennae":"X","wings":"X","pattern":"D","legs":"F"},"bonus":0.02},{"rt":1115.4000000059605,"stimulus":"bees-with-color/bee-B2DM.svg","response":1,"trial_type":"image-button-response","trial_index":73,"time_elapsed":575210,"internal_node_id":"0.0-4.0-0.31","subject_id":"60fdd675fca33b0ce3d19a7f","study_id":"60edd13110225f80f9f3709b","session_id":"6196c1f381972c7d99b43d01","condition":"full-information","relevant_dimensions":["pattern","legs"],"bee_group":{"antennae":"X","wings":"X","pattern":"D","legs":"F"},"action":"avoid","summary":"bad-avoid","bonus":0.02},{"rt":716.4000000059605,"stimulus":"\n                    <p><b>Action: <em>avoid</em></b></p>\n                    <p>This is the bee that you just saw.</p>\n                    <img src=\"bees-with-color/bee-B2DM.svg\" width=\"200\">\n                    <p><span class=\"redText\">Bad choice,</span> the bee was friendly.<br>Your bonus pay is unchanged, and remains at $0.20.</p>\n            ","response":0,"trial_type":"html-button-response","trial_index":74,"time_elapsed":575930,"internal_node_id":"0.0-4.0-1.31","subject_id":"60fdd675fca33b0ce3d19a7f","study_id":"60edd13110225f80f9f3709b","session_id":"6196c1f381972c7d99b43d01","condition":"full-information","relevant_dimensions":["pattern","legs"],"bee_group":{"antennae":"X","wings":"X","pattern":"D","legs":"F"},"bonus":0.02},{"rt":621.0999999940395,"stimulus":"bees-with-color/bee-A1DM.svg","response":0,"trial_type":"image-button-response","trial_index":75,"time_elapsed":576555,"internal_node_id":"0.0-4.0-0.32","subject_id":"60fdd675fca33b0ce3d19a7f","study_id":"60edd13110225f80f9f3709b","session_id":"6196c1f381972c7d99b43d01","condition":"full-information","relevant_dimensions":["pattern","legs"],"bee_group":{"antennae":"X","wings":"X","pattern":"D","legs":"F"},"action":"harvest","summary":"good-harvest","bonus":0.02},{"rt":647,"stimulus":"\n                    <p><b>Action: <em>harvest</em></b></p>\n                    <p>This is the bee that you just saw.</p>\n                    <img src=\"bees-with-color/bee-A1DM.svg\" width=\"200\">\n                    <p><span class=\"greenText\"><b>Successful harvest!</b></span><br>Your pay has increased by $0.02. Your bonus pay is now $0.22.</p>\n            ","response":0,"trial_type":"html-button-response","trial_index":76,"time_elapsed":577206,"internal_node_id":"0.0-4.0-1.32","subject_id":"60fdd675fca33b0ce3d19a7f","study_id":"60edd13110225f80f9f3709b","session_id":"6196c1f381972c7d99b43d01","condition":"full-information","relevant_dimensions":["pattern","legs"],"bee_group":{"antennae":"X","wings":"X","pattern":"D","legs":"F"},"bonus":0.02},{"rt":700.4000000059605,"stimulus":"bees-with-color/bee-A1DF.svg","response":1,"trial_type":"image-button-response","trial_index":77,"time_elapsed":577910,"internal_node_id":"0.0-4.0-0.33","subject_id":"60fdd675fca33b0ce3d19a7f","study_id":"60edd13110225f80f9f3709b","session_id":"6196c1f381972c7d99b43d01","condition":"full-information","relevant_dimensions":["pattern","legs"],"bee_group":{"antennae":"X","wings":"X","pattern":"D","legs":"F"},"action":"avoid","summary":"good-avoid","bonus":0.02},{"rt":2209.0999999940395,"stimulus":"\n                    <p><b>Action: <em>avoid</em></b></p>\n                    <p>This is the bee that you just saw.</p>\n                    <img src=\"bees-with-color/bee-A1DF.svg\" width=\"200\">\n                    <p><span class=\"greenText\">Good choice!</span>  This bee would have stung you.<br>Your bonus pay is unchanged, and remains at $0.22.</p>\n            ","response":0,"trial_type":"html-button-response","trial_index":78,"time_elapsed":580123,"internal_node_id":"0.0-4.0-1.33","subject_id":"60fdd675fca33b0ce3d19a7f","study_id":"60edd13110225f80f9f3709b","session_id":"6196c1f381972c7d99b43d01","condition":"full-information","relevant_dimensions":["pattern","legs"],"bee_group":{"antennae":"X","wings":"X","pattern":"D","legs":"F"},"bonus":0.02},{"rt":474.09999999403954,"stimulus":"bees-with-color/bee-B1DM.svg","response":1,"trial_type":"image-button-response","trial_index":79,"time_elapsed":580603,"internal_node_id":"0.0-4.0-0.34","subject_id":"60fdd675fca33b0ce3d19a7f","study_id":"60edd13110225f80f9f3709b","session_id":"6196c1f381972c7d99b43d01","condition":"full-information","relevant_dimensions":["pattern","legs"],"bee_group":{"antennae":"X","wings":"X","pattern":"D","legs":"F"},"action":"avoid","summary":"bad-avoid","bonus":0.02},{"rt":1182.8999999761581,"stimulus":"\n                    <p><b>Action: <em>avoid</em></b></p>\n                    <p>This is the bee that you just saw.</p>\n                    <img src=\"bees-with-color/bee-B1DM.svg\" width=\"200\">\n                    <p><span class=\"redText\">Bad choice,</span> the bee was friendly.<br>Your bonus pay is unchanged, and remains at $0.22.</p>\n            ","response":0,"trial_type":"html-button-response","trial_index":80,"time_elapsed":581790,"internal_node_id":"0.0-4.0-1.34","subject_id":"60fdd675fca33b0ce3d19a7f","study_id":"60edd13110225f80f9f3709b","session_id":"6196c1f381972c7d99b43d01","condition":"full-information","relevant_dimensions":["pattern","legs"],"bee_group":{"antennae":"X","wings":"X","pattern":"D","legs":"F"},"bonus":0.02},{"rt":476.90000000596046,"stimulus":"bees-with-color/bee-A1SF.svg","response":1,"trial_type":"image-button-response","trial_index":81,"time_elapsed":582270,"internal_node_id":"0.0-4.0-0.35","subject_id":"60fdd675fca33b0ce3d19a7f","study_id":"60edd13110225f80f9f3709b","session_id":"6196c1f381972c7d99b43d01","condition":"full-information","relevant_dimensions":["pattern","legs"],"bee_group":{"antennae":"X","wings":"X","pattern":"D","legs":"F"},"action":"avoid","summary":"bad-avoid","bonus":0.02},{"rt":508.40000000596046,"stimulus":"\n                    <p><b>Action: <em>avoid</em></b></p>\n                    <p>This is the bee that you just saw.</p>\n                    <img src=\"bees-with-color/bee-A1SF.svg\" width=\"200\">\n                    <p><span class=\"redText\">Bad choice,</span> the bee was friendly.<br>Your bonus pay is unchanged, and remains at $0.22.</p>\n            ","response":0,"trial_type":"html-button-response","trial_index":82,"time_elapsed":582784,"internal_node_id":"0.0-4.0-1.35","subject_id":"60fdd675fca33b0ce3d19a7f","study_id":"60edd13110225f80f9f3709b","session_id":"6196c1f381972c7d99b43d01","condition":"full-information","relevant_dimensions":["pattern","legs"],"bee_group":{"antennae":"X","wings":"X","pattern":"D","legs":"F"},"bonus":0.02},{"rt":554.4000000059605,"stimulus":"bees-with-color/bee-B2SF.svg","response":1,"trial_type":"image-button-response","trial_index":83,"time_elapsed":583342,"internal_node_id":"0.0-4.0-0.36","subject_id":"60fdd675fca33b0ce3d19a7f","study_id":"60edd13110225f80f9f3709b","session_id":"6196c1f381972c7d99b43d01","condition":"full-information","relevant_dimensions":["pattern","legs"],"bee_group":{"antennae":"X","wings":"X","pattern":"D","legs":"F"},"action":"avoid","summary":"bad-avoid","bonus":0.02},{"rt":412.5,"stimulus":"\n                    <p><b>Action: <em>avoid</em></b></p>\n                    <p>This is the bee that you just saw.</p>\n                    <img src=\"bees-with-color/bee-B2SF.svg\" width=\"200\">\n                    <p><span class=\"redText\">Bad choice,</span> the bee was friendly.<br>Your bonus pay is unchanged, and remains at $0.22.</p>\n            ","response":0,"trial_type":"html-button-response","trial_index":84,"time_elapsed":583758,"internal_node_id":"0.0-4.0-1.36","subject_id":"60fdd675fca33b0ce3d19a7f","study_id":"60edd13110225f80f9f3709b","session_id":"6196c1f381972c7d99b43d01","condition":"full-information","relevant_dimensions":["pattern","legs"],"bee_group":{"antennae":"X","wings":"X","pattern":"D","legs":"F"},"bonus":0.02},{"rt":365,"stimulus":"bees-with-color/bee-A2DF.svg","response":0,"trial_type":"image-button-response","trial_index":85,"time_elapsed":584126,"internal_node_id":"0.0-4.0-0.37","subject_id":"60fdd675fca33b0ce3d19a7f","study_id":"60edd13110225f80f9f3709b","session_id":"6196c1f381972c7d99b43d01","condition":"full-information","relevant_dimensions":["pattern","legs"],"bee_group":{"antennae":"X","wings":"X","pattern":"D","legs":"F"},"action":"harvest","summary":"bad-harvest","bonus":0.02},{"rt":1879.7999999821186,"stimulus":"\n                    <p><b>Action: <em>harvest</em></b></p>\n                    <p>This is the bee that you just saw.</p>\n                    <img src=\"bees-with-color/bee-A2DF.svg\" width=\"200\">\n                    <p><span class=\"redText\">Bad choice, the bee was angry.</span><br><b>You have been stung!</b><br>Your pay has been decreased by $0.10. Your bonus pay is now $0.12.</p>\n            ","response":0,"trial_type":"html-button-response","trial_index":86,"time_elapsed":586010,"internal_node_id":"0.0-4.0-1.37","subject_id":"60fdd675fca33b0ce3d19a7f","study_id":"60edd13110225f80f9f3709b","session_id":"6196c1f381972c7d99b43d01","condition":"full-information","relevant_dimensions":["pattern","legs"],"bee_group":{"antennae":"X","wings":"X","pattern":"D","legs":"F"},"bonus":0.02},{"rt":669.2000000178814,"stimulus":"bees-with-color/bee-B2SM.svg","response":0,"trial_type":"image-button-response","trial_index":87,"time_elapsed":586684,"internal_node_id":"0.0-4.0-0.38","subject_id":"60fdd675fca33b0ce3d19a7f","study_id":"60edd13110225f80f9f3709b","session_id":"6196c1f381972c7d99b43d01","condition":"full-information","relevant_dimensions":["pattern","legs"],"bee_group":{"antennae":"X","wings":"X","pattern":"D","legs":"F"},"action":"harvest","summary":"good-harvest","bonus":0.02},{"rt":558.0999999940395,"stimulus":"\n                    <p><b>Action: <em>harvest</em></b></p>\n                    <p>This is the bee that you just saw.</p>\n                    <img src=\"bees-with-color/bee-B2SM.svg\" width=\"200\">\n                    <p><span class=\"greenText\"><b>Successful harvest!</b></span><br>Your pay has increased by $0.02. Your bonus pay is now $0.14.</p>\n            ","response":0,"trial_type":"html-button-response","trial_index":88,"time_elapsed":587246,"internal_node_id":"0.0-4.0-1.38","subject_id":"60fdd675fca33b0ce3d19a7f","study_id":"60edd13110225f80f9f3709b","session_id":"6196c1f381972c7d99b43d01","condition":"full-information","relevant_dimensions":["pattern","legs"],"bee_group":{"antennae":"X","wings":"X","pattern":"D","legs":"F"},"bonus":0.02},{"rt":780.0999999940395,"stimulus":"bees-with-color/bee-A2SF.svg","response":0,"trial_type":"image-button-response","trial_index":89,"time_elapsed":588030,"internal_node_id":"0.0-4.0-0.39","subject_id":"60fdd675fca33b0ce3d19a7f","study_id":"60edd13110225f80f9f3709b","session_id":"6196c1f381972c7d99b43d01","condition":"full-information","relevant_dimensions":["pattern","legs"],"bee_group":{"antennae":"X","wings":"X","pattern":"D","legs":"F"},"action":"harvest","summary":"good-harvest","bonus":0.02},{"rt":694.4000000059605,"stimulus":"\n                    <p><b>Action: <em>harvest</em></b></p>\n                    <p>This is the bee that you just saw.</p>\n                    <img src=\"bees-with-color/bee-A2SF.svg\" width=\"200\">\n                    <p><span class=\"greenText\"><b>Successful harvest!</b></span><br>Your pay has increased by $0.02. Your bonus pay is now $0.16.</p>\n            ","response":0,"trial_type":"html-button-response","trial_index":90,"time_elapsed":588735,"internal_node_id":"0.0-4.0-1.39","subject_id":"60fdd675fca33b0ce3d19a7f","study_id":"60edd13110225f80f9f3709b","session_id":"6196c1f381972c7d99b43d01","condition":"full-information","relevant_dimensions":["pattern","legs"],"bee_group":{"antennae":"X","wings":"X","pattern":"D","legs":"F"},"bonus":0.02},{"rt":651.2999999821186,"stimulus":"bees-with-color/bee-B1DF.svg","response":0,"trial_type":"image-button-response","trial_index":91,"time_elapsed":589390,"internal_node_id":"0.0-4.0-0.40","subject_id":"60fdd675fca33b0ce3d19a7f","study_id":"60edd13110225f80f9f3709b","session_id":"6196c1f381972c7d99b43d01","condition":"full-information","relevant_dimensions":["pattern","legs"],"bee_group":{"antennae":"X","wings":"X","pattern":"D","legs":"F"},"action":"harvest","summary":"bad-harvest","bonus":0.02},{"rt":1233.1000000238419,"stimulus":"\n                    <p><b>Action: <em>harvest</em></b></p>\n                    <p>This is the bee that you just saw.</p>\n                    <img src=\"bees-with-color/bee-B1DF.svg\" width=\"200\">\n                    <p><span class=\"redText\">Bad choice, the bee was angry.</span><br><b>You have been stung!</b><br>Your pay has been decreased by $0.10. Your bonus pay is now $0.06.</p>\n            ","response":0,"trial_type":"html-button-response","trial_index":92,"time_elapsed":590627,"internal_node_id":"0.0-4.0-1.40","subject_id":"60fdd675fca33b0ce3d19a7f","study_id":"60edd13110225f80f9f3709b","session_id":"6196c1f381972c7d99b43d01","condition":"full-information","relevant_dimensions":["pattern","legs"],"bee_group":{"antennae":"X","wings":"X","pattern":"D","legs":"F"},"bonus":0.02},{"rt":620.5,"stimulus":"bees-with-color/bee-B2DM.svg","response":1,"trial_type":"image-button-response","trial_index":93,"time_elapsed":591251,"internal_node_id":"0.0-4.0-0.41","subject_id":"60fdd675fca33b0ce3d19a7f","study_id":"60edd13110225f80f9f3709b","session_id":"6196c1f381972c7d99b43d01","condition":"full-information","relevant_dimensions":["pattern","legs"],"bee_group":{"antennae":"X","wings":"X","pattern":"D","legs":"F"},"action":"avoid","summary":"bad-avoid","bonus":0.02},{"rt":1058.7999999821186,"stimulus":"\n                    <p><b>Action: <em>avoid</em></b></p>\n                    <p>This is the bee that you just saw.</p>\n                    <img src=\"bees-with-color/bee-B2DM.svg\" width=\"200\">\n                    <p><span class=\"redText\">Bad choice,</span> the bee was friendly.<br>Your bonus pay is unchanged, and remains at $0.06.</p>\n            ","response":0,"trial_type":"html-button-response","trial_index":94,"time_elapsed":592315,"internal_node_id":"0.0-4.0-1.41","subject_id":"60fdd675fca33b0ce3d19a7f","study_id":"60edd13110225f80f9f3709b","session_id":"6196c1f381972c7d99b43d01","condition":"full-information","relevant_dimensions":["pattern","legs"],"bee_group":{"antennae":"X","wings":"X","pattern":"D","legs":"F"},"bonus":0.02},{"rt":570.0999999940395,"stimulus":"bees-with-color/bee-B1SM.svg","response":1,"trial_type":"image-button-response","trial_index":95,"time_elapsed":592890,"internal_node_id":"0.0-4.0-0.42","subject_id":"60fdd675fca33b0ce3d19a7f","study_id":"60edd13110225f80f9f3709b","session_id":"6196c1f381972c7d99b43d01","condition":"full-information","relevant_dimensions":["pattern","legs"],"bee_group":{"antennae":"X","wings":"X","pattern":"D","legs":"F"},"action":"avoid","summary":"bad-avoid","bonus":0.02},{"rt":673.5,"stimulus":"\n                    <p><b>Action: <em>avoid</em></b></p>\n                    <p>This is the bee that you just saw.</p>\n                    <img src=\"bees-with-color/bee-B1SM.svg\" width=\"200\">\n                    <p><span class=\"redText\">Bad choice,</span> the bee was friendly.<br>Your bonus pay is unchanged, and remains at $0.06.</p>\n            ","response":0,"trial_type":"html-button-response","trial_index":96,"time_elapsed":593567,"internal_node_id":"0.0-4.0-1.42","subject_id":"60fdd675fca33b0ce3d19a7f","study_id":"60edd13110225f80f9f3709b","session_id":"6196c1f381972c7d99b43d01","condition":"full-information","relevant_dimensions":["pattern","legs"],"bee_group":{"antennae":"X","wings":"X","pattern":"D","legs":"F"},"bonus":0.02},{"rt":666.7999999821186,"stimulus":"bees-with-color/bee-B1SF.svg","response":0,"trial_type":"image-button-response","trial_index":97,"time_elapsed":594238,"internal_node_id":"0.0-4.0-0.43","subject_id":"60fdd675fca33b0ce3d19a7f","study_id":"60edd13110225f80f9f3709b","session_id":"6196c1f381972c7d99b43d01","condition":"full-information","relevant_dimensions":["pattern","legs"],"bee_group":{"antennae":"X","wings":"X","pattern":"D","legs":"F"},"action":"harvest","summary":"good-harvest","bonus":0.02},{"rt":1067.9000000059605,"stimulus":"\n                    <p><b>Action: <em>harvest</em></b></p>\n                    <p>This is the bee that you just saw.</p>\n                    <img src=\"bees-with-color/bee-B1SF.svg\" width=\"200\">\n                    <p><span class=\"greenText\"><b>Successful harvest!</b></span><br>Your pay has increased by $0.02. Your bonus pay is now $0.08.</p>\n            ","response":0,"trial_type":"html-button-response","trial_index":98,"time_elapsed":595310,"internal_node_id":"0.0-4.0-1.43","subject_id":"60fdd675fca33b0ce3d19a7f","study_id":"60edd13110225f80f9f3709b","session_id":"6196c1f381972c7d99b43d01","condition":"full-information","relevant_dimensions":["pattern","legs"],"bee_group":{"antennae":"X","wings":"X","pattern":"D","legs":"F"},"bonus":0.02},{"rt":685.5,"stimulus":"bees-with-color/bee-A2DM.svg","response":1,"trial_type":"image-button-response","trial_index":99,"time_elapsed":595999,"internal_node_id":"0.0-4.0-0.44","subject_id":"60fdd675fca33b0ce3d19a7f","study_id":"60edd13110225f80f9f3709b","session_id":"6196c1f381972c7d99b43d01","condition":"full-information","relevant_dimensions":["pattern","legs"],"bee_group":{"antennae":"X","wings":"X","pattern":"D","legs":"F"},"action":"avoid","summary":"bad-avoid","bonus":0.02},{"rt":590,"stimulus":"\n                    <p><b>Action: <em>avoid</em></b></p>\n                    <p>This is the bee that you just saw.</p>\n                    <img src=\"bees-with-color/bee-A2DM.svg\" width=\"200\">\n                    <p><span class=\"redText\">Bad choice,</span> the bee was friendly.<br>Your bonus pay is unchanged, and remains at $0.08.</p>\n            ","response":0,"trial_type":"html-button-response","trial_index":100,"time_elapsed":596594,"internal_node_id":"0.0-4.0-1.44","subject_id":"60fdd675fca33b0ce3d19a7f","study_id":"60edd13110225f80f9f3709b","session_id":"6196c1f381972c7d99b43d01","condition":"full-information","relevant_dimensions":["pattern","legs"],"bee_group":{"antennae":"X","wings":"X","pattern":"D","legs":"F"},"bonus":0.02},{"rt":938.5,"stimulus":"bees-with-color/bee-A1SM.svg","response":0,"trial_type":"image-button-response","trial_index":101,"time_elapsed":597538,"internal_node_id":"0.0-4.0-0.45","subject_id":"60fdd675fca33b0ce3d19a7f","study_id":"60edd13110225f80f9f3709b","session_id":"6196c1f381972c7d99b43d01","condition":"full-information","relevant_dimensions":["pattern","legs"],"bee_group":{"antennae":"X","wings":"X","pattern":"D","legs":"F"},"action":"harvest","summary":"good-harvest","bonus":0.02},{"rt":557.3000000119209,"stimulus":"\n                    <p><b>Action: <em>harvest</em></b></p>\n                    <p>This is the bee that you just saw.</p>\n                    <img src=\"bees-with-color/bee-A1SM.svg\" width=\"200\">\n                    <p><span class=\"greenText\"><b>Successful harvest!</b></span><br>Your pay has increased by $0.02. Your bonus pay is now $0.10.</p>\n            ","response":0,"trial_type":"html-button-response","trial_index":102,"time_elapsed":598099,"internal_node_id":"0.0-4.0-1.45","subject_id":"60fdd675fca33b0ce3d19a7f","study_id":"60edd13110225f80f9f3709b","session_id":"6196c1f381972c7d99b43d01","condition":"full-information","relevant_dimensions":["pattern","legs"],"bee_group":{"antennae":"X","wings":"X","pattern":"D","legs":"F"},"bonus":0.02},{"rt":555,"stimulus":"bees-with-color/bee-A2SM.svg","response":0,"trial_type":"image-button-response","trial_index":103,"time_elapsed":598658,"internal_node_id":"0.0-4.0-0.46","subject_id":"60fdd675fca33b0ce3d19a7f","study_id":"60edd13110225f80f9f3709b","session_id":"6196c1f381972c7d99b43d01","condition":"full-information","relevant_dimensions":["pattern","legs"],"bee_group":{"antennae":"X","wings":"X","pattern":"D","legs":"F"},"action":"harvest","summary":"good-harvest","bonus":0.02},{"rt":495.90000000596046,"stimulus":"\n                    <p><b>Action: <em>harvest</em></b></p>\n                    <p>This is the bee that you just saw.</p>\n                    <img src=\"bees-with-color/bee-A2SM.svg\" width=\"200\">\n                    <p><span class=\"greenText\"><b>Successful harvest!</b></span><br>Your pay has increased by $0.02. Your bonus pay is now $0.12.</p>\n            ","response":0,"trial_type":"html-button-response","trial_index":104,"time_elapsed":599158,"internal_node_id":"0.0-4.0-1.46","subject_id":"60fdd675fca33b0ce3d19a7f","study_id":"60edd13110225f80f9f3709b","session_id":"6196c1f381972c7d99b43d01","condition":"full-information","relevant_dimensions":["pattern","legs"],"bee_group":{"antennae":"X","wings":"X","pattern":"D","legs":"F"},"bonus":0.02},{"rt":1444.5,"stimulus":"bees-with-color/bee-B2DF.svg","response":0,"trial_type":"image-button-response","trial_index":105,"time_elapsed":600607,"internal_node_id":"0.0-4.0-0.47","subject_id":"60fdd675fca33b0ce3d19a7f","study_id":"60edd13110225f80f9f3709b","session_id":"6196c1f381972c7d99b43d01","condition":"full-information","relevant_dimensions":["pattern","legs"],"bee_group":{"antennae":"X","wings":"X","pattern":"D","legs":"F"},"action":"harvest","summary":"bad-harvest","bonus":0.02},{"rt":1147.8999999761581,"stimulus":"\n                    <p><b>Action: <em>harvest</em></b></p>\n                    <p>This is the bee that you just saw.</p>\n                    <img src=\"bees-with-color/bee-B2DF.svg\" width=\"200\">\n                    <p><span class=\"redText\">Bad choice, the bee was angry.</span><br><b>You have been stung!</b><br>Your pay has been decreased by $0.10. Your bonus pay is now $0.02.</p>\n            ","response":0,"trial_type":"html-button-response","trial_index":106,"time_elapsed":601760,"internal_node_id":"0.0-4.0-1.47","subject_id":"60fdd675fca33b0ce3d19a7f","study_id":"60edd13110225f80f9f3709b","session_id":"6196c1f381972c7d99b43d01","condition":"full-information","relevant_dimensions":["pattern","legs"],"bee_group":{"antennae":"X","wings":"X","pattern":"D","legs":"F"},"bonus":0.02},{"rt":988.4000000059605,"stimulus":"bees-with-color/bee-A2DM.svg","response":0,"trial_type":"image-button-response","trial_index":107,"time_elapsed":602754,"internal_node_id":"0.0-4.0-0.48","subject_id":"60fdd675fca33b0ce3d19a7f","study_id":"60edd13110225f80f9f3709b","session_id":"6196c1f381972c7d99b43d01","condition":"full-information","relevant_dimensions":["pattern","legs"],"bee_group":{"antennae":"X","wings":"X","pattern":"D","legs":"F"},"action":"harvest","summary":"good-harvest","bonus":0.02},{"rt":508.40000000596046,"stimulus":"\n                    <p><b>Action: <em>harvest</em></b></p>\n                    <p>This is the bee that you just saw.</p>\n                    <img src=\"bees-with-color/bee-A2DM.svg\" width=\"200\">\n                    <p><span class=\"greenText\"><b>Successful harvest!</b></span><br>Your pay has increased by $0.02. Your bonus pay is now $0.04.</p>\n            ","response":0,"trial_type":"html-button-response","trial_index":108,"time_elapsed":603267,"internal_node_id":"0.0-4.0-1.48","subject_id":"60fdd675fca33b0ce3d19a7f","study_id":"60edd13110225f80f9f3709b","session_id":"6196c1f381972c7d99b43d01","condition":"full-information","relevant_dimensions":["pattern","legs"],"bee_group":{"antennae":"X","wings":"X","pattern":"D","legs":"F"},"bonus":0.02},{"rt":1744.2000000178814,"stimulus":"bees-with-color/bee-B2DF.svg","response":0,"trial_type":"image-button-response","trial_index":109,"time_elapsed":605015,"internal_node_id":"0.0-4.0-0.49","subject_id":"60fdd675fca33b0ce3d19a7f","study_id":"60edd13110225f80f9f3709b","session_id":"6196c1f381972c7d99b43d01","condition":"full-information","relevant_dimensions":["pattern","legs"],"bee_group":{"antennae":"X","wings":"X","pattern":"D","legs":"F"},"action":"harvest","summary":"bad-harvest","bonus":0.02},{"rt":1001.5999999940395,"stimulus":"\n                    <p><b>Action: <em>harvest</em></b></p>\n                    <p>This is the bee that you just saw.</p>\n                    <img src=\"bees-with-color/bee-B2DF.svg\" width=\"200\">\n                    <p><span class=\"redText\">Bad choice, the bee was angry.</span><br><b>You have been stung!</b><br>Your pay has been decreased by $0.10. Your bonus pay is now $0.00.</p>\n            ","response":0,"trial_type":"html-button-response","trial_index":110,"time_elapsed":606022,"internal_node_id":"0.0-4.0-1.49","subject_id":"60fdd675fca33b0ce3d19a7f","study_id":"60edd13110225f80f9f3709b","session_id":"6196c1f381972c7d99b43d01","condition":"full-information","relevant_dimensions":["pattern","legs"],"bee_group":{"antennae":"X","wings":"X","pattern":"D","legs":"F"},"bonus":0.02},{"rt":1091.5999999940395,"stimulus":"bees-with-color/bee-B2SF.svg","response":0,"trial_type":"image-button-response","trial_index":111,"time_elapsed":607118,"internal_node_id":"0.0-4.0-0.50","subject_id":"60fdd675fca33b0ce3d19a7f","study_id":"60edd13110225f80f9f3709b","session_id":"6196c1f381972c7d99b43d01","condition":"full-information","relevant_dimensions":["pattern","legs"],"bee_group":{"antennae":"X","wings":"X","pattern":"D","legs":"F"},"action":"harvest","summary":"good-harvest","bonus":0.02},{"rt":1616.0999999940395,"stimulus":"\n                    <p><b>Action: <em>harvest</em></b></p>\n                    <p>This is the bee that you just saw.</p>\n                    <img src=\"bees-with-color/bee-B2SF.svg\" width=\"200\">\n                    <p><span class=\"greenText\"><b>Successful harvest!</b></span><br>Your pay has increased by $0.02. Your bonus pay is now $0.02.</p>\n            ","response":0,"trial_type":"html-button-response","trial_index":112,"time_elapsed":608738,"internal_node_id":"0.0-4.0-1.50","subject_id":"60fdd675fca33b0ce3d19a7f","study_id":"60edd13110225f80f9f3709b","session_id":"6196c1f381972c7d99b43d01","condition":"full-information","relevant_dimensions":["pattern","legs"],"bee_group":{"antennae":"X","wings":"X","pattern":"D","legs":"F"},"bonus":0.02},{"rt":540.5999999940395,"stimulus":"bees-with-color/bee-A1DM.svg","response":0,"trial_type":"image-button-response","trial_index":113,"time_elapsed":609283,"internal_node_id":"0.0-4.0-0.51","subject_id":"60fdd675fca33b0ce3d19a7f","study_id":"60edd13110225f80f9f3709b","session_id":"6196c1f381972c7d99b43d01","condition":"full-information","relevant_dimensions":["pattern","legs"],"bee_group":{"antennae":"X","wings":"X","pattern":"D","legs":"F"},"action":"harvest","summary":"good-harvest","bonus":0.02},{"rt":635.5999999940395,"stimulus":"\n                    <p><b>Action: <em>harvest</em></b></p>\n                    <p>This is the bee that you just saw.</p>\n                    <img src=\"bees-with-color/bee-A1DM.svg\" width=\"200\">\n                    <p><span class=\"greenText\"><b>Successful harvest!</b></span><br>Your pay has increased by $0.02. Your bonus pay is now $0.04.</p>\n            ","response":0,"trial_type":"html-button-response","trial_index":114,"time_elapsed":609922,"internal_node_id":"0.0-4.0-1.51","subject_id":"60fdd675fca33b0ce3d19a7f","study_id":"60edd13110225f80f9f3709b","session_id":"6196c1f381972c7d99b43d01","condition":"full-information","relevant_dimensions":["pattern","legs"],"bee_group":{"antennae":"X","wings":"X","pattern":"D","legs":"F"},"bonus":0.02},{"rt":476.40000000596046,"stimulus":"bees-with-color/bee-A1DF.svg","response":0,"trial_type":"image-button-response","trial_index":115,"time_elapsed":610402,"internal_node_id":"0.0-4.0-0.52","subject_id":"60fdd675fca33b0ce3d19a7f","study_id":"60edd13110225f80f9f3709b","session_id":"6196c1f381972c7d99b43d01","condition":"full-information","relevant_dimensions":["pattern","legs"],"bee_group":{"antennae":"X","wings":"X","pattern":"D","legs":"F"},"action":"harvest","summary":"bad-harvest","bonus":0.02},{"rt":928,"stimulus":"\n                    <p><b>Action: <em>harvest</em></b></p>\n                    <p>This is the bee that you just saw.</p>\n                    <img src=\"bees-with-color/bee-A1DF.svg\" width=\"200\">\n                    <p><span class=\"redText\">Bad choice, the bee was angry.</span><br><b>You have been stung!</b><br>Your pay has been decreased by $0.10. Your bonus pay is now $0.00.</p>\n            ","response":0,"trial_type":"html-button-response","trial_index":116,"time_elapsed":611334,"internal_node_id":"0.0-4.0-1.52","subject_id":"60fdd675fca33b0ce3d19a7f","study_id":"60edd13110225f80f9f3709b","session_id":"6196c1f381972c7d99b43d01","condition":"full-information","relevant_dimensions":["pattern","legs"],"bee_group":{"antennae":"X","wings":"X","pattern":"D","legs":"F"},"bonus":0.02},{"rt":1365.4000000059605,"stimulus":"bees-with-color/bee-B2DM.svg","response":0,"trial_type":"image-button-response","trial_index":117,"time_elapsed":612702,"internal_node_id":"0.0-4.0-0.53","subject_id":"60fdd675fca33b0ce3d19a7f","study_id":"60edd13110225f80f9f3709b","session_id":"6196c1f381972c7d99b43d01","condition":"full-information","relevant_dimensions":["pattern","legs"],"bee_group":{"antennae":"X","wings":"X","pattern":"D","legs":"F"},"action":"harvest","summary":"good-harvest","bonus":0.02},{"rt":540.2000000178814,"stimulus":"\n                    <p><b>Action: <em>harvest</em></b></p>\n                    <p>This is the bee that you just saw.</p>\n                    <img src=\"bees-with-color/bee-B2DM.svg\" width=\"200\">\n                    <p><span class=\"greenText\"><b>Successful harvest!</b></span><br>Your pay has increased by $0.02. Your bonus pay is now $0.02.</p>\n            ","response":0,"trial_type":"html-button-response","trial_index":118,"time_elapsed":613246,"internal_node_id":"0.0-4.0-1.53","subject_id":"60fdd675fca33b0ce3d19a7f","study_id":"60edd13110225f80f9f3709b","session_id":"6196c1f381972c7d99b43d01","condition":"full-information","relevant_dimensions":["pattern","legs"],"bee_group":{"antennae":"X","wings":"X","pattern":"D","legs":"F"},"bonus":0.02},{"rt":656.0999999940395,"stimulus":"bees-with-color/bee-B1SF.svg","response":0,"trial_type":"image-button-response","trial_index":119,"time_elapsed":613906,"internal_node_id":"0.0-4.0-0.54","subject_id":"60fdd675fca33b0ce3d19a7f","study_id":"60edd13110225f80f9f3709b","session_id":"6196c1f381972c7d99b43d01","condition":"full-information","relevant_dimensions":["pattern","legs"],"bee_group":{"antennae":"X","wings":"X","pattern":"D","legs":"F"},"action":"harvest","summary":"good-harvest","bonus":0.02},{"rt":540.4000000059605,"stimulus":"\n                    <p><b>Action: <em>harvest</em></b></p>\n                    <p>This is the bee that you just saw.</p>\n                    <img src=\"bees-with-color/bee-B1SF.svg\" width=\"200\">\n                    <p><span class=\"greenText\"><b>Successful harvest!</b></span><br>Your pay has increased by $0.02. Your bonus pay is now $0.04.</p>\n            ","response":0,"trial_type":"html-button-response","trial_index":120,"time_elapsed":614451,"internal_node_id":"0.0-4.0-1.54","subject_id":"60fdd675fca33b0ce3d19a7f","study_id":"60edd13110225f80f9f3709b","session_id":"6196c1f381972c7d99b43d01","condition":"full-information","relevant_dimensions":["pattern","legs"],"bee_group":{"antennae":"X","wings":"X","pattern":"D","legs":"F"},"bonus":0.02},{"rt":635.8999999761581,"stimulus":"bees-with-color/bee-B1SM.svg","response":1,"trial_type":"image-button-response","trial_index":121,"time_elapsed":615090,"internal_node_id":"0.0-4.0-0.55","subject_id":"60fdd675fca33b0ce3d19a7f","study_id":"60edd13110225f80f9f3709b","session_id":"6196c1f381972c7d99b43d01","condition":"full-information","relevant_dimensions":["pattern","legs"],"bee_group":{"antennae":"X","wings":"X","pattern":"D","legs":"F"},"action":"avoid","summary":"bad-avoid","bonus":0.02},{"rt":1187.4000000059605,"stimulus":"\n                    <p><b>Action: <em>avoid</em></b></p>\n                    <p>This is the bee that you just saw.</p>\n                    <img src=\"bees-with-color/bee-B1SM.svg\" width=\"200\">\n                    <p><span class=\"redText\">Bad choice,</span> the bee was friendly.<br>Your bonus pay is unchanged, and remains at $0.04.</p>\n            ","response":0,"trial_type":"html-button-response","trial_index":122,"time_elapsed":616282,"internal_node_id":"0.0-4.0-1.55","subject_id":"60fdd675fca33b0ce3d19a7f","study_id":"60edd13110225f80f9f3709b","session_id":"6196c1f381972c7d99b43d01","condition":"full-information","relevant_dimensions":["pattern","legs"],"bee_group":{"antennae":"X","wings":"X","pattern":"D","legs":"F"},"bonus":0.02},{"rt":993.5,"stimulus":"bees-with-color/bee-B1DM.svg","response":1,"trial_type":"image-button-response","trial_index":123,"time_elapsed":617278,"internal_node_id":"0.0-4.0-0.56","subject_id":"60fdd675fca33b0ce3d19a7f","study_id":"60edd13110225f80f9f3709b","session_id":"6196c1f381972c7d99b43d01","condition":"full-information","relevant_dimensions":["pattern","legs"],"bee_group":{"antennae":"X","wings":"X","pattern":"D","legs":"F"},"action":"avoid","summary":"bad-avoid","bonus":0.02},{"rt":444.59999999403954,"stimulus":"\n                    <p><b>Action: <em>avoid</em></b></p>\n                    <p>This is the bee that you just saw.</p>\n                    <img src=\"bees-with-color/bee-B1DM.svg\" width=\"200\">\n                    <p><span class=\"redText\">Bad choice,</span> the bee was friendly.<br>Your bonus pay is unchanged, and remains at $0.04.</p>\n            ","response":0,"trial_type":"html-button-response","trial_index":124,"time_elapsed":617727,"internal_node_id":"0.0-4.0-1.56","subject_id":"60fdd675fca33b0ce3d19a7f","study_id":"60edd13110225f80f9f3709b","session_id":"6196c1f381972c7d99b43d01","condition":"full-information","relevant_dimensions":["pattern","legs"],"bee_group":{"antennae":"X","wings":"X","pattern":"D","legs":"F"},"bonus":0.02},{"rt":396.30000001192093,"stimulus":"bees-with-color/bee-A2DF.svg","response":1,"trial_type":"image-button-response","trial_index":125,"time_elapsed":618127,"internal_node_id":"0.0-4.0-0.57","subject_id":"60fdd675fca33b0ce3d19a7f","study_id":"60edd13110225f80f9f3709b","session_id":"6196c1f381972c7d99b43d01","condition":"full-information","relevant_dimensions":["pattern","legs"],"bee_group":{"antennae":"X","wings":"X","pattern":"D","legs":"F"},"action":"avoid","summary":"good-avoid","bonus":0.02},{"rt":803,"stimulus":"\n                    <p><b>Action: <em>avoid</em></b></p>\n                    <p>This is the bee that you just saw.</p>\n                    <img src=\"bees-with-color/bee-A2DF.svg\" width=\"200\">\n                    <p><span class=\"greenText\">Good choice!</span>  This bee would have stung you.<br>Your bonus pay is unchanged, and remains at $0.04.</p>\n            ","response":0,"trial_type":"html-button-response","trial_index":126,"time_elapsed":618934,"internal_node_id":"0.0-4.0-1.57","subject_id":"60fdd675fca33b0ce3d19a7f","study_id":"60edd13110225f80f9f3709b","session_id":"6196c1f381972c7d99b43d01","condition":"full-information","relevant_dimensions":["pattern","legs"],"bee_group":{"antennae":"X","wings":"X","pattern":"D","legs":"F"},"bonus":0.02},{"rt":1105.699999988079,"stimulus":"bees-with-color/bee-A1SM.svg","response":0,"trial_type":"image-button-response","trial_index":127,"time_elapsed":620043,"internal_node_id":"0.0-4.0-0.58","subject_id":"60fdd675fca33b0ce3d19a7f","study_id":"60edd13110225f80f9f3709b","session_id":"6196c1f381972c7d99b43d01","condition":"full-information","relevant_dimensions":["pattern","legs"],"bee_group":{"antennae":"X","wings":"X","pattern":"D","legs":"F"},"action":"harvest","summary":"good-harvest","bonus":0.02},{"rt":603.5,"stimulus":"\n                    <p><b>Action: <em>harvest</em></b></p>\n                    <p>This is the bee that you just saw.</p>\n                    <img src=\"bees-with-color/bee-A1SM.svg\" width=\"200\">\n                    <p><span class=\"greenText\"><b>Successful harvest!</b></span><br>Your pay has increased by $0.02. Your bonus pay is now $0.06.</p>\n            ","response":0,"trial_type":"html-button-response","trial_index":128,"time_elapsed":620650,"internal_node_id":"0.0-4.0-1.58","subject_id":"60fdd675fca33b0ce3d19a7f","study_id":"60edd13110225f80f9f3709b","session_id":"6196c1f381972c7d99b43d01","condition":"full-information","relevant_dimensions":["pattern","legs"],"bee_group":{"antennae":"X","wings":"X","pattern":"D","legs":"F"},"bonus":0.02},{"rt":620.9000000059605,"stimulus":"bees-with-color/bee-A2SM.svg","response":1,"trial_type":"image-button-response","trial_index":129,"time_elapsed":621275,"internal_node_id":"0.0-4.0-0.59","subject_id":"60fdd675fca33b0ce3d19a7f","study_id":"60edd13110225f80f9f3709b","session_id":"6196c1f381972c7d99b43d01","condition":"full-information","relevant_dimensions":["pattern","legs"],"bee_group":{"antennae":"X","wings":"X","pattern":"D","legs":"F"},"action":"avoid","summary":"bad-avoid","bonus":0.02},{"rt":618.7000000178814,"stimulus":"\n                    <p><b>Action: <em>avoid</em></b></p>\n                    <p>This is the bee that you just saw.</p>\n                    <img src=\"bees-with-color/bee-A2SM.svg\" width=\"200\">\n                    <p><span class=\"redText\">Bad choice,</span> the bee was friendly.<br>Your bonus pay is unchanged, and remains at $0.06.</p>\n            ","response":0,"trial_type":"html-button-response","trial_index":130,"time_elapsed":621898,"internal_node_id":"0.0-4.0-1.59","subject_id":"60fdd675fca33b0ce3d19a7f","study_id":"60edd13110225f80f9f3709b","session_id":"6196c1f381972c7d99b43d01","condition":"full-information","relevant_dimensions":["pattern","legs"],"bee_group":{"antennae":"X","wings":"X","pattern":"D","legs":"F"},"bonus":0.02},{"rt":525.1999999880791,"stimulus":"bees-with-color/bee-A1SF.svg","response":1,"trial_type":"image-button-response","trial_index":131,"time_elapsed":622426,"internal_node_id":"0.0-4.0-0.60","subject_id":"60fdd675fca33b0ce3d19a7f","study_id":"60edd13110225f80f9f3709b","session_id":"6196c1f381972c7d99b43d01","condition":"full-information","relevant_dimensions":["pattern","legs"],"bee_group":{"antennae":"X","wings":"X","pattern":"D","legs":"F"},"action":"avoid","summary":"bad-avoid","bonus":0.02},{"rt":543,"stimulus":"\n                    <p><b>Action: <em>avoid</em></b></p>\n                    <p>This is the bee that you just saw.</p>\n                    <img src=\"bees-with-color/bee-A1SF.svg\" width=\"200\">\n                    <p><span class=\"redText\">Bad choice,</span> the bee was friendly.<br>Your bonus pay is unchanged, and remains at $0.06.</p>\n            ","response":0,"trial_type":"html-button-response","trial_index":132,"time_elapsed":622975,"internal_node_id":"0.0-4.0-1.60","subject_id":"60fdd675fca33b0ce3d19a7f","study_id":"60edd13110225f80f9f3709b","session_id":"6196c1f381972c7d99b43d01","condition":"full-information","relevant_dimensions":["pattern","legs"],"bee_group":{"antennae":"X","wings":"X","pattern":"D","legs":"F"},"bonus":0.02},{"rt":443.59999999403954,"stimulus":"bees-with-color/bee-A2SF.svg","response":1,"trial_type":"image-button-response","trial_index":133,"time_elapsed":623422,"internal_node_id":"0.0-4.0-0.61","subject_id":"60fdd675fca33b0ce3d19a7f","study_id":"60edd13110225f80f9f3709b","session_id":"6196c1f381972c7d99b43d01","condition":"full-information","relevant_dimensions":["pattern","legs"],"bee_group":{"antennae":"X","wings":"X","pattern":"D","legs":"F"},"action":"avoid","summary":"bad-avoid","bonus":0.02},{"rt":1099.5,"stimulus":"\n                    <p><b>Action: <em>avoid</em></b></p>\n                    <p>This is the bee that you just saw.</p>\n                    <img src=\"bees-with-color/bee-A2SF.svg\" width=\"200\">\n                    <p><span class=\"redText\">Bad choice,</span> the bee was friendly.<br>Your bonus pay is unchanged, and remains at $0.06.</p>\n            ","response":0,"trial_type":"html-button-response","trial_index":134,"time_elapsed":624527,"internal_node_id":"0.0-4.0-1.61","subject_id":"60fdd675fca33b0ce3d19a7f","study_id":"60edd13110225f80f9f3709b","session_id":"6196c1f381972c7d99b43d01","condition":"full-information","relevant_dimensions":["pattern","legs"],"bee_group":{"antennae":"X","wings":"X","pattern":"D","legs":"F"},"bonus":0.02},{"rt":524,"stimulus":"bees-with-color/bee-B2SM.svg","response":1,"trial_type":"image-button-response","trial_index":135,"time_elapsed":625057,"internal_node_id":"0.0-4.0-0.62","subject_id":"60fdd675fca33b0ce3d19a7f","study_id":"60edd13110225f80f9f3709b","session_id":"6196c1f381972c7d99b43d01","condition":"full-information","relevant_dimensions":["pattern","legs"],"bee_group":{"antennae":"X","wings":"X","pattern":"D","legs":"F"},"action":"avoid","summary":"bad-avoid","bonus":0.02},{"rt":827.8000000119209,"stimulus":"\n                    <p><b>Action: <em>avoid</em></b></p>\n                    <p>This is the bee that you just saw.</p>\n                    <img src=\"bees-with-color/bee-B2SM.svg\" width=\"200\">\n                    <p><span class=\"redText\">Bad choice,</span> the bee was friendly.<br>Your bonus pay is unchanged, and remains at $0.06.</p>\n            ","response":0,"trial_type":"html-button-response","trial_index":136,"time_elapsed":625890,"internal_node_id":"0.0-4.0-1.62","subject_id":"60fdd675fca33b0ce3d19a7f","study_id":"60edd13110225f80f9f3709b","session_id":"6196c1f381972c7d99b43d01","condition":"full-information","relevant_dimensions":["pattern","legs"],"bee_group":{"antennae":"X","wings":"X","pattern":"D","legs":"F"},"bonus":0.02},{"rt":428.69999998807907,"stimulus":"bees-with-color/bee-B1DF.svg","response":0,"trial_type":"image-button-response","trial_index":137,"time_elapsed":626323,"internal_node_id":"0.0-4.0-0.63","subject_id":"60fdd675fca33b0ce3d19a7f","study_id":"60edd13110225f80f9f3709b","session_id":"6196c1f381972c7d99b43d01","condition":"full-information","relevant_dimensions":["pattern","legs"],"bee_group":{"antennae":"X","wings":"X","pattern":"D","legs":"F"},"action":"harvest","summary":"bad-harvest","bonus":0.02},{"rt":842.4000000059605,"stimulus":"\n                    <p><b>Action: <em>harvest</em></b></p>\n                    <p>This is the bee that you just saw.</p>\n                    <img src=\"bees-with-color/bee-B1DF.svg\" width=\"200\">\n                    <p><span class=\"redText\">Bad choice, the bee was angry.</span><br><b>You have been stung!</b><br>Your pay has been decreased by $0.10. Your bonus pay is now $0.00.</p>\n            ","response":0,"trial_type":"html-button-response","trial_index":138,"time_elapsed":627170,"internal_node_id":"0.0-4.0-1.63","subject_id":"60fdd675fca33b0ce3d19a7f","study_id":"60edd13110225f80f9f3709b","session_id":"6196c1f381972c7d99b43d01","condition":"full-information","relevant_dimensions":["pattern","legs"],"bee_group":{"antennae":"X","wings":"X","pattern":"D","legs":"F"},"bonus":0.02},{"rt":8143.5999999940395,"stimulus":"You have completed the first part of this experiment.<br><br>You will now begin a shorter second part, in which you will receive no feedback.<br>The same rules regarding bonus pay apply.<br><br>Press any key to begin.","response":" ","trial_type":"html-keyboard-response","trial_index":139,"time_elapsed":635319,"internal_node_id":"0.0-5.0","subject_id":"60fdd675fca33b0ce3d19a7f","study_id":"60edd13110225f80f9f3709b","session_id":"6196c1f381972c7d99b43d01","condition":"full-information","relevant_dimensions":["pattern","legs"],"bee_group":{"antennae":"X","wings":"X","pattern":"D","legs":"F"},"bonus":0.02},{"rt":1253.199999988079,"stimulus":"bees-with-color/bee-B2SF.svg","response":0,"trial_type":"image-button-response","trial_index":140,"time_elapsed":636598,"internal_node_id":"0.0-6.0-0.0","subject_id":"60fdd675fca33b0ce3d19a7f","study_id":"60edd13110225f80f9f3709b","session_id":"6196c1f381972c7d99b43d01","condition":"full-information","relevant_dimensions":["pattern","legs"],"bee_group":{"antennae":"X","wings":"X","pattern":"D","legs":"F"},"bonus":0.02},{"rt":6533.899999976158,"stimulus":"bees-with-color/bee-B1SF.svg","response":1,"trial_type":"image-button-response","trial_index":141,"time_elapsed":643139,"internal_node_id":"0.0-6.0-0.1","subject_id":"60fdd675fca33b0ce3d19a7f","study_id":"60edd13110225f80f9f3709b","session_id":"6196c1f381972c7d99b43d01","condition":"full-information","relevant_dimensions":["pattern","legs"],"bee_group":{"antennae":"X","wings":"X","pattern":"D","legs":"F"},"bonus":0.02},{"rt":152.90000000596046,"stimulus":"bees-with-color/bee-A1DF.svg","response":1,"trial_type":"image-button-response","trial_index":142,"time_elapsed":643299,"internal_node_id":"0.0-6.0-0.2","subject_id":"60fdd675fca33b0ce3d19a7f","study_id":"60edd13110225f80f9f3709b","session_id":"6196c1f381972c7d99b43d01","condition":"full-information","relevant_dimensions":["pattern","legs"],"bee_group":{"antennae":"X","wings":"X","pattern":"D","legs":"F"},"bonus":0.02},{"rt":153.39999997615814,"stimulus":"bees-with-color/bee-A2SF.svg","response":1,"trial_type":"image-button-response","trial_index":143,"time_elapsed":643459,"internal_node_id":"0.0-6.0-0.3","subject_id":"60fdd675fca33b0ce3d19a7f","study_id":"60edd13110225f80f9f3709b","session_id":"6196c1f381972c7d99b43d01","condition":"full-information","relevant_dimensions":["pattern","legs"],"bee_group":{"antennae":"X","wings":"X","pattern":"D","legs":"F"},"bonus":0.02},{"rt":139.40000000596046,"stimulus":"bees-with-color/bee-B1DM.svg","response":1,"trial_type":"image-button-response","trial_index":144,"time_elapsed":643603,"internal_node_id":"0.0-6.0-0.4","subject_id":"60fdd675fca33b0ce3d19a7f","study_id":"60edd13110225f80f9f3709b","session_id":"6196c1f381972c7d99b43d01","condition":"full-information","relevant_dimensions":["pattern","legs"],"bee_group":{"antennae":"X","wings":"X","pattern":"D","legs":"F"},"bonus":0.02},{"rt":136.80000001192093,"stimulus":"bees-with-color/bee-A2DM.svg","response":1,"trial_type":"image-button-response","trial_index":145,"time_elapsed":643747,"internal_node_id":"0.0-6.0-0.5","subject_id":"60fdd675fca33b0ce3d19a7f","study_id":"60edd13110225f80f9f3709b","session_id":"6196c1f381972c7d99b43d01","condition":"full-information","relevant_dimensions":["pattern","legs"],"bee_group":{"antennae":"X","wings":"X","pattern":"D","legs":"F"},"bonus":0.02},{"rt":137.40000000596046,"stimulus":"bees-with-color/bee-B2DF.svg","response":1,"trial_type":"image-button-response","trial_index":146,"time_elapsed":643891,"internal_node_id":"0.0-6.0-0.6","subject_id":"60fdd675fca33b0ce3d19a7f","study_id":"60edd13110225f80f9f3709b","session_id":"6196c1f381972c7d99b43d01","condition":"full-information","relevant_dimensions":["pattern","legs"],"bee_group":{"antennae":"X","wings":"X","pattern":"D","legs":"F"},"bonus":0.02},{"rt":301.09999999403954,"stimulus":"bees-with-color/bee-B1SM.svg","response":1,"trial_type":"image-button-response","trial_index":147,"time_elapsed":644198,"internal_node_id":"0.0-6.0-0.7","subject_id":"60fdd675fca33b0ce3d19a7f","study_id":"60edd13110225f80f9f3709b","session_id":"6196c1f381972c7d99b43d01","condition":"full-information","relevant_dimensions":["pattern","legs"],"bee_group":{"antennae":"X","wings":"X","pattern":"D","legs":"F"},"bonus":0.02},{"rt":184.5,"stimulus":"bees-with-color/bee-B2DM.svg","response":1,"trial_type":"image-button-response","trial_index":148,"time_elapsed":644390,"internal_node_id":"0.0-6.0-0.8","subject_id":"60fdd675fca33b0ce3d19a7f","study_id":"60edd13110225f80f9f3709b","session_id":"6196c1f381972c7d99b43d01","condition":"full-information","relevant_dimensions":["pattern","legs"],"bee_group":{"antennae":"X","wings":"X","pattern":"D","legs":"F"},"bonus":0.02},{"rt":154.90000000596046,"stimulus":"bees-with-color/bee-A2DF.svg","response":1,"trial_type":"image-button-response","trial_index":149,"time_elapsed":644552,"internal_node_id":"0.0-6.0-0.9","subject_id":"60fdd675fca33b0ce3d19a7f","study_id":"60edd13110225f80f9f3709b","session_id":"6196c1f381972c7d99b43d01","condition":"full-information","relevant_dimensions":["pattern","legs"],"bee_group":{"antennae":"X","wings":"X","pattern":"D","legs":"F"},"bonus":0.02},{"rt":131.2999999821186,"stimulus":"bees-with-color/bee-A1SM.svg","response":1,"trial_type":"image-button-response","trial_index":150,"time_elapsed":644694,"internal_node_id":"0.0-6.0-0.10","subject_id":"60fdd675fca33b0ce3d19a7f","study_id":"60edd13110225f80f9f3709b","session_id":"6196c1f381972c7d99b43d01","condition":"full-information","relevant_dimensions":["pattern","legs"],"bee_group":{"antennae":"X","wings":"X","pattern":"D","legs":"F"},"bonus":0.02},{"rt":155.5,"stimulus":"bees-with-color/bee-A2SM.svg","response":1,"trial_type":"image-button-response","trial_index":151,"time_elapsed":644855,"internal_node_id":"0.0-6.0-0.11","subject_id":"60fdd675fca33b0ce3d19a7f","study_id":"60edd13110225f80f9f3709b","session_id":"6196c1f381972c7d99b43d01","condition":"full-information","relevant_dimensions":["pattern","legs"],"bee_group":{"antennae":"X","wings":"X","pattern":"D","legs":"F"},"bonus":0.02},{"rt":138.80000001192093,"stimulus":"bees-with-color/bee-B1DF.svg","response":1,"trial_type":"image-button-response","trial_index":152,"time_elapsed":644999,"internal_node_id":"0.0-6.0-0.12","subject_id":"60fdd675fca33b0ce3d19a7f","study_id":"60edd13110225f80f9f3709b","session_id":"6196c1f381972c7d99b43d01","condition":"full-information","relevant_dimensions":["pattern","legs"],"bee_group":{"antennae":"X","wings":"X","pattern":"D","legs":"F"},"bonus":0.02},{"rt":282,"stimulus":"bees-with-color/bee-A1SF.svg","response":1,"trial_type":"image-button-response","trial_index":153,"time_elapsed":645287,"internal_node_id":"0.0-6.0-0.13","subject_id":"60fdd675fca33b0ce3d19a7f","study_id":"60edd13110225f80f9f3709b","session_id":"6196c1f381972c7d99b43d01","condition":"full-information","relevant_dimensions":["pattern","legs"],"bee_group":{"antennae":"X","wings":"X","pattern":"D","legs":"F"},"bonus":0.02},{"rt":201.90000000596046,"stimulus":"bees-with-color/bee-A1DM.svg","response":1,"trial_type":"image-button-response","trial_index":154,"time_elapsed":645494,"internal_node_id":"0.0-6.0-0.14","subject_id":"60fdd675fca33b0ce3d19a7f","study_id":"60edd13110225f80f9f3709b","session_id":"6196c1f381972c7d99b43d01","condition":"full-information","relevant_dimensions":["pattern","legs"],"bee_group":{"antennae":"X","wings":"X","pattern":"D","legs":"F"},"bonus":0.02},{"rt":155,"stimulus":"bees-with-color/bee-B2SM.svg","response":1,"trial_type":"image-button-response","trial_index":155,"time_elapsed":645654,"internal_node_id":"0.0-6.0-0.15","subject_id":"60fdd675fca33b0ce3d19a7f","study_id":"60edd13110225f80f9f3709b","session_id":"6196c1f381972c7d99b43d01","condition":"full-information","relevant_dimensions":["pattern","legs"],"bee_group":{"antennae":"X","wings":"X","pattern":"D","legs":"F"},"bonus":0.02},{"rt":187.59999999403954,"stimulus":"bees-with-color/bee-A1SM.svg","response":1,"trial_type":"image-button-response","trial_index":156,"time_elapsed":645847,"internal_node_id":"0.0-6.0-0.16","subject_id":"60fdd675fca33b0ce3d19a7f","study_id":"60edd13110225f80f9f3709b","session_id":"6196c1f381972c7d99b43d01","condition":"full-information","relevant_dimensions":["pattern","legs"],"bee_group":{"antennae":"X","wings":"X","pattern":"D","legs":"F"},"bonus":0.02},{"rt":139.69999998807907,"stimulus":"bees-with-color/bee-A2DM.svg","response":1,"trial_type":"image-button-response","trial_index":157,"time_elapsed":645991,"internal_node_id":"0.0-6.0-0.17","subject_id":"60fdd675fca33b0ce3d19a7f","study_id":"60edd13110225f80f9f3709b","session_id":"6196c1f381972c7d99b43d01","condition":"full-information","relevant_dimensions":["pattern","legs"],"bee_group":{"antennae":"X","wings":"X","pattern":"D","legs":"F"},"bonus":0.02},{"rt":172,"stimulus":"bees-with-color/bee-A1DF.svg","response":1,"trial_type":"image-button-response","trial_index":158,"time_elapsed":646166,"internal_node_id":"0.0-6.0-0.18","subject_id":"60fdd675fca33b0ce3d19a7f","study_id":"60edd13110225f80f9f3709b","session_id":"6196c1f381972c7d99b43d01","condition":"full-information","relevant_dimensions":["pattern","legs"],"bee_group":{"antennae":"X","wings":"X","pattern":"D","legs":"F"},"bonus":0.02},{"rt":138.80000001192093,"stimulus":"bees-with-color/bee-A2DF.svg","response":1,"trial_type":"image-button-response","trial_index":159,"time_elapsed":646310,"internal_node_id":"0.0-6.0-0.19","subject_id":"60fdd675fca33b0ce3d19a7f","study_id":"60edd13110225f80f9f3709b","session_id":"6196c1f381972c7d99b43d01","condition":"full-information","relevant_dimensions":["pattern","legs"],"bee_group":{"antennae":"X","wings":"X","pattern":"D","legs":"F"},"bonus":0.02},{"rt":189.69999998807907,"stimulus":"bees-with-color/bee-B2DM.svg","response":1,"trial_type":"image-button-response","trial_index":160,"time_elapsed":646504,"internal_node_id":"0.0-6.0-0.20","subject_id":"60fdd675fca33b0ce3d19a7f","study_id":"60edd13110225f80f9f3709b","