[{"success":true,"trial_type":"fullscreen","trial_index":0,"time_elapsed":2059,"internal_node_id":"0.0-0.0","subject_id":"603b0cceef3baf7b6df2d475","study_id":"60edd13110225f80f9f3709b","session_id":"6196c1f3f80dba5807c38987","condition":"full-information","relevant_dimensions":["antennae","pattern"],"bee_group":{"antennae":"B","wings":"X","pattern":"D","legs":"X"},"bonus":1.1200000000000008},{"success":true,"timeout":false,"failed_images":[],"failed_audio":[],"failed_video":[],"trial_type":"preload","trial_index":1,"time_elapsed":2090,"internal_node_id":"0.0-1.0","subject_id":"603b0cceef3baf7b6df2d475","study_id":"60edd13110225f80f9f3709b","session_id":"6196c1f3f80dba5807c38987","condition":"full-information","relevant_dimensions":["antennae","pattern"],"bee_group":{"antennae":"B","wings":"X","pattern":"D","legs":"X"},"bonus":1.1200000000000008},{"rt":1163.1000000014901,"stimulus":"Welcome! Press any key to begin.","response":"arrowright","trial_type":"html-keyboard-response","trial_index":2,"time_elapsed":3253,"internal_node_id":"0.0-2.0","subject_id":"603b0cceef3baf7b6df2d475","study_id":"60edd13110225f80f9f3709b","session_id":"6196c1f3f80dba5807c38987","condition":"full-information","relevant_dimensions":["antennae","pattern"],"bee_group":{"antennae":"B","wings":"X","pattern":"D","legs":"X"},"bonus":1.1200000000000008},{"view_history":[{"page_index":0,"viewing_time":1745.5},{"page_index":1,"viewing_time":9239.89999999851},{"page_index":2,"viewing_time":6997},{"page_index":3,"viewing_time":9033},{"page_index":4,"viewing_time":5384},{"page_index":5,"viewing_time":5971.60000000149},{"page_index":6,"viewing_time":4131.5},{"page_index":7,"viewing_time":6452.29999999702},{"page_index":8,"viewing_time":2068.5},{"page_index":9,"viewing_time":1531.1000000014901},{"page_index":10,"viewing_time":831},{"page_index":11,"viewing_time":10364.19999999553},{"page_index":12,"viewing_time":4454.80000000447},{"page_index":13,"viewing_time":925},{"page_index":14,"viewing_time":792}],"rt":69921.89999999851,"trial_type":"instructions","trial_index":3,"time_elapsed":73176,"internal_node_id":"0.0-3.0-0.0","subject_id":"603b0cceef3baf7b6df2d475","study_id":"60edd13110225f80f9f3709b","session_id":"6196c1f3f80dba5807c38987","condition":"full-information","relevant_dimensions":["antennae","pattern"],"bee_group":{"antennae":"B","wings":"X","pattern":"D","legs":"X"},"bonus":1.1200000000000008},{"rt":8417.69999999553,"response":{"Q0":["Two or six legs","Stripes or spots on body","Single or double wings","Antennae or no antennae"]},"question_order":[0],"trial_type":"survey-multi-select","trial_index":4,"time_elapsed":81598,"internal_node_id":"0.0-3.0-1.0","subject_id":"603b0cceef3baf7b6df2d475","study_id":"60edd13110225f80f9f3709b","session_id":"6196c1f3f80dba5807c38987","condition":"full-information","relevant_dimensions":["antennae","pattern"],"bee_group":{"antennae":"B","wings":"X","pattern":"D","legs":"X"},"correct":true,"bonus":1.1200000000000008},{"rt":21434.59999999404,"response":{"Q1":"No.","Q2":"Based on the four features of the bee.","Q3":"You do not learn if it was friendly or dangerous, and do not alter your bonus."},"question_order":[0,1,2],"trial_type":"survey-multi-choice","trial_index":5,"time_elapsed":103034,"internal_node_id":"0.0-3.0-2.0","subject_id":"603b0cceef3baf7b6df2d475","study_id":"60edd13110225f80f9f3709b","session_id":"6196c1f3f80dba5807c38987","condition":"full-information","relevant_dimensions":["antennae","pattern"],"bee_group":{"antennae":"B","wings":"X","pattern":"D","legs":"X"},"correct":false,"bonus":1.1200000000000008},{"rt":2249.8000000044703,"stimulus":"<p>You did not answer all comprehension questions correctly.<br>Press <b>continue</b> to review the instructions again.</p>","response":0,"trial_type":"html-button-response","trial_index":6,"time_elapsed":105285,"internal_node_id":"0.0-3.0-3.0","subject_id":"603b0cceef3baf7b6df2d475","study_id":"60edd13110225f80f9f3709b","session_id":"6196c1f3f80dba5807c38987","condition":"full-information","relevant_dimensions":["antennae","pattern"],"bee_group":{"antennae":"B","wings":"X","pattern":"D","legs":"X"},"bonus":1.1200000000000008},{"view_history":[{"page_index":0,"viewing_time":5289},{"page_index":1,"viewing_time":9454.89999999851},{"page_index":2,"viewing_time":10120.10000000149},{"page_index":3,"viewing_time":2498.6999999955297},{"page_index":4,"viewing_time":9961.30000000447},{"page_index":5,"viewing_time":2642.89999999851},{"page_index":6,"viewing_time":1174.2999999970198},{"page_index":7,"viewing_time":798.8000000044703},{"page_index":8,"viewing_time":374},{"page_index":9,"viewing_time":238.89999999850988},{"page_index":10,"viewing_time":372.1000000014901},{"page_index":11,"viewing_time":777.1000000014901},{"page_index":12,"viewing_time":926.0999999940395},{"page_index":13,"viewing_time":933.7000000029802},{"page_index":14,"viewing_time":729.1000000014901}],"rt":46291.5,"trial_type":"instructions","trial_index":7,"time_elapsed":151577,"internal_node_id":"0.0-3.0-4.0-0.0","subject_id":"603b0cceef3baf7b6df2d475","study_id":"60edd13110225f80f9f3709b","session_id":"6196c1f3f80dba5807c38987","condition":"full-information","relevant_dimensions":["antennae","pattern"],"bee_group":{"antennae":"B","wings":"X","pattern":"D","legs":"X"},"bonus":1.1200000000000008},{"rt":8898.20000000298,"response":{"Q0":["Two or six legs","Stripes or spots on body","Single or double wings","Antennae or no antennae"]},"question_order":[0],"trial_type":"survey-multi-select","trial_index":8,"time_elapsed":160478,"internal_node_id":"0.0-3.0-4.0-1.0","subject_id":"603b0cceef3baf7b6df2d475","study_id":"60edd13110225f80f9f3709b","session_id":"6196c1f3f80dba5807c38987","condition":"full-information","relevant_dimensions":["antennae","pattern"],"bee_group":{"antennae":"B","wings":"X","pattern":"D","legs":"X"},"correct":true,"bonus":1.1200000000000008},{"rt":18545.5,"response":{"Q1":"No.","Q2":"Based on the four features of the bee.","Q3":"You learn if it was friendly or dangerous, but do not alter your bonus."},"question_order":[0,1,2],"trial_type":"survey-multi-choice","trial_index":9,"time_elapsed":179025,"internal_node_id":"0.0-3.0-4.0-2.0","subject_id":"603b0cceef3baf7b6df2d475","study_id":"60edd13110225f80f9f3709b","session_id":"6196c1f3f80dba5807c38987","condition":"full-information","relevant_dimensions":["antennae","pattern"],"bee_group":{"antennae":"B","wings":"X","pattern":"D","legs":"X"},"correct":true,"bonus":1.1200000000000008},{"rt":2001.7999999970198,"stimulus":"<p>Congrats, you got everything right<br>When you're ready, click the button below to continue to the experiment.</p>","response":0,"trial_type":"html-button-response","trial_index":10,"time_elapsed":181028,"internal_node_id":"0.0-3.0-4.0-3.0","subject_id":"603b0cceef3baf7b6df2d475","study_id":"60edd13110225f80f9f3709b","session_id":"6196c1f3f80dba5807c38987","condition":"full-information","relevant_dimensions":["antennae","pattern"],"bee_group":{"antennae":"B","wings":"X","pattern":"D","legs":"X"},"bonus":1.1200000000000008},{"rt":3679.39999999851,"stimulus":"bees-with-color/bee-A1SM.svg","response":0,"trial_type":"image-button-response","trial_index":11,"time_elapsed":184709,"internal_node_id":"0.0-4.0-0.0","subject_id":"603b0cceef3baf7b6df2d475","study_id":"60edd13110225f80f9f3709b","session_id":"6196c1f3f80dba5807c38987","condition":"full-information","relevant_dimensions":["antennae","pattern"],"bee_group":{"antennae":"B","wings":"X","pattern":"D","legs":"X"},"action":"harvest","summary":"good-harvest","bonus":1.1200000000000008},{"rt":2143.39999999851,"stimulus":"\n                    <p><b>Action: <em>harvest</em></b></p>\n                    <p>This is the bee that you just saw.</p>\n                    <img src=\"bees-with-color/bee-A1SM.svg\" width=\"200\">\n                    <p><span class=\"greenText\"><b>Successful harvest!</b></span><br>Your pay has increased by $0.02. Your bonus pay is now $0.56.</p>\n            ","response":0,"trial_type":"html-button-response","trial_index":12,"time_elapsed":186854,"internal_node_id":"0.0-4.0-1.0","subject_id":"603b0cceef3baf7b6df2d475","study_id":"60edd13110225f80f9f3709b","session_id":"6196c1f3f80dba5807c38987","condition":"full-information","relevant_dimensions":["antennae","pattern"],"bee_group":{"antennae":"B","wings":"X","pattern":"D","legs":"X"},"bonus":1.1200000000000008},{"rt":1640.8000000044703,"stimulus":"bees-with-color/bee-A2DM.svg","response":1,"trial_type":"image-button-response","trial_index":13,"time_elapsed":188496,"internal_node_id":"0.0-4.0-0.1","subject_id":"603b0cceef3baf7b6df2d475","study_id":"60edd13110225f80f9f3709b","session_id":"6196c1f3f80dba5807c38987","condition":"full-information","relevant_dimensions":["antennae","pattern"],"bee_group":{"antennae":"B","wings":"X","pattern":"D","legs":"X"},"action":"avoid","summary":"bad-avoid","bonus":1.1200000000000008},{"rt":2979.7000000029802,"stimulus":"\n                    <p><b>Action: <em>avoid</em></b></p>\n                    <p>This is the bee that you just saw.</p>\n                    <img src=\"bees-with-color/bee-A2DM.svg\" width=\"200\">\n                    <p><span class=\"redText\">Bad choice,</span> the bee was friendly.<br>Your bonus pay is unchanged, and remains at $0.56.</p>\n            ","response":0,"trial_type":"html-button-response","trial_index":14,"time_elapsed":191477,"internal_node_id":"0.0-4.0-1.1","subject_id":"603b0cceef3baf7b6df2d475","study_id":"60edd13110225f80f9f3709b","session_id":"6196c1f3f80dba5807c38987","condition":"full-information","relevant_dimensions":["antennae","pattern"],"bee_group":{"antennae":"B","wings":"X","pattern":"D","legs":"X"},"bonus":1.1200000000000008},{"rt":1972.6000000014901,"stimulus":"bees-with-color/bee-B2DF.svg","response":1,"trial_type":"image-button-response","trial_index":15,"time_elapsed":193451,"internal_node_id":"0.0-4.0-0.2","subject_id":"603b0cceef3baf7b6df2d475","study_id":"60edd13110225f80f9f3709b","session_id":"6196c1f3f80dba5807c38987","condition":"full-information","relevant_dimensions":["antennae","pattern"],"bee_group":{"antennae":"B","wings":"X","pattern":"D","legs":"X"},"action":"avoid","summary":"good-avoid","bonus":1.1200000000000008},{"rt":3621.89999999851,"stimulus":"\n                    <p><b>Action: <em>avoid</em></b></p>\n                    <p>This is the bee that you just saw.</p>\n                    <img src=\"bees-with-color/bee-B2DF.svg\" width=\"200\">\n                    <p><span class=\"greenText\">Good choice!</span>  This bee would have stung you.<br>Your bonus pay is unchanged, and remains at $0.56.</p>\n            ","response":0,"trial_type":"html-button-response","trial_index":16,"time_elapsed":197074,"internal_node_id":"0.0-4.0-1.2","subject_id":"603b0cceef3baf7b6df2d475","study_id":"60edd13110225f80f9f3709b","session_id":"6196c1f3f80dba5807c38987","condition":"full-information","relevant_dimensions":["antennae","pattern"],"bee_group":{"antennae":"B","wings":"X","pattern":"D","legs":"X"},"bonus":1.1200000000000008},{"rt":1655.7000000029802,"stimulus":"bees-with-color/bee-B1SF.svg","response":0,"trial_type":"image-button-response","trial_index":17,"time_elapsed":198731,"internal_node_id":"0.0-4.0-0.3","subject_id":"603b0cceef3baf7b6df2d475","study_id":"60edd13110225f80f9f3709b","session_id":"6196c1f3f80dba5807c38987","condition":"full-information","relevant_dimensions":["antennae","pattern"],"bee_group":{"antennae":"B","wings":"X","pattern":"D","legs":"X"},"action":"harvest","summary":"good-harvest","bonus":1.1200000000000008},{"rt":847.8999999985099,"stimulus":"\n                    <p><b>Action: <em>harvest</em></b></p>\n                    <p>This is the bee that you just saw.</p>\n                    <img src=\"bees-with-color/bee-B1SF.svg\" width=\"200\">\n                    <p><span class=\"greenText\"><b>Successful harvest!</b></span><br>Your pay has increased by $0.02. Your bonus pay is now $0.58.</p>\n            ","response":0,"trial_type":"html-button-response","trial_index":18,"time_elapsed":199580,"internal_node_id":"0.0-4.0-1.3","subject_id":"603b0cceef3baf7b6df2d475","study_id":"60edd13110225f80f9f3709b","session_id":"6196c1f3f80dba5807c38987","condition":"full-information","relevant_dimensions":["antennae","pattern"],"bee_group":{"antennae":"B","wings":"X","pattern":"D","legs":"X"},"bonus":1.1200000000000008},{"rt":1926.7000000029802,"stimulus":"bees-with-color/bee-A2SF.svg","response":1,"trial_type":"image-button-response","trial_index":19,"time_elapsed":201508,"internal_node_id":"0.0-4.0-0.4","subject_id":"603b0cceef3baf7b6df2d475","study_id":"60edd13110225f80f9f3709b","session_id":"6196c1f3f80dba5807c38987","condition":"full-information","relevant_dimensions":["antennae","pattern"],"bee_group":{"antennae":"B","wings":"X","pattern":"D","legs":"X"},"action":"avoid","summary":"bad-avoid","bonus":1.1200000000000008},{"rt":1064,"stimulus":"\n                    <p><b>Action: <em>avoid</em></b></p>\n                    <p>This is the bee that you just saw.</p>\n                    <img src=\"bees-with-color/bee-A2SF.svg\" width=\"200\">\n                    <p><span class=\"redText\">Bad choice,</span> the bee was friendly.<br>Your bonus pay is unchanged, and remains at $0.58.</p>\n            ","response":0,"trial_type":"html-button-response","trial_index":20,"time_elapsed":202572,"internal_node_id":"0.0-4.0-1.4","subject_id":"603b0cceef3baf7b6df2d475","study_id":"60edd13110225f80f9f3709b","session_id":"6196c1f3f80dba5807c38987","condition":"full-information","relevant_dimensions":["antennae","pattern"],"bee_group":{"antennae":"B","wings":"X","pattern":"D","legs":"X"},"bonus":1.1200000000000008},{"rt":1828.3000000044703,"stimulus":"bees-with-color/bee-B1SM.svg","response":1,"trial_type":"image-button-response","trial_index":21,"time_elapsed":204402,"internal_node_id":"0.0-4.0-0.5","subject_id":"603b0cceef3baf7b6df2d475","study_id":"60edd13110225f80f9f3709b","session_id":"6196c1f3f80dba5807c38987","condition":"full-information","relevant_dimensions":["antennae","pattern"],"bee_group":{"antennae":"B","wings":"X","pattern":"D","legs":"X"},"action":"avoid","summary":"bad-avoid","bonus":1.1200000000000008},{"rt":1386.1999999955297,"stimulus":"\n                    <p><b>Action: <em>avoid</em></b></p>\n                    <p>This is the bee that you just saw.</p>\n                    <img src=\"bees-with-color/bee-B1SM.svg\" width=\"200\">\n                    <p><span class=\"redText\">Bad choice,</span> the bee was friendly.<br>Your bonus pay is unchanged, and remains at $0.58.</p>\n            ","response":0,"trial_type":"html-button-response","trial_index":22,"time_elapsed":205789,"internal_node_id":"0.0-4.0-1.5","subject_id":"603b0cceef3baf7b6df2d475","study_id":"60edd13110225f80f9f3709b","session_id":"6196c1f3f80dba5807c38987","condition":"full-information","relevant_dimensions":["antennae","pattern"],"bee_group":{"antennae":"B","wings":"X","pattern":"D","legs":"X"},"bonus":1.1200000000000008},{"rt":1697.2999999970198,"stimulus":"bees-with-color/bee-B1DF.svg","response":1,"trial_type":"image-button-response","trial_index":23,"time_elapsed":207488,"internal_node_id":"0.0-4.0-0.6","subject_id":"603b0cceef3baf7b6df2d475","study_id":"60edd13110225f80f9f3709b","session_id":"6196c1f3f80dba5807c38987","condition":"full-information","relevant_dimensions":["antennae","pattern"],"bee_group":{"antennae":"B","wings":"X","pattern":"D","legs":"X"},"action":"avoid","summary":"good-avoid","bonus":1.1200000000000008},{"rt":803,"stimulus":"\n                    <p><b>Action: <em>avoid</em></b></p>\n                    <p>This is the bee that you just saw.</p>\n                    <img src=\"bees-with-color/bee-B1DF.svg\" width=\"200\">\n                    <p><span class=\"greenText\">Good choice!</span>  This bee would have stung you.<br>Your bonus pay is unchanged, and remains at $0.58.</p>\n            ","response":0,"trial_type":"html-button-response","trial_index":24,"time_elapsed":208292,"internal_node_id":"0.0-4.0-1.6","subject_id":"603b0cceef3baf7b6df2d475","study_id":"60edd13110225f80f9f3709b","session_id":"6196c1f3f80dba5807c38987","condition":"full-information","relevant_dimensions":["antennae","pattern"],"bee_group":{"antennae":"B","wings":"X","pattern":"D","legs":"X"},"bonus":1.1200000000000008},{"rt":1414,"stimulus":"bees-with-color/bee-B2SF.svg","response":1,"trial_type":"image-button-response","trial_index":25,"time_elapsed":209707,"internal_node_id":"0.0-4.0-0.7","subject_id":"603b0cceef3baf7b6df2d475","study_id":"60edd13110225f80f9f3709b","session_id":"6196c1f3f80dba5807c38987","condition":"full-information","relevant_dimensions":["antennae","pattern"],"bee_group":{"antennae":"B","wings":"X","pattern":"D","legs":"X"},"action":"avoid","summary":"bad-avoid","bonus":1.1200000000000008},{"rt":1811.8999999985099,"stimulus":"\n                    <p><b>Action: <em>avoid</em></b></p>\n                    <p>This is the bee that you just saw.</p>\n                    <img src=\"bees-with-color/bee-B2SF.svg\" width=\"200\">\n                    <p><span class=\"redText\">Bad choice,</span> the bee was friendly.<br>Your bonus pay is unchanged, and remains at $0.58.</p>\n            ","response":0,"trial_type":"html-button-response","trial_index":26,"time_elapsed":211520,"internal_node_id":"0.0-4.0-1.7","subject_id":"603b0cceef3baf7b6df2d475","study_id":"60edd13110225f80f9f3709b","session_id":"6196c1f3f80dba5807c38987","condition":"full-information","relevant_dimensions":["antennae","pattern"],"bee_group":{"antennae":"B","wings":"X","pattern":"D","legs":"X"},"bonus":1.1200000000000008},{"rt":942.5,"stimulus":"bees-with-color/bee-A1SF.svg","response":0,"trial_type":"image-button-response","trial_index":27,"time_elapsed":212464,"internal_node_id":"0.0-4.0-0.8","subject_id":"603b0cceef3baf7b6df2d475","study_id":"60edd13110225f80f9f3709b","session_id":"6196c1f3f80dba5807c38987","condition":"full-information","relevant_dimensions":["antennae","pattern"],"bee_group":{"antennae":"B","wings":"X","pattern":"D","legs":"X"},"action":"harvest","summary":"good-harvest","bonus":1.1200000000000008},{"rt":1335.1000000014901,"stimulus":"\n                    <p><b>Action: <em>harvest</em></b></p>\n                    <p>This is the bee that you just saw.</p>\n                    <img src=\"bees-with-color/bee-A1SF.svg\" width=\"200\">\n                    <p><span class=\"greenText\"><b>Successful harvest!</b></span><br>Your pay has increased by $0.02. Your bonus pay is now $0.60.</p>\n            ","response":0,"trial_type":"html-button-response","trial_index":28,"time_elapsed":213800,"internal_node_id":"0.0-4.0-1.8","subject_id":"603b0cceef3baf7b6df2d475","study_id":"60edd13110225f80f9f3709b","session_id":"6196c1f3f80dba5807c38987","condition":"full-information","relevant_dimensions":["antennae","pattern"],"bee_group":{"antennae":"B","wings":"X","pattern":"D","legs":"X"},"bonus":1.1200000000000008},{"rt":1908.9000000059605,"stimulus":"bees-with-color/bee-A2SM.svg","response":0,"trial_type":"image-button-response","trial_index":29,"time_elapsed":215710,"internal_node_id":"0.0-4.0-0.9","subject_id":"603b0cceef3baf7b6df2d475","study_id":"60edd13110225f80f9f3709b","session_id":"6196c1f3f80dba5807c38987","condition":"full-information","relevant_dimensions":["antennae","pattern"],"bee_group":{"antennae":"B","wings":"X","pattern":"D","legs":"X"},"action":"harvest","summary":"good-harvest","bonus":1.1200000000000008},{"rt":684.6000000014901,"stimulus":"\n                    <p><b>Action: <em>harvest</em></b></p>\n                    <p>This is the bee that you just saw.</p>\n                    <img src=\"bees-with-color/bee-A2SM.svg\" width=\"200\">\n                    <p><span class=\"greenText\"><b>Successful harvest!</b></span><br>Your pay has increased by $0.02. Your bonus pay is now $0.62.</p>\n            ","response":0,"trial_type":"html-button-response","trial_index":30,"time_elapsed":216396,"internal_node_id":"0.0-4.0-1.9","subject_id":"603b0cceef3baf7b6df2d475","study_id":"60edd13110225f80f9f3709b","session_id":"6196c1f3f80dba5807c38987","condition":"full-information","relevant_dimensions":["antennae","pattern"],"bee_group":{"antennae":"B","wings":"X","pattern":"D","legs":"X"},"bonus":1.1200000000000008},{"rt":2291,"stimulus":"bees-with-color/bee-B2SM.svg","response":1,"trial_type":"image-button-response","trial_index":31,"time_elapsed":218688,"internal_node_id":"0.0-4.0-0.10","subject_id":"603b0cceef3baf7b6df2d475","study_id":"60edd13110225f80f9f3709b","session_id":"6196c1f3f80dba5807c38987","condition":"full-information","relevant_dimensions":["antennae","pattern"],"bee_group":{"antennae":"B","wings":"X","pattern":"D","legs":"X"},"action":"avoid","summary":"bad-avoid","bonus":1.1200000000000008},{"rt":603.8999999985099,"stimulus":"\n                    <p><b>Action: <em>avoid</em></b></p>\n                    <p>This is the bee that you just saw.</p>\n                    <img src=\"bees-with-color/bee-B2SM.svg\" width=\"200\">\n                    <p><span class=\"redText\">Bad choice,</span> the bee was friendly.<br>Your bonus pay is unchanged, and remains at $0.62.</p>\n            ","response":0,"trial_type":"html-button-response","trial_index":32,"time_elapsed":219292,"internal_node_id":"0.0-4.0-1.10","subject_id":"603b0cceef3baf7b6df2d475","study_id":"60edd13110225f80f9f3709b","session_id":"6196c1f3f80dba5807c38987","condition":"full-information","relevant_dimensions":["antennae","pattern"],"bee_group":{"antennae":"B","wings":"X","pattern":"D","legs":"X"},"bonus":1.1200000000000008},{"rt":1718.7999999970198,"stimulus":"bees-with-color/bee-B1DM.svg","response":1,"trial_type":"image-button-response","trial_index":33,"time_elapsed":221012,"internal_node_id":"0.0-4.0-0.11","subject_id":"603b0cceef3baf7b6df2d475","study_id":"60edd13110225f80f9f3709b","session_id":"6196c1f3f80dba5807c38987","condition":"full-information","relevant_dimensions":["antennae","pattern"],"bee_group":{"antennae":"B","wings":"X","pattern":"D","legs":"X"},"action":"avoid","summary":"good-avoid","bonus":1.1200000000000008},{"rt":686.2000000029802,"stimulus":"\n                    <p><b>Action: <em>avoid</em></b></p>\n                    <p>This is the bee that you just saw.</p>\n                    <img src=\"bees-with-color/bee-B1DM.svg\" width=\"200\">\n                    <p><span class=\"greenText\">Good choice!</span>  This bee would have stung you.<br>Your bonus pay is unchanged, and remains at $0.62.</p>\n            ","response":0,"trial_type":"html-button-response","trial_index":34,"time_elapsed":221700,"internal_node_id":"0.0-4.0-1.11","subject_id":"603b0cceef3baf7b6df2d475","study_id":"60edd13110225f80f9f3709b","session_id":"6196c1f3f80dba5807c38987","condition":"full-information","relevant_dimensions":["antennae","pattern"],"bee_group":{"antennae":"B","wings":"X","pattern":"D","legs":"X"},"bonus":1.1200000000000008},{"rt":1140.1000000014901,"stimulus":"bees-with-color/bee-B2DM.svg","response":1,"trial_type":"image-button-response","trial_index":35,"time_elapsed":222841,"internal_node_id":"0.0-4.0-0.12","subject_id":"603b0cceef3baf7b6df2d475","study_id":"60edd13110225f80f9f3709b","session_id":"6196c1f3f80dba5807c38987","condition":"full-information","relevant_dimensions":["antennae","pattern"],"bee_group":{"antennae":"B","wings":"X","pattern":"D","legs":"X"},"action":"avoid","summary":"good-avoid","bonus":1.1200000000000008},{"rt":871.8999999985099,"stimulus":"\n                    <p><b>Action: <em>avoid</em></b></p>\n                    <p>This is the bee that you just saw.</p>\n                    <img src=\"bees-with-color/bee-B2DM.svg\" width=\"200\">\n                    <p><span class=\"greenText\">Good choice!</span>  This bee would have stung you.<br>Your bonus pay is unchanged, and remains at $0.62.</p>\n            ","response":0,"trial_type":"html-button-response","trial_index":36,"time_elapsed":223714,"internal_node_id":"0.0-4.0-1.12","subject_id":"603b0cceef3baf7b6df2d475","study_id":"60edd13110225f80f9f3709b","session_id":"6196c1f3f80dba5807c38987","condition":"full-information","relevant_dimensions":["antennae","pattern"],"bee_group":{"antennae":"B","wings":"X","pattern":"D","legs":"X"},"bonus":1.1200000000000008},{"rt":985,"stimulus":"bees-with-color/bee-A2DF.svg","response":1,"trial_type":"image-button-response","trial_index":37,"time_elapsed":224700,"internal_node_id":"0.0-4.0-0.13","subject_id":"603b0cceef3baf7b6df2d475","study_id":"60edd13110225f80f9f3709b","session_id":"6196c1f3f80dba5807c38987","condition":"full-information","relevant_dimensions":["antennae","pattern"],"bee_group":{"antennae":"B","wings":"X","pattern":"D","legs":"X"},"action":"avoid","summary":"bad-avoid","bonus":1.1200000000000008},{"rt":818.1000000014901,"stimulus":"\n                    <p><b>Action: <em>avoid</em></b></p>\n                    <p>This is the bee that you just saw.</p>\n                    <img src=\"bees-with-color/bee-A2DF.svg\" width=\"200\">\n                    <p><span class=\"redText\">Bad choice,</span> the bee was friendly.<br>Your bonus pay is unchanged, and remains at $0.62.</p>\n            ","response":0,"trial_type":"html-button-response","trial_index":38,"time_elapsed":225519,"internal_node_id":"0.0-4.0-1.13","subject_id":"603b0cceef3baf7b6df2d475","study_id":"60edd13110225f80f9f3709b","session_id":"6196c1f3f80dba5807c38987","condition":"full-information","relevant_dimensions":["antennae","pattern"],"bee_group":{"antennae":"B","wings":"X","pattern":"D","legs":"X"},"bonus":1.1200000000000008},{"rt":1003.8999999985099,"stimulus":"bees-with-color/bee-A1DF.svg","response":0,"trial_type":"image-button-response","trial_index":39,"time_elapsed":226524,"internal_node_id":"0.0-4.0-0.14","subject_id":"603b0cceef3baf7b6df2d475","study_id":"60edd13110225f80f9f3709b","session_id":"6196c1f3f80dba5807c38987","condition":"full-information","relevant_dimensions":["antennae","pattern"],"bee_group":{"antennae":"B","wings":"X","pattern":"D","legs":"X"},"action":"harvest","summary":"good-harvest","bonus":1.1200000000000008},{"rt":844.8000000044703,"stimulus":"\n                    <p><b>Action: <em>harvest</em></b></p>\n                    <p>This is the bee that you just saw.</p>\n                    <img src=\"bees-with-color/bee-A1DF.svg\" width=\"200\">\n                    <p><span class=\"greenText\"><b>Successful harvest!</b></span><br>Your pay has increased by $0.02. Your bonus pay is now $0.64.</p>\n            ","response":0,"trial_type":"html-button-response","trial_index":40,"time_elapsed":227370,"internal_node_id":"0.0-4.0-1.14","subject_id":"603b0cceef3baf7b6df2d475","study_id":"60edd13110225f80f9f3709b","session_id":"6196c1f3f80dba5807c38987","condition":"full-information","relevant_dimensions":["antennae","pattern"],"bee_group":{"antennae":"B","wings":"X","pattern":"D","legs":"X"},"bonus":1.1200000000000008},{"rt":1109,"stimulus":"bees-with-color/bee-A1DM.svg","response":0,"trial_type":"image-button-response","trial_index":41,"time_elapsed":228480,"internal_node_id":"0.0-4.0-0.15","subject_id":"603b0cceef3baf7b6df2d475","study_id":"60edd13110225f80f9f3709b","session_id":"6196c1f3f80dba5807c38987","condition":"full-information","relevant_dimensions":["antennae","pattern"],"bee_group":{"antennae":"B","wings":"X","pattern":"D","legs":"X"},"action":"harvest","summary":"good-harvest","bonus":1.1200000000000008},{"rt":1013.8999999985099,"stimulus":"\n                    <p><b>Action: <em>harvest</em></b></p>\n                    <p>This is the bee that you just saw.</p>\n                    <img src=\"bees-with-color/bee-A1DM.svg\" width=\"200\">\n                    <p><span class=\"greenText\"><b>Successful harvest!</b></span><br>Your pay has increased by $0.02. Your bonus pay is now $0.66.</p>\n            ","response":0,"trial_type":"html-button-response","trial_index":42,"time_elapsed":229495,"internal_node_id":"0.0-4.0-1.15","subject_id":"603b0cceef3baf7b6df2d475","study_id":"60edd13110225f80f9f3709b","session_id":"6196c1f3f80dba5807c38987","condition":"full-information","relevant_dimensions":["antennae","pattern"],"bee_group":{"antennae":"B","wings":"X","pattern":"D","legs":"X"},"bonus":1.1200000000000008},{"rt":621.6999999955297,"stimulus":"bees-with-color/bee-A2SF.svg","response":0,"trial_type":"image-button-response","trial_index":43,"time_elapsed":230117,"internal_node_id":"0.0-4.0-0.16","subject_id":"603b0cceef3baf7b6df2d475","study_id":"60edd13110225f80f9f3709b","session_id":"6196c1f3f80dba5807c38987","condition":"full-information","relevant_dimensions":["antennae","pattern"],"bee_group":{"antennae":"B","wings":"X","pattern":"D","legs":"X"},"action":"harvest","summary":"good-harvest","bonus":1.1200000000000008},{"rt":746.3000000044703,"stimulus":"\n                    <p><b>Action: <em>harvest</em></b></p>\n                    <p>This is the bee that you just saw.</p>\n                    <img src=\"bees-with-color/bee-A2SF.svg\" width=\"200\">\n                    <p><span class=\"greenText\"><b>Successful harvest!</b></span><br>Your pay has increased by $0.02. Your bonus pay is now $0.68.</p>\n            ","response":0,"trial_type":"html-button-response","trial_index":44,"time_elapsed":230865,"internal_node_id":"0.0-4.0-1.16","subject_id":"603b0cceef3baf7b6df2d475","study_id":"60edd13110225f80f9f3709b","session_id":"6196c1f3f80dba5807c38987","condition":"full-information","relevant_dimensions":["antennae","pattern"],"bee_group":{"antennae":"B","wings":"X","pattern":"D","legs":"X"},"bonus":1.1200000000000008},{"rt":747.8999999985099,"stimulus":"bees-with-color/bee-A2DM.svg","response":1,"trial_type":"image-button-response","trial_index":45,"time_elapsed":231613,"internal_node_id":"0.0-4.0-0.17","subject_id":"603b0cceef3baf7b6df2d475","study_id":"60edd13110225f80f9f3709b","session_id":"6196c1f3f80dba5807c38987","condition":"full-information","relevant_dimensions":["antennae","pattern"],"bee_group":{"antennae":"B","wings":"X","pattern":"D","legs":"X"},"action":"avoid","summary":"bad-avoid","bonus":1.1200000000000008},{"rt":850.2000000029802,"stimulus":"\n                    <p><b>Action: <em>avoid</em></b></p>\n                    <p>This is the bee that you just saw.</p>\n                    <img src=\"bees-with-color/bee-A2DM.svg\" width=\"200\">\n                    <p><span class=\"redText\">Bad choice,</span> the bee was friendly.<br>Your bonus pay is unchanged, and remains at $0.68.</p>\n            ","response":0,"trial_type":"html-button-response","trial_index":46,"time_elapsed":232465,"internal_node_id":"0.0-4.0-1.17","subject_id":"603b0cceef3baf7b6df2d475","study_id":"60edd13110225f80f9f3709b","session_id":"6196c1f3f80dba5807c38987","condition":"full-information","relevant_dimensions":["antennae","pattern"],"bee_group":{"antennae":"B","wings":"X","pattern":"D","legs":"X"},"bonus":1.1200000000000008},{"rt":698.1000000014901,"stimulus":"bees-with-color/bee-B2SM.svg","response":0,"trial_type":"image-button-response","trial_index":47,"time_elapsed":233164,"internal_node_id":"0.0-4.0-0.18","subject_id":"603b0cceef3baf7b6df2d475","study_id":"60edd13110225f80f9f3709b","session_id":"6196c1f3f80dba5807c38987","condition":"full-information","relevant_dimensions":["antennae","pattern"],"bee_group":{"antennae":"B","wings":"X","pattern":"D","legs":"X"},"action":"harvest","summary":"good-harvest","bonus":1.1200000000000008},{"rt":906,"stimulus":"\n                    <p><b>Action: <em>harvest</em></b></p>\n                    <p>This is the bee that you just saw.</p>\n                    <img src=\"bees-with-color/bee-B2SM.svg\" width=\"200\">\n                    <p><span class=\"greenText\"><b>Successful harvest!</b></span><br>Your pay has increased by $0.02. Your bonus pay is now $0.70.</p>\n            ","response":0,"trial_type":"html-button-response","trial_index":48,"time_elapsed":234071,"internal_node_id":"0.0-4.0-1.18","subject_id":"603b0cceef3baf7b6df2d475","study_id":"60edd13110225f80f9f3709b","session_id":"6196c1f3f80dba5807c38987","condition":"full-information","relevant_dimensions":["antennae","pattern"],"bee_group":{"antennae":"B","wings":"X","pattern":"D","legs":"X"},"bonus":1.1200000000000008},{"rt":917.2000000029802,"stimulus":"bees-with-color/bee-B2DM.svg","response":0,"trial_type":"image-button-response","trial_index":49,"time_elapsed":234989,"internal_node_id":"0.0-4.0-0.19","subject_id":"603b0cceef3baf7b6df2d475","study_id":"60edd13110225f80f9f3709b","session_id":"6196c1f3f80dba5807c38987","condition":"full-information","relevant_dimensions":["antennae","pattern"],"bee_group":{"antennae":"B","wings":"X","pattern":"D","legs":"X"},"action":"harvest","summary":"bad-harvest","bonus":1.1200000000000008},{"rt":942.1000000014901,"stimulus":"\n                    <p><b>Action: <em>harvest</em></b></p>\n                    <p>This is the bee that you just saw.</p>\n                    <img src=\"bees-with-color/bee-B2DM.svg\" width=\"200\">\n                    <p><span class=\"redText\">Bad choice, the bee was angry.</span><br><b>You have been stung!</b><br>Your pay has been decreased by $0.10. Your bonus pay is now $0.60.</p>\n            ","response":0,"trial_type":"html-button-response","trial_index":50,"time_elapsed":235932,"internal_node_id":"0.0-4.0-1.19","subject_id":"603b0cceef3baf7b6df2d475","study_id":"60edd13110225f80f9f3709b","session_id":"6196c1f3f80dba5807c38987","condition":"full-information","relevant_dimensions":["antennae","pattern"],"bee_group":{"antennae":"B","wings":"X","pattern":"D","legs":"X"},"bonus":1.1200000000000008},{"rt":1368.8999999985099,"stimulus":"bees-with-color/bee-A2DF.svg","response":1,"trial_type":"image-button-response","trial_index":51,"time_elapsed":237302,"internal_node_id":"0.0-4.0-0.20","subject_id":"603b0cceef3baf7b6df2d475","study_id":"60edd13110225f80f9f3709b","session_id":"6196c1f3f80dba5807c38987","condition":"full-information","relevant_dimensions":["antennae","pattern"],"bee_group":{"antennae":"B","wings":"X","pattern":"D","legs":"X"},"action":"avoid","summary":"bad-avoid","bonus":1.1200000000000008},{"rt":764.8999999985099,"stimulus":"\n                    <p><b>Action: <em>avoid</em></b></p>\n                    <p>This is the bee that you just saw.</p>\n                    <img src=\"bees-with-color/bee-A2DF.svg\" width=\"200\">\n                    <p><span class=\"redText\">Bad choice,</span> the bee was friendly.<br>Your bonus pay is unchanged, and remains at $0.60.</p>\n            ","response":0,"trial_type":"html-button-response","trial_index":52,"time_elapsed":238068,"internal_node_id":"0.0-4.0-1.20","subject_id":"603b0cceef3baf7b6df2d475","study_id":"60edd13110225f80f9f3709b","session_id":"6196c1f3f80dba5807c38987","condition":"full-information","relevant_dimensions":["antennae","pattern"],"bee_group":{"antennae":"B","wings":"X","pattern":"D","legs":"X"},"bonus":1.1200000000000008},{"rt":1977,"stimulus":"bees-with-color/bee-B1DM.svg","response":0,"trial_type":"image-button-response","trial_index":53,"time_elapsed":240046,"internal_node_id":"0.0-4.0-0.21","subject_id":"603b0cceef3baf7b6df2d475","study_id":"60edd13110225f80f9f3709b","session_id":"6196c1f3f80dba5807c38987","condition":"full-information","relevant_dimensions":["antennae","pattern"],"bee_group":{"antennae":"B","wings":"X","pattern":"D","legs":"X"},"action":"harvest","summary":"bad-harvest","bonus":1.1200000000000008},{"rt":939,"stimulus":"\n                    <p><b>Action: <em>harvest</em></b></p>\n                    <p>This is the bee that you just saw.</p>\n                    <img src=\"bees-with-color/bee-B1DM.svg\" width=\"200\">\n                    <p><span class=\"redText\">Bad choice, the bee was angry.</span><br><b>You have been stung!</b><br>Your pay has been decreased by $0.10. Your bonus pay is now $0.50.</p>\n            ","response":0,"trial_type":"html-button-response","trial_index":54,"time_elapsed":240986,"internal_node_id":"0.0-4.0-1.21","subject_id":"603b0cceef3baf7b6df2d475","study_id":"60edd13110225f80f9f3709b","session_id":"6196c1f3f80dba5807c38987","condition":"full-information","relevant_dimensions":["antennae","pattern"],"bee_group":{"antennae":"B","wings":"X","pattern":"D","legs":"X"},"bonus":1.1200000000000008},{"rt":1154.8000000044703,"stimulus":"bees-with-color/bee-B1SF.svg","response":1,"trial_type":"image-button-response","trial_index":55,"time_elapsed":242141,"internal_node_id":"0.0-4.0-0.22","subject_id":"603b0cceef3baf7b6df2d475","study_id":"60edd13110225f80f9f3709b","session_id":"6196c1f3f80dba5807c38987","condition":"full-information","relevant_dimensions":["antennae","pattern"],"bee_group":{"antennae":"B","wings":"X","pattern":"D","legs":"X"},"action":"avoid","summary":"bad-avoid","bonus":1.1200000000000008},{"rt":1420.1000000014901,"stimulus":"\n                    <p><b>Action: <em>avoid</em></b></p>\n                    <p>This is the bee that you just saw.</p>\n                    <img src=\"bees-with-color/bee-B1SF.svg\" width=\"200\">\n                    <p><span class=\"redText\">Bad choice,</span> the bee was friendly.<br>Your bonus pay is unchanged, and remains at $0.50.</p>\n            ","response":0,"trial_type":"html-button-response","trial_index":56,"time_elapsed":243563,"internal_node_id":"0.0-4.0-1.22","subject_id":"603b0cceef3baf7b6df2d475","study_id":"60edd13110225f80f9f3709b","session_id":"6196c1f3f80dba5807c38987","condition":"full-information","relevant_dimensions":["antennae","pattern"],"bee_group":{"antennae":"B","wings":"X","pattern":"D","legs":"X"},"bonus":1.1200000000000008},{"rt":1208.7999999970198,"stimulus":"bees-with-color/bee-A2SM.svg","response":0,"trial_type":"image-button-response","trial_index":57,"time_elapsed":244772,"internal_node_id":"0.0-4.0-0.23","subject_id":"603b0cceef3baf7b6df2d475","study_id":"60edd13110225f80f9f3709b","session_id":"6196c1f3f80dba5807c38987","condition":"full-information","relevant_dimensions":["antennae","pattern"],"bee_group":{"antennae":"B","wings":"X","pattern":"D","legs":"X"},"action":"harvest","summary":"good-harvest","bonus":1.1200000000000008},{"rt":703.3000000044703,"stimulus":"\n                    <p><b>Action: <em>harvest</em></b></p>\n                    <p>This is the bee that you just saw.</p>\n                    <img src=\"bees-with-color/bee-A2SM.svg\" width=\"200\">\n                    <p><span class=\"greenText\"><b>Successful harvest!</b></span><br>Your pay has increased by $0.02. Your bonus pay is now $0.52.</p>\n            ","response":0,"trial_type":"html-button-response","trial_index":58,"time_elapsed":245476,"internal_node_id":"0.0-4.0-1.23","subject_id":"603b0cceef3baf7b6df2d475","study_id":"60edd13110225f80f9f3709b","session_id":"6196c1f3f80dba5807c38987","condition":"full-information","relevant_dimensions":["antennae","pattern"],"bee_group":{"antennae":"B","wings":"X","pattern":"D","legs":"X"},"bonus":1.1200000000000008},{"rt":1149.2000000029802,"stimulus":"bees-with-color/bee-A1DF.svg","response":1,"trial_type":"image-button-response","trial_index":59,"time_elapsed":246627,"internal_node_id":"0.0-4.0-0.24","subject_id":"603b0cceef3baf7b6df2d475","study_id":"60edd13110225f80f9f3709b","session_id":"6196c1f3f80dba5807c38987","condition":"full-information","relevant_dimensions":["antennae","pattern"],"bee_group":{"antennae":"B","wings":"X","pattern":"D","legs":"X"},"action":"avoid","summary":"bad-avoid","bonus":1.1200000000000008},{"rt":645,"stimulus":"\n                    <p><b>Action: <em>avoid</em></b></p>\n                    <p>This is the bee that you just saw.</p>\n                    <img src=\"bees-with-color/bee-A1DF.svg\" width=\"200\">\n                    <p><span class=\"redText\">Bad choice,</span> the bee was friendly.<br>Your bonus pay is unchanged, and remains at $0.52.</p>\n            ","response":0,"trial_type":"html-button-response","trial_index":60,"time_elapsed":247272,"internal_node_id":"0.0-4.0-1.24","subject_id":"603b0cceef3baf7b6df2d475","study_id":"60edd13110225f80f9f3709b","session_id":"6196c1f3f80dba5807c38987","condition":"full-information","relevant_dimensions":["antennae","pattern"],"bee_group":{"antennae":"B","wings":"X","pattern":"D","legs":"X"},"bonus":1.1200000000000008},{"rt":1223.1000000014901,"stimulus":"bees-with-color/bee-A1SM.svg","response":0,"trial_type":"image-button-response","trial_index":61,"time_elapsed":248496,"internal_node_id":"0.0-4.0-0.25","subject_id":"603b0cceef3baf7b6df2d475","study_id":"60edd13110225f80f9f3709b","session_id":"6196c1f3f80dba5807c38987","condition":"full-information","relevant_dimensions":["antennae","pattern"],"bee_group":{"antennae":"B","wings":"X","pattern":"D","legs":"X"},"action":"harvest","summary":"good-harvest","bonus":1.1200000000000008},{"rt":696.1000000014901,"stimulus":"\n                    <p><b>Action: <em>harvest</em></b></p>\n                    <p>This is the bee that you just saw.</p>\n                    <img src=\"bees-with-color/bee-A1SM.svg\" width=\"200\">\n                    <p><span class=\"greenText\"><b>Successful harvest!</b></span><br>Your pay has increased by $0.02. Your bonus pay is now $0.54.</p>\n            ","response":0,"trial_type":"html-button-response","trial_index":62,"time_elapsed":249193,"internal_node_id":"0.0-4.0-1.25","subject_id":"603b0cceef3baf7b6df2d475","study_id":"60edd13110225f80f9f3709b","session_id":"6196c1f3f80dba5807c38987","condition":"full-information","relevant_dimensions":["antennae","pattern"],"bee_group":{"antennae":"B","wings":"X","pattern":"D","legs":"X"},"bonus":1.1200000000000008},{"rt":1382.3000000044703,"stimulus":"bees-with-color/bee-B1DF.svg","response":1,"trial_type":"image-button-response","trial_index":63,"time_elapsed":250577,"internal_node_id":"0.0-4.0-0.26","subject_id":"603b0cceef3baf7b6df2d475","study_id":"60edd13110225f80f9f3709b","session_id":"6196c1f3f80dba5807c38987","condition":"full-information","relevant_dimensions":["antennae","pattern"],"bee_group":{"antennae":"B","wings":"X","pattern":"D","legs":"X"},"action":"avoid","summary":"good-avoid","bonus":1.1200000000000008},{"rt":739.8999999985099,"stimulus":"\n                    <p><b>Action: <em>avoid</em></b></p>\n                    <p>This is the bee that you just saw.</p>\n                    <img src=\"bees-with-color/bee-B1DF.svg\" width=\"200\">\n                    <p><span class=\"greenText\">Good choice!</span>  This bee would have stung you.<br>Your bonus pay is unchanged, and remains at $0.54.</p>\n            ","response":0,"trial_type":"html-button-response","trial_index":64,"time_elapsed":251318,"internal_node_id":"0.0-4.0-1.26","subject_id":"603b0cceef3baf7b6df2d475","study_id":"60edd13110225f80f9f3709b","session_id":"6196c1f3f80dba5807c38987","condition":"full-information","relevant_dimensions":["antennae","pattern"],"bee_group":{"antennae":"B","wings":"X","pattern":"D","legs":"X"},"bonus":1.1200000000000008},{"rt":1455,"stimulus":"bees-with-color/bee-B2DF.svg","response":1,"trial_type":"image-button-response","trial_index":65,"time_elapsed":252774,"internal_node_id":"0.0-4.0-0.27","subject_id":"603b0cceef3baf7b6df2d475","study_id":"60edd13110225f80f9f3709b","session_id":"6196c1f3f80dba5807c38987","condition":"full-information","relevant_dimensions":["antennae","pattern"],"bee_group":{"antennae":"B","wings":"X","pattern":"D","legs":"X"},"action":"avoid","summary":"good-avoid","bonus":1.1200000000000008},{"rt":623.8999999985099,"stimulus":"\n                    <p><b>Action: <em>avoid</em></b></p>\n                    <p>This is the bee that you just saw.</p>\n                    <img src=\"bees-with-color/bee-B2DF.svg\" width=\"200\">\n                    <p><span class=\"greenText\">Good choice!</span>  This bee would have stung you.<br>Your bonus pay is unchanged, and remains at $0.54.</p>\n            ","response":0,"trial_type":"html-button-response","trial_index":66,"time_elapsed":253398,"internal_node_id":"0.0-4.0-1.27","subject_id":"603b0cceef3baf7b6df2d475","study_id":"60edd13110225f80f9f3709b","session_id":"6196c1f3f80dba5807c38987","condition":"full-information","relevant_dimensions":["antennae","pattern"],"bee_group":{"antennae":"B","wings":"X","pattern":"D","legs":"X"},"bonus":1.1200000000000008},{"rt":1188.1000000014901,"stimulus":"bees-with-color/bee-B2SF.svg","response":0,"trial_type":"image-button-response","trial_index":67,"time_elapsed":254587,"internal_node_id":"0.0-4.0-0.28","subject_id":"603b0cceef3baf7b6df2d475","study_id":"60edd13110225f80f9f3709b","session_id":"6196c1f3f80dba5807c38987","condition":"full-information","relevant_dimensions":["antennae","pattern"],"bee_group":{"antennae":"B","wings":"X","pattern":"D","legs":"X"},"action":"harvest","summary":"good-harvest","bonus":1.1200000000000008},{"rt":576,"stimulus":"\n                    <p><b>Action: <em>harvest</em></b></p>\n                    <p>This is the bee that you just saw.</p>\n                    <img src=\"bees-with-color/bee-B2SF.svg\" width=\"200\">\n                    <p><span class=\"greenText\"><b>Successful harvest!</b></span><br>Your pay has increased by $0.02. Your bonus pay is now $0.56.</p>\n            ","response":0,"trial_type":"html-button-response","trial_index":68,"time_elapsed":255164,"internal_node_id":"0.0-4.0-1.28","subject_id":"603b0cceef3baf7b6df2d475","study_id":"60edd13110225f80f9f3709b","session_id":"6196c1f3f80dba5807c38987","condition":"full-information","relevant_dimensions":["antennae","pattern"],"bee_group":{"antennae":"B","wings":"X","pattern":"D","legs":"X"},"bonus":1.1200000000000008},{"rt":2258.5,"stimulus":"bees-with-color/bee-B1SM.svg","response":0,"trial_type":"image-button-response","trial_index":69,"time_elapsed":257424,"internal_node_id":"0.0-4.0-0.29","subject_id":"603b0cceef3baf7b6df2d475","study_id":"60edd13110225f80f9f3709b","session_id":"6196c1f3f80dba5807c38987","condition":"full-information","relevant_dimensions":["antennae","pattern"],"bee_group":{"antennae":"B","wings":"X","pattern":"D","legs":"X"},"action":"harvest","summary":"good-harvest","bonus":1.1200000000000008},{"rt":595.8999999985099,"stimulus":"\n                    <p><b>Action: <em>harvest</em></b></p>\n                    <p>This is the bee that you just saw.</p>\n                    <img src=\"bees-with-color/bee-B1SM.svg\" width=\"200\">\n                    <p><span class=\"greenText\"><b>Successful harvest!</b></span><br>Your pay has increased by $0.02. Your bonus pay is now $0.58.</p>\n            ","response":0,"trial_type":"html-button-response","trial_index":70,"time_elapsed":258020,"internal_node_id":"0.0-4.0-1.29","subject_id":"603b0cceef3baf7b6df2d475","study_id":"60edd13110225f80f9f3709b","session_id":"6196c1f3f80dba5807c38987","condition":"full-information","relevant_dimensions":["antennae","pattern"],"bee_group":{"antennae":"B","wings":"X","pattern":"D","legs":"X"},"bonus":1.1200000000000008},{"rt":2482,"stimulus":"bees-with-color/bee-A1DM.svg","response":1,"trial_type":"image-button-response","trial_index":71,"time_elapsed":260503,"internal_node_id":"0.0-4.0-0.30","subject_id":"603b0cceef3baf7b6df2d475","study_id":"60edd13110225f80f9f3709b","session_id":"6196c1f3f80dba5807c38987","condition":"full-information","relevant_dimensions":["antennae","pattern"],"bee_group":{"antennae":"B","wings":"X","pattern":"D","legs":"X"},"action":"avoid","summary":"bad-avoid","bonus":1.1200000000000008},{"rt":1390.3000000044703,"stimulus":"\n                    <p><b>Action: <em>avoid</em></b></p>\n                    <p>This is the bee that you just saw.</p>\n                    <img src=\"bees-with-color/bee-A1DM.svg\" width=\"200\">\n                    <p><span class=\"redText\">Bad choice,</span> the bee was friendly.<br>Your bonus pay is unchanged, and remains at $0.58.</p>\n            ","response":0,"trial_type":"html-button-response","trial_index":72,"time_elapsed":261895,"internal_node_id":"0.0-4.0-1.30","subject_id":"603b0cceef3baf7b6df2d475","study_id":"60edd13110225f80f9f3709b","session_id":"6196c1f3f80dba5807c38987","condition":"full-information","relevant_dimensions":["antennae","pattern"],"bee_group":{"antennae":"B","wings":"X","pattern":"D","legs":"X"},"bonus":1.1200000000000008},{"rt":1789,"stimulus":"bees-with-color/bee-A1SF.svg","response":1,"trial_type":"image-button-response","trial_index":73,"time_elapsed":263685,"internal_node_id":"0.0-4.0-0.31","subject_id":"603b0cceef3baf7b6df2d475","study_id":"60edd13110225f80f9f3709b","session_id":"6196c1f3f80dba5807c38987","condition":"full-information","relevant_dimensions":["antennae","pattern"],"bee_group":{"antennae":"B","wings":"X","pattern":"D","legs":"X"},"action":"avoid","summary":"bad-avoid","bonus":1.1200000000000008},{"rt":903,"stimulus":"\n                    <p><b>Action: <em>avoid</em></b></p>\n                    <p>This is the bee that you just saw.</p>\n                    <img src=\"bees-with-color/bee-A1SF.svg\" width=\"200\">\n                    <p><span class=\"redText\">Bad choice,</span> the bee was friendly.<br>Your bonus pay is unchanged, and remains at $0.58.</p>\n            ","response":0,"trial_type":"html-button-response","trial_index":74,"time_elapsed":264588,"internal_node_id":"0.0-4.0-1.31","subject_id":"603b0cceef3baf7b6df2d475","study_id":"60edd13110225f80f9f3709b","session_id":"6196c1f3f80dba5807c38987","condition":"full-information","relevant_dimensions":["antennae","pattern"],"bee_group":{"antennae":"B","wings":"X","pattern":"D","legs":"X"},"bonus":1.1200000000000008},{"rt":1530.1000000014901,"stimulus":"bees-with-color/bee-A2SF.svg","response":1,"trial_type":"image-button-response","trial_index":75,"time_elapsed":266119,"internal_node_id":"0.0-4.0-0.32","subject_id":"603b0cceef3baf7b6df2d475","study_id":"60edd13110225f80f9f3709b","session_id":"6196c1f3f80dba5807c38987","condition":"full-information","relevant_dimensions":["antennae","pattern"],"bee_group":{"antennae":"B","wings":"X","pattern":"D","legs":"X"},"action":"avoid","summary":"bad-avoid","bonus":1.1200000000000008},{"rt":546.8999999985099,"stimulus":"\n                    <p><b>Action: <em>avoid</em></b></p>\n                    <p>This is the bee that you just saw.</p>\n                    <img src=\"bees-with-color/bee-A2SF.svg\" width=\"200\">\n                    <p><span class=\"redText\">Bad choice,</span> the bee was friendly.<br>Your bonus pay is unchanged, and remains at $0.58.</p>\n            ","response":0,"trial_type":"html-button-response","trial_index":76,"time_elapsed":266667,"internal_node_id":"0.0-4.0-1.32","subject_id":"603b0cceef3baf7b6df2d475","study_id":"60edd13110225f80f9f3709b","session_id":"6196c1f3f80dba5807c38987","condition":"full-information","relevant_dimensions":["antennae","pattern"],"bee_group":{"antennae":"B","wings":"X","pattern":"D","legs":"X"},"bonus":1.1200000000000008},{"rt":1197.2000000029802,"stimulus":"bees-with-color/bee-A1DF.svg","response":1,"trial_type":"image-button-response","trial_index":77,"time_elapsed":267866,"internal_node_id":"0.0-4.0-0.33","subject_id":"603b0cceef3baf7b6df2d475","study_id":"60edd13110225f80f9f3709b","session_id":"6196c1f3f80dba5807c38987","condition":"full-information","relevant_dimensions":["antennae","pattern"],"bee_group":{"antennae":"B","wings":"X","pattern":"D","legs":"X"},"action":"avoid","summary":"bad-avoid","bonus":1.1200000000000008},{"rt":501.79999999701977,"stimulus":"\n                    <p><b>Action: <em>avoid</em></b></p>\n                    <p>This is the bee that you just saw.</p>\n                    <img src=\"bees-with-color/bee-A1DF.svg\" width=\"200\">\n                    <p><span class=\"redText\">Bad choice,</span> the bee was friendly.<br>Your bonus pay is unchanged, and remains at $0.58.</p>\n            ","response":0,"trial_type":"html-button-response","trial_index":78,"time_elapsed":268368,"internal_node_id":"0.0-4.0-1.33","subject_id":"603b0cceef3baf7b6df2d475","study_id":"60edd13110225f80f9f3709b","session_id":"6196c1f3f80dba5807c38987","condition":"full-information","relevant_dimensions":["antennae","pattern"],"bee_group":{"antennae":"B","wings":"X","pattern":"D","legs":"X"},"bonus":1.1200000000000008},{"rt":1275.1000000014901,"stimulus":"bees-with-color/bee-A2DM.svg","response":0,"trial_type":"image-button-response","trial_index":79,"time_elapsed":269645,"internal_node_id":"0.0-4.0-0.34","subject_id":"603b0cceef3baf7b6df2d475","study_id":"60edd13110225f80f9f3709b","session_id":"6196c1f3f80dba5807c38987","condition":"full-information","relevant_dimensions":["antennae","pattern"],"bee_group":{"antennae":"B","wings":"X","pattern":"D","legs":"X"},"action":"harvest","summary":"good-harvest","bonus":1.1200000000000008},{"rt":582,"stimulus":"\n                    <p><b>Action: <em>harvest</em></b></p>\n                    <p>This is the bee that you just saw.</p>\n                    <img src=\"bees-with-color/bee-A2DM.svg\" width=\"200\">\n                    <p><span class=\"greenText\"><b>Successful harvest!</b></span><br>Your pay has increased by $0.02. Your bonus pay is now $0.60.</p>\n            ","response":0,"trial_type":"html-button-response","trial_index":80,"time_elapsed":270227,"internal_node_id":"0.0-4.0-1.34","subject_id":"603b0cceef3baf7b6df2d475","study_id":"60edd13110225f80f9f3709b","session_id":"6196c1f3f80dba5807c38987","condition":"full-information","relevant_dimensions":["antennae","pattern"],"bee_group":{"antennae":"B","wings":"X","pattern":"D","legs":"X"},"bonus":1.1200000000000008},{"rt":1305,"stimulus":"bees-with-color/bee-A1SF.svg","response":1,"trial_type":"image-button-response","trial_index":81,"time_elapsed":271533,"internal_node_id":"0.0-4.0-0.35","subject_id":"603b0cceef3baf7b6df2d475","study_id":"60edd13110225f80f9f3709b","session_id":"6196c1f3f80dba5807c38987","condition":"full-information","relevant_dimensions":["antennae","pattern"],"bee_group":{"antennae":"B","wings":"X","pattern":"D","legs":"X"},"action":"avoid","summary":"bad-avoid","bonus":1.1200000000000008},{"rt":932.8999999985099,"stimulus":"\n                    <p><b>Action: <em>avoid</em></b></p>\n                    <p>This is the bee that you just saw.</p>\n                    <img src=\"bees-with-color/bee-A1SF.svg\" width=\"200\">\n                    <p><span class=\"redText\">Bad choice,</span> the bee was friendly.<br>Your bonus pay is unchanged, and remains at $0.60.</p>\n            ","response":0,"trial_type":"html-button-response","trial_index":82,"time_elapsed":272467,"internal_node_id":"0.0-4.0-1.35","subject_id":"603b0cceef3baf7b6df2d475","study_id":"60edd13110225f80f9f3709b","session_id":"6196c1f3f80dba5807c38987","condition":"full-information","relevant_dimensions":["antennae","pattern"],"bee_group":{"antennae":"B","wings":"X","pattern":"D","legs":"X"},"bonus":1.1200000000000008},{"rt":836.2000000029802,"stimulus":"bees-with-color/bee-A2SM.svg","response":0,"trial_type":"image-button-response","trial_index":83,"time_elapsed":273304,"internal_node_id":"0.0-4.0-0.36","subject_id":"603b0cceef3baf7b6df2d475","study_id":"60edd13110225f80f9f3709b","session_id":"6196c1f3f80dba5807c38987","condition":"full-information","relevant_dimensions":["antennae","pattern"],"bee_group":{"antennae":"B","wings":"X","pattern":"D","legs":"X"},"action":"harvest","summary":"good-harvest","bonus":1.1200000000000008},{"rt":669.2000000029802,"stimulus":"\n                    <p><b>Action: <em>harvest</em></b></p>\n                    <p>This is the bee that you just saw.</p>\n                    <img src=\"bees-with-color/bee-A2SM.svg\" width=\"200\">\n                    <p><span class=\"greenText\"><b>Successful harvest!</b></span><br>Your pay has increased by $0.02. Your bonus pay is now $0.62.</p>\n            ","response":0,"trial_type":"html-button-response","trial_index":84,"time_elapsed":273975,"internal_node_id":"0.0-4.0-1.36","subject_id":"603b0cceef3baf7b6df2d475","study_id":"60edd13110225f80f9f3709b","session_id":"6196c1f3f80dba5807c38987","condition":"full-information","relevant_dimensions":["antennae","pattern"],"bee_group":{"antennae":"B","wings":"X","pattern":"D","legs":"X"},"bonus":1.1200000000000008},{"rt":956.1000000014901,"stimulus":"bees-with-color/bee-B1DF.svg","response":1,"trial_type":"image-button-response","trial_index":85,"time_elapsed":274932,"internal_node_id":"0.0-4.0-0.37","subject_id":"603b0cceef3baf7b6df2d475","study_id":"60edd13110225f80f9f3709b","session_id":"6196c1f3f80dba5807c38987","condition":"full-information","relevant_dimensions":["antennae","pattern"],"bee_group":{"antennae":"B","wings":"X","pattern":"D","legs":"X"},"action":"avoid","summary":"good-avoid","bonus":1.1200000000000008},{"rt":624.1000000014901,"stimulus":"\n                    <p><b>Action: <em>avoid</em></b></p>\n                    <p>This is the bee that you just saw.</p>\n                    <img src=\"bees-with-color/bee-B1DF.svg\" width=\"200\">\n                    <p><span class=\"greenText\">Good choice!</span>  This bee would have stung you.<br>Your bonus pay is unchanged, and remains at $0.62.</p>\n            ","response":0,"trial_type":"html-button-response","trial_index":86,"time_elapsed":275557,"internal_node_id":"0.0-4.0-1.37","subject_id":"603b0cceef3baf7b6df2d475","study_id":"60edd13110225f80f9f3709b","session_id":"6196c1f3f80dba5807c38987","condition":"full-information","relevant_dimensions":["antennae","pattern"],"bee_group":{"antennae":"B","wings":"X","pattern":"D","legs":"X"},"bonus":1.1200000000000008},{"rt":1389.1000000014901,"stimulus":"bees-with-color/bee-B2DF.svg","response":1,"trial_type":"image-button-response","trial_index":87,"time_elapsed":276946,"internal_node_id":"0.0-4.0-0.38","subject_id":"603b0cceef3baf7b6df2d475","study_id":"60edd13110225f80f9f3709b","session_id":"6196c1f3f80dba5807c38987","condition":"full-information","relevant_dimensions":["antennae","pattern"],"bee_group":{"antennae":"B","wings":"X","pattern":"D","legs":"X"},"action":"avoid","summary":"good-avoid","bonus":1.1200000000000008},{"rt":954.1000000014901,"stimulus":"\n                    <p><b>Action: <em>avoid</em></b></p>\n                    <p>This is the bee that you just saw.</p>\n                    <img src=\"bees-with-color/bee-B2DF.svg\" width=\"200\">\n                    <p><span class=\"greenText\">Good choice!</span>  This bee would have stung you.<br>Your bonus pay is unchanged, and remains at $0.62.</p>\n            ","response":0,"trial_type":"html-button-response","trial_index":88,"time_elapsed":277902,"internal_node_id":"0.0-4.0-1.38","subject_id":"603b0cceef3baf7b6df2d475","study_id":"60edd13110225f80f9f3709b","session_id":"6196c1f3f80dba5807c38987","condition":"full-information","relevant_dimensions":["antennae","pattern"],"bee_group":{"antennae":"B","wings":"X","pattern":"D","legs":"X"},"bonus":1.1200000000000008},{"rt":849,"stimulus":"bees-with-color/bee-A1SM.svg","response":1,"trial_type":"image-button-response","trial_index":89,"time_elapsed":278752,"internal_node_id":"0.0-4.0-0.39","subject_id":"603b0cceef3baf7b6df2d475","study_id":"60edd13110225f80f9f3709b","session_id":"6196c1f3f80dba5807c38987","condition":"full-information","relevant_dimensions":["antennae","pattern"],"bee_group":{"antennae":"B","wings":"X","pattern":"D","legs":"X"},"action":"avoid","summary":"bad-avoid","bonus":1.1200000000000008},{"rt":803,"stimulus":"\n                    <p><b>Action: <em>avoid</em></b></p>\n                    <p>This is the bee that you just saw.</p>\n                    <img src=\"bees-with-color/bee-A1SM.svg\" width=\"200\">\n                    <p><span class=\"redText\">Bad choice,</span> the bee was friendly.<br>Your bonus pay is unchanged, and remains at $0.62.</p>\n            ","response":0,"trial_type":"html-button-response","trial_index":90,"time_elapsed":279556,"internal_node_id":"0.0-4.0-1.39","subject_id":"603b0cceef3baf7b6df2d475","study_id":"60edd13110225f80f9f3709b","session_id":"6196c1f3f80dba5807c38987","condition":"full-information","relevant_dimensions":["antennae","pattern"],"bee_group":{"antennae":"B","wings":"X","pattern":"D","legs":"X"},"bonus":1.1200000000000008},{"rt":2961.60000000149,"stimulus":"bees-with-color/bee-B2SM.svg","response":0,"trial_type":"image-button-response","trial_index":91,"time_elapsed":282519,"internal_node_id":"0.0-4.0-0.40","subject_id":"603b0cceef3baf7b6df2d475","study_id":"60edd13110225f80f9f3709b","session_id":"6196c1f3f80dba5807c38987","condition":"full-information","relevant_dimensions":["antennae","pattern"],"bee_group":{"antennae":"B","wings":"X","pattern":"D","legs":"X"},"action":"harvest","summary":"good-harvest","bonus":1.1200000000000008},{"rt":651.7000000029802,"stimulus":"\n                    <p><b>Action: <em>harvest</em></b></p>\n                    <p>This is the bee that you just saw.</p>\n                    <img src=\"bees-with-color/bee-B2SM.svg\" width=\"200\">\n                    <p><span class=\"greenText\"><b>Successful harvest!</b></span><br>Your pay has increased by $0.02. Your bonus pay is now $0.64.</p>\n            ","response":0,"trial_type":"html-button-response","trial_index":92,"time_elapsed":283171,"internal_node_id":"0.0-4.0-1.40","subject_id":"603b0cceef3baf7b6df2d475","study_id":"60edd13110225f80f9f3709b","session_id":"6196c1f3f80dba5807c38987","condition":"full-information","relevant_dimensions":["antennae","pattern"],"bee_group":{"antennae":"B","wings":"X","pattern":"D","legs":"X"},"bonus":1.1200000000000008},{"rt":1550.3000000044703,"stimulus":"bees-with-color/bee-B1DM.svg","response":1,"trial_type":"image-button-response","trial_index":93,"time_elapsed":284723,"internal_node_id":"0.0-4.0-0.41","subject_id":"603b0cceef3baf7b6df2d475","study_id":"60edd13110225f80f9f3709b","session_id":"6196c1f3f80dba5807c38987","condition":"full-information","relevant_dimensions":["antennae","pattern"],"bee_group":{"antennae":"B","wings":"X","pattern":"D","legs":"X"},"action":"avoid","summary":"good-avoid","bonus":1.1200000000000008},{"rt":1065,"stimulus":"\n                    <p><b>Action: <em>avoid</em></b></p>\n                    <p>This is the bee that you just saw.</p>\n                    <img src=\"bees-with-color/bee-B1DM.svg\" width=\"200\">\n                    <p><span class=\"greenText\">Good choice!</span>  This bee would have stung you.<br>Your bonus pay is unchanged, and remains at $0.64.</p>\n            ","response":0,"trial_type":"html-button-response","trial_index":94,"time_elapsed":285789,"internal_node_id":"0.0-4.0-1.41","subject_id":"603b0cceef3baf7b6df2d475","study_id":"60edd13110225f80f9f3709b","session_id":"6196c1f3f80dba5807c38987","condition":"full-information","relevant_dimensions":["antennae","pattern"],"bee_group":{"antennae":"B","wings":"X","pattern":"D","legs":"X"},"bonus":1.1200000000000008},{"rt":3561.60000000149,"stimulus":"bees-with-color/bee-A2DF.svg","response":1,"trial_type":"image-button-response","trial_index":95,"time_elapsed":289351,"internal_node_id":"0.0-4.0-0.42","subject_id":"603b0cceef3baf7b6df2d475","study_id":"60edd13110225f80f9f3709b","session_id":"6196c1f3f80dba5807c38987","condition":"full-information","relevant_dimensions":["antennae","pattern"],"bee_group":{"antennae":"B","wings":"X","pattern":"D","legs":"X"},"action":"avoid","summary":"bad-avoid","bonus":1.1200000000000008},{"rt":898.3999999985099,"stimulus":"\n                    <p><b>Action: <em>avoid</em></b></p>\n                    <p>This is the bee that you just saw.</p>\n                    <img src=\"bees-with-color/bee-A2DF.svg\" width=\"200\">\n                    <p><span class=\"redText\">Bad choice,</span> the bee was friendly.<br>Your bonus pay is unchanged, and remains at $0.64.</p>\n            ","response":0,"trial_type":"html-button-response","trial_index":96,"time_elapsed":290251,"internal_node_id":"0.0-4.0-1.42","subject_id":"603b0cceef3baf7b6df2d475","study_id":"60edd13110225f80f9f3709b","session_id":"6196c1f3f80dba5807c38987","condition":"full-information","relevant_dimensions":["antennae","pattern"],"bee_group":{"antennae":"B","wings":"X","pattern":"D","legs":"X"},"bonus":1.1200000000000008},{"rt":1360.8000000044703,"stimulus":"bees-with-color/bee-B2DM.svg","response":1,"trial_type":"image-button-response","trial_index":97,"time_elapsed":291613,"internal_node_id":"0.0-4.0-0.43","subject_id":"603b0cceef3baf7b6df2d475","study_id":"60edd13110225f80f9f3709b","session_id":"6196c1f3f80dba5807c38987","condition":"full-information","relevant_dimensions":["antennae","pattern"],"bee_group":{"antennae":"B","wings":"X","pattern":"D","legs":"X"},"action":"avoid","summary":"good-avoid","bonus":1.1200000000000008},{"rt":672.1000000014901,"stimulus":"\n                    <p><b>Action: <em>avoid</em></b></p>\n                    <p>This is the bee that you just saw.</p>\n                    <img src=\"bees-with-color/bee-B2DM.svg\" width=\"200\">\n                    <p><span class=\"greenText\">Good choice!</span>  This bee would have stung you.<br>Your bonus pay is unchanged, and remains at $0.64.</p>\n            ","response":0,"trial_type":"html-button-response","trial_index":98,"time_elapsed":292286,"internal_node_id":"0.0-4.0-1.43","subject_id":"603b0cceef3baf7b6df2d475","study_id":"60edd13110225f80f9f3709b","session_id":"6196c1f3f80dba5807c38987","condition":"full-information","relevant_dimensions":["antennae","pattern"],"bee_group":{"antennae":"B","wings":"X","pattern":"D","legs":"X"},"bonus":1.1200000000000008},{"rt":1362.1000000014901,"stimulus":"bees-with-color/bee-B2SF.svg","response":0,"trial_type":"image-button-response","trial_index":99,"time_elapsed":293649,"internal_node_id":"0.0-4.0-0.44","subject_id":"603b0cceef3baf7b6df2d475","study_id":"60edd13110225f80f9f3709b","session_id":"6196c1f3f80dba5807c38987","condition":"full-information","relevant_dimensions":["antennae","pattern"],"bee_group":{"antennae":"B","wings":"X","pattern":"D","legs":"X"},"action":"harvest","summary":"good-harvest","bonus":1.1200000000000008},{"rt":527,"stimulus":"\n                    <p><b>Action: <em>harvest</em></b></p>\n                    <p>This is the bee that you just saw.</p>\n                    <img src=\"bees-with-color/bee-B2SF.svg\" width=\"200\">\n                    <p><span class=\"greenText\"><b>Successful harvest!</b></span><br>Your pay has increased by $0.02. Your bonus pay is now $0.66.</p>\n            ","response":0,"trial_type":"html-button-response","trial_index":100,"time_elapsed":294177,"internal_node_id":"0.0-4.0-1.44","subject_id":"603b0cceef3baf7b6df2d475","study_id":"60edd13110225f80f9f3709b","session_id":"6196c1f3f80dba5807c38987","condition":"full-information","relevant_dimensions":["antennae","pattern"],"bee_group":{"antennae":"B","wings":"X","pattern":"D","legs":"X"},"bonus":1.1200000000000008},{"rt":1027.1000000014901,"stimulus":"bees-with-color/bee-A1DM.svg","response":1,"trial_type":"image-button-response","trial_index":101,"time_elapsed":295204,"internal_node_id":"0.0-4.0-0.45","subject_id":"603b0cceef3baf7b6df2d475","study_id":"60edd13110225f80f9f3709b","session_id":"6196c1f3f80dba5807c38987","condition":"full-information","relevant_dimensions":["antennae","pattern"],"bee_group":{"antennae":"B","wings":"X","pattern":"D","legs":"X"},"action":"avoid","summary":"bad-avoid","bonus":1.1200000000000008},{"rt":664.3999999985099,"stimulus":"\n                    <p><b>Action: <em>avoid</em></b></p>\n                    <p>This is the bee that you just saw.</p>\n                    <img src=\"bees-with-color/bee-A1DM.svg\" width=\"200\">\n                    <p><span class=\"redText\">Bad choice,</span> the bee was friendly.<br>Your bonus pay is unchanged, and remains at $0.66.</p>\n            ","response":0,"trial_type":"html-button-response","trial_index":102,"time_elapsed":295870,"internal_node_id":"0.0-4.0-1.45","subject_id":"603b0cceef3baf7b6df2d475","study_id":"60edd13110225f80f9f3709b","session_id":"6196c1f3f80dba5807c38987","condition":"full-information","relevant_dimensions":["antennae","pattern"],"bee_group":{"antennae":"B","wings":"X","pattern":"D","legs":"X"},"bonus":1.1200000000000008},{"rt":981.7000000029802,"stimulus":"bees-with-color/bee-B1SF.svg","response":1,"trial_type":"image-button-response","trial_index":103,"time_elapsed":296852,"internal_node_id":"0.0-4.0-0.46","subject_id":"603b0cceef3baf7b6df2d475","study_id":"60edd13110225f80f9f3709b","session_id":"6196c1f3f80dba5807c38987","condition":"full-information","relevant_dimensions":["antennae","pattern"],"bee_group":{"antennae":"B","wings":"X","pattern":"D","legs":"X"},"action":"avoid","summary":"bad-avoid","bonus":1.1200000000000008},{"rt":508,"stimulus":"\n                    <p><b>Action: <em>avoid</em></b></p>\n                    <p>This is the bee that you just saw.</p>\n                    <img src=\"bees-with-color/bee-B1SF.svg\" width=\"200\">\n                    <p><span class=\"redText\">Bad choice,</span> the bee was friendly.<br>Your bonus pay is unchanged, and remains at $0.66.</p>\n            ","response":0,"trial_type":"html-button-response","trial_index":104,"time_elapsed":297362,"internal_node_id":"0.0-4.0-1.46","subject_id":"603b0cceef3baf7b6df2d475","study_id":"60edd13110225f80f9f3709b","session_id":"6196c1f3f80dba5807c38987","condition":"full-information","relevant_dimensions":["antennae","pattern"],"bee_group":{"antennae":"B","wings":"X","pattern":"D","legs":"X"},"bonus":1.1200000000000008},{"rt":1015,"stimulus":"bees-with-color/bee-B1SM.svg","response":1,"trial_type":"image-button-response","trial_index":105,"time_elapsed":298378,"internal_node_id":"0.0-4.0-0.47","subject_id":"603b0cceef3baf7b6df2d475","study_id":"60edd13110225f80f9f3709b","session_id":"6196c1f3f80dba5807c38987","condition":"full-information","relevant_dimensions":["antennae","pattern"],"bee_group":{"antennae":"B","wings":"X","pattern":"D","legs":"X"},"action":"avoid","summary":"bad-avoid","bonus":1.1200000000000008},{"rt":505.79999999701977,"stimulus":"\n                    <p><b>Action: <em>avoid</em></b></p>\n                    <p>This is the bee that you just saw.</p>\n                    <img src=\"bees-with-color/bee-B1SM.svg\" width=\"200\">\n                    <p><span class=\"redText\">Bad choice,</span> the bee was friendly.<br>Your bonus pay is unchanged, and remains at $0.66.</p>\n            ","response":0,"trial_type":"html-button-response","trial_index":106,"time_elapsed":298885,"internal_node_id":"0.0-4.0-1.47","subject_id":"603b0cceef3baf7b6df2d475","study_id":"60edd13110225f80f9f3709b","session_id":"6196c1f3f80dba5807c38987","condition":"full-information","relevant_dimensions":["antennae","pattern"],"bee_group":{"antennae":"B","wings":"X","pattern":"D","legs":"X"},"bonus":1.1200000000000008},{"rt":890.8999999985099,"stimulus":"bees-with-color/bee-B1SM.svg","response":1,"trial_type":"image-button-response","trial_index":107,"time_elapsed":299776,"internal_node_id":"0.0-4.0-0.48","subject_id":"603b0cceef3baf7b6df2d475","study_id":"60edd13110225f80f9f3709b","session_id":"6196c1f3f80dba5807c38987","condition":"full-information","relevant_dimensions":["antennae","pattern"],"bee_group":{"antennae":"B","wings":"X","pattern":"D","legs":"X"},"action":"avoid","summary":"bad-avoid","bonus":1.1200000000000008},{"rt":696,"stimulus":"\n                    <p><b>Action: <em>avoid</em></b></p>\n                    <p>This is the bee that you just saw.</p>\n                    <img src=\"bees-with-color/bee-B1SM.svg\" width=\"200\">\n                    <p><span class=\"redText\">Bad choice,</span> the bee was friendly.<br>Your bonus pay is unchanged, and remains at $0.66.</p>\n            ","response":0,"trial_type":"html-button-response","trial_index":108,"time_elapsed":300474,"internal_node_id":"0.0-4.0-1.48","subject_id":"603b0cceef3baf7b6df2d475","study_id":"60edd13110225f80f9f3709b","session_id":"6196c1f3f80dba5807c38987","condition":"full-information","relevant_dimensions":["antennae","pattern"],"bee_group":{"antennae":"B","wings":"X","pattern":"D","legs":"X"},"bonus":1.1200000000000008},{"rt":564.5,"stimulus":"bees-with-color/bee-A2SM.svg","response":1,"trial_type":"image-button-response","trial_index":109,"time_elapsed":301040,"internal_node_id":"0.0-4.0-0.49","subject_id":"603b0cceef3baf7b6df2d475","study_id":"60edd13110225f80f9f3709b","session_id":"6196c1f3f80dba5807c38987","condition":"full-information","relevant_dimensions":["antennae","pattern"],"bee_group":{"antennae":"B","wings":"X","pattern":"D","legs":"X"},"action":"avoid","summary":"bad-avoid","bonus":1.1200000000000008},{"rt":728.1000000014901,"stimulus":"\n                    <p><b>Action: <em>avoid</em></b></p>\n                    <p>This is the bee that you just saw.</p>\n                    <img src=\"bees-with-color/bee-A2SM.svg\" width=\"200\">\n                    <p><span class=\"redText\">Bad choice,</span> the bee was friendly.<br>Your bonus pay is unchanged, and remains at $0.66.</p>\n            ","response":0,"trial_type":"html-button-response","trial_index":110,"time_elapsed":301769,"internal_node_id":"0.0-4.0-1.49","subject_id":"603b0cceef3baf7b6df2d475","study_id":"60edd13110225f80f9f3709b","session_id":"6196c1f3f80dba5807c38987","condition":"full-information","relevant_dimensions":["antennae","pattern"],"bee_group":{"antennae":"B","wings":"X","pattern":"D","legs":"X"},"bonus":1.1200000000000008},{"rt":762.8000000044703,"stimulus":"bees-with-color/bee-B2DM.svg","response":1,"trial_type":"image-button-response","trial_index":111,"time_elapsed":302532,"internal_node_id":"0.0-4.0-0.50","subject_id":"603b0cceef3baf7b6df2d475","study_id":"60edd13110225f80f9f3709b","session_id":"6196c1f3f80dba5807c38987","condition":"full-information","relevant_dimensions":["antennae","pattern"],"bee_group":{"antennae":"B","wings":"X","pattern":"D","legs":"X"},"action":"avoid","summary":"good-avoid","bonus":1.1200000000000008},{"rt":660.3999999985099,"stimulus":"\n                    <p><b>Action: <em>avoid</em></b></p>\n                    <p>This is the bee that you just saw.</p>\n                    <img src=\"bees-with-color/bee-B2DM.svg\" width=\"200\">\n                    <p><span class=\"greenText\">Good choice!</span>  This bee would have stung you.<br>Your bonus pay is unchanged, and remains at $0.66.</p>\n            ","response":0,"trial_type":"html-button-response","trial_index":112,"time_elapsed":303194,"internal_node_id":"0.0-4.0-1.50","subject_id":"603b0cceef3baf7b6df2d475","study_id":"60edd13110225f80f9f3709b","session_id":"6196c1f3f80dba5807c38987","condition":"full-information","relevant_dimensions":["antennae","pattern"],"bee_group":{"antennae":"B","wings":"X","pattern":"D","legs":"X"},"bonus":1.1200000000000008},{"rt":1281.4000000059605,"stimulus":"bees-with-color/bee-A1DM.svg","response":0,"trial_type":"image-button-response","trial_index":113,"time_elapsed":304476,"internal_node_id":"0.0-4.0-0.51","subject_id":"603b0cceef3baf7b6df2d475","study_id":"60edd13110225f80f9f3709b","session_id":"6196c1f3f80dba5807c38987","condition":"full-information","relevant_dimensions":["antennae","pattern"],"bee_group":{"antennae":"B","wings":"X","pattern":"D","legs":"X"},"action":"harvest","summary":"good-harvest","bonus":1.1200000000000008},{"rt":958,"stimulus":"\n                    <p><b>Action: <em>harvest</em></b></p>\n                    <p>This is the bee that you just saw.</p>\n                    <img src=\"bees-with-color/bee-A1DM.svg\" width=\"200\">\n                    <p><span class=\"greenText\"><b>Successful harvest!</b></span><br>Your pay has increased by $0.02. Your bonus pay is now $0.68.</p>\n            ","response":0,"trial_type":"html-button-response","trial_index":114,"time_elapsed":305435,"internal_node_id":"0.0-4.0-1.51","subject_id":"603b0cceef3baf7b6df2d475","study_id":"60edd13110225f80f9f3709b","session_id":"6196c1f3f80dba5807c38987","condition":"full-information","relevant_dimensions":["antennae","pattern"],"bee_group":{"antennae":"B","wings":"X","pattern":"D","legs":"X"},"bonus":1.1200000000000008},{"rt":743,"stimulus":"bees-with-color/bee-B1SF.svg","response":1,"trial_type":"image-button-response","trial_index":115,"time_elapsed":306178,"internal_node_id":"0.0-4.0-0.52","subject_id":"603b0cceef3baf7b6df2d475","study_id":"60edd13110225f80f9f3709b","session_id":"6196c1f3f80dba5807c38987","condition":"full-information","relevant_dimensions":["antennae","pattern"],"bee_group":{"antennae":"B","wings":"X","pattern":"D","legs":"X"},"action":"avoid","summary":"bad-avoid","bonus":1.1200000000000008},{"rt":749.2000000029802,"stimulus":"\n                    <p><b>Action: <em>avoid</em></b></p>\n                    <p>This is the bee that you just saw.</p>\n                    <img src=\"bees-with-color/bee-B1SF.svg\" width=\"200\">\n                    <p><span class=\"redText\">Bad choice,</span> the bee was friendly.<br>Your bonus pay is unchanged, and remains at $0.68.</p>\n            ","response":0,"trial_type":"html-button-response","trial_index":116,"time_elapsed":306929,"internal_node_id":"0.0-4.0-1.52","subject_id":"603b0cceef3baf7b6df2d475","study_id":"60edd13110225f80f9f3709b","session_id":"6196c1f3f80dba5807c38987","condition":"full-information","relevant_dimensions":["antennae","pattern"],"bee_group":{"antennae":"B","wings":"X","pattern":"D","legs":"X"},"bonus":1.1200000000000008},{"rt":2009.1000000014901,"stimulus":"bees-with-color/bee-B2SM.svg","response":0,"trial_type":"image-button-response","trial_index":117,"time_elapsed":308939,"internal_node_id":"0.0-4.0-0.53","subject_id":"603b0cceef3baf7b6df2d475","study_id":"60edd13110225f80f9f3709b","session_id":"6196c1f3f80dba5807c38987","condition":"full-information","relevant_dimensions":["antennae","pattern"],"bee_group":{"antennae":"B","wings":"X","pattern":"D","legs":"X"},"action":"harvest","summary":"good-harvest","bonus":1.1200000000000008},{"rt":539,"stimulus":"\n                    <p><b>Action: <em>harvest</em></b></p>\n                    <p>This is the bee that you just saw.</p>\n                    <img src=\"bees-with-color/bee-B2SM.svg\" width=\"200\">\n                    <p><span class=\"greenText\"><b>Successful harvest!</b></span><br>Your pay has increased by $0.02. Your bonus pay is now $0.70.</p>\n            ","response":0,"trial_type":"html-button-response","trial_index":118,"time_elapsed":309478,"internal_node_id":"0.0-4.0-1.53","subject_id":"603b0cceef3baf7b6df2d475","study_id":"60edd13110225f80f9f3709b","session_id":"6196c1f3f80dba5807c38987","condition":"full-information","relevant_dimensions":["antennae","pattern"],"bee_group":{"antennae":"B","wings":"X","pattern":"D","legs":"X"},"bonus":1.1200000000000008},{"rt":1536,"stimulus":"bees-with-color/bee-A1SM.svg","response":0,"trial_type":"image-button-response","trial_index":119,"time_elapsed":311016,"internal_node_id":"0.0-4.0-0.54","subject_id":"603b0cceef3baf7b6df2d475","study_id":"60edd13110225f80f9f3709b","session_id":"6196c1f3f80dba5807c38987","condition":"full-information","relevant_dimensions":["antennae","pattern"],"bee_group":{"antennae":"B","wings":"X","pattern":"D","legs":"X"},"action":"harvest","summary":"good-harvest","bonus":1.1200000000000008},{"rt":760,"stimulus":"\n                    <p><b>Action: <em>harvest</em></b></p>\n                    <p>This is the bee that you just saw.</p>\n                    <img src=\"bees-with-color/bee-A1SM.svg\" width=\"200\">\n                    <p><span class=\"greenText\"><b>Successful harvest!</b></span><br>Your pay has increased by $0.02. Your bonus pay is now $0.72.</p>\n            ","response":0,"trial_type":"html-button-response","trial_index":120,"time_elapsed":311777,"internal_node_id":"0.0-4.0-1.54","subject_id":"603b0cceef3baf7b6df2d475","study_id":"60edd13110225f80f9f3709b","session_id":"6196c1f3f80dba5807c38987","condition":"full-information","relevant_dimensions":["antennae","pattern"],"bee_group":{"antennae":"B","wings":"X","pattern":"D","legs":"X"},"bonus":1.1200000000000008},{"rt":1226.2000000029802,"stimulus":"bees-with-color/bee-B2DF.svg","response":1,"trial_type":"image-button-response","trial_index":121,"time_elapsed":313004,"internal_node_id":"0.0-4.0-0.55","subject_id":"603b0cceef3baf7b6df2d475","study_id":"60edd13110225f80f9f3709b","session_id":"6196c1f3f80dba5807c38987","condition":"full-information","relevant_dimensions":["antennae","pattern"],"bee_group":{"antennae":"B","wings":"X","pattern":"D","legs":"X"},"action":"avoid","summary":"good-avoid","bonus":1.1200000000000008},{"rt":631.7000000029802,"stimulus":"\n                    <p><b>Action: <em>avoid</em></b></p>\n                    <p>This is the bee that you just saw.</p>\n                    <img src=\"bees-with-color/bee-B2DF.svg\" width=\"200\">\n                    <p><span class=\"greenText\">Good choice!</span>  This bee would have stung you.<br>Your bonus pay is unchanged, and remains at $0.72.</p>\n            ","response":0,"trial_type":"html-button-response","trial_index":122,"time_elapsed":313637,"internal_node_id":"0.0-4.0-1.55","subject_id":"603b0cceef3baf7b6df2d475","study_id":"60edd13110225f80f9f3709b","session_id":"6196c1f3f80dba5807c38987","condition":"full-information","relevant_dimensions":["antennae","pattern"],"bee_group":{"antennae":"B","wings":"X","pattern":"D","legs":"X"},"bonus":1.1200000000000008},{"rt":1739.6999999955297,"stimulus":"bees-with-color/bee-B1DM.svg","response":1,"trial_type":"image-button-response","trial_index":123,"time_elapsed":315378,"internal_node_id":"0.0-4.0-0.56","subject_id":"603b0cceef3baf7b6df2d475","study_id":"60edd13110225f80f9f3709b","session_id":"6196c1f3f80dba5807c38987","condition":"full-information","relevant_dimensions":["antennae","pattern"],"bee_group":{"antennae":"B","wings":"X","pattern":"D","legs":"X"},"action":"avoid","summary":"good-avoid","bonus":1.1200000000000008},{"rt":581.2000000029802,"stimulus":"\n                    <p><b>Action: <em>avoid</em></b></p>\n                    <p>This is the bee that you just saw.</p>\n                    <img src=\"bees-with-color/bee-B1DM.svg\" width=\"200\">\n                    <p><span class=\"greenText\">Good choice!</span>  This bee would have stung you.<br>Your bonus pay is unchanged, and remains at $0.72.</p>\n            ","response":0,"trial_type":"html-button-response","trial_index":124,"time_elapsed":315960,"internal_node_id":"0.0-4.0-1.56","subject_id":"603b0cceef3baf7b6df2d475","study_id":"60edd13110225f80f9f3709b","session_id":"6196c1f3f80dba5807c38987","condition":"full-information","relevant_dimensions":["antennae","pattern"],"bee_group":{"antennae":"B","wings":"X","pattern":"D","legs":"X"},"bonus":1.1200000000000008},{"rt":2007.7000000029802,"stimulus":"bees-with-color/bee-A1SF.svg","response":0,"trial_type":"image-button-response","trial_index":125,"time_elapsed":317968,"internal_node_id":"0.0-4.0-0.57","subject_id":"603b0cceef3baf7b6df2d475","study_id":"60edd13110225f80f9f3709b","session_id":"6196c1f3f80dba5807c38987","condition":"full-information","relevant_dimensions":["antennae","pattern"],"bee_group":{"antennae":"B","wings":"X","pattern":"D","legs":"X"},"action":"harvest","summary":"good-harvest","bonus":1.1200000000000008},{"rt":642.3000000044703,"stimulus":"\n                    <p><b>Action: <em>harvest</em></b></p>\n                    <p>This is the bee that you just saw.</p>\n                    <img src=\"bees-with-color/bee-A1SF.svg\" width=\"200\">\n                    <p><span class=\"greenText\"><b>Successful harvest!</b></span><br>Your pay has increased by $0.02. Your bonus pay is now $0.74.</p>\n            ","response":0,"trial_type":"html-button-response","trial_index":126,"time_elapsed":318612,"internal_node_id":"0.0-4.0-1.57","subject_id":"603b0cceef3baf7b6df2d475","study_id":"60edd13110225f80f9f3709b","session_id":"6196c1f3f80dba5807c38987","condition":"full-information","relevant_dimensions":["antennae","pattern"],"bee_group":{"antennae":"B","wings":"X","pattern":"D","legs":"X"},"bonus":1.1200000000000008},{"rt":3696,"stimulus":"bees-with-color/bee-B2SF.svg","response":0,"trial_type":"image-button-response","trial_index":127,"time_elapsed":322308,"internal_node_id":"0.0-4.0-0.58","subject_id":"603b0cceef3baf7b6df2d475","study_id":"60edd13110225f80f9f3709b","session_id":"6196c1f3f80dba5807c38987","condition":"full-information","relevant_dimensions":["antennae","pattern"],"bee_group":{"antennae":"B","wings":"X","pattern":"D","legs":"X"},"action":"harvest","summary":"good-harvest","bonus":1.1200000000000008},{"rt":632.1000000014901,"stimulus":"\n                    <p><b>Action: <em>harvest</em></b></p>\n                    <p>This is the bee that you just saw.</p>\n                    <img src=\"bees-with-color/bee-B2SF.svg\" width=\"200\">\n                    <p><span class=\"greenText\"><b>Successful harvest!</b></span><br>Your pay has increased by $0.02. Your bonus pay is now $0.76.</p>\n            ","response":0,"trial_type":"html-button-response","trial_index":128,"time_elapsed":322942,"internal_node_id":"0.0-4.0-1.58","subject_id":"603b0cceef3baf7b6df2d475","study_id":"60edd13110225f80f9f3709b","session_id":"6196c1f3f80dba5807c38987","condition":"full-information","relevant_dimensions":["antennae","pattern"],"bee_group":{"antennae":"B","wings":"X","pattern":"D","legs":"X"},"bonus":1.1200000000000008},{"rt":2899.7999999970198,"stimulus":"bees-with-color/bee-A1DF.svg","response":1,"trial_type":"image-button-response","trial_index":129,"time_elapsed":325843,"internal_node_id":"0.0-4.0-0.59","subject_id":"603b0cceef3baf7b6df2d475","study_id":"60edd13110225f80f9f3709b","session_id":"6196c1f3f80dba5807c38987","condition":"full-information","relevant_dimensions":["antennae","pattern"],"bee_group":{"antennae":"B","wings":"X","pattern":"D","legs":"X"},"action":"avoid","summary":"bad-avoid","bonus":1.1200000000000008},{"rt":561.1000000014901,"stimulus":"\n                    <p><b>Action: <em>avoid</em></b></p>\n                    <p>This is the bee that you just saw.</p>\n                    <img src=\"bees-with-color/bee-A1DF.svg\" width=\"200\">\n                    <p><span class=\"redText\">Bad choice,</span> the bee was friendly.<br>Your bonus pay is unchanged, and remains at $0.76.</p>\n            ","response":0,"trial_type":"html-button-response","trial_index":130,"time_elapsed":326405,"internal_node_id":"0.0-4.0-1.59","subject_id":"603b0cceef3baf7b6df2d475","study_id":"60edd13110225f80f9f3709b","session_id":"6196c1f3f80dba5807c38987","condition":"full-information","relevant_dimensions":["antennae","pattern"],"bee_group":{"antennae":"B","wings":"X","pattern":"D","legs":"X"},"bonus":1.1200000000000008},{"rt":3563,"stimulus":"bees-with-color/bee-A2DF.svg","response":1,"trial_type":"image-button-response","trial_index":131,"time_elapsed":329969,"internal_node_id":"0.0-4.0-0.60","subject_id":"603b0cceef3baf7b6df2d475","study_id":"60edd13110225f80f9f3709b","session_id":"6196c1f3f80dba5807c38987","condition":"full-information","relevant_dimensions":["antennae","pattern"],"bee_group":{"antennae":"B","wings":"X","pattern":"D","legs":"X"},"action":"avoid","summary":"bad-avoid","bonus":1.1200000000000008},{"rt":891,"stimulus":"\n                    <p><b>Action: <em>avoid</em></b></p>\n                    <p>This is the bee that you just saw.</p>\n                    <img src=\"bees-with-color/bee-A2DF.svg\" width=\"200\">\n                    <p><span class=\"redText\">Bad choice,</span> the bee was friendly.<br>Your bonus pay is unchanged, and remains at $0.76.</p>\n            ","response":0,"trial_type":"html-button-response","trial_index":132,"time_elapsed":330861,"internal_node_id":"0.0-4.0-1.60","subject_id":"603b0cceef3baf7b6df2d475","study_id":"60edd13110225f80f9f3709b","session_id":"6196c1f3f80dba5807c38987","condition":"full-information","relevant_dimensions":["antennae","pattern"],"bee_group":{"antennae":"B","wings":"X","pattern":"D","legs":"X"},"bonus":1.1200000000000008},{"rt":2166.89999999851,"stimulus":"bees-with-color/bee-A2DM.svg","response":1,"trial_type":"image-button-response","trial_index":133,"time_elapsed":333029,"internal_node_id":"0.0-4.0-0.61","subject_id":"603b0cceef3baf7b6df2d475","study_id":"60edd13110225f80f9f3709b","session_id":"6196c1f3f80dba5807c38987","condition":"full-information","relevant_dimensions":["antennae","pattern"],"bee_group":{"antennae":"B","wings":"X","pattern":"D","legs":"X"},"action":"avoid","summary":"bad-avoid","bonus":1.1200000000000008},{"rt":570.7999999970198,"stimulus":"\n                    <p><b>Action: <em>avoid</em></b></p>\n                    <p>This is the bee that you just saw.</p>\n                    <img src=\"bees-with-color/bee-A2DM.svg\" width=\"200\">\n                    <p><span class=\"redText\">Bad choice,</span> the bee was friendly.<br>Your bonus pay is unchanged, and remains at $0.76.</p>\n            ","response":0,"trial_type":"html-button-response","trial_index":134,"time_elapsed":333600,"internal_node_id":"0.0-4.0-1.61","subject_id":"603b0cceef3baf7b6df2d475","study_id":"60edd13110225f80f9f3709b","session_id":"6196c1f3f80dba5807c38987","condition":"full-information","relevant_dimensions":["antennae","pattern"],"bee_group":{"antennae":"B","wings":"X","pattern":"D","legs":"X"},"bonus":1.1200000000000008},{"rt":3150.7999999970198,"stimulus":"bees-with-color/bee-A2SF.svg","response":0,"trial_type":"image-button-response","trial_index":135,"time_elapsed":336753,"internal_node_id":"0.0-4.0-0.62","subject_id":"603b0cceef3baf7b6df2d475","study_id":"60edd13110225f80f9f3709b","session_id":"6196c1f3f80dba5807c38987","condition":"full-information","relevant_dimensions":["antennae","pattern"],"bee_group":{"antennae":"B","wings":"X","pattern":"D","legs":"X"},"action":"harvest","summary":"good-harvest","bonus":1.1200000000000008},{"rt":534.8999999985099,"stimulus":"\n                    <p><b>Action: <em>harvest</em></b></p>\n                    <p>This is the bee that you just saw.</p>\n                    <img src=\"bees-with-color/bee-A2SF.svg\" width=\"200\">\n                    <p><span class=\"greenText\"><b>Successful harvest!</b></span><br>Your pay has increased by $0.02. Your bonus pay is now $0.78.</p>\n            ","response":0,"trial_type":"html-button-response","trial_index":136,"time_elapsed":337289,"internal_node_id":"0.0-4.0-1.62","subject_id":"603b0cceef3baf7b6df2d475","study_id":"60edd13110225f80f9f3709b","session_id":"6196c1f3f80dba5807c38987","condition":"full-information","relevant_dimensions":["antennae","pattern"],"bee_group":{"antennae":"B","wings":"X","pattern":"D","legs":"X"},"bonus":1.1200000000000008},{"rt":2197.7999999970198,"stimulus":"bees-with-color/bee-B1DF.svg","response":1,"trial_type":"image-button-response","trial_index":137,"time_elapsed":339488,"internal_node_id":"0.0-4.0-0.63","subject_id":"603b0cceef3baf7b6df2d475","study_id":"60edd13110225f80f9f3709b","session_id":"6196c1f3f80dba5807c38987","condition":"full-information","relevant_dimensions":["antennae","pattern"],"bee_group":{"antennae":"B","wings":"X","pattern":"D","legs":"X"},"action":"avoid","summary":"good-avoid","bonus":1.1200000000000008},{"rt":759.6999999955297,"stimulus":"\n                    <p><b>Action: <em>avoid</em></b></p>\n                    <p>This is the bee that you just saw.</p>\n                    <img src=\"bees-with-color/bee-B1DF.svg\" width=\"200\">\n                    <p><span class=\"greenText\">Good choice!</span>  This bee would have stung you.<br>Your bonus pay is unchanged, and remains at $0.78.</p>\n            ","response":0,"trial_type":"html-button-response","trial_index":138,"time_elapsed":340249,"internal_node_id":"0.0-4.0-1.63","subject_id":"603b0cceef3baf7b6df2d475","study_id":"60edd13110225f80f9f3709b","session_id":"6196c1f3f80dba5807c38987","condition":"full-information","relevant_dimensions":["antennae","pattern"],"bee_group":{"antennae":"B","wings":"X","pattern":"D","legs":"X"},"bonus":1.1200000000000008},{"rt":5945,"stimulus":"You have completed the first part of this experiment.<br><br>You will now begin a shorter second part, in which you will receive no feedback.<br>The same rules regarding bonus pay apply.<br><br>Press any key to begin.","response":"arrowright","trial_type":"html-keyboard-response","trial_index":139,"time_elapsed":346195,"internal_node_id":"0.0-5.0","subject_id":"603b0cceef3baf7b6df2d475","study_id":"60edd13110225f80f9f3709b","session_id":"6196c1f3f80dba5807c38987","condition":"full-information","relevant_dimensions":["antennae","pattern"],"bee_group":{"antennae":"B","wings":"X","pattern":"D","legs":"X"},"bonus":1.1200000000000008},{"rt":4307.10000000149,"stimulus":"bees-with-color/bee-B2SF.svg","response":0,"trial_type":"image-button-response","trial_index":140,"time_elapsed":350508,"internal_node_id":"0.0-6.0-0.0","subject_id":"603b0cceef3baf7b6df2d475","study_id":"60edd13110225f80f9f3709b","session_id":"6196c1f3f80dba5807c38987","condition":"full-information","relevant_dimensions":["antennae","pattern"],"bee_group":{"antennae":"B","wings":"X","pattern":"D","legs":"X"},"bonus":1.1200000000000008},{"rt":3057.5,"stimulus":"bees-with-color/bee-B1DM.svg","response":1,"trial_type":"image-button-response","trial_index":141,"time_elapsed":353567,"internal_node_id":"0.0-6.0-0.1","subject_id":"603b0cceef3baf7b6df2d475","study_id":"60edd13110225f80f9f3709b","session_id":"6196c1f3f80dba5807c38987","condition":"full-information","relevant_dimensions":["antennae","pattern"],"bee_group":{"antennae":"B","wings":"X","pattern":"D","legs":"X"},"bonus":1.1200000000000008},{"rt":2204.5,"stimulus":"bees-with-color/bee-A2DF.svg","response":0,"trial_type":"image-button-response","trial_index":142,"time_elapsed":355773,"internal_node_id":"0.0-6.0-0.2","subject_id":"603b0cceef3baf7b6df2d475","study_id":"60edd13110225f80f9f3709b","session_id":"6196c1f3f80dba5807c38987","condition":"full-information","relevant_dimensions":["antennae","pattern"],"bee_group":{"antennae":"B","wings":"X","pattern":"D","legs":"X"},"bonus":1.1200000000000008},{"rt":2295.7000000029802,"stimulus":"bees-with-color/bee-B1DF.svg","response":1,"trial_type":"image-button-response","trial_index":143,"time_elapsed":358070,"internal_node_id":"0.0-6.0-0.3","subject_id":"603b0cceef3baf7b6df2d475","study_id":"60edd13110225f80f9f3709b","session_id":"6196c1f3f80dba5807c38987","condition":"full-information","relevant_dimensions":["antennae","pattern"],"bee_group":{"antennae":"B","wings":"X","pattern":"D","legs":"X"},"bonus":1.1200000000000008},{"rt":1229.3999999985099,"stimulus":"bees-with-color/bee-A1SF.svg","response":0,"trial_type":"image-button-response","trial_index":144,"time_elapsed":359301,"internal_node_id":"0.0-6.0-0.4","subject_id":"603b0cceef3baf7b6df2d475","study_id":"60edd13110225f80f9f3709b","session_id":"6196c1f3f80dba5807c38987","condition":"full-information","relevant_dimensions":["antennae","pattern"],"bee_group":{"antennae":"B","wings":"X","pattern":"D","legs":"X"},"bonus":1.1200000000000008},{"rt":2031.7000000029802,"stimulus":"bees-with-color/bee-A1DM.svg","response":0,"trial_type":"image-button-response","trial_index":145,"time_elapsed":361333,"internal_node_id":"0.0-6.0-0.5","subject_id":"603b0cceef3baf7b6df2d475","study_id":"60edd13110225f80f9f3709b","session_id":"6196c1f3f80dba5807c38987","condition":"full-information","relevant_dimensions":["antennae","pattern"],"bee_group":{"antennae":"B","wings":"X","pattern":"D","legs":"X"},"bonus":1.1200000000000008},{"rt":1583.6000000014901,"stimulus":"bees-with-color/bee-A2SM.svg","response":0,"trial_type":"image-button-response","trial_index":146,"time_elapsed":362918,"internal_node_id":"0.0-6.0-0.6","subject_id":"603b0cceef3baf7b6df2d475","study_id":"60edd13110225f80f9f3709b","session_id":"6196c1f3f80dba5807c38987","condition":"full-information","relevant_dimensions":["antennae","pattern"],"bee_group":{"antennae":"B","wings":"X","pattern":"D","legs":"X"},"bonus":1.1200000000000008},{"rt":1596.8999999985099,"stimulus":"bees-with-color/bee-B2SM.svg","response":0,"trial_type":"image-button-response","trial_index":147,"time_elapsed":364516,"internal_node_id":"0.0-6.0-0.7","subject_id":"603b0cceef3baf7b6df2d475","study_id":"60edd13110225f80f9f3709b","session_id":"6196c1f3f80dba5807c38987","condition":"full-information","relevant_dimensions":["antennae","pattern"],"bee_group":{"antennae":"B","wings":"X","pattern":"D","legs":"X"},"bonus":1.1200000000000008},{"rt":1264.6000000014901,"stimulus":"bees-with-color/bee-A2SF.svg","response":0,"trial_type":"image-button-response","trial_index":148,"time_elapsed":365782,"internal_node_id":"0.0-6.0-0.8","subject_id":"603b0cceef3baf7b6df2d475","study_id":"60edd13110225f80f9f3709b","session_id":"6196c1f3f80dba5807c38987","condition":"full-information","relevant_dimensions":["antennae","pattern"],"bee_group":{"antennae":"B","wings":"X","pattern":"D","legs":"X"},"bonus":1.1200000000000008},{"rt":1031.7000000029802,"stimulus":"bees-with-color/bee-B2DM.svg","response":1,"trial_type":"image-button-response","trial_index":149,"time_elapsed":366815,"internal_node_id":"0.0-6.0-0.9","subject_id":"603b0cceef3baf7b6df2d475","study_id":"60edd13110225f80f9f3709b","session_id":"6196c1f3f80dba5807c38987","condition":"full-information","relevant_dimensions":["antennae","pattern"],"bee_group":{"antennae":"B","wings":"X","pattern":"D","legs":"X"},"bonus":1.1200000000000008},{"rt":1093.3999999985099,"stimulus":"bees-with-color/bee-A1SM.svg","response":0,"trial_type":"image-button-response","trial_index":150,"time_elapsed":367910,"internal_node_id":"0.0-6.0-0.10","subject_id":"603b0cceef3baf7b6df2d475","study_id":"60edd13110225f80f9f3709b","session_id":"6196c1f3f80dba5807c38987","condition":"full-information","relevant_dimensions":["antennae","pattern"],"bee_group":{"antennae":"B","wings":"X","pattern":"D","legs":"X"},"bonus":1.1200000000000008},{"rt":1202.6000000014901,"stimulus":"bees-with-color/bee-A2DM.svg","response":0,"trial_type":"image-button-response","trial_index":151,"time_elapsed":369114,"internal_node_id":"0.0-6.0-0.11","subject_id":"603b0cceef3baf7b6df2d475","study_id":"60edd13110225f80f9f3709b","session_id":"6196c1f3f80dba5807c38987","condition":"full-information","relevant_dimensions":["antennae","pattern"],"bee_group":{"antennae":"B","wings":"X","pattern":"D","legs":"X"},"bonus":1.1200000000000008},{"rt":2173.8000000044703,"stimulus":"bees-with-color/bee-A1DF.svg","response":0,"trial_type":"image-button-response","trial_index":152,"time_elapsed":371289,"internal_node_id":"0.0-6.0-0.12","subject_id":"603b0cceef3baf7b6df2d475","study_id":"60edd13110225f80f9f3709b","session_id":"6196c1f3f80dba5807c38987","condition":"full-information","relevant_dimensions":["antennae","pattern"],"bee_group":{"antennae":"B","wings":"X","pattern":"D","legs":"X"},"bonus":1.1200000000000008},{"rt":1282.3999999985099,"stimulus":"bees-with-color/bee-B1SM.svg","response":0,"trial_type":"image-button-response","trial_index":153,"time_elapsed":372573,"internal_node_id":"0.0-6.0-0.13","subject_id":"603b0cceef3baf7b6df2d475","study_id":"60edd13110225f80f9f3709b","session_id":"6196c1f3f80dba5807c38987","condition":"full-information","relevant_dimensions":["antennae","pattern"],"bee_group":{"antennae":"B","wings":"X","pattern":"D","legs":"X"},"bonus":1.1200000000000008},{"rt":2507.7999999970198,"stimulus":"bees-with-color/bee-B1SF.svg","response":0,"trial_type":"image-button-response","trial_index":154,"time_elapsed":375082,"internal_node_id":"0.0-6.0-0.14","subject_id":"603b0cceef3baf7b6df2d475","study_id":"60edd13110225f80f9f3709b","session_id":"6196c1f3f80dba5807c38987","condition":"full-information","relevant_dimensions":["antennae","pattern"],"bee_group":{"antennae":"B","wings":"X","pattern":"D","legs":"X"},"bonus":1.1200000000000008},{"rt":1694.8999999985099,"stimulus":"bees-with-color/bee-B2DF.svg","response":0,"trial_type":"image-button-response","trial_index":155,"time_elapsed":376778,"internal_node_id":"0.0-6.0-0.15","subject_id":"603b0cceef3baf7b6df2d475"