[{"success":true,"trial_type":"fullscreen","trial_index":0,"time_elapsed":5126,"internal_node_id":"0.0-0.0","subject_id":"610aadf3dc6d9b1de02c4a39","study_id":"60edd13110225f80f9f3709b","session_id":"6196baa1357de4e8d21c4e47","condition":"full-information","relevant_dimensions":["pattern","legs"],"bee_group":{"antennae":"X","wings":"X","pattern":"S","legs":"M"},"bonus":1.2400000000000013},{"success":true,"timeout":false,"failed_images":[],"failed_audio":[],"failed_video":[],"trial_type":"preload","trial_index":1,"time_elapsed":10277,"internal_node_id":"0.0-1.0","subject_id":"610aadf3dc6d9b1de02c4a39","study_id":"60edd13110225f80f9f3709b","session_id":"6196baa1357de4e8d21c4e47","condition":"full-information","relevant_dimensions":["pattern","legs"],"bee_group":{"antennae":"X","wings":"X","pattern":"S","legs":"M"},"bonus":1.2400000000000013},{"rt":2024.2000000476837,"stimulus":"Welcome! Press any key to begin.","response":" ","trial_type":"html-keyboard-response","trial_index":2,"time_elapsed":12302,"internal_node_id":"0.0-2.0","subject_id":"610aadf3dc6d9b1de02c4a39","study_id":"60edd13110225f80f9f3709b","session_id":"6196baa1357de4e8d21c4e47","condition":"full-information","relevant_dimensions":["pattern","legs"],"bee_group":{"antennae":"X","wings":"X","pattern":"S","legs":"M"},"bonus":1.2400000000000013},{"view_history":[{"page_index":0,"viewing_time":6856.799999952316},{"page_index":1,"viewing_time":12919.799999952316},{"page_index":2,"viewing_time":19647.900000095367},{"page_index":3,"viewing_time":13567.899999976158},{"page_index":4,"viewing_time":6735.899999976158},{"page_index":5,"viewing_time":10592},{"page_index":6,"viewing_time":8135.899999976158},{"page_index":7,"viewing_time":11823.800000071526},{"page_index":8,"viewing_time":11032},{"page_index":9,"viewing_time":10920},{"page_index":10,"viewing_time":11279.899999976158},{"page_index":11,"viewing_time":19463.699999928474},{"page_index":12,"viewing_time":25279.900000095367},{"page_index":13,"viewing_time":2175.899999976158},{"page_index":14,"viewing_time":3488.100000023842}],"rt":173919.79999995232,"trial_type":"instructions","trial_index":3,"time_elapsed":186222,"internal_node_id":"0.0-3.0-0.0","subject_id":"610aadf3dc6d9b1de02c4a39","study_id":"60edd13110225f80f9f3709b","session_id":"6196baa1357de4e8d21c4e47","condition":"full-information","relevant_dimensions":["pattern","legs"],"bee_group":{"antennae":"X","wings":"X","pattern":"S","legs":"M"},"bonus":1.2400000000000013},{"rt":21644.5,"response":{"Q0":["Two or six legs","Stripes or spots on body","Single or double wings","Antennae or no antennae"]},"question_order":[0],"trial_type":"survey-multi-select","trial_index":4,"time_elapsed":207871,"internal_node_id":"0.0-3.0-1.0","subject_id":"610aadf3dc6d9b1de02c4a39","study_id":"60edd13110225f80f9f3709b","session_id":"6196baa1357de4e8d21c4e47","condition":"full-information","relevant_dimensions":["pattern","legs"],"bee_group":{"antennae":"X","wings":"X","pattern":"S","legs":"M"},"correct":true,"bonus":1.2400000000000013},{"rt":53091,"response":{"Q1":"No.","Q2":"Based on the four features of the bee.","Q3":"You do not learn if it was friendly or dangerous, and do not alter your bonus."},"question_order":[0,1,2],"trial_type":"survey-multi-choice","trial_index":5,"time_elapsed":260967,"internal_node_id":"0.0-3.0-2.0","subject_id":"610aadf3dc6d9b1de02c4a39","study_id":"60edd13110225f80f9f3709b","session_id":"6196baa1357de4e8d21c4e47","condition":"full-information","relevant_dimensions":["pattern","legs"],"bee_group":{"antennae":"X","wings":"X","pattern":"S","legs":"M"},"correct":false,"bonus":1.2400000000000013},{"rt":5252,"stimulus":"<p>You did not answer all comprehension questions correctly.<br>Press <b>continue</b> to review the instructions again.</p>","response":0,"trial_type":"html-button-response","trial_index":6,"time_elapsed":266222,"internal_node_id":"0.0-3.0-3.0","subject_id":"610aadf3dc6d9b1de02c4a39","study_id":"60edd13110225f80f9f3709b","session_id":"6196baa1357de4e8d21c4e47","condition":"full-information","relevant_dimensions":["pattern","legs"],"bee_group":{"antennae":"X","wings":"X","pattern":"S","legs":"M"},"bonus":1.2400000000000013},{"view_history":[{"page_index":0,"viewing_time":3150.399999976158},{"page_index":1,"viewing_time":14103.899999976158},{"page_index":2,"viewing_time":12415.900000095367},{"page_index":3,"viewing_time":21903.899999976158},{"page_index":4,"viewing_time":40183.60000002384},{"page_index":5,"viewing_time":2368},{"page_index":6,"viewing_time":8712},{"page_index":7,"viewing_time":10607.899999976158},{"page_index":8,"viewing_time":9759.899999976158},{"page_index":9,"viewing_time":7704},{"page_index":10,"viewing_time":8167.899999976158},{"page_index":11,"viewing_time":6215.899999976158},{"page_index":12,"viewing_time":19143.900000095367},{"page_index":13,"viewing_time":1919.8999999761581},{"page_index":14,"viewing_time":1920.1000000238419}],"rt":168277.29999995232,"trial_type":"instructions","trial_index":7,"time_elapsed":434500,"internal_node_id":"0.0-3.0-4.0-0.0","subject_id":"610aadf3dc6d9b1de02c4a39","study_id":"60edd13110225f80f9f3709b","session_id":"6196baa1357de4e8d21c4e47","condition":"full-information","relevant_dimensions":["pattern","legs"],"bee_group":{"antennae":"X","wings":"X","pattern":"S","legs":"M"},"bonus":1.2400000000000013},{"rt":17813.700000047684,"response":{"Q0":["Two or six legs","Stripes or spots on body","Single or double wings","Antennae or no antennae"]},"question_order":[0],"trial_type":"survey-multi-select","trial_index":8,"time_elapsed":452317,"internal_node_id":"0.0-3.0-4.0-1.0","subject_id":"610aadf3dc6d9b1de02c4a39","study_id":"60edd13110225f80f9f3709b","session_id":"6196baa1357de4e8d21c4e47","condition":"full-information","relevant_dimensions":["pattern","legs"],"bee_group":{"antennae":"X","wings":"X","pattern":"S","legs":"M"},"correct":true,"bonus":1.2400000000000013},{"rt":38747.89999997616,"response":{"Q1":"No.","Q2":"Based on the four features of the bee.","Q3":"You learn if it was friendly or dangerous, but do not alter your bonus."},"question_order":[0,1,2],"trial_type":"survey-multi-choice","trial_index":9,"time_elapsed":491068,"internal_node_id":"0.0-3.0-4.0-2.0","subject_id":"610aadf3dc6d9b1de02c4a39","study_id":"60edd13110225f80f9f3709b","session_id":"6196baa1357de4e8d21c4e47","condition":"full-information","relevant_dimensions":["pattern","legs"],"bee_group":{"antennae":"X","wings":"X","pattern":"S","legs":"M"},"correct":true,"bonus":1.2400000000000013},{"rt":12444.100000023842,"stimulus":"<p>Congrats, you got everything right<br>When you're ready, click the button below to continue to the experiment.</p>","response":0,"trial_type":"html-button-response","trial_index":10,"time_elapsed":503516,"internal_node_id":"0.0-3.0-4.0-3.0","subject_id":"610aadf3dc6d9b1de02c4a39","study_id":"60edd13110225f80f9f3709b","session_id":"6196baa1357de4e8d21c4e47","condition":"full-information","relevant_dimensions":["pattern","legs"],"bee_group":{"antennae":"X","wings":"X","pattern":"S","legs":"M"},"bonus":1.2400000000000013},{"rt":31301.399999976158,"stimulus":"bees-with-color/bee-A2DM.svg","response":1,"trial_type":"image-button-response","trial_index":11,"time_elapsed":534820,"internal_node_id":"0.0-4.0-0.0","subject_id":"610aadf3dc6d9b1de02c4a39","study_id":"60edd13110225f80f9f3709b","session_id":"6196baa1357de4e8d21c4e47","condition":"full-information","relevant_dimensions":["pattern","legs"],"bee_group":{"antennae":"X","wings":"X","pattern":"S","legs":"M"},"action":"avoid","summary":"bad-avoid","bonus":1.2400000000000013},{"rt":13605.300000071526,"stimulus":"\n                    <p><b>Action: <em>avoid</em></b></p>\n                    <p>This is the bee that you just saw.</p>\n                    <img src=\"bees-with-color/bee-A2DM.svg\" width=\"200\">\n                    <p><span class=\"redText\">Bad choice,</span> the bee was friendly.<br>Your bonus pay is unchanged, and remains at $0.54.</p>\n            ","response":0,"trial_type":"html-button-response","trial_index":12,"time_elapsed":548428,"internal_node_id":"0.0-4.0-1.0","subject_id":"610aadf3dc6d9b1de02c4a39","study_id":"60edd13110225f80f9f3709b","session_id":"6196baa1357de4e8d21c4e47","condition":"full-information","relevant_dimensions":["pattern","legs"],"bee_group":{"antennae":"X","wings":"X","pattern":"S","legs":"M"},"bonus":1.2400000000000013},{"rt":23997.899999976158,"stimulus":"bees-with-color/bee-B1DF.svg","response":1,"trial_type":"image-button-response","trial_index":13,"time_elapsed":572427,"internal_node_id":"0.0-4.0-0.1","subject_id":"610aadf3dc6d9b1de02c4a39","study_id":"60edd13110225f80f9f3709b","session_id":"6196baa1357de4e8d21c4e47","condition":"full-information","relevant_dimensions":["pattern","legs"],"bee_group":{"antennae":"X","wings":"X","pattern":"S","legs":"M"},"action":"avoid","summary":"bad-avoid","bonus":1.2400000000000013},{"rt":9486.399999976158,"stimulus":"\n                    <p><b>Action: <em>avoid</em></b></p>\n                    <p>This is the bee that you just saw.</p>\n                    <img src=\"bees-with-color/bee-B1DF.svg\" width=\"200\">\n                    <p><span class=\"redText\">Bad choice,</span> the bee was friendly.<br>Your bonus pay is unchanged, and remains at $0.54.</p>\n            ","response":0,"trial_type":"html-button-response","trial_index":14,"time_elapsed":581915,"internal_node_id":"0.0-4.0-1.1","subject_id":"610aadf3dc6d9b1de02c4a39","study_id":"60edd13110225f80f9f3709b","session_id":"6196baa1357de4e8d21c4e47","condition":"full-information","relevant_dimensions":["pattern","legs"],"bee_group":{"antennae":"X","wings":"X","pattern":"S","legs":"M"},"bonus":1.2400000000000013},{"rt":22469.899999976158,"stimulus":"bees-with-color/bee-A1SM.svg","response":1,"trial_type":"image-button-response","trial_index":15,"time_elapsed":604387,"internal_node_id":"0.0-4.0-0.2","subject_id":"610aadf3dc6d9b1de02c4a39","study_id":"60edd13110225f80f9f3709b","session_id":"6196baa1357de4e8d21c4e47","condition":"full-information","relevant_dimensions":["pattern","legs"],"bee_group":{"antennae":"X","wings":"X","pattern":"S","legs":"M"},"action":"avoid","summary":"good-avoid","bonus":1.2400000000000013},{"rt":9318.600000023842,"stimulus":"\n                    <p><b>Action: <em>avoid</em></b></p>\n                    <p>This is the bee that you just saw.</p>\n                    <img src=\"bees-with-color/bee-A1SM.svg\" width=\"200\">\n                    <p><span class=\"greenText\">Good choice!</span>  This bee would have stung you.<br>Your bonus pay is unchanged, and remains at $0.54.</p>\n            ","response":0,"trial_type":"html-button-response","trial_index":16,"time_elapsed":613707,"internal_node_id":"0.0-4.0-1.2","subject_id":"610aadf3dc6d9b1de02c4a39","study_id":"60edd13110225f80f9f3709b","session_id":"6196baa1357de4e8d21c4e47","condition":"full-information","relevant_dimensions":["pattern","legs"],"bee_group":{"antennae":"X","wings":"X","pattern":"S","legs":"M"},"bonus":1.2400000000000013},{"rt":5254.400000095367,"stimulus":"bees-with-color/bee-B2DF.svg","response":0,"trial_type":"image-button-response","trial_index":17,"time_elapsed":618963,"internal_node_id":"0.0-4.0-0.3","subject_id":"610aadf3dc6d9b1de02c4a39","study_id":"60edd13110225f80f9f3709b","session_id":"6196baa1357de4e8d21c4e47","condition":"full-information","relevant_dimensions":["pattern","legs"],"bee_group":{"antennae":"X","wings":"X","pattern":"S","legs":"M"},"action":"harvest","summary":"good-harvest","bonus":1.2400000000000013},{"rt":5702.700000047684,"stimulus":"\n                    <p><b>Action: <em>harvest</em></b></p>\n                    <p>This is the bee that you just saw.</p>\n                    <img src=\"bees-with-color/bee-B2DF.svg\" width=\"200\">\n                    <p><span class=\"greenText\"><b>Successful harvest!</b></span><br>Your pay has increased by $0.02. Your bonus pay is now $0.56.</p>\n            ","response":0,"trial_type":"html-button-response","trial_index":18,"time_elapsed":624667,"internal_node_id":"0.0-4.0-1.3","subject_id":"610aadf3dc6d9b1de02c4a39","study_id":"60edd13110225f80f9f3709b","session_id":"6196baa1357de4e8d21c4e47","condition":"full-information","relevant_dimensions":["pattern","legs"],"bee_group":{"antennae":"X","wings":"X","pattern":"S","legs":"M"},"bonus":1.2400000000000013},{"rt":4950.100000023842,"stimulus":"bees-with-color/bee-B2SM.svg","response":0,"trial_type":"image-button-response","trial_index":19,"time_elapsed":629619,"internal_node_id":"0.0-4.0-0.4","subject_id":"610aadf3dc6d9b1de02c4a39","study_id":"60edd13110225f80f9f3709b","session_id":"6196baa1357de4e8d21c4e47","condition":"full-information","relevant_dimensions":["pattern","legs"],"bee_group":{"antennae":"X","wings":"X","pattern":"S","legs":"M"},"action":"harvest","summary":"bad-harvest","bonus":1.2400000000000013},{"rt":17054.5,"stimulus":"\n                    <p><b>Action: <em>harvest</em></b></p>\n                    <p>This is the bee that you just saw.</p>\n                    <img src=\"bees-with-color/bee-B2SM.svg\" width=\"200\">\n                    <p><span class=\"redText\">Bad choice, the bee was angry.</span><br><b>You have been stung!</b><br>Your pay has been decreased by $0.10. Your bonus pay is now $0.46.</p>\n            ","response":0,"trial_type":"html-button-response","trial_index":20,"time_elapsed":646675,"internal_node_id":"0.0-4.0-1.4","subject_id":"610aadf3dc6d9b1de02c4a39","study_id":"60edd13110225f80f9f3709b","session_id":"6196baa1357de4e8d21c4e47","condition":"full-information","relevant_dimensions":["pattern","legs"],"bee_group":{"antennae":"X","wings":"X","pattern":"S","legs":"M"},"bonus":1.2400000000000013},{"rt":12326.299999952316,"stimulus":"bees-with-color/bee-A2DF.svg","response":0,"trial_type":"image-button-response","trial_index":21,"time_elapsed":659003,"internal_node_id":"0.0-4.0-0.5","subject_id":"610aadf3dc6d9b1de02c4a39","study_id":"60edd13110225f80f9f3709b","session_id":"6196baa1357de4e8d21c4e47","condition":"full-information","relevant_dimensions":["pattern","legs"],"bee_group":{"antennae":"X","wings":"X","pattern":"S","legs":"M"},"action":"harvest","summary":"good-harvest","bonus":1.2400000000000013},{"rt":4086.399999976158,"stimulus":"\n                    <p><b>Action: <em>harvest</em></b></p>\n                    <p>This is the bee that you just saw.</p>\n                    <img src=\"bees-with-color/bee-A2DF.svg\" width=\"200\">\n                    <p><span class=\"greenText\"><b>Successful harvest!</b></span><br>Your pay has increased by $0.02. Your bonus pay is now $0.48.</p>\n            ","response":0,"trial_type":"html-button-response","trial_index":22,"time_elapsed":663091,"internal_node_id":"0.0-4.0-1.5","subject_id":"610aadf3dc6d9b1de02c4a39","study_id":"60edd13110225f80f9f3709b","session_id":"6196baa1357de4e8d21c4e47","condition":"full-information","relevant_dimensions":["pattern","legs"],"bee_group":{"antennae":"X","wings":"X","pattern":"S","legs":"M"},"bonus":1.2400000000000013},{"rt":14934.100000023842,"stimulus":"bees-with-color/bee-B1SF.svg","response":0,"trial_type":"image-button-response","trial_index":23,"time_elapsed":678026,"internal_node_id":"0.0-4.0-0.6","subject_id":"610aadf3dc6d9b1de02c4a39","study_id":"60edd13110225f80f9f3709b","session_id":"6196baa1357de4e8d21c4e47","condition":"full-information","relevant_dimensions":["pattern","legs"],"bee_group":{"antennae":"X","wings":"X","pattern":"S","legs":"M"},"action":"harvest","summary":"good-harvest","bonus":1.2400000000000013},{"rt":2894.7000000476837,"stimulus":"\n                    <p><b>Action: <em>harvest</em></b></p>\n                    <p>This is the bee that you just saw.</p>\n                    <img src=\"bees-with-color/bee-B1SF.svg\" width=\"200\">\n                    <p><span class=\"greenText\"><b>Successful harvest!</b></span><br>Your pay has increased by $0.02. Your bonus pay is now $0.50.</p>\n            ","response":0,"trial_type":"html-button-response","trial_index":24,"time_elapsed":680922,"internal_node_id":"0.0-4.0-1.6","subject_id":"610aadf3dc6d9b1de02c4a39","study_id":"60edd13110225f80f9f3709b","session_id":"6196baa1357de4e8d21c4e47","condition":"full-information","relevant_dimensions":["pattern","legs"],"bee_group":{"antennae":"X","wings":"X","pattern":"S","legs":"M"},"bonus":1.2400000000000013},{"rt":18566.200000047684,"stimulus":"bees-with-color/bee-A1SF.svg","response":1,"trial_type":"image-button-response","trial_index":25,"time_elapsed":699490,"internal_node_id":"0.0-4.0-0.7","subject_id":"610aadf3dc6d9b1de02c4a39","study_id":"60edd13110225f80f9f3709b","session_id":"6196baa1357de4e8d21c4e47","condition":"full-information","relevant_dimensions":["pattern","legs"],"bee_group":{"antennae":"X","wings":"X","pattern":"S","legs":"M"},"action":"avoid","summary":"bad-avoid","bonus":1.2400000000000013},{"rt":25262.5,"stimulus":"\n                    <p><b>Action: <em>avoid</em></b></p>\n                    <p>This is the bee that you just saw.</p>\n                    <img src=\"bees-with-color/bee-A1SF.svg\" width=\"200\">\n                    <p><span class=\"redText\">Bad choice,</span> the bee was friendly.<br>Your bonus pay is unchanged, and remains at $0.50.</p>\n            ","response":0,"trial_type":"html-button-response","trial_index":26,"time_elapsed":724754,"internal_node_id":"0.0-4.0-1.7","subject_id":"610aadf3dc6d9b1de02c4a39","study_id":"60edd13110225f80f9f3709b","session_id":"6196baa1357de4e8d21c4e47","condition":"full-information","relevant_dimensions":["pattern","legs"],"bee_group":{"antennae":"X","wings":"X","pattern":"S","legs":"M"},"bonus":1.2400000000000013},{"rt":44685.799999952316,"stimulus":"bees-with-color/bee-B1SM.svg","response":0,"trial_type":"image-button-response","trial_index":27,"time_elapsed":769442,"internal_node_id":"0.0-4.0-0.8","subject_id":"610aadf3dc6d9b1de02c4a39","study_id":"60edd13110225f80f9f3709b","session_id":"6196baa1357de4e8d21c4e47","condition":"full-information","relevant_dimensions":["pattern","legs"],"bee_group":{"antennae":"X","wings":"X","pattern":"S","legs":"M"},"action":"harvest","summary":"bad-harvest","bonus":1.2400000000000013},{"rt":9886.600000023842,"stimulus":"\n                    <p><b>Action: <em>harvest</em></b></p>\n                    <p>This is the bee that you just saw.</p>\n                    <img src=\"bees-with-color/bee-B1SM.svg\" width=\"200\">\n                    <p><span class=\"redText\">Bad choice, the bee was angry.</span><br><b>You have been stung!</b><br>Your pay has been decreased by $0.10. Your bonus pay is now $0.40.</p>\n            ","response":0,"trial_type":"html-button-response","trial_index":28,"time_elapsed":779330,"internal_node_id":"0.0-4.0-1.8","subject_id":"610aadf3dc6d9b1de02c4a39","study_id":"60edd13110225f80f9f3709b","session_id":"6196baa1357de4e8d21c4e47","condition":"full-information","relevant_dimensions":["pattern","legs"],"bee_group":{"antennae":"X","wings":"X","pattern":"S","legs":"M"},"bonus":1.2400000000000013},{"rt":22006.300000071526,"stimulus":"bees-with-color/bee-B2SF.svg","response":0,"trial_type":"image-button-response","trial_index":29,"time_elapsed":801338,"internal_node_id":"0.0-4.0-0.9","subject_id":"610aadf3dc6d9b1de02c4a39","study_id":"60edd13110225f80f9f3709b","session_id":"6196baa1357de4e8d21c4e47","condition":"full-information","relevant_dimensions":["pattern","legs"],"bee_group":{"antennae":"X","wings":"X","pattern":"S","legs":"M"},"action":"harvest","summary":"good-harvest","bonus":1.2400000000000013},{"rt":11942.600000023842,"stimulus":"\n                    <p><b>Action: <em>harvest</em></b></p>\n                    <p>This is the bee that you just saw.</p>\n                    <img src=\"bees-with-color/bee-B2SF.svg\" width=\"200\">\n                    <p><span class=\"greenText\"><b>Successful harvest!</b></span><br>Your pay has increased by $0.02. Your bonus pay is now $0.42.</p>\n            ","response":0,"trial_type":"html-button-response","trial_index":30,"time_elapsed":813282,"internal_node_id":"0.0-4.0-1.9","subject_id":"610aadf3dc6d9b1de02c4a39","study_id":"60edd13110225f80f9f3709b","session_id":"6196baa1357de4e8d21c4e47","condition":"full-information","relevant_dimensions":["pattern","legs"],"bee_group":{"antennae":"X","wings":"X","pattern":"S","legs":"M"},"bonus":1.2400000000000013},{"rt":29670.200000047684,"stimulus":"bees-with-color/bee-B1DM.svg","response":1,"trial_type":"image-button-response","trial_index":31,"time_elapsed":842953,"internal_node_id":"0.0-4.0-0.10","subject_id":"610aadf3dc6d9b1de02c4a39","study_id":"60edd13110225f80f9f3709b","session_id":"6196baa1357de4e8d21c4e47","condition":"full-information","relevant_dimensions":["pattern","legs"],"bee_group":{"antennae":"X","wings":"X","pattern":"S","legs":"M"},"action":"avoid","summary":"bad-avoid","bonus":1.2400000000000013},{"rt":23366.400000095367,"stimulus":"\n                    <p><b>Action: <em>avoid</em></b></p>\n                    <p>This is the bee that you just saw.</p>\n                    <img src=\"bees-with-color/bee-B1DM.svg\" width=\"200\">\n                    <p><span class=\"redText\">Bad choice,</span> the bee was friendly.<br>Your bonus pay is unchanged, and remains at $0.42.</p>\n            ","response":0,"trial_type":"html-button-response","trial_index":32,"time_elapsed":866321,"internal_node_id":"0.0-4.0-1.10","subject_id":"610aadf3dc6d9b1de02c4a39","study_id":"60edd13110225f80f9f3709b","session_id":"6196baa1357de4e8d21c4e47","condition":"full-information","relevant_dimensions":["pattern","legs"],"bee_group":{"antennae":"X","wings":"X","pattern":"S","legs":"M"},"bonus":1.2400000000000013},{"rt":23910.200000047684,"stimulus":"bees-with-color/bee-A2SM.svg","response":0,"trial_type":"image-button-response","trial_index":33,"time_elapsed":890233,"internal_node_id":"0.0-4.0-0.11","subject_id":"610aadf3dc6d9b1de02c4a39","study_id":"60edd13110225f80f9f3709b","session_id":"6196baa1357de4e8d21c4e47","condition":"full-information","relevant_dimensions":["pattern","legs"],"bee_group":{"antennae":"X","wings":"X","pattern":"S","legs":"M"},"action":"harvest","summary":"bad-harvest","bonus":1.2400000000000013},{"rt":23838.699999928474,"stimulus":"\n                    <p><b>Action: <em>harvest</em></b></p>\n                    <p>This is the bee that you just saw.</p>\n                    <img src=\"bees-with-color/bee-A2SM.svg\" width=\"200\">\n                    <p><span class=\"redText\">Bad choice, the bee was angry.</span><br><b>You have been stung!</b><br>Your pay has been decreased by $0.10. Your bonus pay is now $0.32.</p>\n            ","response":0,"trial_type":"html-button-response","trial_index":34,"time_elapsed":914073,"internal_node_id":"0.0-4.0-1.11","subject_id":"610aadf3dc6d9b1de02c4a39","study_id":"60edd13110225f80f9f3709b","session_id":"6196baa1357de4e8d21c4e47","condition":"full-information","relevant_dimensions":["pattern","legs"],"bee_group":{"antennae":"X","wings":"X","pattern":"S","legs":"M"},"bonus":1.2400000000000013},{"rt":23678.200000047684,"stimulus":"bees-with-color/bee-A1DM.svg","response":1,"trial_type":"image-button-response","trial_index":35,"time_elapsed":937752,"internal_node_id":"0.0-4.0-0.12","subject_id":"610aadf3dc6d9b1de02c4a39","study_id":"60edd13110225f80f9f3709b","session_id":"6196baa1357de4e8d21c4e47","condition":"full-information","relevant_dimensions":["pattern","legs"],"bee_group":{"antennae":"X","wings":"X","pattern":"S","legs":"M"},"action":"avoid","summary":"bad-avoid","bonus":1.2400000000000013},{"rt":22398.5,"stimulus":"\n                    <p><b>Action: <em>avoid</em></b></p>\n                    <p>This is the bee that you just saw.</p>\n                    <img src=\"bees-with-color/bee-A1DM.svg\" width=\"200\">\n                    <p><span class=\"redText\">Bad choice,</span> the bee was friendly.<br>Your bonus pay is unchanged, and remains at $0.32.</p>\n            ","response":0,"trial_type":"html-button-response","trial_index":36,"time_elapsed":960152,"internal_node_id":"0.0-4.0-1.12","subject_id":"610aadf3dc6d9b1de02c4a39","study_id":"60edd13110225f80f9f3709b","session_id":"6196baa1357de4e8d21c4e47","condition":"full-information","relevant_dimensions":["pattern","legs"],"bee_group":{"antennae":"X","wings":"X","pattern":"S","legs":"M"},"bonus":1.2400000000000013},{"rt":17902.299999952316,"stimulus":"bees-with-color/bee-B2DM.svg","response":0,"trial_type":"image-button-response","trial_index":37,"time_elapsed":978056,"internal_node_id":"0.0-4.0-0.13","subject_id":"610aadf3dc6d9b1de02c4a39","study_id":"60edd13110225f80f9f3709b","session_id":"6196baa1357de4e8d21c4e47","condition":"full-information","relevant_dimensions":["pattern","legs"],"bee_group":{"antennae":"X","wings":"X","pattern":"S","legs":"M"},"action":"harvest","summary":"good-harvest","bonus":1.2400000000000013},{"rt":3038.7999999523163,"stimulus":"\n                    <p><b>Action: <em>harvest</em></b></p>\n                    <p>This is the bee that you just saw.</p>\n                    <img src=\"bees-with-color/bee-B2DM.svg\" width=\"200\">\n                    <p><span class=\"greenText\"><b>Successful harvest!</b></span><br>Your pay has increased by $0.02. Your bonus pay is now $0.34.</p>\n            ","response":0,"trial_type":"html-button-response","trial_index":38,"time_elapsed":981096,"internal_node_id":"0.0-4.0-1.13","subject_id":"610aadf3dc6d9b1de02c4a39","study_id":"60edd13110225f80f9f3709b","session_id":"6196baa1357de4e8d21c4e47","condition":"full-information","relevant_dimensions":["pattern","legs"],"bee_group":{"antennae":"X","wings":"X","pattern":"S","legs":"M"},"bonus":1.2400000000000013},{"rt":46422.10000002384,"stimulus":"bees-with-color/bee-A2SF.svg","response":0,"trial_type":"image-button-response","trial_index":39,"time_elapsed":1027520,"internal_node_id":"0.0-4.0-0.14","subject_id":"610aadf3dc6d9b1de02c4a39","study_id":"60edd13110225f80f9f3709b","session_id":"6196baa1357de4e8d21c4e47","condition":"full-information","relevant_dimensions":["pattern","legs"],"bee_group":{"antennae":"X","wings":"X","pattern":"S","legs":"M"},"action":"harvest","summary":"good-harvest","bonus":1.2400000000000013},{"rt":7966.599999904633,"stimulus":"\n                    <p><b>Action: <em>harvest</em></b></p>\n                    <p>This is the bee that you just saw.</p>\n                    <img src=\"bees-with-color/bee-A2SF.svg\" width=\"200\">\n                    <p><span class=\"greenText\"><b>Successful harvest!</b></span><br>Your pay has increased by $0.02. Your bonus pay is now $0.36.</p>\n            ","response":0,"trial_type":"html-button-response","trial_index":40,"time_elapsed":1035488,"internal_node_id":"0.0-4.0-1.14","subject_id":"610aadf3dc6d9b1de02c4a39","study_id":"60edd13110225f80f9f3709b","session_id":"6196baa1357de4e8d21c4e47","condition":"full-information","relevant_dimensions":["pattern","legs"],"bee_group":{"antennae":"X","wings":"X","pattern":"S","legs":"M"},"bonus":1.2400000000000013},{"rt":35094.200000047684,"stimulus":"bees-with-color/bee-A1DF.svg","response":0,"trial_type":"image-button-response","trial_index":41,"time_elapsed":1070583,"internal_node_id":"0.0-4.0-0.15","subject_id":"610aadf3dc6d9b1de02c4a39","study_id":"60edd13110225f80f9f3709b","session_id":"6196baa1357de4e8d21c4e47","condition":"full-information","relevant_dimensions":["pattern","legs"],"bee_group":{"antennae":"X","wings":"X","pattern":"S","legs":"M"},"action":"harvest","summary":"good-harvest","bonus":1.2400000000000013},{"rt":18486.600000023842,"stimulus":"\n                    <p><b>Action: <em>harvest</em></b></p>\n                    <p>This is the bee that you just saw.</p>\n                    <img src=\"bees-with-color/bee-A1DF.svg\" width=\"200\">\n                    <p><span class=\"greenText\"><b>Successful harvest!</b></span><br>Your pay has increased by $0.02. Your bonus pay is now $0.38.</p>\n            ","response":0,"trial_type":"html-button-response","trial_index":42,"time_elapsed":1089071,"internal_node_id":"0.0-4.0-1.15","subject_id":"610aadf3dc6d9b1de02c4a39","study_id":"60edd13110225f80f9f3709b","session_id":"6196baa1357de4e8d21c4e47","condition":"full-information","relevant_dimensions":["pattern","legs"],"bee_group":{"antennae":"X","wings":"X","pattern":"S","legs":"M"},"bonus":1.2400000000000013},{"rt":36310.200000047684,"stimulus":"bees-with-color/bee-B2DM.svg","response":1,"trial_type":"image-button-response","trial_index":43,"time_elapsed":1125383,"internal_node_id":"0.0-4.0-0.16","subject_id":"610aadf3dc6d9b1de02c4a39","study_id":"60edd13110225f80f9f3709b","session_id":"6196baa1357de4e8d21c4e47","condition":"full-information","relevant_dimensions":["pattern","legs"],"bee_group":{"antennae":"X","wings":"X","pattern":"S","legs":"M"},"action":"avoid","summary":"bad-avoid","bonus":1.2400000000000013},{"rt":23430.5,"stimulus":"\n                    <p><b>Action: <em>avoid</em></b></p>\n                    <p>This is the bee that you just saw.</p>\n                    <img src=\"bees-with-color/bee-B2DM.svg\" width=\"200\">\n                    <p><span class=\"redText\">Bad choice,</span> the bee was friendly.<br>Your bonus pay is unchanged, and remains at $0.38.</p>\n            ","response":0,"trial_type":"html-button-response","trial_index":44,"time_elapsed":1148815,"internal_node_id":"0.0-4.0-1.16","subject_id":"610aadf3dc6d9b1de02c4a39","study_id":"60edd13110225f80f9f3709b","session_id":"6196baa1357de4e8d21c4e47","condition":"full-information","relevant_dimensions":["pattern","legs"],"bee_group":{"antennae":"X","wings":"X","pattern":"S","legs":"M"},"bonus":1.2400000000000013},{"rt":43022.200000047684,"stimulus":"bees-with-color/bee-A1SM.svg","response":1,"trial_type":"image-button-response","trial_index":45,"time_elapsed":1191839,"internal_node_id":"0.0-4.0-0.17","subject_id":"610aadf3dc6d9b1de02c4a39","study_id":"60edd13110225f80f9f3709b","session_id":"6196baa1357de4e8d21c4e47","condition":"full-information","relevant_dimensions":["pattern","legs"],"bee_group":{"antennae":"X","wings":"X","pattern":"S","legs":"M"},"action":"avoid","summary":"good-avoid","bonus":1.2400000000000013},{"rt":14478.5,"stimulus":"\n                    <p><b>Action: <em>avoid</em></b></p>\n                    <p>This is the bee that you just saw.</p>\n                    <img src=\"bees-with-color/bee-A1SM.svg\" width=\"200\">\n                    <p><span class=\"greenText\">Good choice!</span>  This bee would have stung you.<br>Your bonus pay is unchanged, and remains at $0.38.</p>\n            ","response":0,"trial_type":"html-button-response","trial_index":46,"time_elapsed":1206319,"internal_node_id":"0.0-4.0-1.17","subject_id":"610aadf3dc6d9b1de02c4a39","study_id":"60edd13110225f80f9f3709b","session_id":"6196baa1357de4e8d21c4e47","condition":"full-information","relevant_dimensions":["pattern","legs"],"bee_group":{"antennae":"X","wings":"X","pattern":"S","legs":"M"},"bonus":1.2400000000000013},{"rt":18766.299999952316,"stimulus":"bees-with-color/bee-A1DM.svg","response":0,"trial_type":"image-button-response","trial_index":47,"time_elapsed":1225086,"internal_node_id":"0.0-4.0-0.18","subject_id":"610aadf3dc6d9b1de02c4a39","study_id":"60edd13110225f80f9f3709b","session_id":"6196baa1357de4e8d21c4e47","condition":"full-information","relevant_dimensions":["pattern","legs"],"bee_group":{"antennae":"X","wings":"X","pattern":"S","legs":"M"},"action":"harvest","summary":"good-harvest","bonus":1.2400000000000013},{"rt":1958.6999999284744,"stimulus":"\n                    <p><b>Action: <em>harvest</em></b></p>\n                    <p>This is the bee that you just saw.</p>\n                    <img src=\"bees-with-color/bee-A1DM.svg\" width=\"200\">\n                    <p><span class=\"greenText\"><b>Successful harvest!</b></span><br>Your pay has increased by $0.02. Your bonus pay is now $0.40.</p>\n            ","response":0,"trial_type":"html-button-response","trial_index":48,"time_elapsed":1227046,"internal_node_id":"0.0-4.0-1.18","subject_id":"610aadf3dc6d9b1de02c4a39","study_id":"60edd13110225f80f9f3709b","session_id":"6196baa1357de4e8d21c4e47","condition":"full-information","relevant_dimensions":["pattern","legs"],"bee_group":{"antennae":"X","wings":"X","pattern":"S","legs":"M"},"bonus":1.2400000000000013},{"rt":25710.300000071526,"stimulus":"bees-with-color/bee-A2DM.svg","response":0,"trial_type":"image-button-response","trial_index":49,"time_elapsed":1252758,"internal_node_id":"0.0-4.0-0.19","subject_id":"610aadf3dc6d9b1de02c4a39","study_id":"60edd13110225f80f9f3709b","session_id":"6196baa1357de4e8d21c4e47","condition":"full-information","relevant_dimensions":["pattern","legs"],"bee_group":{"antennae":"X","wings":"X","pattern":"S","legs":"M"},"action":"harvest","summary":"good-harvest","bonus":1.2400000000000013},{"rt":2094.8000000715256,"stimulus":"\n                    <p><b>Action: <em>harvest</em></b></p>\n                    <p>This is the bee that you just saw.</p>\n                    <img src=\"bees-with-color/bee-A2DM.svg\" width=\"200\">\n                    <p><span class=\"greenText\"><b>Successful harvest!</b></span><br>Your pay has increased by $0.02. Your bonus pay is now $0.42.</p>\n            ","response":0,"trial_type":"html-button-response","trial_index":50,"time_elapsed":1254854,"internal_node_id":"0.0-4.0-1.19","subject_id":"610aadf3dc6d9b1de02c4a39","study_id":"60edd13110225f80f9f3709b","session_id":"6196baa1357de4e8d21c4e47","condition":"full-information","relevant_dimensions":["pattern","legs"],"bee_group":{"antennae":"X","wings":"X","pattern":"S","legs":"M"},"bonus":1.2400000000000013},{"rt":25174.299999952316,"stimulus":"bees-with-color/bee-A2SM.svg","response":1,"trial_type":"image-button-response","trial_index":51,"time_elapsed":1280030,"internal_node_id":"0.0-4.0-0.20","subject_id":"610aadf3dc6d9b1de02c4a39","study_id":"60edd13110225f80f9f3709b","session_id":"6196baa1357de4e8d21c4e47","condition":"full-information","relevant_dimensions":["pattern","legs"],"bee_group":{"antennae":"X","wings":"X","pattern":"S","legs":"M"},"action":"avoid","summary":"good-avoid","bonus":1.2400000000000013},{"rt":4670.699999928474,"stimulus":"\n                    <p><b>Action: <em>avoid</em></b></p>\n                    <p>This is the bee that you just saw.</p>\n                    <img src=\"bees-with-color/bee-A2SM.svg\" width=\"200\">\n                    <p><span class=\"greenText\">Good choice!</span>  This bee would have stung you.<br>Your bonus pay is unchanged, and remains at $0.42.</p>\n            ","response":0,"trial_type":"html-button-response","trial_index":52,"time_elapsed":1284702,"internal_node_id":"0.0-4.0-1.20","subject_id":"610aadf3dc6d9b1de02c4a39","study_id":"60edd13110225f80f9f3709b","session_id":"6196baa1357de4e8d21c4e47","condition":"full-information","relevant_dimensions":["pattern","legs"],"bee_group":{"antennae":"X","wings":"X","pattern":"S","legs":"M"},"bonus":1.2400000000000013},{"rt":35494.10000002384,"stimulus":"bees-with-color/bee-A2DF.svg","response":0,"trial_type":"image-button-response","trial_index":53,"time_elapsed":1320198,"internal_node_id":"0.0-4.0-0.21","subject_id":"610aadf3dc6d9b1de02c4a39","study_id":"60edd13110225f80f9f3709b","session_id":"6196baa1357de4e8d21c4e47","condition":"full-information","relevant_dimensions":["pattern","legs"],"bee_group":{"antennae":"X","wings":"X","pattern":"S","legs":"M"},"action":"harvest","summary":"good-harvest","bonus":1.2400000000000013},{"rt":3542.8000000715256,"stimulus":"\n                    <p><b>Action: <em>harvest</em></b></p>\n                    <p>This is the bee that you just saw.</p>\n                    <img src=\"bees-with-color/bee-A2DF.svg\" width=\"200\">\n                    <p><span class=\"greenText\"><b>Successful harvest!</b></span><br>Your pay has increased by $0.02. Your bonus pay is now $0.44.</p>\n            ","response":0,"trial_type":"html-button-response","trial_index":54,"time_elapsed":1323742,"internal_node_id":"0.0-4.0-1.21","subject_id":"610aadf3dc6d9b1de02c4a39","study_id":"60edd13110225f80f9f3709b","session_id":"6196baa1357de4e8d21c4e47","condition":"full-information","relevant_dimensions":["pattern","legs"],"bee_group":{"antennae":"X","wings":"X","pattern":"S","legs":"M"},"bonus":1.2400000000000013},{"rt":37550.09999990463,"stimulus":"bees-with-color/bee-B2DF.svg","response":0,"trial_type":"image-button-response","trial_index":55,"time_elapsed":1361293,"internal_node_id":"0.0-4.0-0.22","subject_id":"610aadf3dc6d9b1de02c4a39","study_id":"60edd13110225f80f9f3709b","session_id":"6196baa1357de4e8d21c4e47","condition":"full-information","relevant_dimensions":["pattern","legs"],"bee_group":{"antennae":"X","wings":"X","pattern":"S","legs":"M"},"action":"harvest","summary":"good-harvest","bonus":1.2400000000000013},{"rt":2262.6999999284744,"stimulus":"\n                    <p><b>Action: <em>harvest</em></b></p>\n                    <p>This is the bee that you just saw.</p>\n                    <img src=\"bees-with-color/bee-B2DF.svg\" width=\"200\">\n                    <p><span class=\"greenText\"><b>Successful harvest!</b></span><br>Your pay has increased by $0.02. Your bonus pay is now $0.46.</p>\n            ","response":0,"trial_type":"html-button-response","trial_index":56,"time_elapsed":1363557,"internal_node_id":"0.0-4.0-1.22","subject_id":"610aadf3dc6d9b1de02c4a39","study_id":"60edd13110225f80f9f3709b","session_id":"6196baa1357de4e8d21c4e47","condition":"full-information","relevant_dimensions":["pattern","legs"],"bee_group":{"antennae":"X","wings":"X","pattern":"S","legs":"M"},"bonus":1.2400000000000013},{"rt":15814.400000095367,"stimulus":"bees-with-color/bee-A1DF.svg","response":0,"trial_type":"image-button-response","trial_index":57,"time_elapsed":1379373,"internal_node_id":"0.0-4.0-0.23","subject_id":"610aadf3dc6d9b1de02c4a39","study_id":"60edd13110225f80f9f3709b","session_id":"6196baa1357de4e8d21c4e47","condition":"full-information","relevant_dimensions":["pattern","legs"],"bee_group":{"antennae":"X","wings":"X","pattern":"S","legs":"M"},"action":"harvest","summary":"good-harvest","bonus":1.2400000000000013},{"rt":8382.700000047684,"stimulus":"\n                    <p><b>Action: <em>harvest</em></b></p>\n                    <p>This is the bee that you just saw.</p>\n                    <img src=\"bees-with-color/bee-A1DF.svg\" width=\"200\">\n                    <p><span class=\"greenText\"><b>Successful harvest!</b></span><br>Your pay has increased by $0.02. Your bonus pay is now $0.48.</p>\n            ","response":0,"trial_type":"html-button-response","trial_index":58,"time_elapsed":1387757,"internal_node_id":"0.0-4.0-1.23","subject_id":"610aadf3dc6d9b1de02c4a39","study_id":"60edd13110225f80f9f3709b","session_id":"6196baa1357de4e8d21c4e47","condition":"full-information","relevant_dimensions":["pattern","legs"],"bee_group":{"antennae":"X","wings":"X","pattern":"S","legs":"M"},"bonus":1.2400000000000013},{"rt":31166.299999952316,"stimulus":"bees-with-color/bee-B2SM.svg","response":0,"trial_type":"image-button-response","trial_index":59,"time_elapsed":1418925,"internal_node_id":"0.0-4.0-0.24","subject_id":"610aadf3dc6d9b1de02c4a39","study_id":"60edd13110225f80f9f3709b","session_id":"6196baa1357de4e8d21c4e47","condition":"full-information","relevant_dimensions":["pattern","legs"],"bee_group":{"antennae":"X","wings":"X","pattern":"S","legs":"M"},"action":"harvest","summary":"bad-harvest","bonus":1.2400000000000013},{"rt":25454.600000023842,"stimulus":"\n                    <p><b>Action: <em>harvest</em></b></p>\n                    <p>This is the bee that you just saw.</p>\n                    <img src=\"bees-with-color/bee-B2SM.svg\" width=\"200\">\n                    <p><span class=\"redText\">Bad choice, the bee was angry.</span><br><b>You have been stung!</b><br>Your pay has been decreased by $0.10. Your bonus pay is now $0.38.</p>\n            ","response":0,"trial_type":"html-button-response","trial_index":60,"time_elapsed":1444381,"internal_node_id":"0.0-4.0-1.24","subject_id":"610aadf3dc6d9b1de02c4a39","study_id":"60edd13110225f80f9f3709b","session_id":"6196baa1357de4e8d21c4e47","condition":"full-information","relevant_dimensions":["pattern","legs"],"bee_group":{"antennae":"X","wings":"X","pattern":"S","legs":"M"},"bonus":1.2400000000000013},{"rt":14541.600000023842,"stimulus":"bees-with-color/bee-A2SF.svg","response":0,"trial_type":"image-button-response","trial_index":61,"time_elapsed":1458924,"internal_node_id":"0.0-4.0-0.25","subject_id":"610aadf3dc6d9b1de02c4a39","study_id":"60edd13110225f80f9f3709b","session_id":"6196baa1357de4e8d21c4e47","condition":"full-information","relevant_dimensions":["pattern","legs"],"bee_group":{"antennae":"X","wings":"X","pattern":"S","legs":"M"},"action":"harvest","summary":"good-harvest","bonus":1.2400000000000013},{"rt":1398.6000000238419,"stimulus":"\n                    <p><b>Action: <em>harvest</em></b></p>\n                    <p>This is the bee that you just saw.</p>\n                    <img src=\"bees-with-color/bee-A2SF.svg\" width=\"200\">\n                    <p><span class=\"greenText\"><b>Successful harvest!</b></span><br>Your pay has increased by $0.02. Your bonus pay is now $0.40.</p>\n            ","response":0,"trial_type":"html-button-response","trial_index":62,"time_elapsed":1460324,"internal_node_id":"0.0-4.0-1.25","subject_id":"610aadf3dc6d9b1de02c4a39","study_id":"60edd13110225f80f9f3709b","session_id":"6196baa1357de4e8d21c4e47","condition":"full-information","relevant_dimensions":["pattern","legs"],"bee_group":{"antennae":"X","wings":"X","pattern":"S","legs":"M"},"bonus":1.2400000000000013},{"rt":58214.10000002384,"stimulus":"bees-with-color/bee-B1SF.svg","response":0,"trial_type":"image-button-response","trial_index":63,"time_elapsed":1518540,"internal_node_id":"0.0-4.0-0.26","subject_id":"610aadf3dc6d9b1de02c4a39","study_id":"60edd13110225f80f9f3709b","session_id":"6196baa1357de4e8d21c4e47","condition":"full-information","relevant_dimensions":["pattern","legs"],"bee_group":{"antennae":"X","wings":"X","pattern":"S","legs":"M"},"action":"harvest","summary":"good-harvest","bonus":1.2400000000000013},{"rt":6879,"stimulus":"\n                    <p><b>Action: <em>harvest</em></b></p>\n                    <p>This is the bee that you just saw.</p>\n                    <img src=\"bees-with-color/bee-B1SF.svg\" width=\"200\">\n                    <p><span class=\"greenText\"><b>Successful harvest!</b></span><br>Your pay has increased by $0.02. Your bonus pay is now $0.42.</p>\n            ","response":0,"trial_type":"html-button-response","trial_index":64,"time_elapsed":1525420,"internal_node_id":"0.0-4.0-1.26","subject_id":"610aadf3dc6d9b1de02c4a39","study_id":"60edd13110225f80f9f3709b","session_id":"6196baa1357de4e8d21c4e47","condition":"full-information","relevant_dimensions":["pattern","legs"],"bee_group":{"antennae":"X","wings":"X","pattern":"S","legs":"M"},"bonus":1.2400000000000013},{"rt":5974.100000023842,"stimulus":"bees-with-color/bee-B1SM.svg","response":0,"trial_type":"image-button-response","trial_index":65,"time_elapsed":1531396,"internal_node_id":"0.0-4.0-0.27","subject_id":"610aadf3dc6d9b1de02c4a39","study_id":"60edd13110225f80f9f3709b","session_id":"6196baa1357de4e8d21c4e47","condition":"full-information","relevant_dimensions":["pattern","legs"],"bee_group":{"antennae":"X","wings":"X","pattern":"S","legs":"M"},"action":"harvest","summary":"bad-harvest","bonus":1.2400000000000013},{"rt":2254.7999999523163,"stimulus":"\n                    <p><b>Action: <em>harvest</em></b></p>\n                    <p>This is the bee that you just saw.</p>\n                    <img src=\"bees-with-color/bee-B1SM.svg\" width=\"200\">\n                    <p><span class=\"redText\">Bad choice, the bee was angry.</span><br><b>You have been stung!</b><br>Your pay has been decreased by $0.10. Your bonus pay is now $0.32.</p>\n            ","response":0,"trial_type":"html-button-response","trial_index":66,"time_elapsed":1533652,"internal_node_id":"0.0-4.0-1.27","subject_id":"610aadf3dc6d9b1de02c4a39","study_id":"60edd13110225f80f9f3709b","session_id":"6196baa1357de4e8d21c4e47","condition":"full-information","relevant_dimensions":["pattern","legs"],"bee_group":{"antennae":"X","wings":"X","pattern":"S","legs":"M"},"bonus":1.2400000000000013},{"rt":4494.399999976158,"stimulus":"bees-with-color/bee-B1DM.svg","response":0,"trial_type":"image-button-response","trial_index":67,"time_elapsed":1538148,"internal_node_id":"0.0-4.0-0.28","subject_id":"610aadf3dc6d9b1de02c4a39","study_id":"60edd13110225f80f9f3709b","session_id":"6196baa1357de4e8d21c4e47","condition":"full-information","relevant_dimensions":["pattern","legs"],"bee_group":{"antennae":"X","wings":"X","pattern":"S","legs":"M"},"action":"harvest","summary":"good-harvest","bonus":1.2400000000000013},{"rt":2222.600000023842,"stimulus":"\n                    <p><b>Action: <em>harvest</em></b></p>\n                    <p>This is the bee that you just saw.</p>\n                    <img src=\"bees-with-color/bee-B1DM.svg\" width=\"200\">\n                    <p><span class=\"greenText\"><b>Successful harvest!</b></span><br>Your pay has increased by $0.02. Your bonus pay is now $0.34.</p>\n            ","response":0,"trial_type":"html-button-response","trial_index":68,"time_elapsed":1540372,"internal_node_id":"0.0-4.0-1.28","subject_id":"610aadf3dc6d9b1de02c4a39","study_id":"60edd13110225f80f9f3709b","session_id":"6196baa1357de4e8d21c4e47","condition":"full-information","relevant_dimensions":["pattern","legs"],"bee_group":{"antennae":"X","wings":"X","pattern":"S","legs":"M"},"bonus":1.2400000000000013},{"rt":11350.299999952316,"stimulus":"bees-with-color/bee-A1SF.svg","response":0,"trial_type":"image-button-response","trial_index":69,"time_elapsed":1551724,"internal_node_id":"0.0-4.0-0.29","subject_id":"610aadf3dc6d9b1de02c4a39","study_id":"60edd13110225f80f9f3709b","session_id":"6196baa1357de4e8d21c4e47","condition":"full-information","relevant_dimensions":["pattern","legs"],"bee_group":{"antennae":"X","wings":"X","pattern":"S","legs":"M"},"action":"harvest","summary":"good-harvest","bonus":1.2400000000000013},{"rt":1646.7999999523163,"stimulus":"\n                    <p><b>Action: <em>harvest</em></b></p>\n                    <p>This is the bee that you just saw.</p>\n                    <img src=\"bees-with-color/bee-A1SF.svg\" width=\"200\">\n                    <p><span class=\"greenText\"><b>Successful harvest!</b></span><br>Your pay has increased by $0.02. Your bonus pay is now $0.36.</p>\n            ","response":0,"trial_type":"html-button-response","trial_index":70,"time_elapsed":1553372,"internal_node_id":"0.0-4.0-1.29","subject_id":"610aadf3dc6d9b1de02c4a39","study_id":"60edd13110225f80f9f3709b","session_id":"6196baa1357de4e8d21c4e47","condition":"full-information","relevant_dimensions":["pattern","legs"],"bee_group":{"antennae":"X","wings":"X","pattern":"S","legs":"M"},"bonus":1.2400000000000013},{"rt":20846.200000047684,"stimulus":"bees-with-color/bee-B1DF.svg","response":0,"trial_type":"image-button-response","trial_index":71,"time_elapsed":1574220,"internal_node_id":"0.0-4.0-0.30","subject_id":"610aadf3dc6d9b1de02c4a39","study_id":"60edd13110225f80f9f3709b","session_id":"6196baa1357de4e8d21c4e47","condition":"full-information","relevant_dimensions":["pattern","legs"],"bee_group":{"antennae":"X","wings":"X","pattern":"S","legs":"M"},"action":"harvest","summary":"good-harvest","bonus":1.2400000000000013},{"rt":2222.7000000476837,"stimulus":"\n                    <p><b>Action: <em>harvest</em></b></p>\n                    <p>This is the bee that you just saw.</p>\n                    <img src=\"bees-with-color/bee-B1DF.svg\" width=\"200\">\n                    <p><span class=\"greenText\"><b>Successful harvest!</b></span><br>Your pay has increased by $0.02. Your bonus pay is now $0.38.</p>\n            ","response":0,"trial_type":"html-button-response","trial_index":72,"time_elapsed":1576444,"internal_node_id":"0.0-4.0-1.30","subject_id":"610aadf3dc6d9b1de02c4a39","study_id":"60edd13110225f80f9f3709b","session_id":"6196baa1357de4e8d21c4e47","condition":"full-information","relevant_dimensions":["pattern","legs"],"bee_group":{"antennae":"X","wings":"X","pattern":"S","legs":"M"},"bonus":1.2400000000000013},{"rt":29134.299999952316,"stimulus":"bees-with-color/bee-B2SF.svg","response":0,"trial_type":"image-button-response","trial_index":73,"time_elapsed":1605579,"internal_node_id":"0.0-4.0-0.31","subject_id":"610aadf3dc6d9b1de02c4a39","study_id":"60edd13110225f80f9f3709b","session_id":"6196baa1357de4e8d21c4e47","condition":"full-information","relevant_dimensions":["pattern","legs"],"bee_group":{"antennae":"X","wings":"X","pattern":"S","legs":"M"},"action":"harvest","summary":"good-harvest","bonus":1.2400000000000013},{"rt":1862.6000000238419,"stimulus":"\n                    <p><b>Action: <em>harvest</em></b></p>\n                    <p>This is the bee that you just saw.</p>\n                    <img src=\"bees-with-color/bee-B2SF.svg\" width=\"200\">\n                    <p><span class=\"greenText\"><b>Successful harvest!</b></span><br>Your pay has increased by $0.02. Your bonus pay is now $0.40.</p>\n            ","response":0,"trial_type":"html-button-response","trial_index":74,"time_elapsed":1607443,"internal_node_id":"0.0-4.0-1.31","subject_id":"610aadf3dc6d9b1de02c4a39","study_id":"60edd13110225f80f9f3709b","session_id":"6196baa1357de4e8d21c4e47","condition":"full-information","relevant_dimensions":["pattern","legs"],"bee_group":{"antennae":"X","wings":"X","pattern":"S","legs":"M"},"bonus":1.2400000000000013},{"rt":17734.399999976158,"stimulus":"bees-with-color/bee-A1DM.svg","response":0,"trial_type":"image-button-response","trial_index":75,"time_elapsed":1625179,"internal_node_id":"0.0-4.0-0.32","subject_id":"610aadf3dc6d9b1de02c4a39","study_id":"60edd13110225f80f9f3709b","session_id":"6196baa1357de4e8d21c4e47","condition":"full-information","relevant_dimensions":["pattern","legs"],"bee_group":{"antennae":"X","wings":"X","pattern":"S","legs":"M"},"action":"harvest","summary":"good-harvest","bonus":1.2400000000000013},{"rt":1734.7000000476837,"stimulus":"\n                    <p><b>Action: <em>harvest</em></b></p>\n                    <p>This is the bee that you just saw.</p>\n                    <img src=\"bees-with-color/bee-A1DM.svg\" width=\"200\">\n                    <p><span class=\"greenText\"><b>Successful harvest!</b></span><br>Your pay has increased by $0.02. Your bonus pay is now $0.42.</p>\n            ","response":0,"trial_type":"html-button-response","trial_index":76,"time_elapsed":1626915,"internal_node_id":"0.0-4.0-1.32","subject_id":"610aadf3dc6d9b1de02c4a39","study_id":"60edd13110225f80f9f3709b","session_id":"6196baa1357de4e8d21c4e47","condition":"full-information","relevant_dimensions":["pattern","legs"],"bee_group":{"antennae":"X","wings":"X","pattern":"S","legs":"M"},"bonus":1.2400000000000013},{"rt":54494.09999990463,"stimulus":"bees-with-color/bee-B2DM.svg","response":0,"trial_type":"image-button-response","trial_index":77,"time_elapsed":1681411,"internal_node_id":"0.0-4.0-0.33","subject_id":"610aadf3dc6d9b1de02c4a39","study_id":"60edd13110225f80f9f3709b","session_id":"6196baa1357de4e8d21c4e47","condition":"full-information","relevant_dimensions":["pattern","legs"],"bee_group":{"antennae":"X","wings":"X","pattern":"S","legs":"M"},"action":"harvest","summary":"good-harvest","bonus":1.2400000000000013},{"rt":9966.600000023842,"stimulus":"\n                    <p><b>Action: <em>harvest</em></b></p>\n                    <p>This is the bee that you just saw.</p>\n                    <img src=\"bees-with-color/bee-B2DM.svg\" width=\"200\">\n                    <p><span class=\"greenText\"><b>Successful harvest!</b></span><br>Your pay has increased by $0.02. Your bonus pay is now $0.44.</p>\n            ","response":0,"trial_type":"html-button-response","trial_index":78,"time_elapsed":1691379,"internal_node_id":"0.0-4.0-1.33","subject_id":"610aadf3dc6d9b1de02c4a39","study_id":"60edd13110225f80f9f3709b","session_id":"6196baa1357de4e8d21c4e47","condition":"full-information","relevant_dimensions":["pattern","legs"],"bee_group":{"antennae":"X","wings":"X","pattern":"S","legs":"M"},"bonus":1.2400000000000013},{"rt":61054,"stimulus":"bees-with-color/bee-A2DF.svg","response":0,"trial_type":"image-button-response","trial_index":79,"time_elapsed":1752434,"internal_node_id":"0.0-4.0-0.34","subject_id":"610aadf3dc6d9b1de02c4a39","study_id":"60edd13110225f80f9f3709b","session_id":"6196baa1357de4e8d21c4e47","condition":"full-information","relevant_dimensions":["pattern","legs"],"bee_group":{"antennae":"X","wings":"X","pattern":"S","legs":"M"},"action":"harvest","summary":"good-harvest","bonus":1.2400000000000013},{"rt":6990.600000023842,"stimulus":"\n                    <p><b>Action: <em>harvest</em></b></p>\n                    <p>This is the bee that you just saw.</p>\n                    <img src=\"bees-with-color/bee-A2DF.svg\" width=\"200\">\n                    <p><span class=\"greenText\"><b>Successful harvest!</b></span><br>Your pay has increased by $0.02. Your bonus pay is now $0.46.</p>\n            ","response":0,"trial_type":"html-button-response","trial_index":80,"time_elapsed":1759426,"internal_node_id":"0.0-4.0-1.34","subject_id":"610aadf3dc6d9b1de02c4a39","study_id":"60edd13110225f80f9f3709b","session_id":"6196baa1357de4e8d21c4e47","condition":"full-information","relevant_dimensions":["pattern","legs"],"bee_group":{"antennae":"X","wings":"X","pattern":"S","legs":"M"},"bonus":1.2400000000000013},{"rt":16190.399999976158,"stimulus":"bees-with-color/bee-B1SF.svg","response":0,"trial_type":"image-button-response","trial_index":81,"time_elapsed":1775618,"internal_node_id":"0.0-4.0-0.35","subject_id":"610aadf3dc6d9b1de02c4a39","study_id":"60edd13110225f80f9f3709b","session_id":"6196baa1357de4e8d21c4e47","condition":"full-information","relevant_dimensions":["pattern","legs"],"bee_group":{"antennae":"X","wings":"X","pattern":"S","legs":"M"},"action":"harvest","summary":"good-harvest","bonus":1.2400000000000013},{"rt":1502.7000000476837,"stimulus":"\n                    <p><b>Action: <em>harvest</em></b></p>\n                    <p>This is the bee that you just saw.</p>\n                    <img src=\"bees-with-color/bee-B1SF.svg\" width=\"200\">\n                    <p><span class=\"greenText\"><b>Successful harvest!</b></span><br>Your pay has increased by $0.02. Your bonus pay is now $0.48.</p>\n            ","response":0,"trial_type":"html-button-response","trial_index":82,"time_elapsed":1777122,"internal_node_id":"0.0-4.0-1.35","subject_id":"610aadf3dc6d9b1de02c4a39","study_id":"60edd13110225f80f9f3709b","session_id":"6196baa1357de4e8d21c4e47","condition":"full-information","relevant_dimensions":["pattern","legs"],"bee_group":{"antennae":"X","wings":"X","pattern":"S","legs":"M"},"bonus":1.2400000000000013},{"rt":60182,"stimulus":"bees-with-color/bee-B2SM.svg","response":0,"trial_type":"image-button-response","trial_index":83,"time_elapsed":1837305,"internal_node_id":"0.0-4.0-0.36","subject_id":"610aadf3dc6d9b1de02c4a39","study_id":"60edd13110225f80f9f3709b","session_id":"6196baa1357de4e8d21c4e47","condition":"full-information","relevant_dimensions":["pattern","legs"],"bee_group":{"antennae":"X","wings":"X","pattern":"S","legs":"M"},"action":"harvest","summary":"bad-harvest","bonus":1.2400000000000013},{"rt":8302.700000047684,"stimulus":"\n                    <p><b>Action: <em>harvest</em></b></p>\n                    <p>This is the bee that you just saw.</p>\n                    <img src=\"bees-with-color/bee-B2SM.svg\" width=\"200\">\n                    <p><span class=\"redText\">Bad choice, the bee was angry.</span><br><b>You have been stung!</b><br>Your pay has been decreased by $0.10. Your bonus pay is now $0.38.</p>\n            ","response":0,"trial_type":"html-button-response","trial_index":84,"time_elapsed":1845609,"internal_node_id":"0.0-4.0-1.36","subject_id":"610aadf3dc6d9b1de02c4a39","study_id":"60edd13110225f80f9f3709b","session_id":"6196baa1357de4e8d21c4e47","condition":"full-information","relevant_dimensions":["pattern","legs"],"bee_group":{"antennae":"X","wings":"X","pattern":"S","legs":"M"},"bonus":1.2400000000000013},{"rt":33526.200000047684,"stimulus":"bees-with-color/bee-A2DM.svg","response":0,"trial_type":"image-button-response","trial_index":85,"time_elapsed":1879137,"internal_node_id":"0.0-4.0-0.37","subject_id":"610aadf3dc6d9b1de02c4a39","study_id":"60edd13110225f80f9f3709b","session_id":"6196baa1357de4e8d21c4e47","condition":"full-information","relevant_dimensions":["pattern","legs"],"bee_group":{"antennae":"X","wings":"X","pattern":"S","legs":"M"},"action":"harvest","summary":"good-harvest","bonus":1.2400000000000013},{"rt":2470.899999976158,"stimulus":"\n                    <p><b>Action: <em>harvest</em></b></p>\n                    <p>This is the bee that you just saw.</p>\n                    <img src=\"bees-with-color/bee-A2DM.svg\" width=\"200\">\n                    <p><span class=\"greenText\"><b>Successful harvest!</b></span><br>Your pay has increased by $0.02. Your bonus pay is now $0.40.</p>\n            ","response":0,"trial_type":"html-button-response","trial_index":86,"time_elapsed":1881609,"internal_node_id":"0.0-4.0-1.37","subject_id":"610aadf3dc6d9b1de02c4a39","study_id":"60edd13110225f80f9f3709b","session_id":"6196baa1357de4e8d21c4e47","condition":"full-information","relevant_dimensions":["pattern","legs"],"bee_group":{"antennae":"X","wings":"X","pattern":"S","legs":"M"},"bonus":1.2400000000000013},{"rt":63069.700000047684,"stimulus":"bees-with-color/bee-B1DF.svg","response":0,"trial_type":"image-button-response","trial_index":87,"time_elapsed":1944681,"internal_node_id":"0.0-4.0-0.38","subject_id":"610aadf3dc6d9b1de02c4a39","study_id":"60edd13110225f80f9f3709b","session_id":"6196baa1357de4e8d21c4e47","condition":"full-information","relevant_dimensions":["pattern","legs"],"bee_group":{"antennae":"X","wings":"X","pattern":"S","legs":"M"},"action":"harvest","summary":"good-harvest","bonus":1.2400000000000013},{"rt":6878.799999952316,"stimulus":"\n                    <p><b>Action: <em>harvest</em></b></p>\n                    <p>This is the bee that you just saw.</p>\n                    <img src=\"bees-with-color/bee-B1DF.svg\" width=\"200\">\n                    <p><span class=\"greenText\"><b>Successful harvest!</b></span><br>Your pay has increased by $0.02. Your bonus pay is now $0.42.</p>\n            ","response":0,"trial_type":"html-button-response","trial_index":88,"time_elapsed":1951561,"internal_node_id":"0.0-4.0-1.38","subject_id":"610aadf3dc6d9b1de02c4a39","study_id":"60edd13110225f80f9f3709b","session_id":"6196baa1357de4e8d21c4e47","condition":"full-information","relevant_dimensions":["pattern","legs"],"bee_group":{"antennae":"X","wings":"X","pattern":"S","legs":"M"},"bonus":1.2400000000000013},{"rt":19166.399999976158,"stimulus":"bees-with-color/bee-B1SM.svg","response":1,"trial_type":"image-button-response","trial_index":89,"time_elapsed":1970729,"internal_node_id":"0.0-4.0-0.39","subject_id":"610aadf3dc6d9b1de02c4a39","study_id":"60edd13110225f80f9f3709b","session_id":"6196baa1357de4e8d21c4e47","condition":"full-information","relevant_dimensions":["pattern","legs"],"bee_group":{"antennae":"X","wings":"X","pattern":"S","legs":"M"},"action":"avoid","summary":"good-avoid","bonus":1.2400000000000013},{"rt":3109.600000023842,"stimulus":"\n                    <p><b>Action: <em>avoid</em></b></p>\n                    <p>This is the bee that you just saw.</p>\n                    <img src=\"bees-with-color/bee-B1SM.svg\" width=\"200\">\n                    <p><span class=\"greenText\">Good choice!</span>  This bee would have stung you.<br>Your bonus pay is unchanged, and remains at $0.42.</p>\n            ","response":0,"trial_type":"html-button-response","trial_index":90,"time_elapsed":1973841,"internal_node_id":"0.0-4.0-1.39","subject_id":"610aadf3dc6d9b1de02c4a39","study_id":"60edd13110225f80f9f3709b","session_id":"6196baa1357de4e8d21c4e47","condition":"full-information","relevant_dimensions":["pattern","legs"],"bee_group":{"antennae":"X","wings":"X","pattern":"S","legs":"M"},"bonus":1.2400000000000013},{"rt":20766.199999928474,"stimulus":"bees-with-color/bee-A1DF.svg","response":0,"trial_type":"image-button-response","trial_index":91,"time_elapsed":1994608,"internal_node_id":"0.0-4.0-0.40","subject_id":"610aadf3dc6d9b1de02c4a39","study_id":"60edd13110225f80f9f3709b","session_id":"6196baa1357de4e8d21c4e47","condition":"full-information","relevant_dimensions":["pattern","legs"],"bee_group":{"antennae":"X","wings":"X","pattern":"S","legs":"M"},"action":"harvest","summary":"good-harvest","bonus":1.2400000000000013},{"rt":2782.7999999523163,"stimulus":"\n                    <p><b>Action: <em>harvest</em></b></p>\n                    <p>This is the bee that you just saw.</p>\n                    <img src=\"bees-with-color/bee-A1DF.svg\" width=\"200\">\n                    <p><span class=\"greenText\"><b>Successful harvest!</b></span><br>Your pay has increased by $0.02. Your bonus pay is now $0.44.</p>\n            ","response":0,"trial_type":"html-button-response","trial_index":92,"time_elapsed":1997392,"internal_node_id":"0.0-4.0-1.40","subject_id":"610aadf3dc6d9b1de02c4a39","study_id":"60edd13110225f80f9f3709b","session_id":"6196baa1357de4e8d21c4e47","condition":"full-information","relevant_dimensions":["pattern","legs"],"bee_group":{"antennae":"X","wings":"X","pattern":"S","legs":"M"},"bonus":1.2400000000000013},{"rt":25006.200000047684,"stimulus":"bees-with-color/bee-B2DF.svg","response":0,"trial_type":"image-button-response","trial_index":93,"time_elapsed":2022400,"internal_node_id":"0.0-4.0-0.41","subject_id":"610aadf3dc6d9b1de02c4a39","study_id":"60edd13110225f80f9f3709b","session_id":"6196baa1357de4e8d21c4e47","condition":"full-information","relevant_dimensions":["pattern","legs"],"bee_group":{"antennae":"X","wings":"X","pattern":"S","legs":"M"},"action":"harvest","summary":"good-harvest","bonus":1.2400000000000013},{"rt":1838.8000000715256,"stimulus":"\n                    <p><b>Action: <em>harvest</em></b></p>\n                    <p>This is the bee that you just saw.</p>\n                    <img src=\"bees-with-color/bee-B2DF.svg\" width=\"200\">\n                    <p><span class=\"greenText\"><b>Successful harvest!</b></span><br>Your pay has increased by $0.02. Your bonus pay is now $0.46.</p>\n            ","response":0,"trial_type":"html-button-response","trial_index":94,"time_elapsed":2024240,"internal_node_id":"0.0-4.0-1.41","subject_id":"610aadf3dc6d9b1de02c4a39","study_id":"60edd13110225f80f9f3709b","session_id":"6196baa1357de4e8d21c4e47","condition":"full-information","relevant_dimensions":["pattern","legs"],"bee_group":{"antennae":"X","wings":"X","pattern":"S","legs":"M"},"bonus":1.2400000000000013},{"rt":24158.199999928474,"stimulus":"bees-with-color/bee-A1SF.svg","response":0,"trial_type":"image-button-response","trial_index":95,"time_elapsed":2048399,"internal_node_id":"0.0-4.0-0.42","subject_id":"610aadf3dc6d9b1de02c4a39","study_id":"60edd13110225f80f9f3709b","session_id":"6196baa1357de4e8d21c4e47","condition":"full-information","relevant_dimensions":["pattern","legs"],"bee_group":{"antennae":"X","wings":"X","pattern":"S","legs":"M"},"action":"harvest","summary":"good-harvest","bonus":1.2400000000000013},{"rt":1870.8999999761581,"stimulus":"\n                    <p><b>Action: <em>harvest</em></b></p>\n                    <p>This is the bee that you just saw.</p>\n                    <img src=\"bees-with-color/bee-A1SF.svg\" width=\"200\">\n                    <p><span class=\"greenText\"><b>Successful harvest!</b></span><br>Your pay has increased by $0.02. Your bonus pay is now $0.48.</p>\n            ","response":0,"trial_type":"html-button-response","trial_index":96,"time_elapsed":2050271,"internal_node_id":"0.0-4.0-1.42","subject_id":"610aadf3dc6d9b1de02c4a39","study_id":"60edd13110225f80f9f3709b","session_id":"6196baa1357de4e8d21c4e47","condition":"full-information","relevant_dimensions":["pattern","legs"],"bee_group":{"antennae":"X","wings":"X","pattern":"S","legs":"M"},"bonus":1.2400000000000013},{"rt":13006.399999976158,"stimulus":"bees-with-color/bee-A1SM.svg","response":1,"trial_type":"image-button-response","trial_index":97,"time_elapsed":2063279,"internal_node_id":"0.0-4.0-0.43","subject_id":"610aadf3dc6d9b1de02c4a39","study_id":"60edd13110225f80f9f3709b","session_id":"6196baa1357de4e8d21c4e47","condition":"full-information","relevant_dimensions":["pattern","legs"],"bee_group":{"antennae":"X","wings":"X","pattern":"S","legs":"M"},"action":"avoid","summary":"good-avoid","bonus":1.2400000000000013},{"rt":2270.600000023842,"stimulus":"\n                    <p><b>Action: <em>avoid</em></b></p>\n                    <p>This is the bee that you just saw.</p>\n                    <img src=\"bees-with-color/bee-A1SM.svg\" width=\"200\">\n                    <p><span class=\"greenText\">Good choice!</span>  This bee would have stung you.<br>Your bonus pay is unchanged, and remains at $0.48.</p>\n            ","response":0,"trial_type":"html-button-response","trial_index":98,"time_elapsed":2065551,"internal_node_id":"0.0-4.0-1.43","subject_id":"610aadf3dc6d9b1de02c4a39","study_id":"60edd13110225f80f9f3709b","session_id":"6196baa1357de4e8d21c4e47","condition":"full-information","relevant_dimensions":["pattern","legs"],"bee_group":{"antennae":"X","wings":"X","pattern":"S","legs":"M"},"bonus":1.2400000000000013},{"rt":11558.600000023842,"stimulus":"bees-with-color/bee-A2SM.svg","response":1,"trial_type":"image-button-response","trial_index":99,"time_elapsed":2077111,"internal_node_id":"0.0-4.0-0.44","subject_id":"610aadf3dc6d9b1de02c4a39","study_id":"60edd13110225f80f9f3709b","session_id":"6196baa1357de4e8d21c4e47","condition":"full-information","relevant_dimensions":["pattern","legs"],"bee_group":{"antennae":"X","wings":"X","pattern":"S","legs":"M"},"action":"avoid","summary":"good-avoid","bonus":1.2400000000000013},{"rt":2006.8000000715256,"stimulus":"\n                    <p><b>Action: <em>avoid</em></b></p>\n                    <p>This is the bee that you just saw.</p>\n                    <img src=\"bees-with-color/bee-A2SM.svg\" width=\"200\">\n                    <p><span class=\"greenText\">Good choice!</span>  This bee would have stung you.<br>Your bonus pay is unchanged, and remains at $0.48.</p>\n            ","response":0,"trial_type":"html-button-response","trial_index":100,"time_elapsed":2079119,"internal_node_id":"0.0-4.0-1.44","subject_id":"610aadf3dc6d9b1de02c4a39","study_id":"60edd13110225f80f9f3709b","session_id":"6196baa1357de4e8d21c4e47","condition":"full-information","relevant_dimensions":["pattern","legs"],"bee_group":{"antennae":"X","wings":"X","pattern":"S","legs":"M"},"bonus":1.2400000000000013},{"rt":19430.399999976158,"stimulus":"bees-with-color/bee-A2SF.svg","response":0,"trial_type":"image-button-response","trial_index":101,"time_elapsed":2098551,"internal_node_id":"0.0-4.0-0.45","subject_id":"610aadf3dc6d9b1de02c4a39","study_id":"60edd13110225f80f9f3709b","session_id":"6196baa1357de4e8d21c4e47","condition":"full-information","relevant_dimensions":["pattern","legs"],"bee_group":{"antennae":"X","wings":"X","pattern":"S","legs":"M"},"action":"harvest","summary":"good-harvest","bonus":1.2400000000000013},{"rt":1478.8999999761581,"stimulus":"\n                    <p><b>Action: <em>harvest</em></b></p>\n                    <p>This is the bee that you just saw.</p>\n                    <img src=\"bees-with-color/bee-A2SF.svg\" width=\"200\">\n                    <p><span class=\"greenText\"><b>Successful harvest!</b></span><br>Your pay has increased by $0.02. Your bonus pay is now $0.50.</p>\n            ","response":0,"trial_type":"html-button-response","trial_index":102,"time_elapsed":2100031,"internal_node_id":"0.0-4.0-1.45","subject_id":"610aadf3dc6d9b1de02c4a39","study_id":"60edd13110225f80f9f3709b","session_id":"6196baa1357de4e8d21c4e47","condition":"full-information","relevant_dimensions":["pattern","legs"],"bee_group":{"antennae":"X","wings":"X","pattern":"S","legs":"M"},"bonus":1.2400000000000013},{"rt":52086.10000002384,"stimulus":"bees-with-color/bee-B2SF.svg","response":0,"trial_type":"image-button-response","trial_index":103,"time_elapsed":2152119,"internal_node_id":"0.0-4.0-0.46","subject_id":"610aadf3dc6d9b1de02c4a39","study_id":"60edd13110225f80f9f3709b","session_id":"6196baa1357de4e8d21c4e47","condition":"full-information","relevant_dimensions":["pattern","legs"],"bee_group":{"antennae":"X","wings":"X","pattern":"S","legs":"M"},"action":"harvest","summary":"good-harvest","bonus":1.2400000000000013},{"rt":1870.7000000476837,"stimulus":"\n                    <p><b>Action: <em>harvest</em></b></p>\n                    <p>This is the bee that you just saw.</p>\n                    <img src=\"bees-with-color/bee-B2SF.svg\" width=\"200\">\n                    <p><span class=\"greenText\"><b>Successful harvest!</b></span><br>Your pay has increased by $0.02. Your bonus pay is now $0.52.</p>\n            ","response":0,"trial_type":"html-button-response","trial_index":104,"time_elapsed":2153991,"internal_node_id":"0.0-4.0-1.46","subject_id":"610aadf3dc6d9b1de02c4a39","study_id":"60edd13110225f80f9f3709b","session_id":"6196baa1357de4e8d21c4e47","condition":"full-information","relevant_dimensions":["pattern","legs"],"bee_group":{"antennae":"X","wings":"X","pattern":"S","legs":"M"},"bonus":1.2400000000000013},{"rt":11038.299999952316,"stimulus":"bees-with-color/bee-B1DM.svg","response":0,"trial_type":"image-button-response","trial_index":105,"time_elapsed":2165031,"internal_node_id":"0.0-4.0-0.47","subject_id":"610aadf3dc6d9b1de02c4a39","study_id":"60edd13110225f80f9f3709b","session_id":"6196baa1357de4e8d21c4e47","condition":"full-information","relevant_dimensions":["pattern","legs"],"bee_group":{"antennae":"X","wings":"X","pattern":"S","legs":"M"},"action":"harvest","summary":"good-harvest","bonus":1.2400000000000013},{"rt":1518.7999999523163,"stimulus":"\n                    <p><b>Action: <em>harvest</em></b></p>\n                    <p>This is the bee that you just saw.</p>\n                    <img src=\"bees-with-color/bee-B1DM.svg\" width=\"200\">\n                    <p><span class=\"greenText\"><b>Successful harvest!</b></span><br>Your pay has increased by $0.02. Your bonus pay is now $0.54.</p>\n            ","response":0,"trial_type":"html-button-response","trial_index":106,"time_elapsed":2166551,"internal_node_id":"0.0-4.0-1.47","subject_id":"610aadf3dc6d9b1de02c4a39","study_id":"60edd13110225f80f9f3709b","session_id":"6196baa1357de4e8d21c4e47","condition":"full-information","relevant_dimensions":["pattern","legs"],"bee_group":{"antennae":"X","wings":"X","pattern":"S","legs":"M"},"bonus":1.2400000000000013},{"rt":10054.399999976158,"stimulus":"bees-with-color/bee-B1DM.svg","response":0,"trial_type":"image-button-response","trial_index":107,"time_elapsed":2176607,"internal_node_id":"0.0-4.0-0.48","subject_id":"610aadf3dc6d9b1de02c4a39","study_id":"60edd13110225f80f9f3709b","session_id":"6196baa1357de4e8d21c4e47","condition":"full-information","relevant_dimensions":["pattern","legs"],"bee_group":{"antennae":"X","wings":"X","pattern":"S","legs":"M"},"action":"harvest","summary":"good-harvest","bonus":1.2400000000000013},{"rt":1982.7999999523163,"stimulus":"\n                    <p><b>Action: <em>harvest</em></b></p>\n                    <p>This is the bee that you just saw.</p>\n                    <img src=\"bees-with-color/bee-B1DM.svg\" width=\"200\">\n                    <p><span class=\"greenText\"><b>Successful harvest!</b></span><br>Your pay has increased by $0.02. Your bonus pay is now $0.56.</p>\n            ","response":0,"trial_type":"html-button-response","trial_index":108,"time_elapsed":2178591,"internal_node_id":"0.0-4.0-1.48","subject_id":"610aadf3dc6d9b1de02c4a39","study_id":"60edd13110225f80f9f3709b","session_id":"6196baa1357de4e8d21c4e47","condition":"full-information","relevant_dimensions":["pattern","legs"],"bee_group":{"antennae":"X","wings":"X","pattern":"S","legs":"M"},"bonus":1.2400000000000013},{"rt":17510.300000071526,"stimulus":"bees-with-color/bee-A2DF.svg","response":0,"trial_type":"image-button-response","trial_index":109,"time_elapsed":2196103,"internal_node_id":"0.0-4.0-0.49","subject_id":"610aadf3dc6d9b1de02c4a39","study_id":"60edd13110225f80f9f3709b","session_id":"6196baa1357de4e8d21c4e47","condition":"full-information","relevant_dimensions":["pattern","legs"],"bee_group":{"antennae":"X","wings":"X","pattern":"S","legs":"M"},"action":"harvest","summary":"good-harvest","bonus":1.2400000000000013},{"rt":2022.7999999523163,"stimulus":"\n                    <p><b>Action: <em>harvest</em></b></p>\n                    <p>This is the bee that you just saw.</p>\n                    <img src=\"bees-with-color/bee-A2DF.svg\" width=\"200\">\n                    <p><span class=\"greenText\"><b>Successful harvest!</b></span><br>Your pay has increased by $0.02. Your bonus pay is now $0.58.</p>\n            ","response":0,"trial_type":"html-button-response","trial_index":110,"time_elapsed":2198127,"internal_node_id":"0.0-4.0-1.49","subject_id":"610aadf3dc6d9b1de02c4a39","study_id":"60edd13110225f80f9f3709b","session_id":"6196baa1357de4e8d21c4e47","condition":"full-information","relevant_dimensions":["pattern","legs"],"bee_group":{"antennae":"X","wings":"X","pattern":"S","legs":"M"},"bonus":1.2400000000000013},{"rt":7014.5,"stimulus":"bees-with-color/bee-B1SM.svg","response":1,"trial_type":"image-button-response","trial_index":111,"time_elapsed":2205143,"internal_node_id":"0.0-4.0-0.50","subject_id":"610aadf3dc6d9b1de02c4a39","study_id":"60edd13110225f80f9f3709b","session_id":"6196baa1357de4e8d21c4e47","condition":"full-information","relevant_dimensions":["pattern","legs"],"bee_group":{"antennae":"X","wings":"X","pattern":"S","legs":"M"},"action":"avoid","summary":"good-avoid","bonus":1.2400000000000013},{"rt":2446.8000000715256,"stimulus":"\n                    <p><b>Action: <em>avoid</em></b></p>\n                    <p>This is the bee that you just saw.</p>\n                    <img src=\"bees-with-color/bee-B1SM.svg\" width=\"200\">\n                    <p><span class=\"greenText\">Good choice!</span>  This bee would have stung you.<br>Your bonus pay is unchanged, and remains at $0.58.</p>\n            ","response":0,"trial_type":"html-button-response","trial_index":112,"time_elapsed":2207591,"internal_node_id":"0.0-4.0-1.50","subject_id":"610aadf3dc6d9b1de02c4a39","study_id":"60edd13110225f80f9f3709b","session_id":"6196baa1357de4e8d21c4e47","condition":"full-information","relevant_dimensions":["pattern","legs"],"bee_group":{"antennae":"X","wings":"X","pattern":"S","legs":"M"},"bonus":1.2400000000000013},{"rt":27022.199999928474,"stimulus":"bees-with-color/bee-A2SF.svg","response":0,"trial_type":"image-button-response","trial_index":113,"time_elapsed":2234615,"internal_node_id":"0.0-4.0-0.51","subject_id":"610aadf3dc6d9b1de02c4a39","study_id":"60edd13110225f80f9f3709b","session_id":"6196baa1357de4e8d21c4e47","condition":"full-information","relevant_dimensions":["pattern","legs"],"bee_group":{"antennae":"X","wings":"X","pattern":"S","legs":"M"},"action":"harvest","summary":"good-harvest","bonus":1.2400000000000013},{"rt":1262.6999999284744,"stimulus":"\n                    <p><b>Action: <em>harvest</em></b></p>\n                    <p>This is the bee that you just saw.</p>\n                    <img src=\"bees-with-color/bee-A2SF.svg\" width=\"200\">\n                    <p><span class=\"greenText\"><b>Successful harvest!</b></span><br>Your pay has increased by $0.02. Your bonus pay is now $0.60.</p>\n            ","response":0,"trial_type":"html-button-response","trial_index":114,"time_elapsed":2235879,"internal_node_id":"0.0-4.0-1.51","subject_id":"610aadf3dc6d9b1de02c4a39","study_id":"60edd13110225f80f9f3709b","session_id":"6196baa1357de4e8d21c4e47","condition":"full-information","relevant_dimensions":["pattern","legs"],"bee_group":{"antennae":"X","wings":"X","pattern":"S","legs":"M"},"bonus":1.2400000000000013},{"rt":12214.399999976158,"stimulus":"bees-with-color/bee-A2SM.svg","response":1,"trial_type":"image-button-response","trial_index":115,"time_elapsed":2248094,"internal_node_id":"0.0-4.0-0.52","subject_id":"610aadf3dc6d9b1de02c4a39","study_id":"60edd13110225f80f9f3709b","session_id":"6196baa1357de4e8d21c4e47","condition":"full-information","relevant_dimensions":["pattern","legs"],"bee_group":{"antennae":"X","wings":"X","pattern":"S","legs":"M"},"action":"avoid","summary":"good-avoid","bonus":1.2400000000000013},{"rt":2518.7999999523163,"stimulus":"\n                    <p><b>Action: <em>avoid</em></b></p>\n                    <p>This is the bee that you just saw.</p>\n                    <img src=\"bees-with-color/bee-A2SM.svg\" width=\"200\">\n                    <p><span class=\"greenText\">Good choice!</span>  This bee would have stung you.<br>Your bonus pay is unchanged, and remains at $0.60.</p>\n            ","response":0,"trial_type":"html-button-response","trial_index":116,"time_elapsed":2250614,"internal_node_id":"0.0-4.0-1.52","subject_id":"610aadf3dc6d9b1de02c4a39","study_id":"60edd13110225f80f9f3709b","session_id":"6196baa1357de4e8d21c4e47","condition":"full-information","relevant_dimensions":["pattern","legs"],"bee_group":{"antennae":"X","wings":"X","pattern":"S","legs":"M"},"bonus":1.2400000000000013},{"rt":17742.300000071526,"stimulus":"bees-with-color/bee-B2DF.svg","response":0,"trial_type":"image-button-response","trial_index":117,"time_elapsed":2268358,"internal_node_id":"0.0-4.0-0.53","subject_id":"610aadf3dc6d9b1de02c4a39","study_id":"60edd13110225f80f9f3709b","session_id":"6196baa1357de4e8d21c4e47","condition":"full-information","relevant_dimensions":["pattern","legs"],"bee_group":{"antennae":"X","wings":"X","pattern":"S","legs":"M"},"action":"harvest","summary":"good-harvest","bonus":1.2400000000000013},{"rt":1798.9000000953674,"stimulus":"\n                    <p><b>Action: <em>harvest</em></b></p>\n                    <p>This is the bee that you just saw.</p>\n                    <img src=\"bees-with-color/bee-B2DF.svg\" width=\"200\">\n                    <p><span class=\"greenText\"><b>Successful harvest!</b></span><br>Your pay has increased by $0.02. Your bonus pay is now $0.62.</p>\n            ","response":0,"trial_type":"html-button-response","trial_index":118,"time_elapsed":2270158,"internal_node_id":"0.0-4.0-1.53","subject_id":"610aadf3dc6d9b1de02c4a39","study_id":"60edd13110225f80f9f3709b","session_id":"6196baa1357de4e8d21c4e47","condition":"full-information","relevant_dimensions":["pattern","legs"],"bee_group":{"antennae":"X","wings":"X","pattern":"S","legs":"M"},"bonus":1.2400000000000013},{"rt":28150.199999928474,"stimulus":"bees-with-color/bee-B1DF.svg","response":0,"trial_type":"image-button-response","trial_index":119,"time_elapsed":2298310,"internal_node_id":"0.0-4.0-0.54","subject_id":"610aadf3dc6d9b1de02c4a39","study_id":"60edd13110225f80f9f3709b","session_id":"6196baa1357de4e8d21c4e47","condition":"full-information","relevant_dimensions":["pattern","legs"],"bee_group":{"antennae":"X","wings":"X","pattern":"S","legs":"M"},"action":"harvest","summary":"good-harvest","bonus":1.2400000000000013},{"rt":2166.899999976158,"stimulus":"\n                    <p><b>Action: <em>harvest</em></b></p>\n                    <p>This is the bee that you just saw.</p>\n                    <img src=\"bees-with-color/bee-B1DF.svg\" width=\"200\">\n                    <p><span class=\"greenText\"><b>Successful harvest!</b></span><br>Your pay has increased by $0.02. Your bonus pay is now $0.64.</p>\n            ","response":0,"trial_type":"html-button-response","trial_index":120,"time_elapsed":2300478,"internal_node_id":"0.0-4.0-1.54","subject_id":"610aadf3dc6d9b1de02c4a39","study_id":"60edd13110225f80f9f3709b","session_id":"6196baa1357de4e8d21c4e47","condition":"full-information","relevant_dimensions":["pattern","legs"],"bee_group":{"antennae":"X","wings":"X","pattern":"S","legs":"M"},"bonus":1.2400000000000013},{"rt":34806.200000047684,"stimulus":"bees-with-color/bee-A2DM.svg","response":0,"trial_type":"image-button-response","trial_index":121,"time_elapsed":2335285,"internal_node_id":"0.0-4.0-0.55","subject_id":"610aadf3dc6d9b1de02c4a39","study_id":"60edd13110225f80f9f3709b","session_id":"6196baa1357de4e8d21c4e47","condition":"full-information","relevant_dimensions":["pattern","legs"],"bee_group":{"antennae":"X","wings":"X","pattern":"S","legs":"M"},"action":"harvest","summary":"good-harvest","bonus":1.2400000000000013},{"rt":1862.8000000715256,"stimulus":"\n                    <p><b>Action: <em>harvest</em></b></p>\n                    <p>This is the bee that you just saw.</p>\n                    <img src=\"bees-with-color/bee-A2DM.svg\" width=\"200\">\n                    <p><span class=\"greenText\"><b>Successful harvest!</b></span><br>Your pay has increased by $0.02. Your bonus pay is now $0.66.</p>\n            ","response":0,"trial_type":"html-button-response","trial_index":122,"time_elapsed":2337149,"internal_node_id":"0.0-4.0-1.55","subject_id":"610aadf3dc6d9b1de02c4a39","study_id":"60edd13110225f80f9f3709b","session_id":"6196baa1357de4e8d21c4e47","condition":"full-information","relevant_dimensions":["pattern","legs"],"bee_group":{"antennae":"X","wings":"X","pattern":"S","legs":"M"},"bonus":1.2400000000000013},{"rt":46070,"stimulus":"bees-with-color/bee-A1SM.svg","response":1,"trial_type":"image-button-response","trial_index":123,"time_elapsed":2383221,"internal_node_id":"0.0-4.0-0.56","subject_id":"610aadf3dc6d9b1de02c4a39","study_id":"60edd13110225f80f9f3709b","session_id":"6196baa1357de4e8d21c4e47","condition":"full-information","relevant_dimensions":["pattern","legs"],"bee_group":{"antennae":"X","wings":"X","pattern":"S","legs":"M"},"action":"avoid","summary":"good-avoid","bonus":1.2400000000000013},{"rt":1798.7999999523163,"stimulus":"\n                    <p><b>Action: <em>avoid</em></b></p>\n                    <p>This is the bee that you just saw.</p>\n                    <img src=\"bees-with-color/bee-A1SM.svg\" width=\"200\">\n                    <p><span class=\"greenText\">Good choice!</span>  This bee would have stung you.<br>Your bonus pay is unchanged, and remains at $0.66.</p>\n            ","response":0,"trial_type":"html-button-response","trial_index":124,"time_elapsed":2385021,"internal_node_id":"0.0-4.0-1.56","subject_id":"610aadf3dc6d9b1de02c4a39","study_id":"60edd13110225f80f9f3709b","session_id":"6196baa1357de4e8d21c4e47","condition":"full-information","relevant_dimensions":["pattern","legs"],"bee_group":{"antennae":"X","wings":"X","pattern":"S","legs":"M"},"bonus":1.2400000000000013},{"rt":29782.200000047684,"stimulus":"bees-with-color/bee-A1DM.svg","response":0,"trial_type":"image-button-response","trial_index":125,"time_elapsed":2414805,"internal_node_id":"0.0-4.0-0.57","subject_id":"610aadf3dc6d9b1de02c4a39","study_id":"60edd13110225f80f9f3709b","session_id":"6196baa1357de4e8d21c4e47","condition":"full-information","relevant_dimensions":["pattern","legs"],"bee_group":{"antennae":"X","wings":"X","pattern":"S","legs":"M"},"action":"harvest","summary":"good-harvest","bonus":1.2400000000000013},{"rt":2262.7000000476837,"stimulus":"\n                    <p><b>Action: <em>harvest</em></b></p>\n                    <p>This is the bee that you just saw.</p>\n                    <img src=\"bees-with-color/bee-A1DM.svg\" width=\"200\">\n                    <p><span class=\"greenText\"><b>Successful harvest!</b></span><br>Your pay has increased by $0.02. Your bonus pay is now $0.68.</p>\n            ","response":0,"trial_type":"html-button-response","trial_index":126,"time_elapsed":2417069,"internal_node_id":"0.0-4.0-1.57","subject_id":"610aadf3dc6d9b1de02c4a39","study_id":"60edd13110225f80f9f3709b","session_id":"6196baa1357de4e8d21c4e47","condition":"full-information","relevant_dimensions":["pattern","legs"],"bee_group":{"antennae":"X","wings":"X","pattern":"S","legs":"M"},"bonus":1.2400000000000013},{"rt":11166.399999976158,"stimulus":"bees-with-color/bee-B1SF.svg","response":0,"trial_type":"image-button-response","trial_index":127,"time_elapsed":2428237,"internal_node_id":"0.0-4.0-0.58","subject_id":"610aadf3dc6d9b1de02c4a39","study_id":"60edd13110225f80f9f3709b","session_id":"6196baa1357de4e8d21c4e47","condition":"full-information","relevant_dimensions":["pattern","legs"],"bee_group":{"antennae":"X","wings":"X","pattern":"S","legs":"M"},"action":"harvest","summary":"good-harvest","bonus":1.2400000000000013},{"rt":1702.6999999284744,"stimulus":"\n                    <p><b>Action: <em>harvest</em></b></p>\n                    <p>This is the bee that you just saw.</p>\n                    <img src=\"bees-with-color/bee-B1SF.svg\" width=\"200\">\n                    <p><span class=\"greenText\"><b>Successful harvest!</b></span><br>Your pay has increased by $0.02. Your bonus pay is now $0.70.</p>\n            ","response":0,"trial_type":"html-button-response","trial_index":128,"time_elapsed":2429941,"internal_node_id":"0.0-4.0-1.58","subject_id":"610aadf3dc6d9b1de02c4a39","study_id":"60edd13110225f80f9f3709b","session_id":"6196baa1357de4e8d21c4e47","condition":"full-information","relevant_dimensions":["pattern","legs"],"bee_group":{"antennae":"X","wings":"X","pattern":"S","legs":"M"},"bonus":1.2400000000000013},{"rt":47086.10000002384,"stimulus":"bees-with-color/bee-B2SF.svg","response":0,"trial_type":"image-button-response","trial_index":129,"time_elapsed":2477028,"internal_node_id":"0.0-4.0-0.59","subject_id":"610aadf3dc6d9b1de02c4a39","study_id":"60edd13110225f80f9f3709b","session_id":"6196baa1357de4e8d21c4e47","condition":"full-information","relevant_dimensions":["pattern","legs"],"bee_group":{"antennae":"X","wings":"X","pattern":"S","legs":"M"},"action":"harvest","summary":"good-harvest","bonus":1.2400000000000013},{"rt":1774.8000000715256,"stimulus":"\n                    <p><b>Action: <em>harvest</em></b></p>\n                    <p>This is the bee that you just saw.</p>\n                    <img src=\"bees-with-color/bee-B2SF.svg\" width=\"200\">\n                    <p><span class=\"greenText\"><b>Successful harvest!</b></span><br>Your pay has increased by $0.02. Your bonus pay is now $0.72.</p>\n            ","response":0,"trial_type":"html-button-response","trial_index":130,"time_elapsed":2478804,"internal_node_id":"0.0-4.0-1.59","subject_id":"610aadf3dc6d9b1de02c4a39","study_id":"60edd13110225f80f9f3709b","session_id":"6196baa1357de4e8d21c4e47","condition":"full-information","relevant_dimensions":["pattern","legs"],"bee_group":{"antennae":"X","wings":"X","pattern":"S","legs":"M"},"bonus":1.2400000000000013},{"rt":15062.399999976158,"stimulus":"bees-with-color/bee-B2DM.svg","response":0,"trial_type":"image-button-response","trial_index":131,"time_elapsed":2493868,"internal_node_id":"0.0-4.0-0.60","subject_id":"610aadf3dc6d9b1de02c4a39","study_id":"60edd13110225f80f9f3709b","session_id":"6196baa1357de4e8d21c4e47","condition":"full-information","relevant_dimensions":["pattern","legs"],"bee_group":{"antennae":"X","wings":"X","pattern":"S","legs":"M"},"action":"harvest","summary":"good-harvest","bonus":1.2400000000000013},{"rt":3350.600000023842,"stimulus":"\n                    <p><b>Action: <em>harvest</em></b></p>\n                    <p>This is the bee that you just saw.</p>\n                    <img src=\"bees-with-color/bee-B2DM.svg\" width=\"200\">\n                    <p><span class=\"greenText\"><b>Successful harvest!</b></span><br>Your pay has increased by $0.02. Your bonus pay is now $0.74.</p>\n            ","response":0,"trial_type":"html-button-response","trial_index":132,"time_elapsed":2497220,"internal_node_id":"0.0-4.0-1.60","subject_id":"610aadf3dc6d9b1de02c4a39","study_id":"60edd13110225f80f9f3709b","session_id":"6196baa1357de4e8d21c4e47","condition":"full-information","relevant_dimensions":["pattern","legs"],"bee_group":{"antennae":"X","wings":"X","pattern":"S","legs":"M"},"bonus":1.2400000000000013},{"rt":39334.300000071526,"stimulus":"bees-with-color/bee-B2SM.svg","response":1,"trial_type":"image-button-response","trial_index":133,"time_elapsed":2536556,"internal_node_id":"0.0-4.0-0.61","subject_id":"610aadf3dc6d9b1de02c4a39","study_id":"60edd13110225f80f9f3709b","session_id":"6196baa1357de4e8d21c4e47","condition":"full-information","relevant_dimensions":["pattern","legs"],"bee_group":{"antennae":"X","wings":"X","pattern":"S","legs":"M"},"action":"avoid","summary":"good-avoid","bonus":1.2400000000000013},{"rt":2702.9000000953674,"stimulus":"\n                    <p><b>Action: <em>avoid</em></b></p>\n                    <p>This is the bee that you just saw.</p>\n                    <img src=\"bees-with-color/bee-B2SM.svg\" width=\"200\">\n                    <p><span class=\"greenText\">Good choice!</span>  This bee would have stung you.<br>Your bonus pay is unchanged, and remains at $0.74.</p>\n            ","response":0,"trial_type":"html-button-response","trial_index":134,"time_elapsed":2539260,"internal_node_id":"0.0-4.0-1.61","subject_id":"610aadf3dc6d9b1de02c4a39","study_id":"60edd13110225f80f9f3709b","session_id":"6196baa1357de4e8d21c4e47","condition":"full-information","relevant_dimensions":["pattern","legs"],"bee_group":{"antennae":"X","wings":"X","pattern":"S","legs":"M"},"bonus":1.2400000000000013},{"rt":11334.299999952316,"stimulus":"bees-with-color/bee-A1SF.svg","response":0,"trial_type":"image-button-response","trial_index":135,"time_elapsed":2550596,"internal_node_id":"0.0-4.0-0.62","subject_id":"610aadf3dc6d9b1de02c4a39","study_id":"60edd13110225f80f9f3709b","session_id":"6196baa1357de4e8d21c4e47","condition":"full-information","relevant_dimensions":["pattern","legs"],"bee_group":{"antennae":"X","wings":"X","pattern":"S","legs":"M"},"action":"harvest","summary":"good-harvest","bonus":1.2400000000000013},{"rt":1334.6999999284744,"stimulus":"\n                    <p><b>Action: <em>harvest</em></b></p>\n                    <p>This is the bee that you just saw.</p>\n                    <img src=\"bees-with-color/bee-A1SF.svg\" width=\"200\">\n                    <p><span class=\"greenText\"><b>Successful harvest!</b></span><br>Your pay has increased by $0.02. Your bonus pay is now $0.76.</p>\n            ","response":0,"trial_type":"html-button-response","trial_index":136,"time_elapsed":2551932,"internal_node_id":"0.0-4.0-1.62","subject_id":"610aadf3dc6d9b1de02c4a39","study_id":"60edd13110225f80f9f3709b","session_id":"6196baa1357de4e8d21c4e47","condition":"full-information","relevant_dimensions":["pattern","legs"],"bee_group":{"antennae":"X","wings":"X","pattern":"S","legs":"M"},"bonus":1.2400000000000013},{"rt":14910.399999976158,"stimulus":"bees-with-color/bee-A1DF.svg","response":0,"trial_type":"image-button-response","trial_index":137,"time_elapsed":2566844,"internal_node_id":"0.0-4.0-0.63","subject_id":"610aadf3dc6d9b1de02c4a39","study_id":"60edd13110225f80f9f3709b","session_id":"6196baa1357de4e8d21c4e47","condition":"full-information","relevant_dimensions":["pattern","legs"],"bee_group":{"antennae":"X","wings":"X","pattern":"S","legs":"M"},"action":"harvest","summary":"good-harvest","bonus":1.2400000000000013},{"rt":2006.7000000476837,"stimulus":"\n                    <p><b>Action: <em>harvest</em></b></p>\n                    <p>This is the bee that you just saw.</p>\n                    <img src=\"bees-with-color/bee-A1DF.svg\" width=\"200\">\n                    <p><span class=\"greenText\"><b>Successful harvest!</b></span><br>Your pay has increased by $0.02. Your bonus pay is now $0.78.</p>\n            ","response":0,"trial_type":"html-button-response","trial_index":138,"time_elapsed":2568852,"internal_node_id":"0.0-4.0-1.63","subject_id":"610aadf3dc6d9b1de02c4a39","study_id":"60edd13110225f80f9f3709b","session_id":"6196baa1357de4e8d21c4e47","condition":"full-information","relevant_dimensions":["pattern","legs"],"bee_group":{"antennae":"X","wings":"X","pattern":"S","legs":"M"},"bonus":1.2400000000000013},{"rt":8806.600000023842,"stimulus":"You have completed the first part of this experiment.<br><br>You will now begin a shorter second part, in which you will receive no feedback.<br>The same rules regarding bonus pay apply.<br><br>Press any key to begin.","response":" ","trial_type":"html-keyboard-response","trial_index":139,"time_elapsed":2577660,"internal_node_id":"0.0-5.0","subject_id":"610aadf3dc6d9b1de02c4a39","study_id":"60edd13110225f80f9f3709b","session_id":"6196baa1357de4e8d21c4e47","condition":"full-information","relevant_dimensions":["pattern","legs"],"bee_group":{"antennae":"X","wings":"X","pattern":"S","legs":"M"},"bonus":1.2400000000000013},{"rt":19068.399999976158,"stimulus":"bees-with-color/bee-A2DF.svg","response":0,"trial_type":"image-button-response","trial_index":140,"time_elapsed":2596739,"internal_node_id":"0.0-6.0-0.0","subject_id":"610aadf3dc6d9b1de02c4a39","study_id":"60edd13110225f80f9f3709b","session_id":"6196baa1357de4e8d21c4e47","condition":"full-information","relevant_dimensions":["pattern","legs"],"bee_group":{"antennae":"X","wings":"X","pattern":"S","legs":"M"},"bonus":1.2400000000000013},{"rt":45021.39999997616,"stimulus":"bees-with-color/bee-A2DM.svg","response":0,"trial_type":"image-button-response","trial_index":141,"time_elapsed":2641763,"internal_node_id":"0.0-6.0-0.1","subject_id":"610aadf3dc6d9b1de02c4a39","study_id":"60edd13110225f80f9f3709b","session_id":"6196baa1357de4e8d21c4e47","condition":"full-information","relevant_dimensions":["pattern","legs"],"bee_group":{"antennae":"X","wings":"X","pattern":"S","legs":"M"},"bonus":1.2400000000000013},{"rt":21533.600000023842,"stimulus":"bees-with-color/bee-B2SM.svg","response":1,"trial_type":"image-button-response","trial_index":142,"time_elapsed":2663299,"internal_node_id":"0.0-6.0-0.2","subject_id":"610aadf3dc6d9b1de02c4a39","study_id":"60edd13110225f80f9f3709b","session_id":"6196baa1357de4e8d21c4e47","condition":"full-information","relevant_dimensions":["pattern","legs"],"bee_group":{"antennae":"X","wings":"X","pattern":"S","legs":"M"},"bonus":1.2400000000000013},{"rt":17365.700000047684,"stimulus":"bees-with-color/bee-B1SF.svg","response":0,"trial_type":"image-button-response","trial_index":143,"time_elapsed":2680667,"internal_node_id":"0.0-6.0-0.3","subject_id":"610aadf3dc6d9b1de02c4a39","study_id":"60edd13110225f80f9f3709b","session_id":"6196baa1357de4e8d21c4e47","condition":"full-information","relevant_dimensions":["pattern","legs"],"bee_group":{"antennae":"X","wings":"X","pattern":"S","legs":"M"},"bonus":1.2400000000000013},{"rt":30973.799999952316,"stimulus":"bees-with-color/bee-B2DF.svg","response":0,"trial_type":"image-button-response","trial_index":144,"time_elapsed":2711643,"internal_node_id":"0.0-6.0-0.4","subject_id":"610aadf3dc6d9b1de02c4a39","study_id":"60edd13110225f80f9f3709b","session_id":"6196baa1357de4e8d21c4e47","condition":"full-information","relevant_dimensions":["pattern","legs"],"bee_group":{"antennae":"X","wings":"X","pattern":"S","legs":"M"},"bonus":1.2400000000000013},{"rt":11325.600000023842,"stimulus":"bees-with-color/bee-A1SM.svg","response":1,"trial_type":"image-button-response","trial_index":145,"time_elapsed":2722971,"internal_node_id":"0.0-6.0-0.5","subject_id":"610aadf3dc6d9b1de02c4a39","study_id":"60edd13110225f80f9f3709b","session_id":"6196baa1357de4e8d21c4e47","condition":"full-information","relevant_dimensions":["pattern","legs"],"bee_group":{"antennae":"X","wings":"X","pattern":"S","legs":"M"},"bonus":1.2400000000000013},{"rt":19741.5,"stimulus":"bees-with-color/bee-B1DF.svg","response":0,"trial_type":"image-button-response","trial_index":146,"time_elapsed":2742714,"internal_node_id":"0.0-6.0-0.6","subject_id":"610aadf3dc6d9b1de02c4a39","study_id":"60edd13110225f80f9f3709b","session_id":"6196baa1357de4e8d21c4e47","condition":"full-information","relevant_dimensions":["pattern","legs"],"bee_group":{"antennae":"X","wings":"X","pattern":"S","legs":"M"},"bonus":1.2400000000000013},{"rt":12301.599999904633,"stimulus":"bees-with-color/bee-B2DM.svg","response":0,"trial_type":"image-button-response","trial_index":147,"time_elapsed":2755018,"internal_node_id":"0.0-6.0-0.7","subject_id":"610aadf3dc6d9b1de02c4a39","study_id":"60edd13110225f80f9f3709b","session_id":"6196baa1357de4e8d21c4e47","condition":"full-information","relevant_dimensions":["pattern","legs"],"bee_group":{"antennae":"X","wings":"X","pattern":"S","legs":"M"},"bonus":1.2400000000000013},{"rt":16181.700000047684,"stimulus":"bees-with-color/bee-B1DM.svg","response":0,"trial_type":"image-button-response","trial_index":148,"time_elapsed":2771202,"internal_node_id":"0.0-6.0-0.8","subject_id":"610aadf3dc6d9b1de02c4a39","study_id":"60edd13110225f80f9f3709b","session_id":"6196baa1357de4e8d21c4e47","condition":"full-information","relevant_dimensions":["pattern","legs"],"bee_group":{"antennae":"X","wings":"X","pattern":"S","legs":"M"},"bonus":1.2400000000000013},{"rt":15261.700000047684,"stimulus":"bees-with-color/bee-B1SM.svg","response":1,"trial_type":"image-button-response","trial_index":149,"time_elapsed":2786466,"internal_node_id":"0.0-6.0-0.9","subject_id":"610aadf3dc6d9b1de02c4a39","study_id":"60edd13110225f80f9f3709b","session_id":"6196baa1357de4e8d21c4e47","condition":"full-information","relevant_dimensions":["pattern","legs"],"bee_group":{"antennae":"X","wings":"X","pattern":"S","legs":"M"},"bonus":1.2400000000000013},{"rt":48445.39999997616,"stimulus":"bees-with-color/bee-A1DM.svg","response":1,"trial_type":"image-button-response","trial_index":150,"time_elapsed":2834913,"internal_node_id":"0.0-6.0-0.10","subject_id":"610aadf3dc6d9b1de02c4a39","study_id":"60edd13110225f80f9f3709b","session_id":"6196baa1357de4e8d21c4e47","condition":"full-information","relevant_dimensions":["pattern","legs"],"bee_group":{"antennae":"X","wings":"X","pattern":"S","legs":"M"},"bonus":1.2400000000000013},{"rt":29445.600000023842,"stimulus":"bees-with-color/bee-A1DF.svg","response":0,"trial_type":"image-button-response","trial_index":151,"time_elapsed":2864362,"internal_node_id":"0.0-6.0-0.11","subject_id":"610aadf3dc6d9b1de02c4a39","study_id":"60edd13110225f80f9f3709b","session_id":"6196baa1357de4e8d21c4e47","condition":"full-information","relevant_dimensions":["pattern","legs"],"bee_group":{"antennae":"X","wings":"X","pattern":"S","legs":"M"},"bonus":1.2400000000000013},{"rt":19957.699999928474,"stimulus":"bees-with-color/bee-A2SF.svg","response":0,"trial_type":"image-button-response","trial_index":152,"time_elapsed":2884321,"internal_node_id":"0.0-6.0-0.12","subject_id":"610aadf3dc6d9b1de02c4a39","study_id":"60edd13110225f80f9f3709b","session_id":"6196baa1357de4e8d21c4e47","condition":"full-information","relevant_dimensions":["pattern","legs"],"bee_group":{"antennae":"X","wings":"X","pattern":"S","legs":"M"},"bonus":1.2400000000000013},{"rt":19037.800000071526,"stimulus":"bees-with-color/bee-A1SF.svg","response":0,"trial_type":"image-button-response","trial_index":153,"time_elapsed":2903361,"internal_node_id":"0.0-6.0-0.13","subject_id":"610aadf3dc6d9b1de02c4a39","study_id":"60edd13110225f80f9f3709b","session_id":"6196baa1357de4e8d21c4e47","condition":"full-information","relevant_dimensions":["pattern","legs"],"bee_group":{"antennae":"X","wings":"X","pattern":"S","legs":"M"},"bonus":1.2400000000000013},{"rt":52005.39999997616,"stimulus":"bees-with-color/bee-B2SF.svg","response":0,"trial_type":"image-button-response","trial_index":154,"time_elapsed":2955369,"internal_node_id":"0.0-6.0-0.14","subject_id":"610aadf3dc6d9b1de02c4a39","study_id":"60edd13110225f80f9f3709b","session_id":"6196baa1357de4e8d21c4e47","