[{"success":true,"trial_type":"fullscreen","trial_index":0,"time_elapsed":2605,"internal_node_id":"0.0-0.0","subject_id":"60fb1fc7b2b02ebe00fc26e7","study_id":"6197b3f67c2b5cd3b6d9596a","session_id":"619c1dd872ab844836196614","condition":"contingent","relevant_dimensions":["antennae","legs"],"bee_group":{"antennae":"B","wings":"X","pattern":"X","legs":"F"},"bonus":0.9800000000000012},{"success":true,"timeout":false,"failed_images":[],"failed_audio":[],"failed_video":[],"trial_type":"preload","trial_index":1,"time_elapsed":3976,"internal_node_id":"0.0-1.0","subject_id":"60fb1fc7b2b02ebe00fc26e7","study_id":"6197b3f67c2b5cd3b6d9596a","session_id":"619c1dd872ab844836196614","condition":"contingent","relevant_dimensions":["antennae","legs"],"bee_group":{"antennae":"B","wings":"X","pattern":"X","legs":"F"},"bonus":0.9800000000000012},{"rt":2395.399999999907,"stimulus":"Welcome! Press any key to begin.","response":"k","trial_type":"html-keyboard-response","trial_index":2,"time_elapsed":6372,"internal_node_id":"0.0-2.0","subject_id":"60fb1fc7b2b02ebe00fc26e7","study_id":"6197b3f67c2b5cd3b6d9596a","session_id":"619c1dd872ab844836196614","condition":"contingent","relevant_dimensions":["antennae","legs"],"bee_group":{"antennae":"B","wings":"X","pattern":"X","legs":"F"},"bonus":0.9800000000000012},{"view_history":[{"page_index":0,"viewing_time":2381.899999999907},{"page_index":1,"viewing_time":8849.899999999907},{"page_index":2,"viewing_time":7326.800000000279},{"page_index":3,"viewing_time":10441.299999999814},{"page_index":4,"viewing_time":10693.399999999907},{"page_index":5,"viewing_time":4160.5},{"page_index":6,"viewing_time":3149.399999999907},{"page_index":7,"viewing_time":3942.600000000093},{"page_index":8,"viewing_time":2736.100000000093},{"page_index":7,"viewing_time":3046.2999999998137},{"page_index":8,"viewing_time":2456.2000000001863},{"page_index":9,"viewing_time":3234.399999999907},{"page_index":10,"viewing_time":4188.899999999907},{"page_index":11,"viewing_time":10007.100000000093},{"page_index":12,"viewing_time":6076.700000000186},{"page_index":13,"viewing_time":1188.2999999998137},{"page_index":14,"viewing_time":849.8999999999069}],"rt":84730.19999999972,"trial_type":"instructions","trial_index":3,"time_elapsed":91103,"internal_node_id":"0.0-3.0-0.0","subject_id":"60fb1fc7b2b02ebe00fc26e7","study_id":"6197b3f67c2b5cd3b6d9596a","session_id":"619c1dd872ab844836196614","condition":"contingent","relevant_dimensions":["antennae","legs"],"bee_group":{"antennae":"B","wings":"X","pattern":"X","legs":"F"},"bonus":0.9800000000000012},{"rt":11544.399999999907,"response":{"Q0":["Two or six legs","Stripes or spots on body","Single or double wings","Antennae or no antennae"]},"question_order":[0],"trial_type":"survey-multi-select","trial_index":4,"time_elapsed":102649,"internal_node_id":"0.0-3.0-1.0","subject_id":"60fb1fc7b2b02ebe00fc26e7","study_id":"6197b3f67c2b5cd3b6d9596a","session_id":"619c1dd872ab844836196614","condition":"contingent","relevant_dimensions":["antennae","legs"],"bee_group":{"antennae":"B","wings":"X","pattern":"X","legs":"F"},"correct":true,"bonus":0.9800000000000012},{"rt":26489.100000000093,"response":{"Q1":"No.","Q2":"Based on the four features of the bee.","Q3":"You do not learn if it was friendly or dangerous, and do not alter your bonus."},"question_order":[0,1,2],"trial_type":"survey-multi-choice","trial_index":5,"time_elapsed":129140,"internal_node_id":"0.0-3.0-2.0","subject_id":"60fb1fc7b2b02ebe00fc26e7","study_id":"6197b3f67c2b5cd3b6d9596a","session_id":"619c1dd872ab844836196614","condition":"contingent","relevant_dimensions":["antennae","legs"],"bee_group":{"antennae":"B","wings":"X","pattern":"X","legs":"F"},"correct":true,"bonus":0.9800000000000012},{"rt":3153.899999999907,"stimulus":"<p>Congrats, you got everything right<br>When you're ready, click the button below to continue to the experiment.</p>","response":0,"trial_type":"html-button-response","trial_index":6,"time_elapsed":132295,"internal_node_id":"0.0-3.0-3.0","subject_id":"60fb1fc7b2b02ebe00fc26e7","study_id":"6197b3f67c2b5cd3b6d9596a","session_id":"619c1dd872ab844836196614","condition":"contingent","relevant_dimensions":["antennae","legs"],"bee_group":{"antennae":"B","wings":"X","pattern":"X","legs":"F"},"bonus":0.9800000000000012},{"rt":4659.399999999907,"stimulus":"bees-with-color/bee-B2DM.svg","response":0,"trial_type":"image-button-response","trial_index":7,"time_elapsed":136956,"internal_node_id":"0.0-4.0-0.0","subject_id":"60fb1fc7b2b02ebe00fc26e7","study_id":"6197b3f67c2b5cd3b6d9596a","session_id":"619c1dd872ab844836196614","condition":"contingent","relevant_dimensions":["antennae","legs"],"bee_group":{"antennae":"B","wings":"X","pattern":"X","legs":"F"},"action":"harvest","summary":"good-harvest","bonus":0.9800000000000012},{"rt":7000.399999999907,"stimulus":"\n                    <p><b>Action: <em>harvest</em></b></p>\n                    <p>This is the bee that you just saw.</p>\n                    <img src=\"bees-with-color/bee-B2DM.svg\" width=\"200\">\n                    <p><span class=\"greenText\"><b>Successful harvest!</b></span><br>Your pay has increased by $0.02. Your bonus pay is now $0.56.</p>\n            ","response":0,"trial_type":"html-button-response","trial_index":8,"time_elapsed":143958,"internal_node_id":"0.0-4.0-1.0","subject_id":"60fb1fc7b2b02ebe00fc26e7","study_id":"6197b3f67c2b5cd3b6d9596a","session_id":"619c1dd872ab844836196614","condition":"contingent","relevant_dimensions":["antennae","legs"],"bee_group":{"antennae":"B","wings":"X","pattern":"X","legs":"F"},"bonus":0.9800000000000012},{"rt":13198.69999999972,"stimulus":"bees-with-color/bee-B2DF.svg","response":0,"trial_type":"image-button-response","trial_index":9,"time_elapsed":157158,"internal_node_id":"0.0-4.0-0.1","subject_id":"60fb1fc7b2b02ebe00fc26e7","study_id":"6197b3f67c2b5cd3b6d9596a","session_id":"619c1dd872ab844836196614","condition":"contingent","relevant_dimensions":["antennae","legs"],"bee_group":{"antennae":"B","wings":"X","pattern":"X","legs":"F"},"action":"harvest","summary":"bad-harvest","bonus":0.9800000000000012},{"rt":8086,"stimulus":"\n                    <p><b>Action: <em>harvest</em></b></p>\n                    <p>This is the bee that you just saw.</p>\n                    <img src=\"bees-with-color/bee-B2DF.svg\" width=\"200\">\n                    <p><span class=\"redText\">Bad choice, the bee was angry.</span><br><b>You have been stung!</b><br>Your pay has been decreased by $0.10. Your bonus pay is now $0.46.</p>\n            ","response":0,"trial_type":"html-button-response","trial_index":10,"time_elapsed":165245,"internal_node_id":"0.0-4.0-1.1","subject_id":"60fb1fc7b2b02ebe00fc26e7","study_id":"6197b3f67c2b5cd3b6d9596a","session_id":"619c1dd872ab844836196614","condition":"contingent","relevant_dimensions":["antennae","legs"],"bee_group":{"antennae":"B","wings":"X","pattern":"X","legs":"F"},"bonus":0.9800000000000012},{"rt":2880.5999999996275,"stimulus":"bees-with-color/bee-A1SF.svg","response":0,"trial_type":"image-button-response","trial_index":11,"time_elapsed":168127,"internal_node_id":"0.0-4.0-0.2","subject_id":"60fb1fc7b2b02ebe00fc26e7","study_id":"6197b3f67c2b5cd3b6d9596a","session_id":"619c1dd872ab844836196614","condition":"contingent","relevant_dimensions":["antennae","legs"],"bee_group":{"antennae":"B","wings":"X","pattern":"X","legs":"F"},"action":"harvest","summary":"good-harvest","bonus":0.9800000000000012},{"rt":10406.899999999907,"stimulus":"\n                    <p><b>Action: <em>harvest</em></b></p>\n                    <p>This is the bee that you just saw.</p>\n                    <img src=\"bees-with-color/bee-A1SF.svg\" width=\"200\">\n                    <p><span class=\"greenText\"><b>Successful harvest!</b></span><br>Your pay has increased by $0.02. Your bonus pay is now $0.48.</p>\n            ","response":0,"trial_type":"html-button-response","trial_index":12,"time_elapsed":178535,"internal_node_id":"0.0-4.0-1.2","subject_id":"60fb1fc7b2b02ebe00fc26e7","study_id":"6197b3f67c2b5cd3b6d9596a","session_id":"619c1dd872ab844836196614","condition":"contingent","relevant_dimensions":["antennae","legs"],"bee_group":{"antennae":"B","wings":"X","pattern":"X","legs":"F"},"bonus":0.9800000000000012},{"rt":4451.699999999721,"stimulus":"bees-with-color/bee-B1SF.svg","response":0,"trial_type":"image-button-response","trial_index":13,"time_elapsed":182988,"internal_node_id":"0.0-4.0-0.3","subject_id":"60fb1fc7b2b02ebe00fc26e7","study_id":"6197b3f67c2b5cd3b6d9596a","session_id":"619c1dd872ab844836196614","condition":"contingent","relevant_dimensions":["antennae","legs"],"bee_group":{"antennae":"B","wings":"X","pattern":"X","legs":"F"},"action":"harvest","summary":"bad-harvest","bonus":0.9800000000000012},{"rt":3380.899999999907,"stimulus":"\n                    <p><b>Action: <em>harvest</em></b></p>\n                    <p>This is the bee that you just saw.</p>\n                    <img src=\"bees-with-color/bee-B1SF.svg\" width=\"200\">\n                    <p><span class=\"redText\">Bad choice, the bee was angry.</span><br><b>You have been stung!</b><br>Your pay has been decreased by $0.10. Your bonus pay is now $0.38.</p>\n            ","response":0,"trial_type":"html-button-response","trial_index":14,"time_elapsed":186370,"internal_node_id":"0.0-4.0-1.3","subject_id":"60fb1fc7b2b02ebe00fc26e7","study_id":"6197b3f67c2b5cd3b6d9596a","session_id":"619c1dd872ab844836196614","condition":"contingent","relevant_dimensions":["antennae","legs"],"bee_group":{"antennae":"B","wings":"X","pattern":"X","legs":"F"},"bonus":0.9800000000000012},{"rt":98217.79999999981,"stimulus":"bees-with-color/bee-B2SM.svg","response":0,"trial_type":"image-button-response","trial_index":15,"time_elapsed":284589,"internal_node_id":"0.0-4.0-0.4","subject_id":"60fb1fc7b2b02ebe00fc26e7","study_id":"6197b3f67c2b5cd3b6d9596a","session_id":"619c1dd872ab844836196614","condition":"contingent","relevant_dimensions":["antennae","legs"],"bee_group":{"antennae":"B","wings":"X","pattern":"X","legs":"F"},"action":"harvest","summary":"good-harvest","bonus":0.9800000000000012},{"rt":1619.8999999999069,"stimulus":"\n                    <p><b>Action: <em>harvest</em></b></p>\n                    <p>This is the bee that you just saw.</p>\n                    <img src=\"bees-with-color/bee-B2SM.svg\" width=\"200\">\n                    <p><span class=\"greenText\"><b>Successful harvest!</b></span><br>Your pay has increased by $0.02. Your bonus pay is now $0.40.</p>\n            ","response":0,"trial_type":"html-button-response","trial_index":16,"time_elapsed":286209,"internal_node_id":"0.0-4.0-1.4","subject_id":"60fb1fc7b2b02ebe00fc26e7","study_id":"6197b3f67c2b5cd3b6d9596a","session_id":"619c1dd872ab844836196614","condition":"contingent","relevant_dimensions":["antennae","legs"],"bee_group":{"antennae":"B","wings":"X","pattern":"X","legs":"F"},"bonus":0.9800000000000012},{"rt":14892.5,"stimulus":"bees-with-color/bee-A2SF.svg","response":0,"trial_type":"image-button-response","trial_index":17,"time_elapsed":301103,"internal_node_id":"0.0-4.0-0.5","subject_id":"60fb1fc7b2b02ebe00fc26e7","study_id":"6197b3f67c2b5cd3b6d9596a","session_id":"619c1dd872ab844836196614","condition":"contingent","relevant_dimensions":["antennae","legs"],"bee_group":{"antennae":"B","wings":"X","pattern":"X","legs":"F"},"action":"harvest","summary":"good-harvest","bonus":0.9800000000000012},{"rt":975.5999999996275,"stimulus":"\n                    <p><b>Action: <em>harvest</em></b></p>\n                    <p>This is the bee that you just saw.</p>\n                    <img src=\"bees-with-color/bee-A2SF.svg\" width=\"200\">\n                    <p><span class=\"greenText\"><b>Successful harvest!</b></span><br>Your pay has increased by $0.02. Your bonus pay is now $0.42.</p>\n            ","response":0,"trial_type":"html-button-response","trial_index":18,"time_elapsed":302080,"internal_node_id":"0.0-4.0-1.5","subject_id":"60fb1fc7b2b02ebe00fc26e7","study_id":"6197b3f67c2b5cd3b6d9596a","session_id":"619c1dd872ab844836196614","condition":"contingent","relevant_dimensions":["antennae","legs"],"bee_group":{"antennae":"B","wings":"X","pattern":"X","legs":"F"},"bonus":0.9800000000000012},{"rt":4558.899999999907,"stimulus":"bees-with-color/bee-A2DM.svg","response":0,"trial_type":"image-button-response","trial_index":19,"time_elapsed":306640,"internal_node_id":"0.0-4.0-0.6","subject_id":"60fb1fc7b2b02ebe00fc26e7","study_id":"6197b3f67c2b5cd3b6d9596a","session_id":"619c1dd872ab844836196614","condition":"contingent","relevant_dimensions":["antennae","legs"],"bee_group":{"antennae":"B","wings":"X","pattern":"X","legs":"F"},"action":"harvest","summary":"good-harvest","bonus":0.9800000000000012},{"rt":11956.399999999907,"stimulus":"\n                    <p><b>Action: <em>harvest</em></b></p>\n                    <p>This is the bee that you just saw.</p>\n                    <img src=\"bees-with-color/bee-A2DM.svg\" width=\"200\">\n                    <p><span class=\"greenText\"><b>Successful harvest!</b></span><br>Your pay has increased by $0.02. Your bonus pay is now $0.44.</p>\n            ","response":0,"trial_type":"html-button-response","trial_index":20,"time_elapsed":318597,"internal_node_id":"0.0-4.0-1.6","subject_id":"60fb1fc7b2b02ebe00fc26e7","study_id":"6197b3f67c2b5cd3b6d9596a","session_id":"619c1dd872ab844836196614","condition":"contingent","relevant_dimensions":["antennae","legs"],"bee_group":{"antennae":"B","wings":"X","pattern":"X","legs":"F"},"bonus":0.9800000000000012},{"rt":2723.2999999998137,"stimulus":"bees-with-color/bee-A2SM.svg","response":0,"trial_type":"image-button-response","trial_index":21,"time_elapsed":321322,"internal_node_id":"0.0-4.0-0.7","subject_id":"60fb1fc7b2b02ebe00fc26e7","study_id":"6197b3f67c2b5cd3b6d9596a","session_id":"619c1dd872ab844836196614","condition":"contingent","relevant_dimensions":["antennae","legs"],"bee_group":{"antennae":"B","wings":"X","pattern":"X","legs":"F"},"action":"harvest","summary":"good-harvest","bonus":0.9800000000000012},{"rt":3687,"stimulus":"\n                    <p><b>Action: <em>harvest</em></b></p>\n                    <p>This is the bee that you just saw.</p>\n                    <img src=\"bees-with-color/bee-A2SM.svg\" width=\"200\">\n                    <p><span class=\"greenText\"><b>Successful harvest!</b></span><br>Your pay has increased by $0.02. Your bonus pay is now $0.46.</p>\n            ","response":0,"trial_type":"html-button-response","trial_index":22,"time_elapsed":325010,"internal_node_id":"0.0-4.0-1.7","subject_id":"60fb1fc7b2b02ebe00fc26e7","study_id":"6197b3f67c2b5cd3b6d9596a","session_id":"619c1dd872ab844836196614","condition":"contingent","relevant_dimensions":["antennae","legs"],"bee_group":{"antennae":"B","wings":"X","pattern":"X","legs":"F"},"bonus":0.9800000000000012},{"rt":1840,"stimulus":"bees-with-color/bee-A1DF.svg","response":0,"trial_type":"image-button-response","trial_index":23,"time_elapsed":326851,"internal_node_id":"0.0-4.0-0.8","subject_id":"60fb1fc7b2b02ebe00fc26e7","study_id":"6197b3f67c2b5cd3b6d9596a","session_id":"619c1dd872ab844836196614","condition":"contingent","relevant_dimensions":["antennae","legs"],"bee_group":{"antennae":"B","wings":"X","pattern":"X","legs":"F"},"action":"harvest","summary":"good-harvest","bonus":0.9800000000000012},{"rt":2990,"stimulus":"\n                    <p><b>Action: <em>harvest</em></b></p>\n                    <p>This is the bee that you just saw.</p>\n                    <img src=\"bees-with-color/bee-A1DF.svg\" width=\"200\">\n                    <p><span class=\"greenText\"><b>Successful harvest!</b></span><br>Your pay has increased by $0.02. Your bonus pay is now $0.48.</p>\n            ","response":0,"trial_type":"html-button-response","trial_index":24,"time_elapsed":329842,"internal_node_id":"0.0-4.0-1.8","subject_id":"60fb1fc7b2b02ebe00fc26e7","study_id":"6197b3f67c2b5cd3b6d9596a","session_id":"619c1dd872ab844836196614","condition":"contingent","relevant_dimensions":["antennae","legs"],"bee_group":{"antennae":"B","wings":"X","pattern":"X","legs":"F"},"bonus":0.9800000000000012},{"rt":1824.6999999997206,"stimulus":"bees-with-color/bee-B1DM.svg","response":0,"trial_type":"image-button-response","trial_index":25,"time_elapsed":331668,"internal_node_id":"0.0-4.0-0.9","subject_id":"60fb1fc7b2b02ebe00fc26e7","study_id":"6197b3f67c2b5cd3b6d9596a","session_id":"619c1dd872ab844836196614","condition":"contingent","relevant_dimensions":["antennae","legs"],"bee_group":{"antennae":"B","wings":"X","pattern":"X","legs":"F"},"action":"harvest","summary":"good-harvest","bonus":0.9800000000000012},{"rt":4385.100000000093,"stimulus":"\n                    <p><b>Action: <em>harvest</em></b></p>\n                    <p>This is the bee that you just saw.</p>\n                    <img src=\"bees-with-color/bee-B1DM.svg\" width=\"200\">\n                    <p><span class=\"greenText\"><b>Successful harvest!</b></span><br>Your pay has increased by $0.02. Your bonus pay is now $0.50.</p>\n            ","response":0,"trial_type":"html-button-response","trial_index":26,"time_elapsed":336053,"internal_node_id":"0.0-4.0-1.9","subject_id":"60fb1fc7b2b02ebe00fc26e7","study_id":"6197b3f67c2b5cd3b6d9596a","session_id":"619c1dd872ab844836196614","condition":"contingent","relevant_dimensions":["antennae","legs"],"bee_group":{"antennae":"B","wings":"X","pattern":"X","legs":"F"},"bonus":0.9800000000000012},{"rt":2812.7999999998137,"stimulus":"bees-with-color/bee-A2DF.svg","response":0,"trial_type":"image-button-response","trial_index":27,"time_elapsed":338867,"internal_node_id":"0.0-4.0-0.10","subject_id":"60fb1fc7b2b02ebe00fc26e7","study_id":"6197b3f67c2b5cd3b6d9596a","session_id":"619c1dd872ab844836196614","condition":"contingent","relevant_dimensions":["antennae","legs"],"bee_group":{"antennae":"B","wings":"X","pattern":"X","legs":"F"},"action":"harvest","summary":"good-harvest","bonus":0.9800000000000012},{"rt":3204.899999999907,"stimulus":"\n                    <p><b>Action: <em>harvest</em></b></p>\n                    <p>This is the bee that you just saw.</p>\n                    <img src=\"bees-with-color/bee-A2DF.svg\" width=\"200\">\n                    <p><span class=\"greenText\"><b>Successful harvest!</b></span><br>Your pay has increased by $0.02. Your bonus pay is now $0.52.</p>\n            ","response":0,"trial_type":"html-button-response","trial_index":28,"time_elapsed":342073,"internal_node_id":"0.0-4.0-1.10","subject_id":"60fb1fc7b2b02ebe00fc26e7","study_id":"6197b3f67c2b5cd3b6d9596a","session_id":"619c1dd872ab844836196614","condition":"contingent","relevant_dimensions":["antennae","legs"],"bee_group":{"antennae":"B","wings":"X","pattern":"X","legs":"F"},"bonus":0.9800000000000012},{"rt":3297.8000000002794,"stimulus":"bees-with-color/bee-B1DF.svg","response":0,"trial_type":"image-button-response","trial_index":29,"time_elapsed":345372,"internal_node_id":"0.0-4.0-0.11","subject_id":"60fb1fc7b2b02ebe00fc26e7","study_id":"6197b3f67c2b5cd3b6d9596a","session_id":"619c1dd872ab844836196614","condition":"contingent","relevant_dimensions":["antennae","legs"],"bee_group":{"antennae":"B","wings":"X","pattern":"X","legs":"F"},"action":"harvest","summary":"bad-harvest","bonus":0.9800000000000012},{"rt":9076,"stimulus":"\n                    <p><b>Action: <em>harvest</em></b></p>\n                    <p>This is the bee that you just saw.</p>\n                    <img src=\"bees-with-color/bee-B1DF.svg\" width=\"200\">\n                    <p><span class=\"redText\">Bad choice, the bee was angry.</span><br><b>You have been stung!</b><br>Your pay has been decreased by $0.10. Your bonus pay is now $0.42.</p>\n            ","response":0,"trial_type":"html-button-response","trial_index":30,"time_elapsed":354449,"internal_node_id":"0.0-4.0-1.11","subject_id":"60fb1fc7b2b02ebe00fc26e7","study_id":"6197b3f67c2b5cd3b6d9596a","session_id":"619c1dd872ab844836196614","condition":"contingent","relevant_dimensions":["antennae","legs"],"bee_group":{"antennae":"B","wings":"X","pattern":"X","legs":"F"},"bonus":0.9800000000000012},{"rt":1730.0999999996275,"stimulus":"bees-with-color/bee-A1DM.svg","response":0,"trial_type":"image-button-response","trial_index":31,"time_elapsed":356180,"internal_node_id":"0.0-4.0-0.12","subject_id":"60fb1fc7b2b02ebe00fc26e7","study_id":"6197b3f67c2b5cd3b6d9596a","session_id":"619c1dd872ab844836196614","condition":"contingent","relevant_dimensions":["antennae","legs"],"bee_group":{"antennae":"B","wings":"X","pattern":"X","legs":"F"},"action":"harvest","summary":"good-harvest","bonus":0.9800000000000012},{"rt":3171.2999999998137,"stimulus":"\n                    <p><b>Action: <em>harvest</em></b></p>\n                    <p>This is the bee that you just saw.</p>\n                    <img src=\"bees-with-color/bee-A1DM.svg\" width=\"200\">\n                    <p><span class=\"greenText\"><b>Successful harvest!</b></span><br>Your pay has increased by $0.02. Your bonus pay is now $0.44.</p>\n            ","response":0,"trial_type":"html-button-response","trial_index":32,"time_elapsed":359352,"internal_node_id":"0.0-4.0-1.12","subject_id":"60fb1fc7b2b02ebe00fc26e7","study_id":"6197b3f67c2b5cd3b6d9596a","session_id":"619c1dd872ab844836196614","condition":"contingent","relevant_dimensions":["antennae","legs"],"bee_group":{"antennae":"B","wings":"X","pattern":"X","legs":"F"},"bonus":0.9800000000000012},{"rt":1153,"stimulus":"bees-with-color/bee-B1SM.svg","response":0,"trial_type":"image-button-response","trial_index":33,"time_elapsed":360506,"internal_node_id":"0.0-4.0-0.13","subject_id":"60fb1fc7b2b02ebe00fc26e7","study_id":"6197b3f67c2b5cd3b6d9596a","session_id":"619c1dd872ab844836196614","condition":"contingent","relevant_dimensions":["antennae","legs"],"bee_group":{"antennae":"B","wings":"X","pattern":"X","legs":"F"},"action":"harvest","summary":"good-harvest","bonus":0.9800000000000012},{"rt":836.3999999999069,"stimulus":"\n                    <p><b>Action: <em>harvest</em></b></p>\n                    <p>This is the bee that you just saw.</p>\n                    <img src=\"bees-with-color/bee-B1SM.svg\" width=\"200\">\n                    <p><span class=\"greenText\"><b>Successful harvest!</b></span><br>Your pay has increased by $0.02. Your bonus pay is now $0.46.</p>\n            ","response":0,"trial_type":"html-button-response","trial_index":34,"time_elapsed":361343,"internal_node_id":"0.0-4.0-1.13","subject_id":"60fb1fc7b2b02ebe00fc26e7","study_id":"6197b3f67c2b5cd3b6d9596a","session_id":"619c1dd872ab844836196614","condition":"contingent","relevant_dimensions":["antennae","legs"],"bee_group":{"antennae":"B","wings":"X","pattern":"X","legs":"F"},"bonus":0.9800000000000012},{"rt":797.1000000000931,"stimulus":"bees-with-color/bee-A1SM.svg","response":0,"trial_type":"image-button-response","trial_index":35,"time_elapsed":362141,"internal_node_id":"0.0-4.0-0.14","subject_id":"60fb1fc7b2b02ebe00fc26e7","study_id":"6197b3f67c2b5cd3b6d9596a","session_id":"619c1dd872ab844836196614","condition":"contingent","relevant_dimensions":["antennae","legs"],"bee_group":{"antennae":"B","wings":"X","pattern":"X","legs":"F"},"action":"harvest","summary":"good-harvest","bonus":0.9800000000000012},{"rt":730.1999999997206,"stimulus":"\n                    <p><b>Action: <em>harvest</em></b></p>\n                    <p>This is the bee that you just saw.</p>\n                    <img src=\"bees-with-color/bee-A1SM.svg\" width=\"200\">\n                    <p><span class=\"greenText\"><b>Successful harvest!</b></span><br>Your pay has increased by $0.02. Your bonus pay is now $0.48.</p>\n            ","response":0,"trial_type":"html-button-response","trial_index":36,"time_elapsed":362872,"internal_node_id":"0.0-4.0-1.14","subject_id":"60fb1fc7b2b02ebe00fc26e7","study_id":"6197b3f67c2b5cd3b6d9596a","session_id":"619c1dd872ab844836196614","condition":"contingent","relevant_dimensions":["antennae","legs"],"bee_group":{"antennae":"B","wings":"X","pattern":"X","legs":"F"},"bonus":0.9800000000000012},{"rt":3409.2000000001863,"stimulus":"bees-with-color/bee-B2SF.svg","response":0,"trial_type":"image-button-response","trial_index":37,"time_elapsed":366282,"internal_node_id":"0.0-4.0-0.15","subject_id":"60fb1fc7b2b02ebe00fc26e7","study_id":"6197b3f67c2b5cd3b6d9596a","session_id":"619c1dd872ab844836196614","condition":"contingent","relevant_dimensions":["antennae","legs"],"bee_group":{"antennae":"B","wings":"X","pattern":"X","legs":"F"},"action":"harvest","summary":"bad-harvest","bonus":0.9800000000000012},{"rt":7836.299999999814,"stimulus":"\n                    <p><b>Action: <em>harvest</em></b></p>\n                    <p>This is the bee that you just saw.</p>\n                    <img src=\"bees-with-color/bee-B2SF.svg\" width=\"200\">\n                    <p><span class=\"redText\">Bad choice, the bee was angry.</span><br><b>You have been stung!</b><br>Your pay has been decreased by $0.10. Your bonus pay is now $0.38.</p>\n            ","response":0,"trial_type":"html-button-response","trial_index":38,"time_elapsed":374119,"internal_node_id":"0.0-4.0-1.15","subject_id":"60fb1fc7b2b02ebe00fc26e7","study_id":"6197b3f67c2b5cd3b6d9596a","session_id":"619c1dd872ab844836196614","condition":"contingent","relevant_dimensions":["antennae","legs"],"bee_group":{"antennae":"B","wings":"X","pattern":"X","legs":"F"},"bonus":0.9800000000000012},{"rt":2749.8000000002794,"stimulus":"bees-with-color/bee-A2DF.svg","response":0,"trial_type":"image-button-response","trial_index":39,"time_elapsed":376870,"internal_node_id":"0.0-4.0-0.16","subject_id":"60fb1fc7b2b02ebe00fc26e7","study_id":"6197b3f67c2b5cd3b6d9596a","session_id":"619c1dd872ab844836196614","condition":"contingent","relevant_dimensions":["antennae","legs"],"bee_group":{"antennae":"B","wings":"X","pattern":"X","legs":"F"},"action":"harvest","summary":"good-harvest","bonus":0.9800000000000012},{"rt":4753.299999999814,"stimulus":"\n                    <p><b>Action: <em>harvest</em></b></p>\n                    <p>This is the bee that you just saw.</p>\n                    <img src=\"bees-with-color/bee-A2DF.svg\" width=\"200\">\n                    <p><span class=\"greenText\"><b>Successful harvest!</b></span><br>Your pay has increased by $0.02. Your bonus pay is now $0.40.</p>\n            ","response":0,"trial_type":"html-button-response","trial_index":40,"time_elapsed":381624,"internal_node_id":"0.0-4.0-1.16","subject_id":"60fb1fc7b2b02ebe00fc26e7","study_id":"6197b3f67c2b5cd3b6d9596a","session_id":"619c1dd872ab844836196614","condition":"contingent","relevant_dimensions":["antennae","legs"],"bee_group":{"antennae":"B","wings":"X","pattern":"X","legs":"F"},"bonus":0.9800000000000012},{"rt":1361.8999999999069,"stimulus":"bees-with-color/bee-B1DM.svg","response":0,"trial_type":"image-button-response","trial_index":41,"time_elapsed":382987,"internal_node_id":"0.0-4.0-0.17","subject_id":"60fb1fc7b2b02ebe00fc26e7","study_id":"6197b3f67c2b5cd3b6d9596a","session_id":"619c1dd872ab844836196614","condition":"contingent","relevant_dimensions":["antennae","legs"],"bee_group":{"antennae":"B","wings":"X","pattern":"X","legs":"F"},"action":"harvest","summary":"good-harvest","bonus":0.9800000000000012},{"rt":800.2999999998137,"stimulus":"\n                    <p><b>Action: <em>harvest</em></b></p>\n                    <p>This is the bee that you just saw.</p>\n                    <img src=\"bees-with-color/bee-B1DM.svg\" width=\"200\">\n                    <p><span class=\"greenText\"><b>Successful harvest!</b></span><br>Your pay has increased by $0.02. Your bonus pay is now $0.42.</p>\n            ","response":0,"trial_type":"html-button-response","trial_index":42,"time_elapsed":383788,"internal_node_id":"0.0-4.0-1.17","subject_id":"60fb1fc7b2b02ebe00fc26e7","study_id":"6197b3f67c2b5cd3b6d9596a","session_id":"619c1dd872ab844836196614","condition":"contingent","relevant_dimensions":["antennae","legs"],"bee_group":{"antennae":"B","wings":"X","pattern":"X","legs":"F"},"bonus":0.9800000000000012},{"rt":944.9000000003725,"stimulus":"bees-with-color/bee-B2SF.svg","response":0,"trial_type":"image-button-response","trial_index":43,"time_elapsed":384734,"internal_node_id":"0.0-4.0-0.18","subject_id":"60fb1fc7b2b02ebe00fc26e7","study_id":"6197b3f67c2b5cd3b6d9596a","session_id":"619c1dd872ab844836196614","condition":"contingent","relevant_dimensions":["antennae","legs"],"bee_group":{"antennae":"B","wings":"X","pattern":"X","legs":"F"},"action":"harvest","summary":"bad-harvest","bonus":0.9800000000000012},{"rt":3327.0999999996275,"stimulus":"\n                    <p><b>Action: <em>harvest</em></b></p>\n                    <p>This is the bee that you just saw.</p>\n                    <img src=\"bees-with-color/bee-B2SF.svg\" width=\"200\">\n                    <p><span class=\"redText\">Bad choice, the bee was angry.</span><br><b>You have been stung!</b><br>Your pay has been decreased by $0.10. Your bonus pay is now $0.32.</p>\n            ","response":0,"trial_type":"html-button-response","trial_index":44,"time_elapsed":388062,"internal_node_id":"0.0-4.0-1.18","subject_id":"60fb1fc7b2b02ebe00fc26e7","study_id":"6197b3f67c2b5cd3b6d9596a","session_id":"619c1dd872ab844836196614","condition":"contingent","relevant_dimensions":["antennae","legs"],"bee_group":{"antennae":"B","wings":"X","pattern":"X","legs":"F"},"bonus":0.9800000000000012},{"rt":2578.100000000093,"stimulus":"bees-with-color/bee-A2SF.svg","response":0,"trial_type":"image-button-response","trial_index":45,"time_elapsed":390641,"internal_node_id":"0.0-4.0-0.19","subject_id":"60fb1fc7b2b02ebe00fc26e7","study_id":"6197b3f67c2b5cd3b6d9596a","session_id":"619c1dd872ab844836196614","condition":"contingent","relevant_dimensions":["antennae","legs"],"bee_group":{"antennae":"B","wings":"X","pattern":"X","legs":"F"},"action":"harvest","summary":"good-harvest","bonus":0.9800000000000012},{"rt":926.8999999999069,"stimulus":"\n                    <p><b>Action: <em>harvest</em></b></p>\n                    <p>This is the bee that you just saw.</p>\n                    <img src=\"bees-with-color/bee-A2SF.svg\" width=\"200\">\n                    <p><span class=\"greenText\"><b>Successful harvest!</b></span><br>Your pay has increased by $0.02. Your bonus pay is now $0.34.</p>\n            ","response":0,"trial_type":"html-button-response","trial_index":46,"time_elapsed":391569,"internal_node_id":"0.0-4.0-1.19","subject_id":"60fb1fc7b2b02ebe00fc26e7","study_id":"6197b3f67c2b5cd3b6d9596a","session_id":"619c1dd872ab844836196614","condition":"contingent","relevant_dimensions":["antennae","legs"],"bee_group":{"antennae":"B","wings":"X","pattern":"X","legs":"F"},"bonus":0.9800000000000012},{"rt":1916.8999999999069,"stimulus":"bees-with-color/bee-B1SM.svg","response":0,"trial_type":"image-button-response","trial_index":47,"time_elapsed":393488,"internal_node_id":"0.0-4.0-0.20","subject_id":"60fb1fc7b2b02ebe00fc26e7","study_id":"6197b3f67c2b5cd3b6d9596a","session_id":"619c1dd872ab844836196614","condition":"contingent","relevant_dimensions":["antennae","legs"],"bee_group":{"antennae":"B","wings":"X","pattern":"X","legs":"F"},"action":"harvest","summary":"good-harvest","bonus":0.9800000000000012},{"rt":1025.0999999996275,"stimulus":"\n                    <p><b>Action: <em>harvest</em></b></p>\n                    <p>This is the bee that you just saw.</p>\n                    <img src=\"bees-with-color/bee-B1SM.svg\" width=\"200\">\n                    <p><span class=\"greenText\"><b>Successful harvest!</b></span><br>Your pay has increased by $0.02. Your bonus pay is now $0.36.</p>\n            ","response":0,"trial_type":"html-button-response","trial_index":48,"time_elapsed":394514,"internal_node_id":"0.0-4.0-1.20","subject_id":"60fb1fc7b2b02ebe00fc26e7","study_id":"6197b3f67c2b5cd3b6d9596a","session_id":"619c1dd872ab844836196614","condition":"contingent","relevant_dimensions":["antennae","legs"],"bee_group":{"antennae":"B","wings":"X","pattern":"X","legs":"F"},"bonus":0.9800000000000012},{"rt":1778.1999999997206,"stimulus":"bees-with-color/bee-B2DF.svg","response":0,"trial_type":"image-button-response","trial_index":49,"time_elapsed":396293,"internal_node_id":"0.0-4.0-0.21","subject_id":"60fb1fc7b2b02ebe00fc26e7","study_id":"6197b3f67c2b5cd3b6d9596a","session_id":"619c1dd872ab844836196614","condition":"contingent","relevant_dimensions":["antennae","legs"],"bee_group":{"antennae":"B","wings":"X","pattern":"X","legs":"F"},"action":"harvest","summary":"bad-harvest","bonus":0.9800000000000012},{"rt":8096.799999999814,"stimulus":"\n                    <p><b>Action: <em>harvest</em></b></p>\n                    <p>This is the bee that you just saw.</p>\n                    <img src=\"bees-with-color/bee-B2DF.svg\" width=\"200\">\n                    <p><span class=\"redText\">Bad choice, the bee was angry.</span><br><b>You have been stung!</b><br>Your pay has been decreased by $0.10. Your bonus pay is now $0.26.</p>\n            ","response":0,"trial_type":"html-button-response","trial_index":50,"time_elapsed":404390,"internal_node_id":"0.0-4.0-1.21","subject_id":"60fb1fc7b2b02ebe00fc26e7","study_id":"6197b3f67c2b5cd3b6d9596a","session_id":"619c1dd872ab844836196614","condition":"contingent","relevant_dimensions":["antennae","legs"],"bee_group":{"antennae":"B","wings":"X","pattern":"X","legs":"F"},"bonus":0.9800000000000012},{"rt":1303.6999999997206,"stimulus":"bees-with-color/bee-A1DM.svg","response":0,"trial_type":"image-button-response","trial_index":51,"time_elapsed":405695,"internal_node_id":"0.0-4.0-0.22","subject_id":"60fb1fc7b2b02ebe00fc26e7","study_id":"6197b3f67c2b5cd3b6d9596a","session_id":"619c1dd872ab844836196614","condition":"contingent","relevant_dimensions":["antennae","legs"],"bee_group":{"antennae":"B","wings":"X","pattern":"X","legs":"F"},"action":"harvest","summary":"good-harvest","bonus":0.9800000000000012},{"rt":1058.2000000001863,"stimulus":"\n                    <p><b>Action: <em>harvest</em></b></p>\n                    <p>This is the bee that you just saw.</p>\n                    <img src=\"bees-with-color/bee-A1DM.svg\" width=\"200\">\n                    <p><span class=\"greenText\"><b>Successful harvest!</b></span><br>Your pay has increased by $0.02. Your bonus pay is now $0.28.</p>\n            ","response":0,"trial_type":"html-button-response","trial_index":52,"time_elapsed":406754,"internal_node_id":"0.0-4.0-1.22","subject_id":"60fb1fc7b2b02ebe00fc26e7","study_id":"6197b3f67c2b5cd3b6d9596a","session_id":"619c1dd872ab844836196614","condition":"contingent","relevant_dimensions":["antennae","legs"],"bee_group":{"antennae":"B","wings":"X","pattern":"X","legs":"F"},"bonus":0.9800000000000012},{"rt":922.2000000001863,"stimulus":"bees-with-color/bee-B2SM.svg","response":0,"trial_type":"image-button-response","trial_index":53,"time_elapsed":407677,"internal_node_id":"0.0-4.0-0.23","subject_id":"60fb1fc7b2b02ebe00fc26e7","study_id":"6197b3f67c2b5cd3b6d9596a","session_id":"619c1dd872ab844836196614","condition":"contingent","relevant_dimensions":["antennae","legs"],"bee_group":{"antennae":"B","wings":"X","pattern":"X","legs":"F"},"action":"harvest","summary":"good-harvest","bonus":0.9800000000000012},{"rt":674.1000000000931,"stimulus":"\n                    <p><b>Action: <em>harvest</em></b></p>\n                    <p>This is the bee that you just saw.</p>\n                    <img src=\"bees-with-color/bee-B2SM.svg\" width=\"200\">\n                    <p><span class=\"greenText\"><b>Successful harvest!</b></span><br>Your pay has increased by $0.02. Your bonus pay is now $0.30.</p>\n            ","response":0,"trial_type":"html-button-response","trial_index":54,"time_elapsed":408351,"internal_node_id":"0.0-4.0-1.23","subject_id":"60fb1fc7b2b02ebe00fc26e7","study_id":"6197b3f67c2b5cd3b6d9596a","session_id":"619c1dd872ab844836196614","condition":"contingent","relevant_dimensions":["antennae","legs"],"bee_group":{"antennae":"B","wings":"X","pattern":"X","legs":"F"},"bonus":0.9800000000000012},{"rt":1448.5,"stimulus":"bees-with-color/bee-A1SM.svg","response":0,"trial_type":"image-button-response","trial_index":55,"time_elapsed":409801,"internal_node_id":"0.0-4.0-0.24","subject_id":"60fb1fc7b2b02ebe00fc26e7","study_id":"6197b3f67c2b5cd3b6d9596a","session_id":"619c1dd872ab844836196614","condition":"contingent","relevant_dimensions":["antennae","legs"],"bee_group":{"antennae":"B","wings":"X","pattern":"X","legs":"F"},"action":"harvest","summary":"good-harvest","bonus":0.9800000000000012},{"rt":1122.1999999997206,"stimulus":"\n                    <p><b>Action: <em>harvest</em></b></p>\n                    <p>This is the bee that you just saw.</p>\n                    <img src=\"bees-with-color/bee-A1SM.svg\" width=\"200\">\n                    <p><span class=\"greenText\"><b>Successful harvest!</b></span><br>Your pay has increased by $0.02. Your bonus pay is now $0.32.</p>\n            ","response":0,"trial_type":"html-button-response","trial_index":56,"time_elapsed":410924,"internal_node_id":"0.0-4.0-1.24","subject_id":"60fb1fc7b2b02ebe00fc26e7","study_id":"6197b3f67c2b5cd3b6d9596a","session_id":"619c1dd872ab844836196614","condition":"contingent","relevant_dimensions":["antennae","legs"],"bee_group":{"antennae":"B","wings":"X","pattern":"X","legs":"F"},"bonus":0.9800000000000012},{"rt":2592,"stimulus":"bees-with-color/bee-A1SF.svg","response":0,"trial_type":"image-button-response","trial_index":57,"time_elapsed":413517,"internal_node_id":"0.0-4.0-0.25","subject_id":"60fb1fc7b2b02ebe00fc26e7","study_id":"6197b3f67c2b5cd3b6d9596a","session_id":"619c1dd872ab844836196614","condition":"contingent","relevant_dimensions":["antennae","legs"],"bee_group":{"antennae":"B","wings":"X","pattern":"X","legs":"F"},"action":"harvest","summary":"good-harvest","bonus":0.9800000000000012},{"rt":945.2999999998137,"stimulus":"\n                    <p><b>Action: <em>harvest</em></b></p>\n                    <p>This is the bee that you just saw.</p>\n                    <img src=\"bees-with-color/bee-A1SF.svg\" width=\"200\">\n                    <p><span class=\"greenText\"><b>Successful harvest!</b></span><br>Your pay has increased by $0.02. Your bonus pay is now $0.34.</p>\n            ","response":0,"trial_type":"html-button-response","trial_index":58,"time_elapsed":414463,"internal_node_id":"0.0-4.0-1.25","subject_id":"60fb1fc7b2b02ebe00fc26e7","study_id":"6197b3f67c2b5cd3b6d9596a","session_id":"619c1dd872ab844836196614","condition":"contingent","relevant_dimensions":["antennae","legs"],"bee_group":{"antennae":"B","wings":"X","pattern":"X","legs":"F"},"bonus":0.9800000000000012},{"rt":6462,"stimulus":"bees-with-color/bee-A1DF.svg","response":0,"trial_type":"image-button-response","trial_index":59,"time_elapsed":420926,"internal_node_id":"0.0-4.0-0.26","subject_id":"60fb1fc7b2b02ebe00fc26e7","study_id":"6197b3f67c2b5cd3b6d9596a","session_id":"619c1dd872ab844836196614","condition":"contingent","relevant_dimensions":["antennae","legs"],"bee_group":{"antennae":"B","wings":"X","pattern":"X","legs":"F"},"action":"harvest","summary":"good-harvest","bonus":0.9800000000000012},{"rt":1826.8000000002794,"stimulus":"\n                    <p><b>Action: <em>harvest</em></b></p>\n                    <p>This is the bee that you just saw.</p>\n                    <img src=\"bees-with-color/bee-A1DF.svg\" width=\"200\">\n                    <p><span class=\"greenText\"><b>Successful harvest!</b></span><br>Your pay has increased by $0.02. Your bonus pay is now $0.36.</p>\n            ","response":0,"trial_type":"html-button-response","trial_index":60,"time_elapsed":422754,"internal_node_id":"0.0-4.0-1.26","subject_id":"60fb1fc7b2b02ebe00fc26e7","study_id":"6197b3f67c2b5cd3b6d9596a","session_id":"619c1dd872ab844836196614","condition":"contingent","relevant_dimensions":["antennae","legs"],"bee_group":{"antennae":"B","wings":"X","pattern":"X","legs":"F"},"bonus":0.9800000000000012},{"rt":2155.3000000002794,"stimulus":"bees-with-color/bee-A2DM.svg","response":0,"trial_type":"image-button-response","trial_index":61,"time_elapsed":424910,"internal_node_id":"0.0-4.0-0.27","subject_id":"60fb1fc7b2b02ebe00fc26e7","study_id":"6197b3f67c2b5cd3b6d9596a","session_id":"619c1dd872ab844836196614","condition":"contingent","relevant_dimensions":["antennae","legs"],"bee_group":{"antennae":"B","wings":"X","pattern":"X","legs":"F"},"action":"harvest","summary":"good-harvest","bonus":0.9800000000000012},{"rt":829.7999999998137,"stimulus":"\n                    <p><b>Action: <em>harvest</em></b></p>\n                    <p>This is the bee that you just saw.</p>\n                    <img src=\"bees-with-color/bee-A2DM.svg\" width=\"200\">\n                    <p><span class=\"greenText\"><b>Successful harvest!</b></span><br>Your pay has increased by $0.02. Your bonus pay is now $0.38.</p>\n            ","response":0,"trial_type":"html-button-response","trial_index":62,"time_elapsed":425741,"internal_node_id":"0.0-4.0-1.27","subject_id":"60fb1fc7b2b02ebe00fc26e7","study_id":"6197b3f67c2b5cd3b6d9596a","session_id":"619c1dd872ab844836196614","condition":"contingent","relevant_dimensions":["antennae","legs"],"bee_group":{"antennae":"B","wings":"X","pattern":"X","legs":"F"},"bonus":0.9800000000000012},{"rt":3801.1999999997206,"stimulus":"bees-with-color/bee-B1SF.svg","response":0,"trial_type":"image-button-response","trial_index":63,"time_elapsed":429543,"internal_node_id":"0.0-4.0-0.28","subject_id":"60fb1fc7b2b02ebe00fc26e7","study_id":"6197b3f67c2b5cd3b6d9596a","session_id":"619c1dd872ab844836196614","condition":"contingent","relevant_dimensions":["antennae","legs"],"bee_group":{"antennae":"B","wings":"X","pattern":"X","legs":"F"},"action":"harvest","summary":"bad-harvest","bonus":0.9800000000000012},{"rt":12148.899999999907,"stimulus":"\n                    <p><b>Action: <em>harvest</em></b></p>\n                    <p>This is the bee that you just saw.</p>\n                    <img src=\"bees-with-color/bee-B1SF.svg\" width=\"200\">\n                    <p><span class=\"redText\">Bad choice, the bee was angry.</span><br><b>You have been stung!</b><br>Your pay has been decreased by $0.10. Your bonus pay is now $0.28.</p>\n            ","response":0,"trial_type":"html-button-response","trial_index":64,"time_elapsed":441693,"internal_node_id":"0.0-4.0-1.28","subject_id":"60fb1fc7b2b02ebe00fc26e7","study_id":"6197b3f67c2b5cd3b6d9596a","session_id":"619c1dd872ab844836196614","condition":"contingent","relevant_dimensions":["antennae","legs"],"bee_group":{"antennae":"B","wings":"X","pattern":"X","legs":"F"},"bonus":0.9800000000000012},{"rt":2130,"stimulus":"bees-with-color/bee-A2SM.svg","response":0,"trial_type":"image-button-response","trial_index":65,"time_elapsed":443824,"internal_node_id":"0.0-4.0-0.29","subject_id":"60fb1fc7b2b02ebe00fc26e7","study_id":"6197b3f67c2b5cd3b6d9596a","session_id":"619c1dd872ab844836196614","condition":"contingent","relevant_dimensions":["antennae","legs"],"bee_group":{"antennae":"B","wings":"X","pattern":"X","legs":"F"},"action":"harvest","summary":"good-harvest","bonus":0.9800000000000012},{"rt":600.1999999997206,"stimulus":"\n                    <p><b>Action: <em>harvest</em></b></p>\n                    <p>This is the bee that you just saw.</p>\n                    <img src=\"bees-with-color/bee-A2SM.svg\" width=\"200\">\n                    <p><span class=\"greenText\"><b>Successful harvest!</b></span><br>Your pay has increased by $0.02. Your bonus pay is now $0.30.</p>\n            ","response":0,"trial_type":"html-button-response","trial_index":66,"time_elapsed":444425,"internal_node_id":"0.0-4.0-1.29","subject_id":"60fb1fc7b2b02ebe00fc26e7","study_id":"6197b3f67c2b5cd3b6d9596a","session_id":"619c1dd872ab844836196614","condition":"contingent","relevant_dimensions":["antennae","legs"],"bee_group":{"antennae":"B","wings":"X","pattern":"X","legs":"F"},"bonus":0.9800000000000012},{"rt":2753.6999999997206,"stimulus":"bees-with-color/bee-B1DF.svg","response":1,"trial_type":"image-button-response","trial_index":67,"time_elapsed":447179,"internal_node_id":"0.0-4.0-0.30","subject_id":"60fb1fc7b2b02ebe00fc26e7","study_id":"6197b3f67c2b5cd3b6d9596a","session_id":"619c1dd872ab844836196614","condition":"contingent","relevant_dimensions":["antennae","legs"],"bee_group":{"antennae":"B","wings":"X","pattern":"X","legs":"F"},"action":"avoid","summary":"good-avoid","bonus":0.9800000000000012},{"rt":2880.5,"stimulus":"\n                    <p><b>Action: <em>avoid</em></b></p>\n                    <p>This is the bee that you just saw.</p>\n                    <img src=\"bees-with-color/bee-B1DF.svg\" width=\"200\">\n                    <p><br>Your bonus pay is unchanged, and remains at $0.30.</p>\n            ","response":0,"trial_type":"html-button-response","trial_index":68,"time_elapsed":450060,"internal_node_id":"0.0-4.0-1.30","subject_id":"60fb1fc7b2b02ebe00fc26e7","study_id":"6197b3f67c2b5cd3b6d9596a","session_id":"619c1dd872ab844836196614","condition":"contingent","relevant_dimensions":["antennae","legs"],"bee_group":{"antennae":"B","wings":"X","pattern":"X","legs":"F"},"bonus":0.9800000000000012},{"rt":1439.2999999998137,"stimulus":"bees-with-color/bee-B2DM.svg","response":0,"trial_type":"image-button-response","trial_index":69,"time_elapsed":451501,"internal_node_id":"0.0-4.0-0.31","subject_id":"60fb1fc7b2b02ebe00fc26e7","study_id":"6197b3f67c2b5cd3b6d9596a","session_id":"619c1dd872ab844836196614","condition":"contingent","relevant_dimensions":["antennae","legs"],"bee_group":{"antennae":"B","wings":"X","pattern":"X","legs":"F"},"action":"harvest","summary":"good-harvest","bonus":0.9800000000000012},{"rt":828.1999999997206,"stimulus":"\n                    <p><b>Action: <em>harvest</em></b></p>\n                    <p>This is the bee that you just saw.</p>\n                    <img src=\"bees-with-color/bee-B2DM.svg\" width=\"200\">\n                    <p><span class=\"greenText\"><b>Successful harvest!</b></span><br>Your pay has increased by $0.02. Your bonus pay is now $0.32.</p>\n            ","response":0,"trial_type":"html-button-response","trial_index":70,"time_elapsed":452330,"internal_node_id":"0.0-4.0-1.31","subject_id":"60fb1fc7b2b02ebe00fc26e7","study_id":"6197b3f67c2b5cd3b6d9596a","session_id":"619c1dd872ab844836196614","condition":"contingent","relevant_dimensions":["antennae","legs"],"bee_group":{"antennae":"B","wings":"X","pattern":"X","legs":"F"},"bonus":0.9800000000000012},{"rt":6576.200000000186,"stimulus":"bees-with-color/bee-B1SF.svg","response":0,"trial_type":"image-button-response","trial_index":71,"time_elapsed":458907,"internal_node_id":"0.0-4.0-0.32","subject_id":"60fb1fc7b2b02ebe00fc26e7","study_id":"6197b3f67c2b5cd3b6d9596a","session_id":"619c1dd872ab844836196614","condition":"contingent","relevant_dimensions":["antennae","legs"],"bee_group":{"antennae":"B","wings":"X","pattern":"X","legs":"F"},"action":"harvest","summary":"bad-harvest","bonus":0.9800000000000012},{"rt":1342.1000000000931,"stimulus":"\n                    <p><b>Action: <em>harvest</em></b></p>\n                    <p>This is the bee that you just saw.</p>\n                    <img src=\"bees-with-color/bee-B1SF.svg\" width=\"200\">\n                    <p><span class=\"redText\">Bad choice, the bee was angry.</span><br><b>You have been stung!</b><br>Your pay has been decreased by $0.10. Your bonus pay is now $0.22.</p>\n            ","response":0,"trial_type":"html-button-response","trial_index":72,"time_elapsed":460250,"internal_node_id":"0.0-4.0-1.32","subject_id":"60fb1fc7b2b02ebe00fc26e7","study_id":"6197b3f67c2b5cd3b6d9596a","session_id":"619c1dd872ab844836196614","condition":"contingent","relevant_dimensions":["antennae","legs"],"bee_group":{"antennae":"B","wings":"X","pattern":"X","legs":"F"},"bonus":0.9800000000000012},{"rt":1741,"stimulus":"bees-with-color/bee-A1DF.svg","response":0,"trial_type":"image-button-response","trial_index":73,"time_elapsed":461992,"internal_node_id":"0.0-4.0-0.33","subject_id":"60fb1fc7b2b02ebe00fc26e7","study_id":"6197b3f67c2b5cd3b6d9596a","session_id":"619c1dd872ab844836196614","condition":"contingent","relevant_dimensions":["antennae","legs"],"bee_group":{"antennae":"B","wings":"X","pattern":"X","legs":"F"},"action":"harvest","summary":"good-harvest","bonus":0.9800000000000012},{"rt":532.2999999998137,"stimulus":"\n                    <p><b>Action: <em>harvest</em></b></p>\n                    <p>This is the bee that you just saw.</p>\n                    <img src=\"bees-with-color/bee-A1DF.svg\" width=\"200\">\n                    <p><span class=\"greenText\"><b>Successful harvest!</b></span><br>Your pay has increased by $0.02. Your bonus pay is now $0.24.</p>\n            ","response":0,"trial_type":"html-button-response","trial_index":74,"time_elapsed":462525,"internal_node_id":"0.0-4.0-1.33","subject_id":"60fb1fc7b2b02ebe00fc26e7","study_id":"6197b3f67c2b5cd3b6d9596a","session_id":"619c1dd872ab844836196614","condition":"contingent","relevant_dimensions":["antennae","legs"],"bee_group":{"antennae":"B","wings":"X","pattern":"X","legs":"F"},"bonus":0.9800000000000012},{"rt":2338.100000000093,"stimulus":"bees-with-color/bee-B2DF.svg","response":0,"trial_type":"image-button-response","trial_index":75,"time_elapsed":464864,"internal_node_id":"0.0-4.0-0.34","subject_id":"60fb1fc7b2b02ebe00fc26e7","study_id":"6197b3f67c2b5cd3b6d9596a","session_id":"619c1dd872ab844836196614","condition":"contingent","relevant_dimensions":["antennae","legs"],"bee_group":{"antennae":"B","wings":"X","pattern":"X","legs":"F"},"action":"harvest","summary":"bad-harvest","bonus":0.9800000000000012},{"rt":1480.5999999996275,"stimulus":"\n                    <p><b>Action: <em>harvest</em></b></p>\n                    <p>This is the bee that you just saw.</p>\n                    <img src=\"bees-with-color/bee-B2DF.svg\" width=\"200\">\n                    <p><span class=\"redText\">Bad choice, the bee was angry.</span><br><b>You have been stung!</b><br>Your pay has been decreased by $0.10. Your bonus pay is now $0.14.</p>\n            ","response":0,"trial_type":"html-button-response","trial_index":76,"time_elapsed":466345,"internal_node_id":"0.0-4.0-1.34","subject_id":"60fb1fc7b2b02ebe00fc26e7","study_id":"6197b3f67c2b5cd3b6d9596a","session_id":"619c1dd872ab844836196614","condition":"contingent","relevant_dimensions":["antennae","legs"],"bee_group":{"antennae":"B","wings":"X","pattern":"X","legs":"F"},"bonus":0.9800000000000012},{"rt":1993.8999999999069,"stimulus":"bees-with-color/bee-A2SF.svg","response":0,"trial_type":"image-button-response","trial_index":77,"time_elapsed":468340,"internal_node_id":"0.0-4.0-0.35","subject_id":"60fb1fc7b2b02ebe00fc26e7","study_id":"6197b3f67c2b5cd3b6d9596a","session_id":"619c1dd872ab844836196614","condition":"contingent","relevant_dimensions":["antennae","legs"],"bee_group":{"antennae":"B","wings":"X","pattern":"X","legs":"F"},"action":"harvest","summary":"good-harvest","bonus":0.9800000000000012},{"rt":886.6000000000931,"stimulus":"\n                    <p><b>Action: <em>harvest</em></b></p>\n                    <p>This is the bee that you just saw.</p>\n                    <img src=\"bees-with-color/bee-A2SF.svg\" width=\"200\">\n                    <p><span class=\"greenText\"><b>Successful harvest!</b></span><br>Your pay has increased by $0.02. Your bonus pay is now $0.16.</p>\n            ","response":0,"trial_type":"html-button-response","trial_index":78,"time_elapsed":469227,"internal_node_id":"0.0-4.0-1.35","subject_id":"60fb1fc7b2b02ebe00fc26e7","study_id":"6197b3f67c2b5cd3b6d9596a","session_id":"619c1dd872ab844836196614","condition":"contingent","relevant_dimensions":["antennae","legs"],"bee_group":{"antennae":"B","wings":"X","pattern":"X","legs":"F"},"bonus":0.9800000000000012},{"rt":1267.2000000001863,"stimulus":"bees-with-color/bee-A2DM.svg","response":0,"trial_type":"image-button-response","trial_index":79,"time_elapsed":470495,"internal_node_id":"0.0-4.0-0.36","subject_id":"60fb1fc7b2b02ebe00fc26e7","study_id":"6197b3f67c2b5cd3b6d9596a","session_id":"619c1dd872ab844836196614","condition":"contingent","relevant_dimensions":["antennae","legs"],"bee_group":{"antennae":"B","wings":"X","pattern":"X","legs":"F"},"action":"harvest","summary":"good-harvest","bonus":0.9800000000000012},{"rt":437.39999999990687,"stimulus":"\n                    <p><b>Action: <em>harvest</em></b></p>\n                    <p>This is the bee that you just saw.</p>\n                    <img src=\"bees-with-color/bee-A2DM.svg\" width=\"200\">\n                    <p><span class=\"greenText\"><b>Successful harvest!</b></span><br>Your pay has increased by $0.02. Your bonus pay is now $0.18.</p>\n            ","response":0,"trial_type":"html-button-response","trial_index":80,"time_elapsed":470934,"internal_node_id":"0.0-4.0-1.36","subject_id":"60fb1fc7b2b02ebe00fc26e7","study_id":"6197b3f67c2b5cd3b6d9596a","session_id":"619c1dd872ab844836196614","condition":"contingent","relevant_dimensions":["antennae","legs"],"bee_group":{"antennae":"B","wings":"X","pattern":"X","legs":"F"},"bonus":0.9800000000000012},{"rt":1142.5999999996275,"stimulus":"bees-with-color/bee-B1SM.svg","response":0,"trial_type":"image-button-response","trial_index":81,"time_elapsed":472077,"internal_node_id":"0.0-4.0-0.37","subject_id":"60fb1fc7b2b02ebe00fc26e7","study_id":"6197b3f67c2b5cd3b6d9596a","session_id":"619c1dd872ab844836196614","condition":"contingent","relevant_dimensions":["antennae","legs"],"bee_group":{"antennae":"B","wings":"X","pattern":"X","legs":"F"},"action":"harvest","summary":"good-harvest","bonus":0.9800000000000012},{"rt":469.5,"stimulus":"\n                    <p><b>Action: <em>harvest</em></b></p>\n                    <p>This is the bee that you just saw.</p>\n                    <img src=\"bees-with-color/bee-B1SM.svg\" width=\"200\">\n                    <p><span class=\"greenText\"><b>Successful harvest!</b></span><br>Your pay has increased by $0.02. Your bonus pay is now $0.20.</p>\n            ","response":0,"trial_type":"html-button-response","trial_index":82,"time_elapsed":472548,"internal_node_id":"0.0-4.0-1.37","subject_id":"60fb1fc7b2b02ebe00fc26e7","study_id":"6197b3f67c2b5cd3b6d9596a","session_id":"619c1dd872ab844836196614","condition":"contingent","relevant_dimensions":["antennae","legs"],"bee_group":{"antennae":"B","wings":"X","pattern":"X","legs":"F"},"bonus":0.9800000000000012},{"rt":2155.100000000093,"stimulus":"bees-with-color/bee-B2DM.svg","response":0,"trial_type":"image-button-response","trial_index":83,"time_elapsed":474704,"internal_node_id":"0.0-4.0-0.38","subject_id":"60fb1fc7b2b02ebe00fc26e7","study_id":"6197b3f67c2b5cd3b6d9596a","session_id":"619c1dd872ab844836196614","condition":"contingent","relevant_dimensions":["antennae","legs"],"bee_group":{"antennae":"B","wings":"X","pattern":"X","legs":"F"},"action":"harvest","summary":"good-harvest","bonus":0.9800000000000012},{"rt":587.6000000000931,"stimulus":"\n                    <p><b>Action: <em>harvest</em></b></p>\n                    <p>This is the bee that you just saw.</p>\n                    <img src=\"bees-with-color/bee-B2DM.svg\" width=\"200\">\n                    <p><span class=\"greenText\"><b>Successful harvest!</b></span><br>Your pay has increased by $0.02. Your bonus pay is now $0.22.</p>\n            ","response":0,"trial_type":"html-button-response","trial_index":84,"time_elapsed":475292,"internal_node_id":"0.0-4.0-1.38","subject_id":"60fb1fc7b2b02ebe00fc26e7","study_id":"6197b3f67c2b5cd3b6d9596a","session_id":"619c1dd872ab844836196614","condition":"contingent","relevant_dimensions":["antennae","legs"],"bee_group":{"antennae":"B","wings":"X","pattern":"X","legs":"F"},"bonus":0.9800000000000012},{"rt":1747.8999999999069,"stimulus":"bees-with-color/bee-A1SM.svg","response":0,"trial_type":"image-button-response","trial_index":85,"time_elapsed":477041,"internal_node_id":"0.0-4.0-0.39","subject_id":"60fb1fc7b2b02ebe00fc26e7","study_id":"6197b3f67c2b5cd3b6d9596a","session_id":"619c1dd872ab844836196614","condition":"contingent","relevant_dimensions":["antennae","legs"],"bee_group":{"antennae":"B","wings":"X","pattern":"X","legs":"F"},"action":"harvest","summary":"good-harvest","bonus":0.9800000000000012},{"rt":570.0999999996275,"stimulus":"\n                    <p><b>Action: <em>harvest</em></b></p>\n                    <p>This is the bee that you just saw.</p>\n                    <img src=\"bees-with-color/bee-A1SM.svg\" width=\"200\">\n                    <p><span class=\"greenText\"><b>Successful harvest!</b></span><br>Your pay has increased by $0.02. Your bonus pay is now $0.24.</p>\n            ","response":0,"trial_type":"html-button-response","trial_index":86,"time_elapsed":477612,"internal_node_id":"0.0-4.0-1.39","subject_id":"60fb1fc7b2b02ebe00fc26e7","study_id":"6197b3f67c2b5cd3b6d9596a","session_id":"619c1dd872ab844836196614","condition":"contingent","relevant_dimensions":["antennae","legs"],"bee_group":{"antennae":"B","wings":"X","pattern":"X","legs":"F"},"bonus":0.9800000000000012},{"rt":1906.8000000002794,"stimulus":"bees-with-color/bee-B2SM.svg","response":0,"trial_type":"image-button-response","trial_index":87,"time_elapsed":479519,"internal_node_id":"0.0-4.0-0.40","subject_id":"60fb1fc7b2b02ebe00fc26e7","study_id":"6197b3f67c2b5cd3b6d9596a","session_id":"619c1dd872ab844836196614","condition":"contingent","relevant_dimensions":["antennae","legs"],"bee_group":{"antennae":"B","wings":"X","pattern":"X","legs":"F"},"action":"harvest","summary":"good-harvest","bonus":0.9800000000000012},{"rt":664.6000000000931,"stimulus":"\n                    <p><b>Action: <em>harvest</em></b></p>\n                    <p>This is the bee that you just saw.</p>\n                    <img src=\"bees-with-color/bee-B2SM.svg\" width=\"200\">\n                    <p><span class=\"greenText\"><b>Successful harvest!</b></span><br>Your pay has increased by $0.02. Your bonus pay is now $0.26.</p>\n            ","response":0,"trial_type":"html-button-response","trial_index":88,"time_elapsed":480184,"internal_node_id":"0.0-4.0-1.40","subject_id":"60fb1fc7b2b02ebe00fc26e7","study_id":"6197b3f67c2b5cd3b6d9596a","session_id":"619c1dd872ab844836196614","condition":"contingent","relevant_dimensions":["antennae","legs"],"bee_group":{"antennae":"B","wings":"X","pattern":"X","legs":"F"},"bonus":0.9800000000000012},{"rt":1816.5,"stimulus":"bees-with-color/bee-A1SF.svg","response":0,"trial_type":"image-button-response","trial_index":89,"time_elapsed":482002,"internal_node_id":"0.0-4.0-0.41","subject_id":"60fb1fc7b2b02ebe00fc26e7","study_id":"6197b3f67c2b5cd3b6d9596a","session_id":"619c1dd872ab844836196614","condition":"contingent","relevant_dimensions":["antennae","legs"],"bee_group":{"antennae":"B","wings":"X","pattern":"X","legs":"F"},"action":"harvest","summary":"good-harvest","bonus":0.9800000000000012},{"rt":759.2999999998137,"stimulus":"\n                    <p><b>Action: <em>harvest</em></b></p>\n                    <p>This is the bee that you just saw.</p>\n                    <img src=\"bees-with-color/bee-A1SF.svg\" width=\"200\">\n                    <p><span class=\"greenText\"><b>Successful harvest!</b></span><br>Your pay has increased by $0.02. Your bonus pay is now $0.28.</p>\n            ","response":0,"trial_type":"html-button-response","trial_index":90,"time_elapsed":482762,"internal_node_id":"0.0-4.0-1.41","subject_id":"60fb1fc7b2b02ebe00fc26e7","study_id":"6197b3f67c2b5cd3b6d9596a","session_id":"619c1dd872ab844836196614","condition":"contingent","relevant_dimensions":["antennae","legs"],"bee_group":{"antennae":"B","wings":"X","pattern":"X","legs":"F"},"bonus":0.9800000000000012},{"rt":1334.2000000001863,"stimulus":"bees-with-color/bee-A1DM.svg","response":0,"trial_type":"image-button-response","trial_index":91,"time_elapsed":484096,"internal_node_id":"0.0-4.0-0.42","subject_id":"60fb1fc7b2b02ebe00fc26e7","study_id":"6197b3f67c2b5cd3b6d9596a","session_id":"619c1dd872ab844836196614","condition":"contingent","relevant_dimensions":["antennae","legs"],"bee_group":{"antennae":"B","wings":"X","pattern":"X","legs":"F"},"action":"harvest","summary":"good-harvest","bonus":0.9800000000000012},{"rt":614.5,"stimulus":"\n                    <p><b>Action: <em>harvest</em></b></p>\n                    <p>This is the bee that you just saw.</p>\n                    <img src=\"bees-with-color/bee-A1DM.svg\" width=\"200\">\n                    <p><span class=\"greenText\"><b>Successful harvest!</b></span><br>Your pay has increased by $0.02. Your bonus pay is now $0.30.</p>\n            ","response":0,"trial_type":"html-button-response","trial_index":92,"time_elapsed":484711,"internal_node_id":"0.0-4.0-1.42","subject_id":"60fb1fc7b2b02ebe00fc26e7","study_id":"6197b3f67c2b5cd3b6d9596a","session_id":"619c1dd872ab844836196614","condition":"contingent","relevant_dimensions":["antennae","legs"],"bee_group":{"antennae":"B","wings":"X","pattern":"X","legs":"F"},"bonus":0.9800000000000012},{"rt":4371.5,"stimulus":"bees-with-color/bee-B1DF.svg","response":1,"trial_type":"image-button-response","trial_index":93,"time_elapsed":489084,"internal_node_id":"0.0-4.0-0.43","subject_id":"60fb1fc7b2b02ebe00fc26e7","study_id":"6197b3f67c2b5cd3b6d9596a","session_id":"619c1dd872ab844836196614","condition":"contingent","relevant_dimensions":["antennae","legs"],"bee_group":{"antennae":"B","wings":"X","pattern":"X","legs":"F"},"action":"avoid","summary":"good-avoid","bonus":0.9800000000000012},{"rt":778.1000000000931,"stimulus":"\n                    <p><b>Action: <em>avoid</em></b></p>\n                    <p>This is the bee that you just saw.</p>\n                    <img src=\"bees-with-color/bee-B1DF.svg\" width=\"200\">\n                    <p><br>Your bonus pay is unchanged, and remains at $0.30.</p>\n            ","response":0,"trial_type":"html-button-response","trial_index":94,"time_elapsed":489863,"internal_node_id":"0.0-4.0-1.43","subject_id":"60fb1fc7b2b02ebe00fc26e7","study_id":"6197b3f67c2b5cd3b6d9596a","session_id":"619c1dd872ab844836196614","condition":"contingent","relevant_dimensions":["antennae","legs"],"bee_group":{"antennae":"B","wings":"X","pattern":"X","legs":"F"},"bonus":0.9800000000000012},{"rt":2697,"stimulus":"bees-with-color/bee-A2DF.svg","response":0,"trial_type":"image-button-response","trial_index":95,"time_elapsed":492561,"internal_node_id":"0.0-4.0-0.44","subject_id":"60fb1fc7b2b02ebe00fc26e7","study_id":"6197b3f67c2b5cd3b6d9596a","session_id":"619c1dd872ab844836196614","condition":"contingent","relevant_dimensions":["antennae","legs"],"bee_group":{"antennae":"B","wings":"X","pattern":"X","legs":"F"},"action":"harvest","summary":"good-harvest","bonus":0.9800000000000012},{"rt":666.1000000000931,"stimulus":"\n                    <p><b>Action: <em>harvest</em></b></p>\n                    <p>This is the bee that you just saw.</p>\n                    <img src=\"bees-with-color/bee-A2DF.svg\" width=\"200\">\n                    <p><span class=\"greenText\"><b>Successful harvest!</b></span><br>Your pay has increased by $0.02. Your bonus pay is now $0.32.</p>\n            ","response":0,"trial_type":"html-button-response","trial_index":96,"time_elapsed":493228,"internal_node_id":"0.0-4.0-1.44","subject_id":"60fb1fc7b2b02ebe00fc26e7","study_id":"6197b3f67c2b5cd3b6d9596a","session_id":"619c1dd872ab844836196614","condition":"contingent","relevant_dimensions":["antennae","legs"],"bee_group":{"antennae":"B","wings":"X","pattern":"X","legs":"F"},"bonus":0.9800000000000012},{"rt":1822.5,"stimulus":"bees-with-color/bee-B1DM.svg","response":0,"trial_type":"image-button-response","trial_index":97,"time_elapsed":495051,"internal_node_id":"0.0-4.0-0.45","subject_id":"60fb1fc7b2b02ebe00fc26e7","study_id":"6197b3f67c2b5cd3b6d9596a","session_id":"619c1dd872ab844836196614","condition":"contingent","relevant_dimensions":["antennae","legs"],"bee_group":{"antennae":"B","wings":"X","pattern":"X","legs":"F"},"action":"harvest","summary":"good-harvest","bonus":0.9800000000000012},{"rt":610.7000000001863,"stimulus":"\n                    <p><b>Action: <em>harvest</em></b></p>\n                    <p>This is the bee that you just saw.</p>\n                    <img src=\"bees-with-color/bee-B1DM.svg\" width=\"200\">\n                    <p><span class=\"greenText\"><b>Successful harvest!</b></span><br>Your pay has increased by $0.02. Your bonus pay is now $0.34.</p>\n            ","response":0,"trial_type":"html-button-response","trial_index":98,"time_elapsed":495663,"internal_node_id":"0.0-4.0-1.45","subject_id":"60fb1fc7b2b02ebe00fc26e7","study_id":"6197b3f67c2b5cd3b6d9596a","session_id":"619c1dd872ab844836196614","condition":"contingent","relevant_dimensions":["antennae","legs"],"bee_group":{"antennae":"B","wings":"X","pattern":"X","legs":"F"},"bonus":0.9800000000000012},{"rt":1728.1000000000931,"stimulus":"bees-with-color/bee-A2SM.svg","response":0,"trial_type":"image-button-response","trial_index":99,"time_elapsed":497392,"internal_node_id":"0.0-4.0-0.46","subject_id":"60fb1fc7b2b02ebe00fc26e7","study_id":"6197b3f67c2b5cd3b6d9596a","session_id":"619c1dd872ab844836196614","condition":"contingent","relevant_dimensions":["antennae","legs"],"bee_group":{"antennae":"B","wings":"X","pattern":"X","legs":"F"},"action":"harvest","summary":"good-harvest","bonus":0.9800000000000012},{"rt":698.1999999997206,"stimulus":"\n                    <p><b>Action: <em>harvest</em></b></p>\n                    <p>This is the bee that you just saw.</p>\n                    <img src=\"bees-with-color/bee-A2SM.svg\" width=\"200\">\n                    <p><span class=\"greenText\"><b>Successful harvest!</b></span><br>Your pay has increased by $0.02. Your bonus pay is now $0.36.</p>\n            ","response":0,"trial_type":"html-button-response","trial_index":100,"time_elapsed":498091,"internal_node_id":"0.0-4.0-1.46","subject_id":"60fb1fc7b2b02ebe00fc26e7","study_id":"6197b3f67c2b5cd3b6d9596a","session_id":"619c1dd872ab844836196614","condition":"contingent","relevant_dimensions":["antennae","legs"],"bee_group":{"antennae":"B","wings":"X","pattern":"X","legs":"F"},"bonus":0.9800000000000012},{"rt":2167.3000000002794,"stimulus":"bees-with-color/bee-B2SF.svg","response":1,"trial_type":"image-button-response","trial_index":101,"time_elapsed":500259,"internal_node_id":"0.0-4.0-0.47","subject_id":"60fb1fc7b2b02ebe00fc26e7","study_id":"6197b3f67c2b5cd3b6d9596a","session_id":"619c1dd872ab844836196614","condition":"contingent","relevant_dimensions":["antennae","legs"],"bee_group":{"antennae":"B","wings":"X","pattern":"X","legs":"F"},"action":"avoid","summary":"good-avoid","bonus":0.9800000000000012},{"rt":790.1999999997206,"stimulus":"\n                    <p><b>Action: <em>avoid</em></b></p>\n                    <p>This is the bee that you just saw.</p>\n                    <img src=\"bees-with-color/bee-B2SF.svg\" width=\"200\">\n                    <p><br>Your bonus pay is unchanged, and remains at $0.36.</p>\n            ","response":0,"trial_type":"html-button-response","trial_index":102,"time_elapsed":501050,"internal_node_id":"0.0-4.0-1.47","subject_id":"60fb1fc7b2b02ebe00fc26e7","study_id":"6197b3f67c2b5cd3b6d9596a","session_id":"619c1dd872ab844836196614","condition":"contingent","relevant_dimensions":["antennae","legs"],"bee_group":{"antennae":"B","wings":"X","pattern":"X","legs":"F"},"bonus":0.9800000000000012},{"rt":5161.100000000093,"stimulus":"bees-with-color/bee-B2DF.svg","response":1,"trial_type":"image-button-response","trial_index":103,"time_elapsed":506212,"internal_node_id":"0.0-4.0-0.48","subject_id":"60fb1fc7b2b02ebe00fc26e7","study_id":"6197b3f67c2b5cd3b6d9596a","session_id":"619c1dd872ab844836196614","condition":"contingent","relevant_dimensions":["antennae","legs"],"bee_group":{"antennae":"B","wings":"X","pattern":"X","legs":"F"},"action":"avoid","summary":"good-avoid","bonus":0.9800000000000012},{"rt":809.5999999996275,"stimulus":"\n                    <p><b>Action: <em>avoid</em></b></p>\n                    <p>This is the bee that you just saw.</p>\n                    <img src=\"bees-with-color/bee-B2DF.svg\" width=\"200\">\n                    <p><br>Your bonus pay is unchanged, and remains at $0.36.</p>\n            ","response":0,"trial_type":"html-button-response","trial_index":104,"time_elapsed":507023,"internal_node_id":"0.0-4.0-1.48","subject_id":"60fb1fc7b2b02ebe00fc26e7","study_id":"6197b3f67c2b5cd3b6d9596a","session_id":"619c1dd872ab844836196614","condition":"contingent","relevant_dimensions":["antennae","legs"],"bee_group":{"antennae":"B","wings":"X","pattern":"X","legs":"F"},"bonus":0.9800000000000012},{"rt":1158.8999999994412,"stimulus":"bees-with-color/bee-A2DM.svg","response":0,"trial_type":"image-button-response","trial_index":105,"time_elapsed":508182,"internal_node_id":"0.0-4.0-0.49","subject_id":"60fb1fc7b2b02ebe00fc26e7","study_id":"6197b3f67c2b5cd3b6d9596a","session_id":"619c1dd872ab844836196614","condition":"contingent","relevant_dimensions":["antennae","legs"],"bee_group":{"antennae":"B","wings":"X","pattern":"X","legs":"F"},"action":"harvest","summary":"good-harvest","bonus":0.9800000000000012},{"rt":896.5999999996275,"stimulus":"\n                    <p><b>Action: <em>harvest</em></b></p>\n                    <p>This is the bee that you just saw.</p>\n                    <img src=\"bees-with-color/bee-A2DM.svg\" width=\"200\">\n                    <p><span class=\"greenText\"><b>Successful harvest!</b></span><br>Your pay has increased by $0.02. Your bonus pay is now $0.38.</p>\n            ","response":0,"trial_type":"html-button-response","trial_index":106,"time_elapsed":509080,"internal_node_id":"0.0-4.0-1.49","subject_id":"60fb1fc7b2b02ebe00fc26e7","study_id":"6197b3f67c2b5cd3b6d9596a","session_id":"619c1dd872ab844836196614","condition":"contingent","relevant_dimensions":["antennae","legs"],"bee_group":{"antennae":"B","wings":"X","pattern":"X","legs":"F"},"bonus":0.9800000000000012},{"rt":1401,"stimulus":"bees-with-color/bee-A2SM.svg","response":0,"trial_type":"image-button-response","trial_index":107,"time_elapsed":510482,"internal_node_id":"0.0-4.0-0.50","subject_id":"60fb1fc7b2b02ebe00fc26e7","study_id":"6197b3f67c2b5cd3b6d9596a","session_id":"619c1dd872ab844836196614","condition":"contingent","relevant_dimensions":["antennae","legs"],"bee_group":{"antennae":"B","wings":"X","pattern":"X","legs":"F"},"action":"harvest","summary":"good-harvest","bonus":0.9800000000000012},{"rt":676.2999999998137,"stimulus":"\n                    <p><b>Action: <em>harvest</em></b></p>\n                    <p>This is the bee that you just saw.</p>\n                    <img src=\"bees-with-color/bee-A2SM.svg\" width=\"200\">\n                    <p><span class=\"greenText\"><b>Successful harvest!</b></span><br>Your pay has increased by $0.02. Your bonus pay is now $0.40.</p>\n            ","response":0,"trial_type":"html-button-response","trial_index":108,"time_elapsed":511159,"internal_node_id":"0.0-4.0-1.50","subject_id":"60fb1fc7b2b02ebe00fc26e7","study_id":"6197b3f67c2b5cd3b6d9596a","session_id":"619c1dd872ab844836196614","condition":"contingent","relevant_dimensions":["antennae","legs"],"bee_group":{"antennae":"B","wings":"X","pattern":"X","legs":"F"},"bonus":0.9800000000000012},{"rt":3905,"stimulus":"bees-with-color/bee-A2DF.svg","response":1,"trial_type":"image-button-response","trial_index":109,"time_elapsed":515064,"internal_node_id":"0.0-4.0-0.51","subject_id":"60fb1fc7b2b02ebe00fc26e7","study_id":"6197b3f67c2b5cd3b6d9596a","session_id":"619c1dd872ab844836196614","condition":"contingent","relevant_dimensions":["antennae","legs"],"bee_group":{"antennae":"B","wings":"X","pattern":"X","legs":"F"},"action":"avoid","summary":"bad-avoid","bonus":0.9800000000000012},{"rt":1042.0999999996275,"stimulus":"\n                    <p><b>Action: <em>avoid</em></b></p>\n                    <p>This is the bee that you just saw.</p>\n                    <img src=\"bees-with-color/bee-A2DF.svg\" width=\"200\">\n                    <p><br>Your bonus pay is unchanged, and remains at $0.40.</p>\n            ","response":0,"trial_type":"html-button-response","trial_index":110,"time_elapsed":516107,"internal_node_id":"0.0-4.0-1.51","subject_id":"60fb1fc7b2b02ebe00fc26e7","study_id":"6197b3f67c2b5cd3b6d9596a","session_id":"619c1dd872ab844836196614","condition":"contingent","relevant_dimensions":["antennae","legs"],"bee_group":{"antennae":"B","wings":"X","pattern":"X","legs":"F"},"bonus":0.9800000000000012},{"rt":4600.199999999255,"stimulus":"bees-with-color/bee-A1SF.svg","response":0,"trial_type":"image-button-response","trial_index":111,"time_elapsed":520708,"internal_node_id":"0.0-4.0-0.52","subject_id":"60fb1fc7b2b02ebe00fc26e7","study_id":"6197b3f67c2b5cd3b6d9596a","session_id":"619c1dd872ab844836196614","condition":"contingent","relevant_dimensions":["antennae","legs"],"bee_group":{"antennae":"B","wings":"X","pattern":"X","legs":"F"},"action":"harvest","summary":"good-harvest","bonus":0.9800000000000012},{"rt":766.5999999996275,"stimulus":"\n                    <p><b>Action: <em>harvest</em></b></p>\n                    <p>This is the bee that you just saw.</p>\n                    <img src=\"bees-with-color/bee-A1SF.svg\" width=\"200\">\n                    <p><span class=\"greenText\"><b>Successful harvest!</b></span><br>Your pay has increased by $0.02. Your bonus pay is now $0.42.</p>\n            ","response":0,"trial_type":"html-button-response","trial_index":112,"time_elapsed":521476,"internal_node_id":"0.0-4.0-1.52","subject_id":"60fb1fc7b2b02ebe00fc26e7","study_id":"6197b3f67c2b5cd3b6d9596a","session_id":"619c1dd872ab844836196614","condition":"contingent","relevant_dimensions":["antennae","legs"],"bee_group":{"antennae":"B","wings":"X","pattern":"X","legs":"F"},"bonus":0.9800000000000012},{"rt":1226.6000000005588,"stimulus":"bees-with-color/bee-B2DM.svg","response":0,"trial_type":"image-button-response","trial_index":113,"time_elapsed":522703,"internal_node_id":"0.0-4.0-0.53","subject_id":"60fb1fc7b2b02ebe00fc26e7","study_id":"6197b3f67c2b5cd3b6d9596a","session_id":"619c1dd872ab844836196614","condition":"contingent","relevant_dimensions":["antennae","legs"],"bee_group":{"antennae":"B","wings":"X","pattern":"X","legs":"F"},"action":"harvest","summary":"good-harvest","bonus":0.9800000000000012},{"rt":711.1000000005588,"stimulus":"\n                    <p><b>Action: <em>harvest</em></b></p>\n                    <p>This is the bee that you just saw.</p>\n                    <img src=\"bees-with-color/bee-B2DM.svg\" width=\"200\">\n                    <p><span class=\"greenText\"><b>Successful harvest!</b></span><br>Your pay has increased by $0.02. Your bonus pay is now $0.44.</p>\n            ","response":0,"trial_type":"html-button-response","trial_index":114,"time_elapsed":523415,"internal_node_id":"0.0-4.0-1.53","subject_id":"60fb1fc7b2b02ebe00fc26e7","study_id":"6197b3f67c2b5cd3b6d9596a","session_id":"619c1dd872ab844836196614","condition":"contingent","relevant_dimensions":["antennae","legs"],"bee_group":{"antennae":"B","wings":"X","pattern":"X","legs":"F"},"bonus":0.9800000000000012},{"rt":1368.1000000005588,"stimulus":"bees-with-color/bee-B2SM.svg","response":0,"trial_type":"image-button-response","trial_index":115,"time_elapsed":524784,"internal_node_id":"0.0-4.0-0.54","subject_id":"60fb1fc7b2b02ebe00fc26e7","study_id":"6197b3f67c2b5cd3b6d9596a","session_id":"619c1dd872ab844836196614","condition":"contingent","relevant_dimensions":["antennae","legs"],"bee_group":{"antennae":"B","wings":"X","pattern":"X","legs":"F"},"action":"harvest","summary":"good-harvest","bonus":0.9800000000000012},{"rt":627.1000000005588,"stimulus":"\n                    <p><b>Action: <em>harvest</em></b></p>\n                    <p>This is the bee that you just saw.</p>\n                    <img src=\"bees-with-color/bee-B2SM.svg\" width=\"200\">\n                    <p><span class=\"greenText\"><b>Successful harvest!</b></span><br>Your pay has increased by $0.02. Your bonus pay is now $0.46.</p>\n            ","response":0,"trial_type":"html-button-response","trial_index":116,"time_elapsed":525412,"internal_node_id":"0.0-4.0-1.54","subject_id":"60fb1fc7b2b02ebe00fc26e7","study_id":"6197b3f67c2b5cd3b6d9596a","session_id":"619c1dd872ab844836196614","condition":"contingent","relevant_dimensions":["antennae","legs"],"bee_group":{"antennae":"B","wings":"X","pattern":"X","legs":"F"},"bonus":0.9800000000000012},{"rt":2698.2000000001863,"stimulus":"bees-with-color/bee-B1DF.svg","response":1,"trial_type":"image-button-response","trial_index":117,"time_elapsed":528111,"internal_node_id":"0.0-4.0-0.55","subject_id":"60fb1fc7b2b02ebe00fc26e7","study_id":"6197b3f67c2b5cd3b6d9596a","session_id":"619c1dd872ab844836196614","condition":"contingent","relevant_dimensions":["antennae","legs"],"bee_group":{"antennae":"B","wings":"X","pattern":"X","legs":"F"},"action":"avoid","summary":"good-avoid","bonus":0.9800000000000012},{"rt":764,"stimulus":"\n                    <p><b>Action: <em>avoid</em></b></p>\n                    <p>This is the bee that you just saw.</p>\n                    <img src=\"bees-with-color/bee-B1DF.svg\" width=\"200\">\n                    <p><br>Your bonus pay is unchanged, and remains at $0.46.</p>\n            ","response":0,"trial_type":"html-button-response","trial_index":118,"time_elapsed":528876,"internal_node_id":"0.0-4.0-1.55","subject_id":"60fb1fc7b2b02ebe00fc26e7","study_id":"6197b3f67c2b5cd3b6d9596a","session_id":"619c1dd872ab844836196614","condition":"contingent","relevant_dimensions":["antennae","legs"],"bee_group":{"antennae":"B","wings":"X","pattern":"X","legs":"F"},"bonus":0.9800000000000012},{"rt":1952.4000000003725,"stimulus":"bees-with-color/bee-B2SF.svg","response":1,"trial_type":"image-button-response","trial_index":119,"time_elapsed":530830,"internal_node_id":"0.0-4.0-0.56","subject_id":"60fb1fc7b2b02ebe00fc26e7","study_id":"6197b3f67c2b5cd3b6d9596a","session_id":"619c1dd872ab844836196614","condition":"contingent","relevant_dimensions":["antennae","legs"],"bee_group":{"antennae":"B","wings":"X","pattern":"X","legs":"F"},"action":"avoid","summary":"good-avoid","bonus":0.9800000000000012},{"rt":1065,"stimulus":"\n                    <p><b>Action: <em>avoid</em></b></p>\n                    <p>This is the bee that you just saw.</p>\n                    <img src=\"bees-with-color/bee-B2SF.svg\" width=\"200\">\n                    <p><br>Your bonus pay is unchanged, and remains at $0.46.</p>\n            ","response":0,"trial_type":"html-button-response","trial_index":120,"time_elapsed":531896,"internal_node_id":"0.0-4.0-1.56","subject_id":"60fb1fc7b2b02ebe00fc26e7","study_id":"6197b3f67c2b5cd3b6d9596a","session_id":"619c1dd872ab844836196614","condition":"contingent","relevant_dimensions":["antennae","legs"],"bee_group":{"antennae":"B","wings":"X","pattern":"X","legs":"F"},"bonus":0.9800000000000012},{"rt":1529.7999999998137,"stimulus":"bees-with-color/bee-B1SM.svg","response":0,"trial_type":"image-button-response","trial_index":121,"time_elapsed":533427,"internal_node_id":"0.0-4.0-0.57","subject_id":"60fb1fc7b2b02ebe00fc26e7","study_id":"6197b3f67c2b5cd3b6d9596a","session_id":"619c1dd872ab844836196614","condition":"contingent","relevant_dimensions":["antennae","legs"],"bee_group":{"antennae":"B","wings":"X","pattern":"X","legs":"F"},"action":"harvest","summary":"good-harvest","bonus":0.9800000000000012},{"rt":767.6000000005588,"stimulus":"\n                    <p><b>Action: <em>harvest</em></b></p>\n                    <p>This is the bee that you just saw.</p>\n                    <img src=\"bees-with-color/bee-B1SM.svg\" width=\"200\">\n                    <p><span class=\"greenText\"><b>Successful harvest!</b></span><br>Your pay has increased by $0.02. Your bonus pay is now $0.48.</p>\n            ","response":0,"trial_type":"html-button-response","trial_index":122,"time_elapsed":534195,"internal_node_id":"0.0-4.0-1.57","subject_id":"60fb1fc7b2b02ebe00fc26e7","study_id":"6197b3f67c2b5cd3b6d9596a","session_id":"619c1dd872ab844836196614","condition":"contingent","relevant_dimensions":["antennae","legs"],"bee_group":{"antennae":"B","wings":"X","pattern":"X","legs":"F"},"bonus":0.9800000000000012},{"rt":3088.300000000745,"stimulus":"bees-with-color/bee-A2SF.svg","response":0,"trial_type":"image-button-response","trial_index":123,"time_elapsed":537285,"internal_node_id":"0.0-4.0-0.58","subject_id":"60fb1fc7b2b02ebe00fc26e7","study_id":"6197b3f67c2b5cd3b6d9596a","session_id":"619c1dd872ab844836196614","condition":"contingent","relevant_dimensions":["antennae","legs"],"bee_group":{"antennae":"B","wings":"X","pattern":"X","legs":"F"},"action":"harvest","summary":"good-harvest","bonus":0.9800000000000012},{"rt":654.7000000001863,"stimulus":"\n                    <p><b>Action: <em>harvest</em></b></p>\n                    <p>This is the bee that you just saw.</p>\n                    <img src=\"bees-with-color/bee-A2SF.svg\" width=\"200\">\n                    <p><span class=\"greenText\"><b>Successful harvest!</b></span><br>Your pay has increased by $0.02. Your bonus pay is now $0.50.</p>\n            ","response":0,"trial_type":"html-button-response","trial_index":124,"time_elapsed":537940,"internal_node_id":"0.0-4.0-1.58","subject_id":"60fb1fc7b2b02ebe00fc26e7","study_id":"6197b3f67c2b5cd3b6d9596a","session_id":"619c1dd872ab844836196614","condition":"contingent","relevant_dimensions":["antennae","legs"],"bee_group":{"antennae":"B","wings":"X","pattern":"X","legs":"F"},"bonus":0.9800000000000012},{"rt":1380,"stimulus":"bees-with-color/bee-A1SM.svg","response":0,"trial_type":"image-button-response","trial_index":125,"time_elapsed":539321,"internal_node_id":"0.0-4.0-0.59","subject_id":"60fb1fc7b2b02ebe00fc26e7","study_id":"6197b3f67c2b5cd3b6d9596a","session_id":"619c1dd872ab844836196614","condition":"contingent","relevant_dimensions":["antennae","legs"],"bee_group":{"antennae":"B","wings":"X","pattern":"X","legs":"F"},"action":"harvest","summary":"good-harvest","bonus":0.9800000000000012},{"rt":550.2999999998137,"stimulus":"\n                    <p><b>Action: <em>harvest</em></b></p>\n                    <p>This is the bee that you just saw.</p>\n                    <img src=\"bees-with-color/bee-A1SM.svg\" width=\"200\">\n                    <p><span class=\"greenText\"><b>Successful harvest!</b></span><br>Your pay has increased by $0.02. Your bonus pay is now $0.52.</p>\n            ","response":0,"trial_type":"html-button-response","trial_index":126,"time_elapsed":539872,"internal_node_id":"0.0-4.0-1.59","subject_id":"60fb1fc7b2b02ebe00fc26e7","study_id":"6197b3f67c2b5cd3b6d9596a","session_id":"619c1dd872ab844836196614","condition":"contingent","relevant_dimensions":["antennae","legs"],"bee_group":{"antennae":"B","wings":"X","pattern":"X","legs":"F"},"bonus":0.9800000000000012},{"rt":957.1999999992549,"stimulus":"bees-with-color/bee-A1DM.svg","response":0,"trial_type":"image-button-response","trial_index":127,"time_elapsed":540830,"internal_node_id":"0.0-4.0-0.60","subject_id":"60fb1fc7b2b02ebe00fc26e7","study_id":"6197b3f67c2b5cd3b6d9596a","session_id":"619c1dd872ab844836196614","condition":"contingent","relevant_dimensions":["antennae","legs"],"bee_group":{"antennae":"B","wings":"X","pattern":"X","legs":"F"},"action":"harvest","summary":"good-harvest","bonus":0.9800000000000012},{"rt":581.2999999998137,"stimulus":"\n                    <p><b>Action: <em>harvest</em></b></p>\n                    <p>This is the bee that you just saw.</p>\n                    <img src=\"bees-with-color/bee-A1DM.svg\" width=\"200\">\n                    <p><span class=\"greenText\"><b>Successful harvest!</b></span><br>Your pay has increased by $0.02. Your bonus pay is now $0.54.</p>\n            ","response":0,"trial_type":"html-button-response","trial_index":128,"time_elapsed":541412,"internal_node_id":"0.0-4.0-1.60","subject_id":"60fb1fc7b2b02ebe00fc26e7","study_id":"6197b3f67c2b5cd3b6d9596a","session_id":"619c1dd872ab844836196614","condition":"contingent","relevant_dimensions":["antennae","legs"],"bee_group":{"antennae":"B","wings":"X","pattern":"X","legs":"F"},"bonus":0.9800000000000012},{"rt":2160.2999999998137,"stimulus":"bees-with-color/bee-A1DF.svg","response":0,"trial_type":"image-button-response","trial_index":129,"time_elapsed":543573,"internal_node_id":"0.0-4.0-0.61","subject_id":"60fb1fc7b2b02ebe00fc26e7","study_id":"6197b3f67c2b5cd3b6d9596a","session_id":"619c1dd872ab844836196614","condition":"contingent","relevant_dimensions":["antennae","legs"],"bee_group":{"antennae":"B","wings":"X","pattern":"X","legs":"F"},"action":"harvest","summary":"good-harvest","bonus":0.9800000000000012},{"rt":579.7999999998137,"stimulus":"\n                    <p><b>Action: <em>harvest</em></b></p>\n                    <p>This is the bee that you just saw.</p>\n                    <img src=\"bees-with-color/bee-A1DF.svg\" width=\"200\">\n                    <p><span class=\"greenText\"><b>Successful harvest!</b></span><br>Your pay has increased by $0.02. Your bonus pay is now $0.56.</p>\n            ","response":0,"trial_type":"html-button-response","trial_index":130,"time_elapsed":544154,"internal_node_id":"0.0-4.0-1.61","subject_id":"60fb1fc7b2b02ebe00fc26e7","study_id":"6197b3f67c2b5cd3b6d9596a","session_id":"619c1dd872ab844836196614","condition":"contingent","relevant_dimensions":["antennae","legs"],"bee_group":{"antennae":"B","wings":"X","pattern":"X","legs":"F"},"bonus":0.9800000000000012},{"rt":2144.2000000001863,"stimulus":"bees-with-color/bee-B1SF.svg","response":1,"trial_type":"image-button-response","trial_index":131,"time_elapsed":546299,"internal_node_id":"0.0-4.0-0.62","subject_id":"60fb1fc7b2b02ebe00fc26e7","study_id":"6197b3f67c2b5cd3b6d9596a","session_id":"619c1dd872ab844836196614","condition":"contingent","relevant_dimensions":["antennae","legs"],"bee_group":{"antennae":"B","wings":"X","pattern":"X","legs":"F"},"action":"avoid","summary":"good-avoid","bonus":0.9800000000000012},{"rt":900.5999999996275,"stimulus":"\n                    <p><b>Action: <em>avoid</em></b></p>\n                    <p>This is the bee that you just saw.</p>\n                    <img src=\"bees-with-color/bee-B1SF.svg\" width=\"200\">\n                    <p><br>Your bonus pay is unchanged, and remains at $0.56.</p>\n            ","response":0,"trial_type":"html-button-response","trial_index":132,"time_elapsed":547200,"internal_node_id":"0.0-4.0-1.62","subject_id":"60fb1fc7b2b02ebe00fc26e7","study_id":"6197b3f67c2b5cd3b6d9596a","session_id":"619c1dd872ab844836196614","condition":"contingent","relevant_dimensions":["antennae","legs"],"bee_group":{"antennae":"B","wings":"X","pattern":"X","legs":"F"},"bonus":0.9800000000000012},{"rt":1119.3999999994412,"stimulus":"bees-with-color/bee-B1DM.svg","response":0,"trial_type":"image-button-response","trial_index":133,"time_elapsed":548320,"internal_node_id":"0.0-4.0-0.63","subject_id":"60fb1fc7b2b02ebe00fc26e7","study_id":"6197b3f67c2b5cd3b6d9596a","session_id":"619c1dd872ab844836196614","condition":"contingent","relevant_dimensions":["antennae","legs"],"bee_group":{"antennae":"B","wings":"X","pattern":"X","legs":"F"},"action":"harvest","summary":"good-harvest","bonus":0.9800000000000012},{"rt":476.5,"stimulus":"\n                    <p><b>Action: <em>harvest</em></b></p>\n                    <p>This is the bee that you just saw.</p>\n                    <img src=\"bees-with-color/bee-B1DM.svg\" width=\"200\">\n                    <p><span class=\"greenText\"><b>Successful harvest!</b></span><br>Your pay has increased by $0.02. Your bonus pay is now $0.58.</p>\n            ","response":0,"trial_type":"html-button-response","trial_index":134,"time_elapsed":548797,"internal_node_id":"0.0-4.0-1.63","subject_id":"60fb1fc7b2b02ebe00fc26e7","study_id":"6197b3f67c2b5cd3b6d9596a","session_id":"619c1dd872ab844836196614","condition":"contingent","relevant_dimensions":["antennae","legs"],"bee_group":{"antennae":"B","wings":"X","pattern":"X","legs":"F"},"bonus":0.9800000000000012},{"rt":7462,"stimulus":"You have completed the first part of this experiment.<br><br>You will now begin a shorter second part, in which you will receive no feedback.<br>The same rules regarding bonus pay apply.<br><br>Press any key to begin.","response":"n","trial_type":"html-keyboard-response","trial_index":135,"time_elapsed":556260,"internal_node_id":"0.0-5.0","subject_id":"60fb1fc7b2b02ebe00fc26e7","study_id":"6197b3f67c2b5cd3b6d9596a","session_id":"619c1dd872ab844836196614","condition":"contingent","relevant_dimensions":["antennae","legs"],"bee_group":{"antennae":"B","wings":"X","pattern":"X","legs":"F"},"bonus":0.9800000000000012},{"rt":2368.2000000001863,"stimulus":"bees-with-color/bee-B2SM.svg","response":0,"trial_type":"image-button-response","trial_index":136,"time_elapsed":558635,"internal_node_id":"0.0-6.0-0.0","subject_id":"60fb1fc7b2b02ebe00fc26e7","study_id":"6197b3f67c2b5cd3b6d9596a","session_id":"619c1dd872ab844836196614","condition":"contingent","relevant_dimensions":["antennae","legs"],"bee_group":{"antennae":"B","wings":"X","pattern":"X","legs":"F"},"bonus":0.9800000000000012},{"rt":1929.8999999994412,"stimulus":"bees-with-color/bee-B1SF.svg","response":1,"trial_type":"image-button-response","trial_index":137,"time_elapsed":560566,"internal_node_id":"0.0-6.0-0.1","subject_id":"60fb1fc7b2b02ebe00fc26e7","study_id":"6197b3f67c2b5cd3b6d9596a","session_id":"619c1dd872ab844836196614","condition":"contingent","relevant_dimensions":["antennae","legs"],"bee_group":{"antennae":"B","wings":"X","pattern":"X","legs":"F"},"bonus":0.9800000000000012},{"rt":1048.7999999998137,"stimulus":"bees-with-color/bee-B1DF.svg","response":1,"trial_type":"image-button-response","trial_index":138,"time_elapsed":561616,"internal_node_id":"0.0-6.0-0.2","subject_id":"60fb1fc7b2b02ebe00fc26e7","study_id":"6197b3f67c2b5cd3b6d9596a","session_id":"619c1dd872ab844836196614","condition":"contingent","relevant_dimensions":["antennae","legs"],"bee_group":{"antennae":"B","wings":"X","pattern":"X","legs":"F"},"bonus":0.9800000000000012},{"rt":1030.199999999255,"stimulus":"bees-with-color/bee-A2DM.svg","response":0,"trial_type":"image-button-response","trial_index":139,"time_elapsed":562648,"internal_node_id":"0.0-6.0-0.3","subject_id":"60fb1fc7b2b02ebe00fc26e7","study_id":"6197b3f67c2b5cd3b6d9596a","session_id":"619c1dd872ab844836196614","condition":"contingent","relevant_dimensions":["antennae","legs"],"bee_group":{"antennae":"B","wings":"X","pattern":"X","legs":"F"},"bonus":0.9800000000000012},{"rt":4582.899999999441,"stimulus":"bees-with-color/bee-A2SF.svg","response":1,"trial_type":"image-button-response","trial_index":140,"time_elapsed":567232,"internal_node_id":"0.0-6.0-0.4","subject_id":"60fb1fc7b2b02ebe00fc26e7","study_id":"6197b3f67c2b5cd3b6d9596a","session_id":"619c1dd872ab844836196614","condition":"contingent","relevant_dimensions":["antennae","legs"],"bee_group":{"antennae":"B","wings":"X","pattern":"X","legs":"F"},"bonus":0.9800000000000012},{"rt":1324.1000000005588,"stimulus":"bees-with-color/bee-A1DF.svg","response":1,"trial_type":"image-button-response","trial_index":141,"time_elapsed":568557,"internal_node_id":"0.0-6.0-0.5","subject_id":"60fb1fc7b2b02ebe00fc26e7","study_id":"6197b3f67c2b5cd3b6d9596a","session_id":"619c1dd872ab844836196614","condition":"contingent","relevant_dimensions":["antennae","legs"],"bee_group":{"antennae":"B","wings":"X","pattern":"X","legs":"F"},"bonus":0.9800000000000012},{"rt":975.8999999994412,"stimulus":"bees-with-color/bee-B1SM.svg","response":0,"trial_type":"image-button-response","trial_index":142,"time_elapsed":569535,"internal_node_id":"0.0-6.0-0.6","subject_id":"60fb1fc7b2b02ebe00fc26e7","study_id":"6197b3f67c2b5cd3b6d9596a","session_id":"619c1dd872ab844836196614","condition":"contingent","relevant_dimensions":["antennae","legs"],"bee_group":{"antennae":"B","wings":"X","pattern":"X","legs":"F"},"bonus":0.9800000000000012},{"rt":769.3999999994412,"stimulus":"bees-with-color/bee-A1SM.svg","response":0,"trial_type":"image-button-response","trial_index":143,"time_elapsed":570305,"internal_node_id":"0.0-6.0-0.7","subject_id":"60fb1fc7b2b02ebe00fc26e7","study_id":"6197b3f67c2b5cd3b6d9596a","session_id":"619c1dd872ab844836196614","condition":"contingent","relevant_dimensions":["antennae","legs"],"bee_group":{"antennae":"B","wings":"X","pattern":"X","legs":"F"},"bonus":0.9800000000000012},{"rt":2239.7000000001863,"stimulus":"bees-with-color/bee-A2DF.svg","response":1,"trial_type":"image-button-response","trial_index":144,"time_elapsed":572546,"internal_node_id":"0.0-6.0-0.8","subject_id":"60fb1fc7b2b02ebe00fc26e7","study_id":"6197b3f67c2b5cd3b6d9596a","session_id":"619c1dd872ab844836196614","condition":"contingent","relevant_dimensions":["antennae","legs"],"bee_group":{"antennae":"B","wings":"X","pattern":"X","legs":"F"},"bonus":0.9800000000000012},{"rt":1234,"stimulus":"bees-with-color/bee-B2DF.svg","response":1,"trial_type":"image-button-response","trial_index":145,"time_elapsed":573782,"internal_node_id":"0.0-6.0-0.9","subject_id":"60fb1fc7b2b02ebe00fc26e7","study_id":"6197b3f67c2b5cd3b6d9596a","session_id":"619c1dd872ab844836196614","condition":"contingent","relevant_dimensions":["antennae","legs"],"bee_group":{"antennae":"B","wings":"X","pattern":"X","legs":"F"},"bonus":0.9800000000000012},{"rt":893,"stimulus":"bees-with-color/bee-B2DM.svg","response":0,"trial_type":"image-button-response","trial_index":146,"time_elapsed":574676,"internal_node_id":"0.0-6.0-0.10","subject_id":"60fb1fc7b2b02ebe00fc26e7","study_id":"6197b3f67c2b5cd3b6d9596a","session_id":"619c1dd872ab844836196614","condition":"contingent","relevant_dimensions":["antennae","legs"],"bee_group":{"antennae":"B","wings":"X","pattern":"X","legs":"F"},"bonus":0.9800000000000012},{"rt":1227.2000000001863,"stimulus":"bees-with-color/bee-B2SF.svg","response":1,"trial_type":"image-button-response","trial_index":147,"time_elapsed":575904,"internal_node_id":"0.0-6.0-0.11","subject_id":"60fb1fc7b2b02ebe00fc26e7","study_id":"6197b3f67c2b5cd3b6d9596a","session_id":"619c1dd872ab844836196614","condition":"contingent","relevant_dimensions":["antennae","legs"],"bee_group":{"antennae":"B","wings":"X","pattern":"X","legs":"F"},"bonus":0.9800000000000012},{"rt":1207.4000000003725,"stimulus":"bees-with-color/bee-A1DM.svg","response":0,"trial_type":"image-button-response","trial_index":148,"time_elapsed":577113,"internal_node_id":"0.0-6.0-0.12","subject_id":"60fb1fc7b2b02ebe00fc26e7","study_id":"6197b3f67c2b5cd3b6d9596a","session_id":"619c1dd872ab844836196614","condition":"contingent","relevant_dimensions":["antennae","legs"],"bee_group":{"antennae":"B","wings":"X","pattern":"X","legs":"F"},"bonus":0.9800000000000012},{"rt":801.1000000005588,"stimulus":"bees-with-color/bee-A2SM.svg","response":0,"trial_type":"image-button-response","trial_index":149,"time_elapsed":577915,"internal_node_id":"0.0-6.0-0.13","subject_id":"60fb1fc7b2b02ebe00fc26e7","study_id":"6197b3f67c2b5cd3b6d9596a","session_id":"619c1dd872ab844836196614","condition":"contingent","relevant_dimensions":["antennae","legs"],"bee_group":{"antennae":"B","wings":"X","pattern":"X","legs":"F"},"bonus":0.9800000000000012},{"rt":652.7000000001863,"stimulus":"bees-with-color/bee-B1DM.svg","response":0,"trial_type":"image-button-response","trial_index":150,"time_elapsed":578569,"internal_node_id":"0.0-6.0-0.14","subject_id":"60fb1fc7b2b02ebe00fc26e7","study_id":"6197b3f67c2b5cd3b6d9596a","session_id":"619c1dd872ab844836196614","condition":"contingent","relevant_dimensions":["antennae","legs"],"bee_group":{"antennae":"B","wings":"X","pattern":"X","legs":"F"},"bonus":0.9800000000000012},{"rt":1988.7000000001863,"stimulus":"bees-with-color/bee-A1SF.svg","response":0,"trial_type":"image-button-response","trial_index":151,"time_elapsed":580559,"internal_node_id":"0.0-6.0-0.15","subject_id":"60fb1fc7b2b02ebe00fc26e7","study_id":"6197b3f67c2b5cd3b6d9596a","session_id":"619c1dd872ab844836196614","condition":"contingent","relevant_dimensions":["antennae","legs"],"bee_group":{"antennae":"B","wings":"X","pattern":"X","legs":"F"},"bonus":0.9800000000000012},{"rt":1083,"stimulus":"bees-with-color/bee-B2DM.svg","response":0,"trial_type":"image-button-response","trial_index":152,"time_elapsed":581643,"internal_node_id":"0.0-6.0-0.16","subject_id":"60fb1fc7b2b02ebe00fc26e7","study_id":"6197b3f67c2b5cd3b6d9596a","session_id":"619c1dd872ab844836196614","condition":"contingent","relevant_dimensions":["antennae","legs"],"bee_group":{"antennae":"B","wings":"X","pattern":"X","legs":"F"},"bonus":0.9800000000000012},{"rt":1594.1000000005588,"stimulus":"bees-with-color/bee-A1DM.svg","response":0,"trial_type":"image-button-response","trial_index":153,"time_elapsed":583237,"internal_node_id":"0.0-6.0-0.17","subject_id":"60fb1fc7b2b02ebe00fc26e7","study_id":"6197b3f67c2b5cd3b6d9596a","session_id":"619c1dd872ab844836196614","condition":"contingent","relevant_dimensions":["antennae","legs"],"bee_group":{"antennae":"B","wings":"X","pattern":"X","legs":"F"},"bonus":0.9800000000000012},{"rt":1284.300000000745,"stimulus":"bees-with-color/bee-A2SF.svg","response":1,"trial_type":"image-button-response","trial_index":154,"time_elapsed":584523,"internal_node_id":"0.0-6.0-0.18","subject_id":"60fb1fc7b2b02ebe00fc26e7","study_id":"6197b3f67c2b5cd3b6d9596a","session_id":"619c1dd872ab844836196614","condition":"contingent","relevant_dimensions":["antennae","legs"],"bee_group":{"antennae":"B","wings":"X","pattern":"X","legs":"F"},"bonus":0.9800000000000012},{"rt":1196.7999999998137,"stimulus":"bees-with-color/bee-A1SM.svg","response":0,"trial_type":"image-button-response","trial_index":155,"time_elapsed":585721,"internal_node_id":"0.0-6.0-0.19","subject_id":"60fb1fc7b2b02ebe00fc26e7","study_id":"6197b3f67c2b5cd3b6d9596a","session_id":"619c1dd872ab844836196614","condition":"contingent","relevant_dimensions":["antennae","legs"],"bee_group":{"antennae":"B","wings":"X","pattern":"X","legs":"F"},"bonus":0.9800000000000012},{"rt":1239.8999999994412,"stimulus":"bees-with-color/bee-B2SM.svg","response":0,"trial_type":"image-button-response","trial_index":156,"time_elapsed":586962,"internal_node_id":"0.0-6.0-0.20","subject_id":"60fb1fc7b2b02ebe00fc26e7","study_id":"6197b3f67c2b5cd3b6d9596a","session_id":"619c1dd872ab844836196614","condition":"contingent","relevant_dimensions":["antennae","legs"],"bee_group":{"antennae":"B","wings":"X","pattern":"X","legs":"F"},"bonus":0.9800000000000012},{"rt":1670.2999999998137,"stimulus":"bees-with-color/bee-A1DF.svg","response":0,"trial_type":"image-button-response","trial_index":157,"time_elapsed":588633,"internal_node_id":"0.0-6.0-0.21","subject_id":"60fb1fc7b2b02ebe00fc26e7","study_id":"6197b3f67c2b5cd3b6d9596a","session_id":"619c1dd872ab844836196614","condition":"contingent","relevant_dimensions":["antennae","legs"],"bee_group":{"antennae":"B","wings":"X","pattern":"X","legs":"F"},"bonus":0.9800000000000012},{"rt":1314.1000000005588,"stimulus":"bees-with-color/bee-B1DF.svg","response":1,"trial_type":"image-button-response","trial_index":158,"time_elapsed":589949,"internal_node_id":"0.0-6.0-0.22","subject_id":"60fb1fc7b2b02ebe00fc26e7","study_id":"6197b3f67c2b5cd3b6d9596a","session_id":"619c1dd872ab844836196614","condition":"contingent","relevant_dimensions":["antennae","legs"],"bee_group":{"antennae":"B","wings":"X","pattern":"X","legs":"F"},"bonus":0.9800000000000012},{"rt":1066,"stimulus":"bees-with-color/bee-B1SF.svg","response":1,"trial_type":"image-button-response","trial_index":159,"time_elapsed":591016,"internal_node_id":"0.0-6.0-0.23","subject_id":"60fb1fc7b2b02ebe00fc26e7","study_id":"6197b3f67c2b5cd3b6d9596a","session_id":"619c1dd872ab844836196614","condition":"contingent","relevant_dimensions":["antennae","legs"],"bee_group":{"antennae":"B","wings":"X","pattern":"X","leg