[{"success":true,"trial_type":"fullscreen","trial_index":0,"time_elapsed":28585,"internal_node_id":"0.0-0.0","subject_id":"602f7f9563f201c656684bfd","study_id":"60edd13110225f80f9f3709b","session_id":"6196c4a4b4537bbb9c2fe7d1","condition":"contingent","relevant_dimensions":["antennae","wings"],"bee_group":{"antennae":"B","wings":"1","pattern":"X","legs":"X"},"bonus":0.7800000000000006},{"success":true,"timeout":false,"failed_images":[],"failed_audio":[],"failed_video":[],"trial_type":"preload","trial_index":1,"time_elapsed":30426,"internal_node_id":"0.0-1.0","subject_id":"602f7f9563f201c656684bfd","study_id":"60edd13110225f80f9f3709b","session_id":"6196c4a4b4537bbb9c2fe7d1","condition":"contingent","relevant_dimensions":["antennae","wings"],"bee_group":{"antennae":"B","wings":"1","pattern":"X","legs":"X"},"bonus":0.7800000000000006},{"rt":4292.200000047684,"stimulus":"Welcome! Press any key to begin.","response":" ","trial_type":"html-keyboard-response","trial_index":2,"time_elapsed":34718,"internal_node_id":"0.0-2.0","subject_id":"602f7f9563f201c656684bfd","study_id":"60edd13110225f80f9f3709b","session_id":"6196c4a4b4537bbb9c2fe7d1","condition":"contingent","relevant_dimensions":["antennae","wings"],"bee_group":{"antennae":"B","wings":"1","pattern":"X","legs":"X"},"bonus":0.7800000000000006},{"view_history":[{"page_index":0,"viewing_time":1440.1000000238419},{"page_index":1,"viewing_time":3440.399999976158},{"page_index":2,"viewing_time":5104.800000071526},{"page_index":3,"viewing_time":9822.899999976158},{"page_index":4,"viewing_time":6032.200000047684},{"page_index":5,"viewing_time":5400.299999952316},{"page_index":6,"viewing_time":2431.5},{"page_index":7,"viewing_time":3783.600000023842},{"page_index":8,"viewing_time":3720.1999999284744},{"page_index":9,"viewing_time":3217.100000023842},{"page_index":10,"viewing_time":2814.600000023842},{"page_index":11,"viewing_time":7072.899999976158},{"page_index":12,"viewing_time":3175.100000023842},{"page_index":13,"viewing_time":896.5},{"page_index":14,"viewing_time":2120.399999976158}],"rt":60472.700000047684,"trial_type":"instructions","trial_index":3,"time_elapsed":95191,"internal_node_id":"0.0-3.0-0.0","subject_id":"602f7f9563f201c656684bfd","study_id":"60edd13110225f80f9f3709b","session_id":"6196c4a4b4537bbb9c2fe7d1","condition":"contingent","relevant_dimensions":["antennae","wings"],"bee_group":{"antennae":"B","wings":"1","pattern":"X","legs":"X"},"bonus":0.7800000000000006},{"rt":19174.300000071526,"response":{"Q0":["Two or six legs","Stripes or spots on body","Single or double wings","Antennae or no antennae"]},"question_order":[0],"trial_type":"survey-multi-select","trial_index":4,"time_elapsed":114368,"internal_node_id":"0.0-3.0-1.0","subject_id":"602f7f9563f201c656684bfd","study_id":"60edd13110225f80f9f3709b","session_id":"6196c4a4b4537bbb9c2fe7d1","condition":"contingent","relevant_dimensions":["antennae","wings"],"bee_group":{"antennae":"B","wings":"1","pattern":"X","legs":"X"},"correct":true,"bonus":0.7800000000000006},{"rt":18421,"response":{"Q1":"No.","Q2":"Based on the four features of the bee.","Q3":"You do not learn if it was friendly or dangerous, and do not alter your bonus."},"question_order":[0,1,2],"trial_type":"survey-multi-choice","trial_index":5,"time_elapsed":132792,"internal_node_id":"0.0-3.0-2.0","subject_id":"602f7f9563f201c656684bfd","study_id":"60edd13110225f80f9f3709b","session_id":"6196c4a4b4537bbb9c2fe7d1","condition":"contingent","relevant_dimensions":["antennae","wings"],"bee_group":{"antennae":"B","wings":"1","pattern":"X","legs":"X"},"correct":true,"bonus":0.7800000000000006},{"rt":1221.7999999523163,"stimulus":"<p>Congrats, you got everything right<br>When you're ready, click the button below to continue to the experiment.</p>","response":0,"trial_type":"html-button-response","trial_index":6,"time_elapsed":134016,"internal_node_id":"0.0-3.0-3.0","subject_id":"602f7f9563f201c656684bfd","study_id":"60edd13110225f80f9f3709b","session_id":"6196c4a4b4537bbb9c2fe7d1","condition":"contingent","relevant_dimensions":["antennae","wings"],"bee_group":{"antennae":"B","wings":"1","pattern":"X","legs":"X"},"bonus":0.7800000000000006},{"rt":2117.899999976158,"stimulus":"bees-with-color/bee-B1DM.svg","response":1,"trial_type":"image-button-response","trial_index":7,"time_elapsed":136136,"internal_node_id":"0.0-4.0-0.0","subject_id":"602f7f9563f201c656684bfd","study_id":"60edd13110225f80f9f3709b","session_id":"6196c4a4b4537bbb9c2fe7d1","condition":"contingent","relevant_dimensions":["antennae","wings"],"bee_group":{"antennae":"B","wings":"1","pattern":"X","legs":"X"},"action":"avoid","summary":"good-avoid","bonus":0.7800000000000006},{"rt":3358.7000000476837,"stimulus":"\n                    <p><b>Action: <em>avoid</em></b></p>\n                    <p>This is the bee that you just saw.</p>\n                    <img src=\"bees-with-color/bee-B1DM.svg\" width=\"200\">\n                    <p><br>Your bonus pay is unchanged, and remains at $0.54.</p>\n            ","response":0,"trial_type":"html-button-response","trial_index":8,"time_elapsed":139496,"internal_node_id":"0.0-4.0-1.0","subject_id":"602f7f9563f201c656684bfd","study_id":"60edd13110225f80f9f3709b","session_id":"6196c4a4b4537bbb9c2fe7d1","condition":"contingent","relevant_dimensions":["antennae","wings"],"bee_group":{"antennae":"B","wings":"1","pattern":"X","legs":"X"},"bonus":0.7800000000000006},{"rt":13214.599999904633,"stimulus":"bees-with-color/bee-B2SM.svg","response":0,"trial_type":"image-button-response","trial_index":9,"time_elapsed":152711,"internal_node_id":"0.0-4.0-0.1","subject_id":"602f7f9563f201c656684bfd","study_id":"60edd13110225f80f9f3709b","session_id":"6196c4a4b4537bbb9c2fe7d1","condition":"contingent","relevant_dimensions":["antennae","wings"],"bee_group":{"antennae":"B","wings":"1","pattern":"X","legs":"X"},"action":"harvest","summary":"good-harvest","bonus":0.7800000000000006},{"rt":2926.9000000953674,"stimulus":"\n                    <p><b>Action: <em>harvest</em></b></p>\n                    <p>This is the bee that you just saw.</p>\n                    <img src=\"bees-with-color/bee-B2SM.svg\" width=\"200\">\n                    <p><span class=\"greenText\"><b>Successful harvest!</b></span><br>Your pay has increased by $0.02. Your bonus pay is now $0.56.</p>\n            ","response":0,"trial_type":"html-button-response","trial_index":10,"time_elapsed":155639,"internal_node_id":"0.0-4.0-1.1","subject_id":"602f7f9563f201c656684bfd","study_id":"60edd13110225f80f9f3709b","session_id":"6196c4a4b4537bbb9c2fe7d1","condition":"contingent","relevant_dimensions":["antennae","wings"],"bee_group":{"antennae":"B","wings":"1","pattern":"X","legs":"X"},"bonus":0.7800000000000006},{"rt":4030.899999976158,"stimulus":"bees-with-color/bee-A1SF.svg","response":1,"trial_type":"image-button-response","trial_index":11,"time_elapsed":159672,"internal_node_id":"0.0-4.0-0.2","subject_id":"602f7f9563f201c656684bfd","study_id":"60edd13110225f80f9f3709b","session_id":"6196c4a4b4537bbb9c2fe7d1","condition":"contingent","relevant_dimensions":["antennae","wings"],"bee_group":{"antennae":"B","wings":"1","pattern":"X","legs":"X"},"action":"avoid","summary":"bad-avoid","bonus":0.7800000000000006},{"rt":1174.1000000238419,"stimulus":"\n                    <p><b>Action: <em>avoid</em></b></p>\n                    <p>This is the bee that you just saw.</p>\n                    <img src=\"bees-with-color/bee-A1SF.svg\" width=\"200\">\n                    <p><br>Your bonus pay is unchanged, and remains at $0.56.</p>\n            ","response":0,"trial_type":"html-button-response","trial_index":12,"time_elapsed":160847,"internal_node_id":"0.0-4.0-1.2","subject_id":"602f7f9563f201c656684bfd","study_id":"60edd13110225f80f9f3709b","session_id":"6196c4a4b4537bbb9c2fe7d1","condition":"contingent","relevant_dimensions":["antennae","wings"],"bee_group":{"antennae":"B","wings":"1","pattern":"X","legs":"X"},"bonus":0.7800000000000006},{"rt":1104.1000000238419,"stimulus":"bees-with-color/bee-A1DM.svg","response":1,"trial_type":"image-button-response","trial_index":13,"time_elapsed":161952,"internal_node_id":"0.0-4.0-0.3","subject_id":"602f7f9563f201c656684bfd","study_id":"60edd13110225f80f9f3709b","session_id":"6196c4a4b4537bbb9c2fe7d1","condition":"contingent","relevant_dimensions":["antennae","wings"],"bee_group":{"antennae":"B","wings":"1","pattern":"X","legs":"X"},"action":"avoid","summary":"bad-avoid","bonus":0.7800000000000006},{"rt":990.3999999761581,"stimulus":"\n                    <p><b>Action: <em>avoid</em></b></p>\n                    <p>This is the bee that you just saw.</p>\n                    <img src=\"bees-with-color/bee-A1DM.svg\" width=\"200\">\n                    <p><br>Your bonus pay is unchanged, and remains at $0.56.</p>\n            ","response":0,"trial_type":"html-button-response","trial_index":14,"time_elapsed":162943,"internal_node_id":"0.0-4.0-1.3","subject_id":"602f7f9563f201c656684bfd","study_id":"60edd13110225f80f9f3709b","session_id":"6196c4a4b4537bbb9c2fe7d1","condition":"contingent","relevant_dimensions":["antennae","wings"],"bee_group":{"antennae":"B","wings":"1","pattern":"X","legs":"X"},"bonus":0.7800000000000006},{"rt":959.2999999523163,"stimulus":"bees-with-color/bee-B2DF.svg","response":1,"trial_type":"image-button-response","trial_index":15,"time_elapsed":163903,"internal_node_id":"0.0-4.0-0.4","subject_id":"602f7f9563f201c656684bfd","study_id":"60edd13110225f80f9f3709b","session_id":"6196c4a4b4537bbb9c2fe7d1","condition":"contingent","relevant_dimensions":["antennae","wings"],"bee_group":{"antennae":"B","wings":"1","pattern":"X","legs":"X"},"action":"avoid","summary":"bad-avoid","bonus":0.7800000000000006},{"rt":790.7000000476837,"stimulus":"\n                    <p><b>Action: <em>avoid</em></b></p>\n                    <p>This is the bee that you just saw.</p>\n                    <img src=\"bees-with-color/bee-B2DF.svg\" width=\"200\">\n                    <p><br>Your bonus pay is unchanged, and remains at $0.56.</p>\n            ","response":0,"trial_type":"html-button-response","trial_index":16,"time_elapsed":164695,"internal_node_id":"0.0-4.0-1.4","subject_id":"602f7f9563f201c656684bfd","study_id":"60edd13110225f80f9f3709b","session_id":"6196c4a4b4537bbb9c2fe7d1","condition":"contingent","relevant_dimensions":["antennae","wings"],"bee_group":{"antennae":"B","wings":"1","pattern":"X","legs":"X"},"bonus":0.7800000000000006},{"rt":1319.4000000953674,"stimulus":"bees-with-color/bee-A2DM.svg","response":1,"trial_type":"image-button-response","trial_index":17,"time_elapsed":166015,"internal_node_id":"0.0-4.0-0.5","subject_id":"602f7f9563f201c656684bfd","study_id":"60edd13110225f80f9f3709b","session_id":"6196c4a4b4537bbb9c2fe7d1","condition":"contingent","relevant_dimensions":["antennae","wings"],"bee_group":{"antennae":"B","wings":"1","pattern":"X","legs":"X"},"action":"avoid","summary":"bad-avoid","bonus":0.7800000000000006},{"rt":751.2999999523163,"stimulus":"\n                    <p><b>Action: <em>avoid</em></b></p>\n                    <p>This is the bee that you just saw.</p>\n                    <img src=\"bees-with-color/bee-A2DM.svg\" width=\"200\">\n                    <p><br>Your bonus pay is unchanged, and remains at $0.56.</p>\n            ","response":0,"trial_type":"html-button-response","trial_index":18,"time_elapsed":166767,"internal_node_id":"0.0-4.0-1.5","subject_id":"602f7f9563f201c656684bfd","study_id":"60edd13110225f80f9f3709b","session_id":"6196c4a4b4537bbb9c2fe7d1","condition":"contingent","relevant_dimensions":["antennae","wings"],"bee_group":{"antennae":"B","wings":"1","pattern":"X","legs":"X"},"bonus":0.7800000000000006},{"rt":1046.7000000476837,"stimulus":"bees-with-color/bee-B1DF.svg","response":1,"trial_type":"image-button-response","trial_index":19,"time_elapsed":167815,"internal_node_id":"0.0-4.0-0.6","subject_id":"602f7f9563f201c656684bfd","study_id":"60edd13110225f80f9f3709b","session_id":"6196c4a4b4537bbb9c2fe7d1","condition":"contingent","relevant_dimensions":["antennae","wings"],"bee_group":{"antennae":"B","wings":"1","pattern":"X","legs":"X"},"action":"avoid","summary":"good-avoid","bonus":0.7800000000000006},{"rt":655.8000000715256,"stimulus":"\n                    <p><b>Action: <em>avoid</em></b></p>\n                    <p>This is the bee that you just saw.</p>\n                    <img src=\"bees-with-color/bee-B1DF.svg\" width=\"200\">\n                    <p><br>Your bonus pay is unchanged, and remains at $0.56.</p>\n            ","response":0,"trial_type":"html-button-response","trial_index":20,"time_elapsed":168472,"internal_node_id":"0.0-4.0-1.6","subject_id":"602f7f9563f201c656684bfd","study_id":"60edd13110225f80f9f3709b","session_id":"6196c4a4b4537bbb9c2fe7d1","condition":"contingent","relevant_dimensions":["antennae","wings"],"bee_group":{"antennae":"B","wings":"1","pattern":"X","legs":"X"},"bonus":0.7800000000000006},{"rt":1054.1000000238419,"stimulus":"bees-with-color/bee-B2SF.svg","response":0,"trial_type":"image-button-response","trial_index":21,"time_elapsed":169527,"internal_node_id":"0.0-4.0-0.7","subject_id":"602f7f9563f201c656684bfd","study_id":"60edd13110225f80f9f3709b","session_id":"6196c4a4b4537bbb9c2fe7d1","condition":"contingent","relevant_dimensions":["antennae","wings"],"bee_group":{"antennae":"B","wings":"1","pattern":"X","legs":"X"},"action":"harvest","summary":"good-harvest","bonus":0.7800000000000006},{"rt":806.6999999284744,"stimulus":"\n                    <p><b>Action: <em>harvest</em></b></p>\n                    <p>This is the bee that you just saw.</p>\n                    <img src=\"bees-with-color/bee-B2SF.svg\" width=\"200\">\n                    <p><span class=\"greenText\"><b>Successful harvest!</b></span><br>Your pay has increased by $0.02. Your bonus pay is now $0.58.</p>\n            ","response":0,"trial_type":"html-button-response","trial_index":22,"time_elapsed":170334,"internal_node_id":"0.0-4.0-1.7","subject_id":"602f7f9563f201c656684bfd","study_id":"60edd13110225f80f9f3709b","session_id":"6196c4a4b4537bbb9c2fe7d1","condition":"contingent","relevant_dimensions":["antennae","wings"],"bee_group":{"antennae":"B","wings":"1","pattern":"X","legs":"X"},"bonus":0.7800000000000006},{"rt":879.2999999523163,"stimulus":"bees-with-color/bee-B1SM.svg","response":0,"trial_type":"image-button-response","trial_index":23,"time_elapsed":171215,"internal_node_id":"0.0-4.0-0.8","subject_id":"602f7f9563f201c656684bfd","study_id":"60edd13110225f80f9f3709b","session_id":"6196c4a4b4537bbb9c2fe7d1","condition":"contingent","relevant_dimensions":["antennae","wings"],"bee_group":{"antennae":"B","wings":"1","pattern":"X","legs":"X"},"action":"harvest","summary":"bad-harvest","bonus":0.7800000000000006},{"rt":2055.1999999284744,"stimulus":"\n                    <p><b>Action: <em>harvest</em></b></p>\n                    <p>This is the bee that you just saw.</p>\n                    <img src=\"bees-with-color/bee-B1SM.svg\" width=\"200\">\n                    <p><span class=\"redText\">Bad choice, the bee was angry.</span><br><b>You have been stung!</b><br>Your pay has been decreased by $0.10. Your bonus pay is now $0.48.</p>\n            ","response":0,"trial_type":"html-button-response","trial_index":24,"time_elapsed":173271,"internal_node_id":"0.0-4.0-1.8","subject_id":"602f7f9563f201c656684bfd","study_id":"60edd13110225f80f9f3709b","session_id":"6196c4a4b4537bbb9c2fe7d1","condition":"contingent","relevant_dimensions":["antennae","wings"],"bee_group":{"antennae":"B","wings":"1","pattern":"X","legs":"X"},"bonus":0.7800000000000006},{"rt":2424,"stimulus":"bees-with-color/bee-A2SM.svg","response":0,"trial_type":"image-button-response","trial_index":25,"time_elapsed":175696,"internal_node_id":"0.0-4.0-0.9","subject_id":"602f7f9563f201c656684bfd","study_id":"60edd13110225f80f9f3709b","session_id":"6196c4a4b4537bbb9c2fe7d1","condition":"contingent","relevant_dimensions":["antennae","wings"],"bee_group":{"antennae":"B","wings":"1","pattern":"X","legs":"X"},"action":"harvest","summary":"good-harvest","bonus":0.7800000000000006},{"rt":831,"stimulus":"\n                    <p><b>Action: <em>harvest</em></b></p>\n                    <p>This is the bee that you just saw.</p>\n                    <img src=\"bees-with-color/bee-A2SM.svg\" width=\"200\">\n                    <p><span class=\"greenText\"><b>Successful harvest!</b></span><br>Your pay has increased by $0.02. Your bonus pay is now $0.50.</p>\n            ","response":0,"trial_type":"html-button-response","trial_index":26,"time_elapsed":176528,"internal_node_id":"0.0-4.0-1.9","subject_id":"602f7f9563f201c656684bfd","study_id":"60edd13110225f80f9f3709b","session_id":"6196c4a4b4537bbb9c2fe7d1","condition":"contingent","relevant_dimensions":["antennae","wings"],"bee_group":{"antennae":"B","wings":"1","pattern":"X","legs":"X"},"bonus":0.7800000000000006},{"rt":1215.3999999761581,"stimulus":"bees-with-color/bee-A2SF.svg","response":1,"trial_type":"image-button-response","trial_index":27,"time_elapsed":177744,"internal_node_id":"0.0-4.0-0.10","subject_id":"602f7f9563f201c656684bfd","study_id":"60edd13110225f80f9f3709b","session_id":"6196c4a4b4537bbb9c2fe7d1","condition":"contingent","relevant_dimensions":["antennae","wings"],"bee_group":{"antennae":"B","wings":"1","pattern":"X","legs":"X"},"action":"avoid","summary":"bad-avoid","bonus":0.7800000000000006},{"rt":950.7000000476837,"stimulus":"\n                    <p><b>Action: <em>avoid</em></b></p>\n                    <p>This is the bee that you just saw.</p>\n                    <img src=\"bees-with-color/bee-A2SF.svg\" width=\"200\">\n                    <p><br>Your bonus pay is unchanged, and remains at $0.50.</p>\n            ","response":0,"trial_type":"html-button-response","trial_index":28,"time_elapsed":178696,"internal_node_id":"0.0-4.0-1.10","subject_id":"602f7f9563f201c656684bfd","study_id":"60edd13110225f80f9f3709b","session_id":"6196c4a4b4537bbb9c2fe7d1","condition":"contingent","relevant_dimensions":["antennae","wings"],"bee_group":{"antennae":"B","wings":"1","pattern":"X","legs":"X"},"bonus":0.7800000000000006},{"rt":1559,"stimulus":"bees-with-color/bee-B2DM.svg","response":1,"trial_type":"image-button-response","trial_index":29,"time_elapsed":180256,"internal_node_id":"0.0-4.0-0.11","subject_id":"602f7f9563f201c656684bfd","study_id":"60edd13110225f80f9f3709b","session_id":"6196c4a4b4537bbb9c2fe7d1","condition":"contingent","relevant_dimensions":["antennae","wings"],"bee_group":{"antennae":"B","wings":"1","pattern":"X","legs":"X"},"action":"avoid","summary":"bad-avoid","bonus":0.7800000000000006},{"rt":783.2999999523163,"stimulus":"\n                    <p><b>Action: <em>avoid</em></b></p>\n                    <p>This is the bee that you just saw.</p>\n                    <img src=\"bees-with-color/bee-B2DM.svg\" width=\"200\">\n                    <p><br>Your bonus pay is unchanged, and remains at $0.50.</p>\n            ","response":0,"trial_type":"html-button-response","trial_index":30,"time_elapsed":181040,"internal_node_id":"0.0-4.0-1.11","subject_id":"602f7f9563f201c656684bfd","study_id":"60edd13110225f80f9f3709b","session_id":"6196c4a4b4537bbb9c2fe7d1","condition":"contingent","relevant_dimensions":["antennae","wings"],"bee_group":{"antennae":"B","wings":"1","pattern":"X","legs":"X"},"bonus":0.7800000000000006},{"rt":871,"stimulus":"bees-with-color/bee-A1DF.svg","response":1,"trial_type":"image-button-response","trial_index":31,"time_elapsed":181912,"internal_node_id":"0.0-4.0-0.12","subject_id":"602f7f9563f201c656684bfd","study_id":"60edd13110225f80f9f3709b","session_id":"6196c4a4b4537bbb9c2fe7d1","condition":"contingent","relevant_dimensions":["antennae","wings"],"bee_group":{"antennae":"B","wings":"1","pattern":"X","legs":"X"},"action":"avoid","summary":"bad-avoid","bonus":0.7800000000000006},{"rt":647.0999999046326,"stimulus":"\n                    <p><b>Action: <em>avoid</em></b></p>\n                    <p>This is the bee that you just saw.</p>\n                    <img src=\"bees-with-color/bee-A1DF.svg\" width=\"200\">\n                    <p><br>Your bonus pay is unchanged, and remains at $0.50.</p>\n            ","response":0,"trial_type":"html-button-response","trial_index":32,"time_elapsed":182560,"internal_node_id":"0.0-4.0-1.12","subject_id":"602f7f9563f201c656684bfd","study_id":"60edd13110225f80f9f3709b","session_id":"6196c4a4b4537bbb9c2fe7d1","condition":"contingent","relevant_dimensions":["antennae","wings"],"bee_group":{"antennae":"B","wings":"1","pattern":"X","legs":"X"},"bonus":0.7800000000000006},{"rt":935,"stimulus":"bees-with-color/bee-B1SF.svg","response":1,"trial_type":"image-button-response","trial_index":33,"time_elapsed":183496,"internal_node_id":"0.0-4.0-0.13","subject_id":"602f7f9563f201c656684bfd","study_id":"60edd13110225f80f9f3709b","session_id":"6196c4a4b4537bbb9c2fe7d1","condition":"contingent","relevant_dimensions":["antennae","wings"],"bee_group":{"antennae":"B","wings":"1","pattern":"X","legs":"X"},"action":"avoid","summary":"good-avoid","bonus":0.7800000000000006},{"rt":535.3999999761581,"stimulus":"\n                    <p><b>Action: <em>avoid</em></b></p>\n                    <p>This is the bee that you just saw.</p>\n                    <img src=\"bees-with-color/bee-B1SF.svg\" width=\"200\">\n                    <p><br>Your bonus pay is unchanged, and remains at $0.50.</p>\n            ","response":0,"trial_type":"html-button-response","trial_index":34,"time_elapsed":184032,"internal_node_id":"0.0-4.0-1.13","subject_id":"602f7f9563f201c656684bfd","study_id":"60edd13110225f80f9f3709b","session_id":"6196c4a4b4537bbb9c2fe7d1","condition":"contingent","relevant_dimensions":["antennae","wings"],"bee_group":{"antennae":"B","wings":"1","pattern":"X","legs":"X"},"bonus":0.7800000000000006},{"rt":926.8000000715256,"stimulus":"bees-with-color/bee-A2DF.svg","response":1,"trial_type":"image-button-response","trial_index":35,"time_elapsed":184960,"internal_node_id":"0.0-4.0-0.14","subject_id":"602f7f9563f201c656684bfd","study_id":"60edd13110225f80f9f3709b","session_id":"6196c4a4b4537bbb9c2fe7d1","condition":"contingent","relevant_dimensions":["antennae","wings"],"bee_group":{"antennae":"B","wings":"1","pattern":"X","legs":"X"},"action":"avoid","summary":"bad-avoid","bonus":0.7800000000000006},{"rt":655.3000000715256,"stimulus":"\n                    <p><b>Action: <em>avoid</em></b></p>\n                    <p>This is the bee that you just saw.</p>\n                    <img src=\"bees-with-color/bee-A2DF.svg\" width=\"200\">\n                    <p><br>Your bonus pay is unchanged, and remains at $0.50.</p>\n            ","response":0,"trial_type":"html-button-response","trial_index":36,"time_elapsed":185616,"internal_node_id":"0.0-4.0-1.14","subject_id":"602f7f9563f201c656684bfd","study_id":"60edd13110225f80f9f3709b","session_id":"6196c4a4b4537bbb9c2fe7d1","condition":"contingent","relevant_dimensions":["antennae","wings"],"bee_group":{"antennae":"B","wings":"1","pattern":"X","legs":"X"},"bonus":0.7800000000000006},{"rt":927.1000000238419,"stimulus":"bees-with-color/bee-A1SM.svg","response":0,"trial_type":"image-button-response","trial_index":37,"time_elapsed":186544,"internal_node_id":"0.0-4.0-0.15","subject_id":"602f7f9563f201c656684bfd","study_id":"60edd13110225f80f9f3709b","session_id":"6196c4a4b4537bbb9c2fe7d1","condition":"contingent","relevant_dimensions":["antennae","wings"],"bee_group":{"antennae":"B","wings":"1","pattern":"X","legs":"X"},"action":"harvest","summary":"good-harvest","bonus":0.7800000000000006},{"rt":694.7999999523163,"stimulus":"\n                    <p><b>Action: <em>harvest</em></b></p>\n                    <p>This is the bee that you just saw.</p>\n                    <img src=\"bees-with-color/bee-A1SM.svg\" width=\"200\">\n                    <p><span class=\"greenText\"><b>Successful harvest!</b></span><br>Your pay has increased by $0.02. Your bonus pay is now $0.52.</p>\n            ","response":0,"trial_type":"html-button-response","trial_index":38,"time_elapsed":187240,"internal_node_id":"0.0-4.0-1.15","subject_id":"602f7f9563f201c656684bfd","study_id":"60edd13110225f80f9f3709b","session_id":"6196c4a4b4537bbb9c2fe7d1","condition":"contingent","relevant_dimensions":["antennae","wings"],"bee_group":{"antennae":"B","wings":"1","pattern":"X","legs":"X"},"bonus":0.7800000000000006},{"rt":1262.9000000953674,"stimulus":"bees-with-color/bee-B1SF.svg","response":1,"trial_type":"image-button-response","trial_index":39,"time_elapsed":188504,"internal_node_id":"0.0-4.0-0.16","subject_id":"602f7f9563f201c656684bfd","study_id":"60edd13110225f80f9f3709b","session_id":"6196c4a4b4537bbb9c2fe7d1","condition":"contingent","relevant_dimensions":["antennae","wings"],"bee_group":{"antennae":"B","wings":"1","pattern":"X","legs":"X"},"action":"avoid","summary":"good-avoid","bonus":0.7800000000000006},{"rt":703.2999999523163,"stimulus":"\n                    <p><b>Action: <em>avoid</em></b></p>\n                    <p>This is the bee that you just saw.</p>\n                    <img src=\"bees-with-color/bee-B1SF.svg\" width=\"200\">\n                    <p><br>Your bonus pay is unchanged, and remains at $0.52.</p>\n            ","response":0,"trial_type":"html-button-response","trial_index":40,"time_elapsed":189208,"internal_node_id":"0.0-4.0-1.16","subject_id":"602f7f9563f201c656684bfd","study_id":"60edd13110225f80f9f3709b","session_id":"6196c4a4b4537bbb9c2fe7d1","condition":"contingent","relevant_dimensions":["antennae","wings"],"bee_group":{"antennae":"B","wings":"1","pattern":"X","legs":"X"},"bonus":0.7800000000000006},{"rt":2047.1999999284744,"stimulus":"bees-with-color/bee-B2SF.svg","response":1,"trial_type":"image-button-response","trial_index":41,"time_elapsed":191255,"internal_node_id":"0.0-4.0-0.17","subject_id":"602f7f9563f201c656684bfd","study_id":"60edd13110225f80f9f3709b","session_id":"6196c4a4b4537bbb9c2fe7d1","condition":"contingent","relevant_dimensions":["antennae","wings"],"bee_group":{"antennae":"B","wings":"1","pattern":"X","legs":"X"},"action":"avoid","summary":"bad-avoid","bonus":0.7800000000000006},{"rt":623,"stimulus":"\n                    <p><b>Action: <em>avoid</em></b></p>\n                    <p>This is the bee that you just saw.</p>\n                    <img src=\"bees-with-color/bee-B2SF.svg\" width=\"200\">\n                    <p><br>Your bonus pay is unchanged, and remains at $0.52.</p>\n            ","response":0,"trial_type":"html-button-response","trial_index":42,"time_elapsed":191879,"internal_node_id":"0.0-4.0-1.17","subject_id":"602f7f9563f201c656684bfd","study_id":"60edd13110225f80f9f3709b","session_id":"6196c4a4b4537bbb9c2fe7d1","condition":"contingent","relevant_dimensions":["antennae","wings"],"bee_group":{"antennae":"B","wings":"1","pattern":"X","legs":"X"},"bonus":0.7800000000000006},{"rt":744.3999999761581,"stimulus":"bees-with-color/bee-B2DF.svg","response":1,"trial_type":"image-button-response","trial_index":43,"time_elapsed":192625,"internal_node_id":"0.0-4.0-0.18","subject_id":"602f7f9563f201c656684bfd","study_id":"60edd13110225f80f9f3709b","session_id":"6196c4a4b4537bbb9c2fe7d1","condition":"contingent","relevant_dimensions":["antennae","wings"],"bee_group":{"antennae":"B","wings":"1","pattern":"X","legs":"X"},"action":"avoid","summary":"bad-avoid","bonus":0.7800000000000006},{"rt":486.40000009536743,"stimulus":"\n                    <p><b>Action: <em>avoid</em></b></p>\n                    <p>This is the bee that you just saw.</p>\n                    <img src=\"bees-with-color/bee-B2DF.svg\" width=\"200\">\n                    <p><br>Your bonus pay is unchanged, and remains at $0.52.</p>\n            ","response":0,"trial_type":"html-button-response","trial_index":44,"time_elapsed":193112,"internal_node_id":"0.0-4.0-1.18","subject_id":"602f7f9563f201c656684bfd","study_id":"60edd13110225f80f9f3709b","session_id":"6196c4a4b4537bbb9c2fe7d1","condition":"contingent","relevant_dimensions":["antennae","wings"],"bee_group":{"antennae":"B","wings":"1","pattern":"X","legs":"X"},"bonus":0.7800000000000006},{"rt":1423.5,"stimulus":"bees-with-color/bee-B2DM.svg","response":0,"trial_type":"image-button-response","trial_index":45,"time_elapsed":194536,"internal_node_id":"0.0-4.0-0.19","subject_id":"602f7f9563f201c656684bfd","study_id":"60edd13110225f80f9f3709b","session_id":"6196c4a4b4537bbb9c2fe7d1","condition":"contingent","relevant_dimensions":["antennae","wings"],"bee_group":{"antennae":"B","wings":"1","pattern":"X","legs":"X"},"action":"harvest","summary":"good-harvest","bonus":0.7800000000000006},{"rt":839.1000000238419,"stimulus":"\n                    <p><b>Action: <em>harvest</em></b></p>\n                    <p>This is the bee that you just saw.</p>\n                    <img src=\"bees-with-color/bee-B2DM.svg\" width=\"200\">\n                    <p><span class=\"greenText\"><b>Successful harvest!</b></span><br>Your pay has increased by $0.02. Your bonus pay is now $0.54.</p>\n            ","response":0,"trial_type":"html-button-response","trial_index":46,"time_elapsed":195376,"internal_node_id":"0.0-4.0-1.19","subject_id":"602f7f9563f201c656684bfd","study_id":"60edd13110225f80f9f3709b","session_id":"6196c4a4b4537bbb9c2fe7d1","condition":"contingent","relevant_dimensions":["antennae","wings"],"bee_group":{"antennae":"B","wings":"1","pattern":"X","legs":"X"},"bonus":0.7800000000000006},{"rt":3022.7000000476837,"stimulus":"bees-with-color/bee-A2SF.svg","response":0,"trial_type":"image-button-response","trial_index":47,"time_elapsed":198400,"internal_node_id":"0.0-4.0-0.20","subject_id":"602f7f9563f201c656684bfd","study_id":"60edd13110225f80f9f3709b","session_id":"6196c4a4b4537bbb9c2fe7d1","condition":"contingent","relevant_dimensions":["antennae","wings"],"bee_group":{"antennae":"B","wings":"1","pattern":"X","legs":"X"},"action":"harvest","summary":"good-harvest","bonus":0.7800000000000006},{"rt":1294.8999999761581,"stimulus":"\n                    <p><b>Action: <em>harvest</em></b></p>\n                    <p>This is the bee that you just saw.</p>\n                    <img src=\"bees-with-color/bee-A2SF.svg\" width=\"200\">\n                    <p><span class=\"greenText\"><b>Successful harvest!</b></span><br>Your pay has increased by $0.02. Your bonus pay is now $0.56.</p>\n            ","response":0,"trial_type":"html-button-response","trial_index":48,"time_elapsed":199696,"internal_node_id":"0.0-4.0-1.20","subject_id":"602f7f9563f201c656684bfd","study_id":"60edd13110225f80f9f3709b","session_id":"6196c4a4b4537bbb9c2fe7d1","condition":"contingent","relevant_dimensions":["antennae","wings"],"bee_group":{"antennae":"B","wings":"1","pattern":"X","legs":"X"},"bonus":0.7800000000000006},{"rt":1911.5,"stimulus":"bees-with-color/bee-B1SM.svg","response":0,"trial_type":"image-button-response","trial_index":49,"time_elapsed":201608,"internal_node_id":"0.0-4.0-0.21","subject_id":"602f7f9563f201c656684bfd","study_id":"60edd13110225f80f9f3709b","session_id":"6196c4a4b4537bbb9c2fe7d1","condition":"contingent","relevant_dimensions":["antennae","wings"],"bee_group":{"antennae":"B","wings":"1","pattern":"X","legs":"X"},"action":"harvest","summary":"bad-harvest","bonus":0.7800000000000006},{"rt":1503.3000000715256,"stimulus":"\n                    <p><b>Action: <em>harvest</em></b></p>\n                    <p>This is the bee that you just saw.</p>\n                    <img src=\"bees-with-color/bee-B1SM.svg\" width=\"200\">\n                    <p><span class=\"redText\">Bad choice, the bee was angry.</span><br><b>You have been stung!</b><br>Your pay has been decreased by $0.10. Your bonus pay is now $0.46.</p>\n            ","response":0,"trial_type":"html-button-response","trial_index":50,"time_elapsed":203112,"internal_node_id":"0.0-4.0-1.21","subject_id":"602f7f9563f201c656684bfd","study_id":"60edd13110225f80f9f3709b","session_id":"6196c4a4b4537bbb9c2fe7d1","condition":"contingent","relevant_dimensions":["antennae","wings"],"bee_group":{"antennae":"B","wings":"1","pattern":"X","legs":"X"},"bonus":0.7800000000000006},{"rt":983.2999999523163,"stimulus":"bees-with-color/bee-A2SM.svg","response":0,"trial_type":"image-button-response","trial_index":51,"time_elapsed":204097,"internal_node_id":"0.0-4.0-0.22","subject_id":"602f7f9563f201c656684bfd","study_id":"60edd13110225f80f9f3709b","session_id":"6196c4a4b4537bbb9c2fe7d1","condition":"contingent","relevant_dimensions":["antennae","wings"],"bee_group":{"antennae":"B","wings":"1","pattern":"X","legs":"X"},"action":"harvest","summary":"good-harvest","bonus":0.7800000000000006},{"rt":733.7000000476837,"stimulus":"\n                    <p><b>Action: <em>harvest</em></b></p>\n                    <p>This is the bee that you just saw.</p>\n                    <img src=\"bees-with-color/bee-A2SM.svg\" width=\"200\">\n                    <p><span class=\"greenText\"><b>Successful harvest!</b></span><br>Your pay has increased by $0.02. Your bonus pay is now $0.48.</p>\n            ","response":0,"trial_type":"html-button-response","trial_index":52,"time_elapsed":204831,"internal_node_id":"0.0-4.0-1.22","subject_id":"602f7f9563f201c656684bfd","study_id":"60edd13110225f80f9f3709b","session_id":"6196c4a4b4537bbb9c2fe7d1","condition":"contingent","relevant_dimensions":["antennae","wings"],"bee_group":{"antennae":"B","wings":"1","pattern":"X","legs":"X"},"bonus":0.7800000000000006},{"rt":823.3999999761581,"stimulus":"bees-with-color/bee-A1DF.svg","response":1,"trial_type":"image-button-response","trial_index":53,"time_elapsed":205656,"internal_node_id":"0.0-4.0-0.23","subject_id":"602f7f9563f201c656684bfd","study_id":"60edd13110225f80f9f3709b","session_id":"6196c4a4b4537bbb9c2fe7d1","condition":"contingent","relevant_dimensions":["antennae","wings"],"bee_group":{"antennae":"B","wings":"1","pattern":"X","legs":"X"},"action":"avoid","summary":"bad-avoid","bonus":0.7800000000000006},{"rt":871.1999999284744,"stimulus":"\n                    <p><b>Action: <em>avoid</em></b></p>\n                    <p>This is the bee that you just saw.</p>\n                    <img src=\"bees-with-color/bee-A1DF.svg\" width=\"200\">\n                    <p><br>Your bonus pay is unchanged, and remains at $0.48.</p>\n            ","response":0,"trial_type":"html-button-response","trial_index":54,"time_elapsed":206527,"internal_node_id":"0.0-4.0-1.23","subject_id":"602f7f9563f201c656684bfd","study_id":"60edd13110225f80f9f3709b","session_id":"6196c4a4b4537bbb9c2fe7d1","condition":"contingent","relevant_dimensions":["antennae","wings"],"bee_group":{"antennae":"B","wings":"1","pattern":"X","legs":"X"},"bonus":0.7800000000000006},{"rt":1687.1000000238419,"stimulus":"bees-with-color/bee-B1DF.svg","response":1,"trial_type":"image-button-response","trial_index":55,"time_elapsed":208215,"internal_node_id":"0.0-4.0-0.24","subject_id":"602f7f9563f201c656684bfd","study_id":"60edd13110225f80f9f3709b","session_id":"6196c4a4b4537bbb9c2fe7d1","condition":"contingent","relevant_dimensions":["antennae","wings"],"bee_group":{"antennae":"B","wings":"1","pattern":"X","legs":"X"},"action":"avoid","summary":"good-avoid","bonus":0.7800000000000006},{"rt":648,"stimulus":"\n                    <p><b>Action: <em>avoid</em></b></p>\n                    <p>This is the bee that you just saw.</p>\n                    <img src=\"bees-with-color/bee-B1DF.svg\" width=\"200\">\n                    <p><br>Your bonus pay is unchanged, and remains at $0.48.</p>\n            ","response":0,"trial_type":"html-button-response","trial_index":56,"time_elapsed":208864,"internal_node_id":"0.0-4.0-1.24","subject_id":"602f7f9563f201c656684bfd","study_id":"60edd13110225f80f9f3709b","session_id":"6196c4a4b4537bbb9c2fe7d1","condition":"contingent","relevant_dimensions":["antennae","wings"],"bee_group":{"antennae":"B","wings":"1","pattern":"X","legs":"X"},"bonus":0.7800000000000006},{"rt":999,"stimulus":"bees-with-color/bee-B2SM.svg","response":0,"trial_type":"image-button-response","trial_index":57,"time_elapsed":209864,"internal_node_id":"0.0-4.0-0.25","subject_id":"602f7f9563f201c656684bfd","study_id":"60edd13110225f80f9f3709b","session_id":"6196c4a4b4537bbb9c2fe7d1","condition":"contingent","relevant_dimensions":["antennae","wings"],"bee_group":{"antennae":"B","wings":"1","pattern":"X","legs":"X"},"action":"harvest","summary":"good-harvest","bonus":0.7800000000000006},{"rt":703,"stimulus":"\n                    <p><b>Action: <em>harvest</em></b></p>\n                    <p>This is the bee that you just saw.</p>\n                    <img src=\"bees-with-color/bee-B2SM.svg\" width=\"200\">\n                    <p><span class=\"greenText\"><b>Successful harvest!</b></span><br>Your pay has increased by $0.02. Your bonus pay is now $0.50.</p>\n            ","response":0,"trial_type":"html-button-response","trial_index":58,"time_elapsed":210568,"internal_node_id":"0.0-4.0-1.25","subject_id":"602f7f9563f201c656684bfd","study_id":"60edd13110225f80f9f3709b","session_id":"6196c4a4b4537bbb9c2fe7d1","condition":"contingent","relevant_dimensions":["antennae","wings"],"bee_group":{"antennae":"B","wings":"1","pattern":"X","legs":"X"},"bonus":0.7800000000000006},{"rt":1998.8999999761581,"stimulus":"bees-with-color/bee-A2DF.svg","response":1,"trial_type":"image-button-response","trial_index":59,"time_elapsed":212567,"internal_node_id":"0.0-4.0-0.26","subject_id":"602f7f9563f201c656684bfd","study_id":"60edd13110225f80f9f3709b","session_id":"6196c4a4b4537bbb9c2fe7d1","condition":"contingent","relevant_dimensions":["antennae","wings"],"bee_group":{"antennae":"B","wings":"1","pattern":"X","legs":"X"},"action":"avoid","summary":"bad-avoid","bonus":0.7800000000000006},{"rt":792.1000000238419,"stimulus":"\n                    <p><b>Action: <em>avoid</em></b></p>\n                    <p>This is the bee that you just saw.</p>\n                    <img src=\"bees-with-color/bee-A2DF.svg\" width=\"200\">\n                    <p><br>Your bonus pay is unchanged, and remains at $0.50.</p>\n            ","response":0,"trial_type":"html-button-response","trial_index":60,"time_elapsed":213360,"internal_node_id":"0.0-4.0-1.26","subject_id":"602f7f9563f201c656684bfd","study_id":"60edd13110225f80f9f3709b","session_id":"6196c4a4b4537bbb9c2fe7d1","condition":"contingent","relevant_dimensions":["antennae","wings"],"bee_group":{"antennae":"B","wings":"1","pattern":"X","legs":"X"},"bonus":0.7800000000000006},{"rt":967.5,"stimulus":"bees-with-color/bee-A1SF.svg","response":1,"trial_type":"image-button-response","trial_index":61,"time_elapsed":214328,"internal_node_id":"0.0-4.0-0.27","subject_id":"602f7f9563f201c656684bfd","study_id":"60edd13110225f80f9f3709b","session_id":"6196c4a4b4537bbb9c2fe7d1","condition":"contingent","relevant_dimensions":["antennae","wings"],"bee_group":{"antennae":"B","wings":"1","pattern":"X","legs":"X"},"action":"avoid","summary":"bad-avoid","bonus":0.7800000000000006},{"rt":566.5,"stimulus":"\n                    <p><b>Action: <em>avoid</em></b></p>\n                    <p>This is the bee that you just saw.</p>\n                    <img src=\"bees-with-color/bee-A1SF.svg\" width=\"200\">\n                    <p><br>Your bonus pay is unchanged, and remains at $0.50.</p>\n            ","response":0,"trial_type":"html-button-response","trial_index":62,"time_elapsed":214896,"internal_node_id":"0.0-4.0-1.27","subject_id":"602f7f9563f201c656684bfd","study_id":"60edd13110225f80f9f3709b","session_id":"6196c4a4b4537bbb9c2fe7d1","condition":"contingent","relevant_dimensions":["antennae","wings"],"bee_group":{"antennae":"B","wings":"1","pattern":"X","legs":"X"},"bonus":0.7800000000000006},{"rt":1438.8000000715256,"stimulus":"bees-with-color/bee-B1DM.svg","response":0,"trial_type":"image-button-response","trial_index":63,"time_elapsed":216335,"internal_node_id":"0.0-4.0-0.28","subject_id":"602f7f9563f201c656684bfd","study_id":"60edd13110225f80f9f3709b","session_id":"6196c4a4b4537bbb9c2fe7d1","condition":"contingent","relevant_dimensions":["antennae","wings"],"bee_group":{"antennae":"B","wings":"1","pattern":"X","legs":"X"},"action":"harvest","summary":"bad-harvest","bonus":0.7800000000000006},{"rt":799.5,"stimulus":"\n                    <p><b>Action: <em>harvest</em></b></p>\n                    <p>This is the bee that you just saw.</p>\n                    <img src=\"bees-with-color/bee-B1DM.svg\" width=\"200\">\n                    <p><span class=\"redText\">Bad choice, the bee was angry.</span><br><b>You have been stung!</b><br>Your pay has been decreased by $0.10. Your bonus pay is now $0.40.</p>\n            ","response":0,"trial_type":"html-button-response","trial_index":64,"time_elapsed":217136,"internal_node_id":"0.0-4.0-1.28","subject_id":"602f7f9563f201c656684bfd","study_id":"60edd13110225f80f9f3709b","session_id":"6196c4a4b4537bbb9c2fe7d1","condition":"contingent","relevant_dimensions":["antennae","wings"],"bee_group":{"antennae":"B","wings":"1","pattern":"X","legs":"X"},"bonus":0.7800000000000006},{"rt":903.1999999284744,"stimulus":"bees-with-color/bee-A2DM.svg","response":1,"trial_type":"image-button-response","trial_index":65,"time_elapsed":218040,"internal_node_id":"0.0-4.0-0.29","subject_id":"602f7f9563f201c656684bfd","study_id":"60edd13110225f80f9f3709b","session_id":"6196c4a4b4537bbb9c2fe7d1","condition":"contingent","relevant_dimensions":["antennae","wings"],"bee_group":{"antennae":"B","wings":"1","pattern":"X","legs":"X"},"action":"avoid","summary":"bad-avoid","bonus":0.7800000000000006},{"rt":703.7000000476837,"stimulus":"\n                    <p><b>Action: <em>avoid</em></b></p>\n                    <p>This is the bee that you just saw.</p>\n                    <img src=\"bees-with-color/bee-A2DM.svg\" width=\"200\">\n                    <p><br>Your bonus pay is unchanged, and remains at $0.40.</p>\n            ","response":0,"trial_type":"html-button-response","trial_index":66,"time_elapsed":218744,"internal_node_id":"0.0-4.0-1.29","subject_id":"602f7f9563f201c656684bfd","study_id":"60edd13110225f80f9f3709b","session_id":"6196c4a4b4537bbb9c2fe7d1","condition":"contingent","relevant_dimensions":["antennae","wings"],"bee_group":{"antennae":"B","wings":"1","pattern":"X","legs":"X"},"bonus":0.7800000000000006},{"rt":1822.2000000476837,"stimulus":"bees-with-color/bee-A1DM.svg","response":1,"trial_type":"image-button-response","trial_index":67,"time_elapsed":220568,"internal_node_id":"0.0-4.0-0.30","subject_id":"602f7f9563f201c656684bfd","study_id":"60edd13110225f80f9f3709b","session_id":"6196c4a4b4537bbb9c2fe7d1","condition":"contingent","relevant_dimensions":["antennae","wings"],"bee_group":{"antennae":"B","wings":"1","pattern":"X","legs":"X"},"action":"avoid","summary":"bad-avoid","bonus":0.7800000000000006},{"rt":551.3999999761581,"stimulus":"\n                    <p><b>Action: <em>avoid</em></b></p>\n                    <p>This is the bee that you just saw.</p>\n                    <img src=\"bees-with-color/bee-A1DM.svg\" width=\"200\">\n                    <p><br>Your bonus pay is unchanged, and remains at $0.40.</p>\n            ","response":0,"trial_type":"html-button-response","trial_index":68,"time_elapsed":221120,"internal_node_id":"0.0-4.0-1.30","subject_id":"602f7f9563f201c656684bfd","study_id":"60edd13110225f80f9f3709b","session_id":"6196c4a4b4537bbb9c2fe7d1","condition":"contingent","relevant_dimensions":["antennae","wings"],"bee_group":{"antennae":"B","wings":"1","pattern":"X","legs":"X"},"bonus":0.7800000000000006},{"rt":871,"stimulus":"bees-with-color/bee-A1SM.svg","response":0,"trial_type":"image-button-response","trial_index":69,"time_elapsed":221992,"internal_node_id":"0.0-4.0-0.31","subject_id":"602f7f9563f201c656684bfd","study_id":"60edd13110225f80f9f3709b","session_id":"6196c4a4b4537bbb9c2fe7d1","condition":"contingent","relevant_dimensions":["antennae","wings"],"bee_group":{"antennae":"B","wings":"1","pattern":"X","legs":"X"},"action":"harvest","summary":"good-harvest","bonus":0.7800000000000006},{"rt":575,"stimulus":"\n                    <p><b>Action: <em>harvest</em></b></p>\n                    <p>This is the bee that you just saw.</p>\n                    <img src=\"bees-with-color/bee-A1SM.svg\" width=\"200\">\n                    <p><span class=\"greenText\"><b>Successful harvest!</b></span><br>Your pay has increased by $0.02. Your bonus pay is now $0.42.</p>\n            ","response":0,"trial_type":"html-button-response","trial_index":70,"time_elapsed":222568,"internal_node_id":"0.0-4.0-1.31","subject_id":"602f7f9563f201c656684bfd","study_id":"60edd13110225f80f9f3709b","session_id":"6196c4a4b4537bbb9c2fe7d1","condition":"contingent","relevant_dimensions":["antennae","wings"],"bee_group":{"antennae":"B","wings":"1","pattern":"X","legs":"X"},"bonus":0.7800000000000006},{"rt":551.6000000238419,"stimulus":"bees-with-color/bee-B2DM.svg","response":1,"trial_type":"image-button-response","trial_index":71,"time_elapsed":223120,"internal_node_id":"0.0-4.0-0.32","subject_id":"602f7f9563f201c656684bfd","study_id":"60edd13110225f80f9f3709b","session_id":"6196c4a4b4537bbb9c2fe7d1","condition":"contingent","relevant_dimensions":["antennae","wings"],"bee_group":{"antennae":"B","wings":"1","pattern":"X","legs":"X"},"action":"avoid","summary":"bad-avoid","bonus":0.7800000000000006},{"rt":638.2999999523163,"stimulus":"\n                    <p><b>Action: <em>avoid</em></b></p>\n                    <p>This is the bee that you just saw.</p>\n                    <img src=\"bees-with-color/bee-B2DM.svg\" width=\"200\">\n                    <p><br>Your bonus pay is unchanged, and remains at $0.42.</p>\n            ","response":0,"trial_type":"html-button-response","trial_index":72,"time_elapsed":223760,"internal_node_id":"0.0-4.0-1.32","subject_id":"602f7f9563f201c656684bfd","study_id":"60edd13110225f80f9f3709b","session_id":"6196c4a4b4537bbb9c2fe7d1","condition":"contingent","relevant_dimensions":["antennae","wings"],"bee_group":{"antennae":"B","wings":"1","pattern":"X","legs":"X"},"bonus":0.7800000000000006},{"rt":879.5,"stimulus":"bees-with-color/bee-B2SF.svg","response":1,"trial_type":"image-button-response","trial_index":73,"time_elapsed":224640,"internal_node_id":"0.0-4.0-0.33","subject_id":"602f7f9563f201c656684bfd","study_id":"60edd13110225f80f9f3709b","session_id":"6196c4a4b4537bbb9c2fe7d1","condition":"contingent","relevant_dimensions":["antennae","wings"],"bee_group":{"antennae":"B","wings":"1","pattern":"X","legs":"X"},"action":"avoid","summary":"bad-avoid","bonus":0.7800000000000006},{"rt":495.10000002384186,"stimulus":"\n                    <p><b>Action: <em>avoid</em></b></p>\n                    <p>This is the bee that you just saw.</p>\n                    <img src=\"bees-with-color/bee-B2SF.svg\" width=\"200\">\n                    <p><br>Your bonus pay is unchanged, and remains at $0.42.</p>\n            ","response":0,"trial_type":"html-button-response","trial_index":74,"time_elapsed":225136,"internal_node_id":"0.0-4.0-1.33","subject_id":"602f7f9563f201c656684bfd","study_id":"60edd13110225f80f9f3709b","session_id":"6196c4a4b4537bbb9c2fe7d1","condition":"contingent","relevant_dimensions":["antennae","wings"],"bee_group":{"antennae":"B","wings":"1","pattern":"X","legs":"X"},"bonus":0.7800000000000006},{"rt":854.7999999523163,"stimulus":"bees-with-color/bee-A2DF.svg","response":1,"trial_type":"image-button-response","trial_index":75,"time_elapsed":225992,"internal_node_id":"0.0-4.0-0.34","subject_id":"602f7f9563f201c656684bfd","study_id":"60edd13110225f80f9f3709b","session_id":"6196c4a4b4537bbb9c2fe7d1","condition":"contingent","relevant_dimensions":["antennae","wings"],"bee_group":{"antennae":"B","wings":"1","pattern":"X","legs":"X"},"action":"avoid","summary":"bad-avoid","bonus":0.7800000000000006},{"rt":430.60000002384186,"stimulus":"\n                    <p><b>Action: <em>avoid</em></b></p>\n                    <p>This is the bee that you just saw.</p>\n                    <img src=\"bees-with-color/bee-A2DF.svg\" width=\"200\">\n                    <p><br>Your bonus pay is unchanged, and remains at $0.42.</p>\n            ","response":0,"trial_type":"html-button-response","trial_index":76,"time_elapsed":226423,"internal_node_id":"0.0-4.0-1.34","subject_id":"602f7f9563f201c656684bfd","study_id":"60edd13110225f80f9f3709b","session_id":"6196c4a4b4537bbb9c2fe7d1","condition":"contingent","relevant_dimensions":["antennae","wings"],"bee_group":{"antennae":"B","wings":"1","pattern":"X","legs":"X"},"bonus":0.7800000000000006},{"rt":767.5,"stimulus":"bees-with-color/bee-B1SF.svg","response":1,"trial_type":"image-button-response","trial_index":77,"time_elapsed":227191,"internal_node_id":"0.0-4.0-0.35","subject_id":"602f7f9563f201c656684bfd","study_id":"60edd13110225f80f9f3709b","session_id":"6196c4a4b4537bbb9c2fe7d1","condition":"contingent","relevant_dimensions":["antennae","wings"],"bee_group":{"antennae":"B","wings":"1","pattern":"X","legs":"X"},"action":"avoid","summary":"good-avoid","bonus":0.7800000000000006},{"rt":439.09999990463257,"stimulus":"\n                    <p><b>Action: <em>avoid</em></b></p>\n                    <p>This is the bee that you just saw.</p>\n                    <img src=\"bees-with-color/bee-B1SF.svg\" width=\"200\">\n                    <p><br>Your bonus pay is unchanged, and remains at $0.42.</p>\n            ","response":0,"trial_type":"html-button-response","trial_index":78,"time_elapsed":227632,"internal_node_id":"0.0-4.0-1.35","subject_id":"602f7f9563f201c656684bfd","study_id":"60edd13110225f80f9f3709b","session_id":"6196c4a4b4537bbb9c2fe7d1","condition":"contingent","relevant_dimensions":["antennae","wings"],"bee_group":{"antennae":"B","wings":"1","pattern":"X","legs":"X"},"bonus":0.7800000000000006},{"rt":959.5,"stimulus":"bees-with-color/bee-A1SM.svg","response":0,"trial_type":"image-button-response","trial_index":79,"time_elapsed":228592,"internal_node_id":"0.0-4.0-0.36","subject_id":"602f7f9563f201c656684bfd","study_id":"60edd13110225f80f9f3709b","session_id":"6196c4a4b4537bbb9c2fe7d1","condition":"contingent","relevant_dimensions":["antennae","wings"],"bee_group":{"antennae":"B","wings":"1","pattern":"X","legs":"X"},"action":"harvest","summary":"good-harvest","bonus":0.7800000000000006},{"rt":543.1000000238419,"stimulus":"\n                    <p><b>Action: <em>harvest</em></b></p>\n                    <p>This is the bee that you just saw.</p>\n                    <img src=\"bees-with-color/bee-A1SM.svg\" width=\"200\">\n                    <p><span class=\"greenText\"><b>Successful harvest!</b></span><br>Your pay has increased by $0.02. Your bonus pay is now $0.44.</p>\n            ","response":0,"trial_type":"html-button-response","trial_index":80,"time_elapsed":229136,"internal_node_id":"0.0-4.0-1.36","subject_id":"602f7f9563f201c656684bfd","study_id":"60edd13110225f80f9f3709b","session_id":"6196c4a4b4537bbb9c2fe7d1","condition":"contingent","relevant_dimensions":["antennae","wings"],"bee_group":{"antennae":"B","wings":"1","pattern":"X","legs":"X"},"bonus":0.7800000000000006},{"rt":495.3000000715256,"stimulus":"bees-with-color/bee-B1SM.svg","response":1,"trial_type":"image-button-response","trial_index":81,"time_elapsed":229632,"internal_node_id":"0.0-4.0-0.37","subject_id":"602f7f9563f201c656684bfd","study_id":"60edd13110225f80f9f3709b","session_id":"6196c4a4b4537bbb9c2fe7d1","condition":"contingent","relevant_dimensions":["antennae","wings"],"bee_group":{"antennae":"B","wings":"1","pattern":"X","legs":"X"},"action":"avoid","summary":"good-avoid","bonus":0.7800000000000006},{"rt":1303.2000000476837,"stimulus":"\n                    <p><b>Action: <em>avoid</em></b></p>\n                    <p>This is the bee that you just saw.</p>\n                    <img src=\"bees-with-color/bee-B1SM.svg\" width=\"200\">\n                    <p><br>Your bonus pay is unchanged, and remains at $0.44.</p>\n            ","response":0,"trial_type":"html-button-response","trial_index":82,"time_elapsed":230936,"internal_node_id":"0.0-4.0-1.37","subject_id":"602f7f9563f201c656684bfd","study_id":"60edd13110225f80f9f3709b","session_id":"6196c4a4b4537bbb9c2fe7d1","condition":"contingent","relevant_dimensions":["antennae","wings"],"bee_group":{"antennae":"B","wings":"1","pattern":"X","legs":"X"},"bonus":0.7800000000000006},{"rt":1422.2999999523163,"stimulus":"bees-with-color/bee-A2DM.svg","response":0,"trial_type":"image-button-response","trial_index":83,"time_elapsed":232359,"internal_node_id":"0.0-4.0-0.38","subject_id":"602f7f9563f201c656684bfd","study_id":"60edd13110225f80f9f3709b","session_id":"6196c4a4b4537bbb9c2fe7d1","condition":"contingent","relevant_dimensions":["antennae","wings"],"bee_group":{"antennae":"B","wings":"1","pattern":"X","legs":"X"},"action":"harvest","summary":"good-harvest","bonus":0.7800000000000006},{"rt":599.5999999046326,"stimulus":"\n                    <p><b>Action: <em>harvest</em></b></p>\n                    <p>This is the bee that you just saw.</p>\n                    <img src=\"bees-with-color/bee-A2DM.svg\" width=\"200\">\n                    <p><span class=\"greenText\"><b>Successful harvest!</b></span><br>Your pay has increased by $0.02. Your bonus pay is now $0.46.</p>\n            ","response":0,"trial_type":"html-button-response","trial_index":84,"time_elapsed":232959,"internal_node_id":"0.0-4.0-1.38","subject_id":"602f7f9563f201c656684bfd","study_id":"60edd13110225f80f9f3709b","session_id":"6196c4a4b4537bbb9c2fe7d1","condition":"contingent","relevant_dimensions":["antennae","wings"],"bee_group":{"antennae":"B","wings":"1","pattern":"X","legs":"X"},"bonus":0.7800000000000006},{"rt":750.8999999761581,"stimulus":"bees-with-color/bee-B2DF.svg","response":1,"trial_type":"image-button-response","trial_index":85,"time_elapsed":233711,"internal_node_id":"0.0-4.0-0.39","subject_id":"602f7f9563f201c656684bfd","study_id":"60edd13110225f80f9f3709b","session_id":"6196c4a4b4537bbb9c2fe7d1","condition":"contingent","relevant_dimensions":["antennae","wings"],"bee_group":{"antennae":"B","wings":"1","pattern":"X","legs":"X"},"action":"avoid","summary":"bad-avoid","bonus":0.7800000000000006},{"rt":591.7999999523163,"stimulus":"\n                    <p><b>Action: <em>avoid</em></b></p>\n                    <p>This is the bee that you just saw.</p>\n                    <img src=\"bees-with-color/bee-B2DF.svg\" width=\"200\">\n                    <p><br>Your bonus pay is unchanged, and remains at $0.46.</p>\n            ","response":0,"trial_type":"html-button-response","trial_index":86,"time_elapsed":234304,"internal_node_id":"0.0-4.0-1.39","subject_id":"602f7f9563f201c656684bfd","study_id":"60edd13110225f80f9f3709b","session_id":"6196c4a4b4537bbb9c2fe7d1","condition":"contingent","relevant_dimensions":["antennae","wings"],"bee_group":{"antennae":"B","wings":"1","pattern":"X","legs":"X"},"bonus":0.7800000000000006},{"rt":766.8999999761581,"stimulus":"bees-with-color/bee-A1DF.svg","response":1,"trial_type":"image-button-response","trial_index":87,"time_elapsed":235072,"internal_node_id":"0.0-4.0-0.40","subject_id":"602f7f9563f201c656684bfd","study_id":"60edd13110225f80f9f3709b","session_id":"6196c4a4b4537bbb9c2fe7d1","condition":"contingent","relevant_dimensions":["antennae","wings"],"bee_group":{"antennae":"B","wings":"1","pattern":"X","legs":"X"},"action":"avoid","summary":"bad-avoid","bonus":0.7800000000000006},{"rt":430.39999997615814,"stimulus":"\n                    <p><b>Action: <em>avoid</em></b></p>\n                    <p>This is the bee that you just saw.</p>\n                    <img src=\"bees-with-color/bee-A1DF.svg\" width=\"200\">\n                    <p><br>Your bonus pay is unchanged, and remains at $0.46.</p>\n            ","response":0,"trial_type":"html-button-response","trial_index":88,"time_elapsed":235503,"internal_node_id":"0.0-4.0-1.40","subject_id":"602f7f9563f201c656684bfd","study_id":"60edd13110225f80f9f3709b","session_id":"6196c4a4b4537bbb9c2fe7d1","condition":"contingent","relevant_dimensions":["antennae","wings"],"bee_group":{"antennae":"B","wings":"1","pattern":"X","legs":"X"},"bonus":0.7800000000000006},{"rt":808.3000000715256,"stimulus":"bees-with-color/bee-B1DF.svg","response":1,"trial_type":"image-button-response","trial_index":89,"time_elapsed":236312,"internal_node_id":"0.0-4.0-0.41","subject_id":"602f7f9563f201c656684bfd","study_id":"60edd13110225f80f9f3709b","session_id":"6196c4a4b4537bbb9c2fe7d1","condition":"contingent","relevant_dimensions":["antennae","wings"],"bee_group":{"antennae":"B","wings":"1","pattern":"X","legs":"X"},"action":"avoid","summary":"good-avoid","bonus":0.7800000000000006},{"rt":511.10000002384186,"stimulus":"\n                    <p><b>Action: <em>avoid</em></b></p>\n                    <p>This is the bee that you just saw.</p>\n                    <img src=\"bees-with-color/bee-B1DF.svg\" width=\"200\">\n                    <p><br>Your bonus pay is unchanged, and remains at $0.46.</p>\n            ","response":0,"trial_type":"html-button-response","trial_index":90,"time_elapsed":236824,"internal_node_id":"0.0-4.0-1.41","subject_id":"602f7f9563f201c656684bfd","study_id":"60edd13110225f80f9f3709b","session_id":"6196c4a4b4537bbb9c2fe7d1","condition":"contingent","relevant_dimensions":["antennae","wings"],"bee_group":{"antennae":"B","wings":"1","pattern":"X","legs":"X"},"bonus":0.7800000000000006},{"rt":847.2999999523163,"stimulus":"bees-with-color/bee-A2SF.svg","response":1,"trial_type":"image-button-response","trial_index":91,"time_elapsed":237672,"internal_node_id":"0.0-4.0-0.42","subject_id":"602f7f9563f201c656684bfd","study_id":"60edd13110225f80f9f3709b","session_id":"6196c4a4b4537bbb9c2fe7d1","condition":"contingent","relevant_dimensions":["antennae","wings"],"bee_group":{"antennae":"B","wings":"1","pattern":"X","legs":"X"},"action":"avoid","summary":"bad-avoid","bonus":0.7800000000000006},{"rt":424.09999990463257,"stimulus":"\n                    <p><b>Action: <em>avoid</em></b></p>\n                    <p>This is the bee that you just saw.</p>\n                    <img src=\"bees-with-color/bee-A2SF.svg\" width=\"200\">\n                    <p><br>Your bonus pay is unchanged, and remains at $0.46.</p>\n            ","response":0,"trial_type":"html-button-response","trial_index":92,"time_elapsed":238097,"internal_node_id":"0.0-4.0-1.42","subject_id":"602f7f9563f201c656684bfd","study_id":"60edd13110225f80f9f3709b","session_id":"6196c4a4b4537bbb9c2fe7d1","condition":"contingent","relevant_dimensions":["antennae","wings"],"bee_group":{"antennae":"B","wings":"1","pattern":"X","legs":"X"},"bonus":0.7800000000000006},{"rt":1165.7999999523163,"stimulus":"bees-with-color/bee-A1DM.svg","response":0,"trial_type":"image-button-response","trial_index":93,"time_elapsed":239263,"internal_node_id":"0.0-4.0-0.43","subject_id":"602f7f9563f201c656684bfd","study_id":"60edd13110225f80f9f3709b","session_id":"6196c4a4b4537bbb9c2fe7d1","condition":"contingent","relevant_dimensions":["antennae","wings"],"bee_group":{"antennae":"B","wings":"1","pattern":"X","legs":"X"},"action":"harvest","summary":"good-harvest","bonus":0.7800000000000006},{"rt":727.3999999761581,"stimulus":"\n                    <p><b>Action: <em>harvest</em></b></p>\n                    <p>This is the bee that you just saw.</p>\n                    <img src=\"bees-with-color/bee-A1DM.svg\" width=\"200\">\n                    <p><span class=\"greenText\"><b>Successful harvest!</b></span><br>Your pay has increased by $0.02. Your bonus pay is now $0.48.</p>\n            ","response":0,"trial_type":"html-button-response","trial_index":94,"time_elapsed":239992,"internal_node_id":"0.0-4.0-1.43","subject_id":"602f7f9563f201c656684bfd","study_id":"60edd13110225f80f9f3709b","session_id":"6196c4a4b4537bbb9c2fe7d1","condition":"contingent","relevant_dimensions":["antennae","wings"],"bee_group":{"antennae":"B","wings":"1","pattern":"X","legs":"X"},"bonus":0.7800000000000006},{"rt":1158.3999999761581,"stimulus":"bees-with-color/bee-B2SM.svg","response":0,"trial_type":"image-button-response","trial_index":95,"time_elapsed":241151,"internal_node_id":"0.0-4.0-0.44","subject_id":"602f7f9563f201c656684bfd","study_id":"60edd13110225f80f9f3709b","session_id":"6196c4a4b4537bbb9c2fe7d1","condition":"contingent","relevant_dimensions":["antennae","wings"],"bee_group":{"antennae":"B","wings":"1","pattern":"X","legs":"X"},"action":"harvest","summary":"good-harvest","bonus":0.7800000000000006},{"rt":600.3000000715256,"stimulus":"\n                    <p><b>Action: <em>harvest</em></b></p>\n                    <p>This is the bee that you just saw.</p>\n                    <img src=\"bees-with-color/bee-B2SM.svg\" width=\"200\">\n                    <p><span class=\"greenText\"><b>Successful harvest!</b></span><br>Your pay has increased by $0.02. Your bonus pay is now $0.50.</p>\n            ","response":0,"trial_type":"html-button-response","trial_index":96,"time_elapsed":241752,"internal_node_id":"0.0-4.0-1.44","subject_id":"602f7f9563f201c656684bfd","study_id":"60edd13110225f80f9f3709b","session_id":"6196c4a4b4537bbb9c2fe7d1","condition":"contingent","relevant_dimensions":["antennae","wings"],"bee_group":{"antennae":"B","wings":"1","pattern":"X","legs":"X"},"bonus":0.7800000000000006},{"rt":806.3000000715256,"stimulus":"bees-with-color/bee-A2SM.svg","response":0,"trial_type":"image-button-response","trial_index":97,"time_elapsed":242559,"internal_node_id":"0.0-4.0-0.45","subject_id":"602f7f9563f201c656684bfd","study_id":"60edd13110225f80f9f3709b","session_id":"6196c4a4b4537bbb9c2fe7d1","condition":"contingent","relevant_dimensions":["antennae","wings"],"bee_group":{"antennae":"B","wings":"1","pattern":"X","legs":"X"},"action":"harvest","summary":"good-harvest","bonus":0.7800000000000006},{"rt":695.5,"stimulus":"\n                    <p><b>Action: <em>harvest</em></b></p>\n                    <p>This is the bee that you just saw.</p>\n                    <img src=\"bees-with-color/bee-A2SM.svg\" width=\"200\">\n                    <p><span class=\"greenText\"><b>Successful harvest!</b></span><br>Your pay has increased by $0.02. Your bonus pay is now $0.52.</p>\n            ","response":0,"trial_type":"html-button-response","trial_index":98,"time_elapsed":243255,"internal_node_id":"0.0-4.0-1.45","subject_id":"602f7f9563f201c656684bfd","study_id":"60edd13110225f80f9f3709b","session_id":"6196c4a4b4537bbb9c2fe7d1","condition":"contingent","relevant_dimensions":["antennae","wings"],"bee_group":{"antennae":"B","wings":"1","pattern":"X","legs":"X"},"bonus":0.7800000000000006},{"rt":1471.1000000238419,"stimulus":"bees-with-color/bee-B1DM.svg","response":1,"trial_type":"image-button-response","trial_index":99,"time_elapsed":244727,"internal_node_id":"0.0-4.0-0.46","subject_id":"602f7f9563f201c656684bfd","study_id":"60edd13110225f80f9f3709b","session_id":"6196c4a4b4537bbb9c2fe7d1","condition":"contingent","relevant_dimensions":["antennae","wings"],"bee_group":{"antennae":"B","wings":"1","pattern":"X","legs":"X"},"action":"avoid","summary":"good-avoid","bonus":0.7800000000000006},{"rt":647.3999999761581,"stimulus":"\n                    <p><b>Action: <em>avoid</em></b></p>\n                    <p>This is the bee that you just saw.</p>\n                    <img src=\"bees-with-color/bee-B1DM.svg\" width=\"200\">\n                    <p><br>Your bonus pay is unchanged, and remains at $0.52.</p>\n            ","response":0,"trial_type":"html-button-response","trial_index":100,"time_elapsed":245376,"internal_node_id":"0.0-4.0-1.46","subject_id":"602f7f9563f201c656684bfd","study_id":"60edd13110225f80f9f3709b","session_id":"6196c4a4b4537bbb9c2fe7d1","condition":"contingent","relevant_dimensions":["antennae","wings"],"bee_group":{"antennae":"B","wings":"1","pattern":"X","legs":"X"},"bonus":0.7800000000000006},{"rt":1159.3000000715256,"stimulus":"bees-with-color/bee-A1SF.svg","response":1,"trial_type":"image-button-response","trial_index":101,"time_elapsed":246536,"internal_node_id":"0.0-4.0-0.47","subject_id":"602f7f9563f201c656684bfd","study_id":"60edd13110225f80f9f3709b","session_id":"6196c4a4b4537bbb9c2fe7d1","condition":"contingent","relevant_dimensions":["antennae","wings"],"bee_group":{"antennae":"B","wings":"1","pattern":"X","legs":"X"},"action":"avoid","summary":"bad-avoid","bonus":0.7800000000000006},{"rt":590.3999999761581,"stimulus":"\n                    <p><b>Action: <em>avoid</em></b></p>\n                    <p>This is the bee that you just saw.</p>\n                    <img src=\"bees-with-color/bee-A1SF.svg\" width=\"200\">\n                    <p><br>Your bonus pay is unchanged, and remains at $0.52.</p>\n            ","response":0,"trial_type":"html-button-response","trial_index":102,"time_elapsed":247127,"internal_node_id":"0.0-4.0-1.47","subject_id":"602f7f9563f201c656684bfd","study_id":"60edd13110225f80f9f3709b","session_id":"6196c4a4b4537bbb9c2fe7d1","condition":"contingent","relevant_dimensions":["antennae","wings"],"bee_group":{"antennae":"B","wings":"1","pattern":"X","legs":"X"},"bonus":0.7800000000000006},{"rt":839.2000000476837,"stimulus":"bees-with-color/bee-B1DF.svg","response":1,"trial_type":"image-button-response","trial_index":103,"time_elapsed":247968,"internal_node_id":"0.0-4.0-0.48","subject_id":"602f7f9563f201c656684bfd","study_id":"60edd13110225f80f9f3709b","session_id":"6196c4a4b4537bbb9c2fe7d1","condition":"contingent","relevant_dimensions":["antennae","wings"],"bee_group":{"antennae":"B","wings":"1","pattern":"X","legs":"X"},"action":"avoid","summary":"good-avoid","bonus":0.7800000000000006},{"rt":455.7999999523163,"stimulus":"\n                    <p><b>Action: <em>avoid</em></b></p>\n                    <p>This is the bee that you just saw.</p>\n                    <img src=\"bees-with-color/bee-B1DF.svg\" width=\"200\">\n                    <p><br>Your bonus pay is unchanged, and remains at $0.52.</p>\n            ","response":0,"trial_type":"html-button-response","trial_index":104,"time_elapsed":248424,"internal_node_id":"0.0-4.0-1.48","subject_id":"602f7f9563f201c656684bfd","study_id":"60edd13110225f80f9f3709b","session_id":"6196c4a4b4537bbb9c2fe7d1","condition":"contingent","relevant_dimensions":["antennae","wings"],"bee_group":{"antennae":"B","wings":"1","pattern":"X","legs":"X"},"bonus":0.7800000000000006},{"rt":790.6999999284744,"stimulus":"bees-with-color/bee-B1SF.svg","response":1,"trial_type":"image-button-response","trial_index":105,"time_elapsed":249216,"internal_node_id":"0.0-4.0-0.49","subject_id":"602f7f9563f201c656684bfd","study_id":"60edd13110225f80f9f3709b","session_id":"6196c4a4b4537bbb9c2fe7d1","condition":"contingent","relevant_dimensions":["antennae","wings"],"bee_group":{"antennae":"B","wings":"1","pattern":"X","legs":"X"},"action":"avoid","summary":"good-avoid","bonus":0.7800000000000006},{"rt":423.2000000476837,"stimulus":"\n                    <p><b>Action: <em>avoid</em></b></p>\n                    <p>This is the bee that you just saw.</p>\n                    <img src=\"bees-with-color/bee-B1SF.svg\" width=\"200\">\n                    <p><br>Your bonus pay is unchanged, and remains at $0.52.</p>\n            ","response":0,"trial_type":"html-button-response","trial_index":106,"time_elapsed":249640,"internal_node_id":"0.0-4.0-1.49","subject_id":"602f7f9563f201c656684bfd","study_id":"60edd13110225f80f9f3709b","session_id":"6196c4a4b4537bbb9c2fe7d1","condition":"contingent","relevant_dimensions":["antennae","wings"],"bee_group":{"antennae":"B","wings":"1","pattern":"X","legs":"X"},"bonus":0.7800000000000006},{"rt":1030.3999999761581,"stimulus":"bees-with-color/bee-A1SM.svg","response":0,"trial_type":"image-button-response","trial_index":107,"time_elapsed":250671,"internal_node_id":"0.0-4.0-0.50","subject_id":"602f7f9563f201c656684bfd","study_id":"60edd13110225f80f9f3709b","session_id":"6196c4a4b4537bbb9c2fe7d1","condition":"contingent","relevant_dimensions":["antennae","wings"],"bee_group":{"antennae":"B","wings":"1","pattern":"X","legs":"X"},"action":"harvest","summary":"good-harvest","bonus":0.7800000000000006},{"rt":799.1000000238419,"stimulus":"\n                    <p><b>Action: <em>harvest</em></b></p>\n                    <p>This is the bee that you just saw.</p>\n                    <img src=\"bees-with-color/bee-A1SM.svg\" width=\"200\">\n                    <p><span class=\"greenText\"><b>Successful harvest!</b></span><br>Your pay has increased by $0.02. Your bonus pay is now $0.54.</p>\n            ","response":0,"trial_type":"html-button-response","trial_index":108,"time_elapsed":251471,"internal_node_id":"0.0-4.0-1.50","subject_id":"602f7f9563f201c656684bfd","study_id":"60edd13110225f80f9f3709b","session_id":"6196c4a4b4537bbb9c2fe7d1","condition":"contingent","relevant_dimensions":["antennae","wings"],"bee_group":{"antennae":"B","wings":"1","pattern":"X","legs":"X"},"bonus":0.7800000000000006},{"rt":1374.7000000476837,"stimulus":"bees-with-color/bee-B2SM.svg","response":0,"trial_type":"image-button-response","trial_index":109,"time_elapsed":252847,"internal_node_id":"0.0-4.0-0.51","subject_id":"602f7f9563f201c656684bfd","study_id":"60edd13110225f80f9f3709b","session_id":"6196c4a4b4537bbb9c2fe7d1","condition":"contingent","relevant_dimensions":["antennae","wings"],"bee_group":{"antennae":"B","wings":"1","pattern":"X","legs":"X"},"action":"harvest","summary":"good-harvest","bonus":0.7800000000000006},{"rt":776,"stimulus":"\n                    <p><b>Action: <em>harvest</em></b></p>\n                    <p>This is the bee that you just saw.</p>\n                    <img src=\"bees-with-color/bee-B2SM.svg\" width=\"200\">\n                    <p><span class=\"greenText\"><b>Successful harvest!</b></span><br>Your pay has increased by $0.02. Your bonus pay is now $0.56.</p>\n            ","response":0,"trial_type":"html-button-response","trial_index":110,"time_elapsed":253624,"internal_node_id":"0.0-4.0-1.51","subject_id":"602f7f9563f201c656684bfd","study_id":"60edd13110225f80f9f3709b","session_id":"6196c4a4b4537bbb9c2fe7d1","condition":"contingent","relevant_dimensions":["antennae","wings"],"bee_group":{"antennae":"B","wings":"1","pattern":"X","legs":"X"},"bonus":0.7800000000000006},{"rt":2376.100000023842,"stimulus":"bees-with-color/bee-B2DM.svg","response":0,"trial_type":"image-button-response","trial_index":111,"time_elapsed":256000,"internal_node_id":"0.0-4.0-0.52","subject_id":"602f7f9563f201c656684bfd","study_id":"60edd13110225f80f9f3709b","session_id":"6196c4a4b4537bbb9c2fe7d1","condition":"contingent","relevant_dimensions":["antennae","wings"],"bee_group":{"antennae":"B","wings":"1","pattern":"X","legs":"X"},"action":"harvest","summary":"good-harvest","bonus":0.7800000000000006},{"rt":622.1000000238419,"stimulus":"\n                    <p><b>Action: <em>harvest</em></b></p>\n                    <p>This is the bee that you just saw.</p>\n                    <img src=\"bees-with-color/bee-B2DM.svg\" width=\"200\">\n                    <p><span class=\"greenText\"><b>Successful harvest!</b></span><br>Your pay has increased by $0.02. Your bonus pay is now $0.58.</p>\n            ","response":0,"trial_type":"html-button-response","trial_index":112,"time_elapsed":256624,"internal_node_id":"0.0-4.0-1.52","subject_id":"602f7f9563f201c656684bfd","study_id":"60edd13110225f80f9f3709b","session_id":"6196c4a4b4537bbb9c2fe7d1","condition":"contingent","relevant_dimensions":["antennae","wings"],"bee_group":{"antennae":"B","wings":"1","pattern":"X","legs":"X"},"bonus":0.7800000000000006},{"rt":1134.9000000953674,"stimulus":"bees-with-color/bee-A1DM.svg","response":1,"trial_type":"image-button-response","trial_index":113,"time_elapsed":257760,"internal_node_id":"0.0-4.0-0.53","subject_id":"602f7f9563f201c656684bfd","study_id":"60edd13110225f80f9f3709b","session_id":"6196c4a4b4537bbb9c2fe7d1","condition":"contingent","relevant_dimensions":["antennae","wings"],"bee_group":{"antennae":"B","wings":"1","pattern":"X","legs":"X"},"action":"avoid","summary":"bad-avoid","bonus":0.7800000000000006},{"rt":566.8999999761581,"stimulus":"\n                    <p><b>Action: <em>avoid</em></b></p>\n                    <p>This is the bee that you just saw.</p>\n                    <img src=\"bees-with-color/bee-A1DM.svg\" width=\"200\">\n                    <p><br>Your bonus pay is unchanged, and remains at $0.58.</p>\n            ","response":0,"trial_type":"html-button-response","trial_index":114,"time_elapsed":258328,"internal_node_id":"0.0-4.0-1.53","subject_id":"602f7f9563f201c656684bfd","study_id":"60edd13110225f80f9f3709b","session_id":"6196c4a4b4537bbb9c2fe7d1","condition":"contingent","relevant_dimensions":["antennae","wings"],"bee_group":{"antennae":"B","wings":"1","pattern":"X","legs":"X"},"bonus":0.7800000000000006},{"rt":830.8999999761581,"stimulus":"bees-with-color/bee-A2DF.svg","response":1,"trial_type":"image-button-response","trial_index":115,"time_elapsed":259159,"internal_node_id":"0.0-4.0-0.54","subject_id":"602f7f9563f201c656684bfd","study_id":"60edd13110225f80f9f3709b","session_id":"6196c4a4b4537bbb9c2fe7d1","condition":"contingent","relevant_dimensions":["antennae","wings"],"bee_group":{"antennae":"B","wings":"1","pattern":"X","legs":"X"},"action":"avoid","summary":"bad-avoid","bonus":0.7800000000000006},{"rt":463.10000002384186,"stimulus":"\n                    <p><b>Action: <em>avoid</em></b></p>\n                    <p>This is the bee that you just saw.</p>\n                    <img src=\"bees-with-color/bee-A2DF.svg\" width=\"200\">\n                    <p><br>Your bonus pay is unchanged, and remains at $0.58.</p>\n            ","response":0,"trial_type":"html-button-response","trial_index":116,"time_elapsed":259624,"internal_node_id":"0.0-4.0-1.54","subject_id":"602f7f9563f201c656684bfd","study_id":"60edd13110225f80f9f3709b","session_id":"6196c4a4b4537bbb9c2fe7d1","condition":"contingent","relevant_dimensions":["antennae","wings"],"bee_group":{"antennae":"B","wings":"1","pattern":"X","legs":"X"},"bonus":0.7800000000000006},{"rt":800.1000000238419,"stimulus":"bees-with-color/bee-A1DF.svg","response":1,"trial_type":"image-button-response","trial_index":117,"time_elapsed":260424,"internal_node_id":"0.0-4.0-0.55","subject_id":"602f7f9563f201c656684bfd","study_id":"60edd13110225f80f9f3709b","session_id":"6196c4a4b4537bbb9c2fe7d1","condition":"contingent","relevant_dimensions":["antennae","wings"],"bee_group":{"antennae":"B","wings":"1","pattern":"X","legs":"X"},"action":"avoid","summary":"bad-avoid","bonus":0.7800000000000006},{"rt":542.1000000238419,"stimulus":"\n                    <p><b>Action: <em>avoid</em></b></p>\n                    <p>This is the bee that you just saw.</p>\n                    <img src=\"bees-with-color/bee-A1DF.svg\" width=\"200\">\n                    <p><br>Your bonus pay is unchanged, and remains at $0.58.</p>\n            ","response":0,"trial_type":"html-button-response","trial_index":118,"time_elapsed":260967,"internal_node_id":"0.0-4.0-1.55","subject_id":"602f7f9563f201c656684bfd","study_id":"60edd13110225f80f9f3709b","session_id":"6196c4a4b4537bbb9c2fe7d1","condition":"contingent","relevant_dimensions":["antennae","wings"],"bee_group":{"antennae":"B","wings":"1","pattern":"X","legs":"X"},"bonus":0.7800000000000006},{"rt":1038.8999999761581,"stimulus":"bees-with-color/bee-B1SM.svg","response":1,"trial_type":"image-button-response","trial_index":119,"time_elapsed":262007,"internal_node_id":"0.0-4.0-0.56","subject_id":"602f7f9563f201c656684bfd","study_id":"60edd13110225f80f9f3709b","session_id":"6196c4a4b4537bbb9c2fe7d1","condition":"contingent","relevant_dimensions":["antennae","wings"],"bee_group":{"antennae":"B","wings":"1","pattern":"X","legs":"X"},"action":"avoid","summary":"good-avoid","bonus":0.7800000000000006},{"rt":438.89999997615814,"stimulus":"\n                    <p><b>Action: <em>avoid</em></b></p>\n                    <p>This is the bee that you just saw.</p>\n                    <img src=\"bees-with-color/bee-B1SM.svg\" width=\"200\">\n                    <p><br>Your bonus pay is unchanged, and remains at $0.58.</p>\n            ","response":0,"trial_type":"html-button-response","trial_index":120,"time_elapsed":262447,"internal_node_id":"0.0-4.0-1.56","subject_id":"602f7f9563f201c656684bfd","study_id":"60edd13110225f80f9f3709b","session_id":"6196c4a4b4537bbb9c2fe7d1","condition":"contingent","relevant_dimensions":["antennae","wings"],"bee_group":{"antennae":"B","wings":"1","pattern":"X","legs":"X"},"bonus":0.7800000000000006},{"rt":1134.8000000715256,"stimulus":"bees-with-color/bee-A2DM.svg","response":0,"trial_type":"image-button-response","trial_index":121,"time_elapsed":263583,"internal_node_id":"0.0-4.0-0.57","subject_id":"602f7f9563f201c656684bfd","study_id":"60edd13110225f80f9f3709b","session_id":"6196c4a4b4537bbb9c2fe7d1","condition":"contingent","relevant_dimensions":["antennae","wings"],"bee_group":{"antennae":"B","wings":"1","pattern":"X","legs":"X"},"action":"harvest","summary":"good-harvest","bonus":0.7800000000000006},{"rt":527.8000000715256,"stimulus":"\n                    <p><b>Action: <em>harvest</em></b></p>\n                    <p>This is the bee that you just saw.</p>\n                    <img src=\"bees-with-color/bee-A2DM.svg\" width=\"200\">\n                    <p><span class=\"greenText\"><b>Successful harvest!</b></span><br>Your pay has increased by $0.02. Your bonus pay is now $0.60.</p>\n            ","response":0,"trial_type":"html-button-response","trial_index":122,"time_elapsed":264111,"internal_node_id":"0.0-4.0-1.57","subject_id":"602f7f9563f201c656684bfd","study_id":"60edd13110225f80f9f3709b","session_id":"6196c4a4b4537bbb9c2fe7d1","condition":"contingent","relevant_dimensions":["antennae","wings"],"bee_group":{"antennae":"B","wings":"1","pattern":"X","legs":"X"},"bonus":0.7800000000000006},{"rt":783.3999999761581,"stimulus":"bees-with-color/bee-B2SF.svg","response":1,"trial_type":"image-button-response","trial_index":123,"time_elapsed":264896,"internal_node_id":"0.0-4.0-0.58","subject_id":"602f7f9563f201c656684bfd","study_id":"60edd13110225f80f9f3709b","session_id":"6196c4a4b4537bbb9c2fe7d1","condition":"contingent","relevant_dimensions":["antennae","wings"],"bee_group":{"antennae":"B","wings":"1","pattern":"X","legs":"X"},"action":"avoid","summary":"bad-avoid","bonus":0.7800000000000006},{"rt":599.5,"stimulus":"\n                    <p><b>Action: <em>avoid</em></b></p>\n                    <p>This is the bee that you just saw.</p>\n                    <img src=\"bees-with-color/bee-B2SF.svg\" width=\"200\">\n                    <p><br>Your bonus pay is unchanged, and remains at $0.60.</p>\n            ","response":0,"trial_type":"html-button-response","trial_index":124,"time_elapsed":265496,"internal_node_id":"0.0-4.0-1.58","subject_id":"602f7f9563f201c656684bfd","study_id":"60edd13110225f80f9f3709b","session_id":"6196c4a4b4537bbb9c2fe7d1","condition":"contingent","relevant_dimensions":["antennae","wings"],"bee_group":{"antennae":"B","wings":"1","pattern":"X","legs":"X"},"bonus":0.7800000000000006},{"rt":982.6000000238419,"stimulus":"bees-with-color/bee-A2SM.svg","response":0,"trial_type":"image-button-response","trial_index":125,"time_elapsed":266479,"internal_node_id":"0.0-4.0-0.59","subject_id":"602f7f9563f201c656684bfd","study_id":"60edd13110225f80f9f3709b","session_id":"6196c4a4b4537bbb9c2fe7d1","condition":"contingent","relevant_dimensions":["antennae","wings"],"bee_group":{"antennae":"B","wings":"1","pattern":"X","legs":"X"},"action":"harvest","summary":"good-harvest","bonus":0.7800000000000006},{"rt":574.8999999761581,"stimulus":"\n                    <p><b>Action: <em>harvest</em></b></p>\n                    <p>This is the bee that you just saw.</p>\n                    <img src=\"bees-with-color/bee-A2SM.svg\" width=\"200\">\n                    <p><span class=\"greenText\"><b>Successful harvest!</b></span><br>Your pay has increased by $0.02. Your bonus pay is now $0.62.</p>\n            ","response":0,"trial_type":"html-button-response","trial_index":126,"time_elapsed":267055,"internal_node_id":"0.0-4.0-1.59","subject_id":"602f7f9563f201c656684bfd","study_id":"60edd13110225f80f9f3709b","session_id":"6196c4a4b4537bbb9c2fe7d1","condition":"contingent","relevant_dimensions":["antennae","wings"],"bee_group":{"antennae":"B","wings":"1","pattern":"X","legs":"X"},"bonus":0.7800000000000006},{"rt":807.6999999284744,"stimulus":"bees-with-color/bee-B2DF.svg","response":1,"trial_type":"image-button-response","trial_index":127,"time_elapsed":267864,"internal_node_id":"0.0-4.0-0.60","subject_id":"602f7f9563f201c656684bfd","study_id":"60edd13110225f80f9f3709b","session_id":"6196c4a4b4537bbb9c2fe7d1","condition":"contingent","relevant_dimensions":["antennae","wings"],"bee_group":{"antennae":"B","wings":"1","pattern":"X","legs":"X"},"action":"avoid","summary":"bad-avoid","bonus":0.7800000000000006},{"rt":574.6000000238419,"stimulus":"\n                    <p><b>Action: <em>avoid</em></b></p>\n                    <p>This is the bee that you just saw.</p>\n                    <img src=\"bees-with-color/bee-B2DF.svg\" width=\"200\">\n                    <p><br>Your bonus pay is unchanged, and remains at $0.62.</p>\n            ","response":0,"trial_type":"html-button-response","trial_index":128,"time_elapsed":268439,"internal_node_id":"0.0-4.0-1.60","subject_id":"602f7f9563f201c656684bfd","study_id":"60edd13110225f80f9f3709b","session_id":"6196c4a4b4537bbb9c2fe7d1","condition":"contingent","relevant_dimensions":["antennae","wings"],"bee_group":{"antennae":"B","wings":"1","pattern":"X","legs":"X"},"bonus":0.7800000000000006},{"rt":1055.5,"stimulus":"bees-with-color/bee-A2SF.svg","response":1,"trial_type":"image-button-response","trial_index":129,"time_elapsed":269496,"internal_node_id":"0.0-4.0-0.61","subject_id":"602f7f9563f201c656684bfd","study_id":"60edd13110225f80f9f3709b","session_id":"6196c4a4b4537bbb9c2fe7d1","condition":"contingent","relevant_dimensions":["antennae","wings"],"bee_group":{"antennae":"B","wings":"1","pattern":"X","legs":"X"},"action":"avoid","summary":"bad-avoid","bonus":0.7800000000000006},{"rt":504.10000002384186,"stimulus":"\n                    <p><b>Action: <em>avoid</em></b></p>\n                    <p>This is the bee that you just saw.</p>\n                    <img src=\"bees-with-color/bee-A2SF.svg\" width=\"200\">\n                    <p><br>Your bonus pay is unchanged, and remains at $0.62.</p>\n            ","response":0,"trial_type":"html-button-response","trial_index":130,"time_elapsed":270000,"internal_node_id":"0.0-4.0-1.61","subject_id":"602f7f9563f201c656684bfd","study_id":"60edd13110225f80f9f3709b","session_id":"6196c4a4b4537bbb9c2fe7d1","condition":"contingent","relevant_dimensions":["antennae","wings"],"bee_group":{"antennae":"B","wings":"1","pattern":"X","legs":"X"},"bonus":0.7800000000000006},{"rt":813.7000000476837,"stimulus":"bees-with-color/bee-A1SF.svg","response":1,"trial_type":"image-button-response","trial_index":131,"time_elapsed":270815,"internal_node_id":"0.0-4.0-0.62","subject_id":"602f7f9563f201c656684bfd","study_id":"60edd13110225f80f9f3709b","session_id":"6196c4a4b4537bbb9c2fe7d1","condition":"contingent","relevant_dimensions":["antennae","wings"],"bee_group":{"antennae":"B","wings":"1","pattern":"X","legs":"X"},"action":"avoid","summary":"bad-avoid","bonus":0.7800000000000006},{"rt":432,"stimulus":"\n                    <p><b>Action: <em>avoid</em></b></p>\n                    <p>This is the bee that you just saw.</p>\n                    <img src=\"bees-with-color/bee-A1SF.svg\" width=\"200\">\n                    <p><br>Your bonus pay is unchanged, and remains at $0.62.</p>\n            ","response":0,"trial_type":"html-button-response","trial_index":132,"time_elapsed":271248,"internal_node_id":"0.0-4.0-1.62","subject_id":"602f7f9563f201c656684bfd","study_id":"60edd13110225f80f9f3709b","session_id":"6196c4a4b4537bbb9c2fe7d1","condition":"contingent","relevant_dimensions":["antennae","wings"],"bee_group":{"antennae":"B","wings":"1","pattern":"X","legs":"X"},"bonus":0.7800000000000006},{"rt":926.6999999284744,"stimulus":"bees-with-color/bee-B1DM.svg","response":1,"trial_type":"image-button-response","trial_index":133,"time_elapsed":272175,"internal_node_id":"0.0-4.0-0.63","subject_id":"602f7f9563f201c656684bfd","study_id":"60edd13110225f80f9f3709b","session_id":"6196c4a4b4537bbb9c2fe7d1","condition":"contingent","relevant_dimensions":["antennae","wings"],"bee_group":{"antennae":"B","wings":"1","pattern":"X","legs":"X"},"action":"avoid","summary":"good-avoid","bonus":0.7800000000000006},{"rt":383,"stimulus":"\n                    <p><b>Action: <em>avoid</em></b></p>\n                    <p>This is the bee that you just saw.</p>\n                    <img src=\"bees-with-color/bee-B1DM.svg\" width=\"200\">\n                    <p><br>Your bonus pay is unchanged, and remains at $0.62.</p>\n            ","response":0,"trial_type":"html-button-response","trial_index":134,"time_elapsed":272559,"internal_node_id":"0.0-4.0-1.63","subject_id":"602f7f9563f201c656684bfd","study_id":"60edd13110225f80f9f3709b","session_id":"6196c4a4b4537bbb9c2fe7d1","condition":"contingent","relevant_dimensions":["antennae","wings"],"bee_group":{"antennae":"B","wings":"1","pattern":"X","legs":"X"},"bonus":0.7800000000000006},{"rt":5129.200000047684,"stimulus":"You have completed the first part of this experiment.<br><br>You will now begin a shorter second part, in which you will receive no feedback.<br>The same rules regarding bonus pay apply.<br><br>Press any key to begin.","response":" ","trial_type":"html-keyboard-response","trial_index":135,"time_elapsed":277689,"internal_node_id":"0.0-5.0","subject_id":"602f7f9563f201c656684bfd","study_id":"60edd13110225f80f9f3709b","session_id":"6196c4a4b4537bbb9c2fe7d1","condition":"contingent","relevant_dimensions":["antennae","wings"],"bee_group":{"antennae":"B","wings":"1","pattern":"X","legs":"X"},"bonus":0.7800000000000006},{"rt":3498.6999999284744,"stimulus":"bees-with-color/bee-B2DM.svg","response":0,"trial_type":"image-button-response","trial_index":136,"time_elapsed":281191,"internal_node_id":"0.0-6.0-0.0","subject_id":"602f7f9563f201c656684bfd","study_id":"60edd13110225f80f9f3709b","session_id":"6196c4a4b4537bbb9c2fe7d1","condition":"contingent","relevant_dimensions":["antennae","wings"],"bee_group":{"antennae":"B","wings":"1","pattern":"X","legs":"X"},"bonus":0.7800000000000006},{"rt":4167.799999952316,"stimulus":"bees-with-color/bee-A2DF.svg","response":1,"trial_type":"image-button-response","trial_index":137,"time_elapsed":285360,"internal_node_id":"0.0-6.0-0.1","subject_id":"602f7f9563f201c656684bfd","study_id":"60edd13110225f80f9f3709b","session_id":"6196c4a4b4537bbb9c2fe7d1","condition":"contingent","relevant_dimensions":["antennae","wings"],"bee_group":{"antennae":"B","wings":"1","pattern":"X","legs":"X"},"bonus":0.7800000000000006},{"rt":1750.4000000953674,"stimulus":"bees-with-color/bee-B2SM.svg","response":0,"trial_type":"image-button-response","trial_index":138,"time_elapsed":287112,"internal_node_id":"0.0-6.0-0.2","subject_id":"602f7f9563f201c656684bfd","study_id":"60edd13110225f80f9f3709b","session_id":"6196c4a4b4537bbb9c2fe7d1","condition":"contingent","relevant_dimensions":["antennae","wings"],"bee_group":{"antennae":"B","wings":"1","pattern":"X","legs":"X"},"bonus":0.7800000000000006},{"rt":2709.899999976158,"stimulus":"bees-with-color/bee-A1SM.svg","response":1,"trial_type":"image-button-response","trial_index":139,"time_elapsed":289823,"internal_node_id":"0.0-6.0-0.3","subject_id":"602f7f9563f201c656684bfd","study_id":"60edd13110225f80f9f3709b","session_id":"6196c4a4b4537bbb9c2fe7d1","condition":"contingent","relevant_dimensions":["antennae","wings"],"bee_group":{"antennae":"B","wings":"1","pattern":"X","legs":"X"},"bonus":0.7800000000000006},{"rt":918.5,"stimulus":"bees-with-color/bee-B1DF.svg","response":1,"trial_type":"image-button-response","trial_index":140,"time_elapsed":290743,"internal_node_id":"0.0-6.0-0.4","subject_id":"602f7f9563f201c656684bfd","study_id":"60edd13110225f80f9f3709b","session_id":"6196c4a4b4537bbb9c2fe7d1","condition":"contingent","relevant_dimensions":["antennae","wings"],"bee_group":{"antennae":"B","wings":"1","pattern":"X","legs":"X"},"bonus":0.7800000000000006},{"rt":823,"stimulus":"bees-with-color/bee-A2SF.svg","response":1,"trial_type":"image-button-response","trial_index":141,"time_elapsed":291567,"internal_node_id":"0.0-6.0-0.5","subject_id":"602f7f9563f201c656684bfd","study_id":"60edd13110225f80f9f3709b","session_id":"6196c4a4b4537bbb9c2fe7d1","condition":"contingent","relevant_dimensions":["antennae","wings"],"bee_group":{"antennae":"B","wings":"1","pattern":"X","legs":"X"},"bonus":0.7800000000000006},{"rt":1046.7000000476837,"stimulus":"bees-with-color/bee-B1SM.svg","response":1,"trial_type":"image-button-response","trial_index":142,"time_elapsed":292615,"internal_node_id":"0.0-6.0-0.6","subject_id":"602f7f9563f201c656684bfd","study_id":"60edd13110225f80f9f3709b","session_id":"6196c4a4b4537bbb9c2fe7d1","condition":"contingent","relevant_dimensions":["antennae","wings"],"bee_group":{"antennae":"B","wings":"1","pattern":"X","legs":"X"},"bonus":0.7800000000000006},{"rt":1471.3999999761581,"stimulus":"bees-with-color/bee-A2SM.svg","response":0,"trial_type":"image-button-response","trial_index":143,"time_elapsed":294088,"internal_node_id":"0.0-6.0-0.7","subject_id":"602f7f9563f201c656684bfd","study_id":"60edd13110225f80f9f3709b","session_id":"6196c4a4b4537bbb9c2fe7d1","condition":"contingent","relevant_dimensions":["antennae","wings"],"bee_group":{"antennae":"B","wings":"1","pattern":"X","legs":"X"},"bonus":0.7800000000000006},{"rt":1519.1999999284744,"stimulus":"bees-with-color/bee-B2SF.svg","response":1,"trial_type":"image-button-response","trial_index":144,"time_elapsed":295608,"internal_node_id":"0.0-6.0-0.8","subject_id":"602f7f9563f201c656684bfd","study_id":"60edd13110225f80f9f3709b","session_id":"6196c4a4b4537bbb9c2fe7d1","condition":"contingent","relevant_dimensions":["antennae","wings"],"bee_group":{"antennae":"B","wings":"1","pattern":"X","legs":"X"},"bonus":0.7800000000000006},{"rt":790.2999999523163,"stimulus":"bees-with-color/bee-A1DF.svg","response":1,"trial_type":"image-button-response","trial_index":145,"time_elapsed":296400,"internal_node_id":"0.0-6.0-0.9","subject_id":"602f7f9563f201c656684bfd","study_id":"60edd13110225f80f9f3709b","session_id":"6196c4a4b4537bbb9c2fe7d1","condition":"contingent","relevant_dimensions":["antennae","wings"],"bee_group":{"antennae":"B","wings":"1","pattern":"X","legs":"X"},"bonus":0.7800000000000006},{"rt":3103.100000023842,"stimulus":"bees-with-color/bee-B1DM.svg","response":1,"trial_type":"image-button-response","trial_index":146,"time_elapsed":299504,"internal_node_id":"0.0-6.0-0.10","subject_id":"602f7f9563f201c656684bfd","study_id":"60edd13110225f80f9f3709b","session_id":"6196c4a4b4537bbb9c2fe7d1","condition":"contingent","relevant_dimensions":["antennae","wings"],"bee_group":{"antennae":"B","wings":"1","pattern":"X","legs":"X"},"bonus":0.7800000000000006},{"rt":742.3000000715256,"stimulus":"bees-with-color/bee-B2DF.svg","response":1,"trial_type":"image-button-response","trial_index":147,"time_elapsed":300247,"internal_node_id":"0.0-6.0-0.11","subject_id":"602f7f9563f201c656684bfd","study_id":"60edd13110225f80f9f3709b","session_id":"6196c4a4b4537bbb9c2fe7d1","condition":"contingent","relevant_dimensions":["antennae","wings"],"bee_group":{"antennae":"B","wings":"1","pattern":"X","legs":"X"},"bonus":0.7800000000000006},{"rt":702.3999999761581,"stimulus":"bees-with-color/bee-B1SF.svg","response":1,"trial_type":"image-button-response","trial_index":148,"time_elapsed":300951,"internal_node_id":"0.0-6.0-0.12","subject_id":"602f7f9563f201c656684bfd","study_id":"60edd13110225f80f9f3709b","session_id":"6196c4a4b4537bbb9c2fe7d1","condition":"contingent","relevant_dimensions":["antennae","wings"],"bee_group":{"antennae":"B","wings":"1","pattern":"X","legs":"X"},"bonus":0.7800000000000006},{"rt":1278.8999999761581,"stimulus":"bees-with-color/bee-A1DM.svg","response":1,"trial_type":"image-button-response","trial_index":149,"time_elapsed":302231,"internal_node_id":"0.0-6.0-0.13","subject_id":"602f7f9563f201c656684bfd","study_id":"60edd13110225f80f9f3709b","session_id":"6196c4a4b4537bbb9c2fe7d1","condition":"contingent","relevant_dimensions":["antennae","wings"],"bee_group":{"antennae":"B","wings":"1","pattern":"X","legs":"X"},"bonus":0.7800000000000006},{"rt":727,"stimulus":"bees-with-color/bee-A1SF.svg","response":1,"trial_type":"image-button-response","trial_index":150,"time_elapsed":302959,"internal_node_id":"0.0-6.0-0.14","subject_id":"602f7f9563f201c656684bfd","study_id":"60edd13110225f80f9f3709b","session_id":"6196c4a4b4537bbb9c2fe7d1","condition":"contingent","relevant_dimensions":["antennae","wings"],"bee_group":{"antennae":"B","wings":"1","pattern":"X","legs":"X"},"bonus":0.7800000000000006},{"rt":1175.6999999284744,"stimulus":"bees-with-color/bee-A2DM.svg","response":0,"trial_type":"image-button-response","trial_index":151,"time_elapsed":304136,"internal_node_id":"0.0-6.0-0.15","subject_id":"602f7f9563f201c656684bfd","study_id":"60edd13110225f80f9f3709b","session_id":"6196c4a4b4537bbb9c2fe7d1","condition":"contingent","relevant_dimensions":["antennae","wings"],"bee_group":{"antennae":"B","wings":"1","pattern":"X","legs":"X"},"bonus":0.7800000000000006},{"rt":670.3000000715256,"stimulus":"bees-with-color/bee-A1SF.svg","response":1,"trial_type":"image-button-response","trial_index":152,"time_elapsed":304808,"internal_node_id":"0.0-6.0-0.16","subject_id":"602f7f9563f201c656684bfd","study_id":"60edd13110225f80f9f3709b","session_id":"6196c4a4b4537bbb9c2fe7d1","condition":"contingent","relevant_dimensions":["antennae","wings"],"bee_group":{"antennae":"B","wings":"1","pattern":"X","legs":"X"},"bonus":0.7800000000000006},{"rt":910.0999999046326,"stimulus":"bees-with-color/bee-B1DM.svg","response":1,"trial_type":"image-button-response","trial_index":153,"time_elapsed":305719,"internal_node_id":"0.0-6.0-0.17","subject_id":"602f7f9563f201c656684bfd","study_id":"60edd13110225f80f9f3709b","session_id":"6196c4a4b4537bbb9c2fe7d1","condition":"contingent","relevant_dimensions":["antennae","wings"],"bee_group":{"antennae":"B","wings":"1","pattern":"X","legs":"X"},"bonus":0.7800000000000006},{"rt":679.7000000476837,"stimulus":"bees-with-color/bee-A2DM.svg","response":0,"trial_type":"image-button-response","trial_index":154,"time_elapsed":306400,"internal_node_id":"0.0-6.0-0.18","subject_id":"602f7f9563f201c656684bfd","study_id":"60edd13110225f80f9f3709b","session_id":"6196c4a4b4537bbb9c2fe7d1","condition":"contingent","relevant_dimensions":["antennae","wings"],"bee_group":{"antennae":"B","wings":"1","pattern":"X","legs":"X"},"bonus":0.7800000000000006},{"rt":799.7999999523163,"stimulus":"bees-with-color/bee-A2SM.svg","response":0,"trial_type":"image-button-response","trial_index":155,"time_elapsed":307201,"internal_node_id":"0.0-6.0-0.19","subject_id":"602f7f9563f201c656684bfd","study_id":"60edd13110225f80f9f3709b","session_id":"6196c4a4b4537bbb9c2fe7d1","condition":"contingent","relevant_dimensions":["antennae","wings"],"bee_group":{"antennae":"B","wings":"1","pattern":"X","legs":"X"},"bonus":0.7800000000000006},{"rt":757.7999999523163,"stimulus":"bees-with-color/bee-B2SF.svg","response":1,"trial_type":"image-button-response","trial_index":156,"time_elapsed":307960,"internal_node_id":"0.0-6.0-0.20","subject_id":"602f7f9563f201c656684bfd","study_id":"60edd13110225f80f9f3709b","session_id":"6196c4a4b4537bbb9c2fe7d1","condition":"contingent","relevant_dimensions":["antennae","wings"],"bee_group":{"antennae":"B","wings":"1","pattern":"X","legs":"X"},"bonus":0.7800000000000006},{"rt":735.1999999284744,"stimulus":"bees-with-color/bee-A1DF.svg","response":1,"trial_type":"image-button-response","trial_index":157,"time_elapsed":308696,"internal_node_id":"0.0-6.0-0.21","subject_id":"602f7f9563f201c656684bfd","study_id":"60edd13110225f80f9f3709b","session_id":"6196c4a4b4537bbb9c2fe7d1","condition":"contingent","relevant_dimensions":["antennae","wings"],"bee_group":{"antennae":"B","wings":"1","pattern":"X","legs":"X"},"bonus":0.7800000000000006},{"rt":1326.1999999284744,"stimulus":"bees-with-color/bee-A1SM.svg","response":1,"trial_type":"image-button-response","trial_index":158,"time_elapsed":310024,"internal_node_id":"0.0-6.0-0.22","subject_id":"602f7f9563f201c656684bfd","study_id":"60edd13110225f80f9f3709b","session_id":"6196c4a4b4537bbb9c2fe7d1","condition":"contingent","relevant_dimensions":["antennae","wings"],"bee_group":{"antennae":"B","wings":"1","pattern":"X","legs":"X"},"bonus":0.7800000000000006},{"rt":751.1000000238419,"stimulus":"bees-with-color/bee-B1DF.svg","response":1,"trial_type":"image-button-response","trial_index":159,"time_elapsed":310776,"internal_node_id":"0.0-6.0-0.23","subject_id":"602f7f9563f201c656684bfd","study_id":"60edd13110225f80f9f3709b","session_id":"6196c4a4b4537bbb9c2fe7d1","condition":"contingent","relevant_dimensions":["antennae","wings"],"bee_group":{"antennae":"B","wings":"1","pattern":"X","legs":"X"},"bonus":0.7800000000000006},{"rt":1950.2000000476837,"stimulus":"bees-with-color/bee-A2SF.svg","response":1,"trial_type":"image-button-response","trial_index":160,"time_elapsed":312727,"internal_node_id":"0.0-6.0-0.24","subject_id":"602f7f9563f201c656684bfd","study_id":"60edd13110225f80f9f3709b","session_id":"6196c4a4b4537bbb9c2fe7d1","condition":"contingent","relevant_dimensions":["antennae","wings"],"bee_group":{"antennae":"B","wings":"1","pattern":"X","legs":"X"},"bonus":0.7800000000000006},{"rt":503.5,"stimulus":"bees-with-color/bee-B1SF.svg","response":1,"trial_type":"image-button-response","trial_index":161,"time_elapsed":313231,"internal_node_id":"0.0-6.0-0.25","subject_id":"602f7f9563f201c656684bfd","study_id":"60edd13110225f80f9f3709b","session_id":"6196c4a4b4537bbb9c2fe7d1","condition":"contingent","relevant_dimensions":["antennae","wings"],"bee_group":{"antennae":"B","wings":"1","pattern":"X","legs":"X"},"bonus":0.7800000000000006},{"rt":655.4000000953674,"stimulus":"bees-with-color/bee-B2DF.svg","response":1,"trial_type":"image-button-response","trial_index":162,"time_elapsed":313888,"internal_node_id":"0.0-6.0-0.26","subject_id":"602f7f9563f201c656684bfd","study_id":"60edd13110225f80f9f3709b","session_id":"6196c4a4b4537bbb9c2fe7d1","condition":"contingent","relevant_dimensions":["antennae","wings"],"bee_group":{"antennae":"B","wings":"1","pattern":"X","legs":"X"},"bonus":0.7800000000000006},{"rt":734.3999999761581,"stimulus":"bees-with-color/bee-A2DF.svg","response":1,"trial_type":"image-button-response","trial_index":163,"time_elapsed":314623,"internal_node_id":"0.0-6.0-0.27","subject_id":"602f7f9563f201c656684bfd","study_id":"60edd13110225f80f9f3709b","session_id":"6196c4a4b4537bbb9c2fe7d1","condition":"contingent","relevant_dimensions":["antennae","wings"],"bee_group":{"antennae":"B","wings":"1","pattern":"X","legs":"X"},"bonus":0.7800000000000006},{"rt":1087.3999999761581,"stimulus":"bees-with-color/bee-A1DM.svg","response":1,"trial_type":"image-button-response","trial_index":164,"time_elapsed":315712,"internal_node_id":"0.0-6.0-0.28","subject_id":"602f7f9563f201c656684bfd","study_id":"60edd13110225f80f9f3709b","session_id":"6196c4a4b4537bbb9c2fe7d1","condition":"contingent","relevant_dimensions":["antennae","wings"],"bee_group":{"antennae":"B","wings":"1","pattern":"X","legs":"X"},"bonus":0.7800000000000006},{"rt":1494.6000000238419,"stimulus":"bees-with-color/bee-B2SM.svg","response":0,"trial_type":"image-button-response","trial_index":165,"time_elapsed":317207,"internal_node_id":"0.0-6.0-0.29","subject_id":"602f7f9563f201c656684bfd","study_id":"60edd13110225f80f9f3709b","session_id":"6196c4a4b4537bbb9c2fe7d1","condition":"contingent","relevant_dimensions":["antennae","wings"],"bee_group":{"antennae":"B","wings":"1","pat