[{"success":true,"trial_type":"fullscreen","trial_index":0,"time_elapsed":15145,"internal_node_id":"0.0-0.0","subject_id":"6130bde304c92dc7a19fc8d1","study_id":"6197b3f67c2b5cd3b6d9596a","session_id":"619be41f3a1a6700d791c850","condition":"contingent","relevant_dimensions":["wings","legs"],"bee_group":{"antennae":"X","wings":"2","pattern":"X","legs":"F"},"bonus":0.02},{"success":true,"timeout":false,"failed_images":[],"failed_audio":[],"failed_video":[],"trial_type":"preload","trial_index":1,"time_elapsed":19956,"internal_node_id":"0.0-1.0","subject_id":"6130bde304c92dc7a19fc8d1","study_id":"6197b3f67c2b5cd3b6d9596a","session_id":"619be41f3a1a6700d791c850","condition":"contingent","relevant_dimensions":["wings","legs"],"bee_group":{"antennae":"X","wings":"2","pattern":"X","legs":"F"},"bonus":0.02},{"rt":2922.39999999851,"stimulus":"Welcome! Press any key to begin.","response":" ","trial_type":"html-keyboard-response","trial_index":2,"time_elapsed":22881,"internal_node_id":"0.0-2.0","subject_id":"6130bde304c92dc7a19fc8d1","study_id":"6197b3f67c2b5cd3b6d9596a","session_id":"619be41f3a1a6700d791c850","condition":"contingent","relevant_dimensions":["wings","legs"],"bee_group":{"antennae":"X","wings":"2","pattern":"X","legs":"F"},"bonus":0.02},{"view_history":[{"page_index":0,"viewing_time":13462.800000000745},{"page_index":1,"viewing_time":23307.699999999255},{"page_index":2,"viewing_time":18770.599999997765},{"page_index":3,"viewing_time":27883},{"page_index":4,"viewing_time":11943.800000000745},{"page_index":5,"viewing_time":13103.10000000149},{"page_index":6,"viewing_time":23808.89999999851},{"page_index":7,"viewing_time":10610.5},{"page_index":8,"viewing_time":5744.400000002235},{"page_index":9,"viewing_time":4569.5},{"page_index":10,"viewing_time":5502},{"page_index":11,"viewing_time":14269.199999999255},{"page_index":12,"viewing_time":19044.39999999851},{"page_index":13,"viewing_time":2124.800000000745},{"page_index":14,"viewing_time":3808.699999999255}],"rt":197953.80000000075,"trial_type":"instructions","trial_index":3,"time_elapsed":220836,"internal_node_id":"0.0-3.0-0.0","subject_id":"6130bde304c92dc7a19fc8d1","study_id":"6197b3f67c2b5cd3b6d9596a","session_id":"619be41f3a1a6700d791c850","condition":"contingent","relevant_dimensions":["wings","legs"],"bee_group":{"antennae":"X","wings":"2","pattern":"X","legs":"F"},"bonus":0.02},{"rt":46784.099999997765,"response":{"Q0":["Two or six legs","Stripes or spots on body","Stinger or no stinger","Single or double wings"]},"question_order":[0],"trial_type":"survey-multi-select","trial_index":4,"time_elapsed":267625,"internal_node_id":"0.0-3.0-1.0","subject_id":"6130bde304c92dc7a19fc8d1","study_id":"6197b3f67c2b5cd3b6d9596a","session_id":"619be41f3a1a6700d791c850","condition":"contingent","relevant_dimensions":["wings","legs"],"bee_group":{"antennae":"X","wings":"2","pattern":"X","legs":"F"},"correct":false,"bonus":0.02},{"rt":35973.400000002235,"response":{"Q1":"No.","Q2":"Based on the four features of the bee.","Q3":"You do not learn if it was friendly or dangerous, and do not alter your bonus."},"question_order":[0,1,2],"trial_type":"survey-multi-choice","trial_index":5,"time_elapsed":303602,"internal_node_id":"0.0-3.0-2.0","subject_id":"6130bde304c92dc7a19fc8d1","study_id":"6197b3f67c2b5cd3b6d9596a","session_id":"619be41f3a1a6700d791c850","condition":"contingent","relevant_dimensions":["wings","legs"],"bee_group":{"antennae":"X","wings":"2","pattern":"X","legs":"F"},"correct":true,"bonus":0.02},{"rt":5452.20000000298,"stimulus":"<p>You did not answer all comprehension questions correctly.<br>Press <b>continue</b> to review the instructions again.</p>","response":0,"trial_type":"html-button-response","trial_index":6,"time_elapsed":309057,"internal_node_id":"0.0-3.0-3.0","subject_id":"6130bde304c92dc7a19fc8d1","study_id":"6197b3f67c2b5cd3b6d9596a","session_id":"619be41f3a1a6700d791c850","condition":"contingent","relevant_dimensions":["wings","legs"],"bee_group":{"antennae":"X","wings":"2","pattern":"X","legs":"F"},"bonus":0.02},{"view_history":[{"page_index":0,"viewing_time":37454.10000000149},{"page_index":1,"viewing_time":5765.300000000745},{"page_index":2,"viewing_time":4525.89999999851},{"page_index":3,"viewing_time":4237.60000000149},{"page_index":4,"viewing_time":3712.89999999851},{"page_index":5,"viewing_time":3912},{"page_index":6,"viewing_time":3584.60000000149},{"page_index":7,"viewing_time":4477.300000000745},{"page_index":8,"viewing_time":3433.39999999851},{"page_index":9,"viewing_time":3432.10000000149},{"page_index":10,"viewing_time":3680},{"page_index":11,"viewing_time":4136.29999999702},{"page_index":12,"viewing_time":3884},{"page_index":13,"viewing_time":1871.800000000745},{"page_index":14,"viewing_time":1893.699999999255}],"rt":90001.20000000298,"trial_type":"instructions","trial_index":7,"time_elapsed":399060,"internal_node_id":"0.0-3.0-4.0-0.0","subject_id":"6130bde304c92dc7a19fc8d1","study_id":"6197b3f67c2b5cd3b6d9596a","session_id":"619be41f3a1a6700d791c850","condition":"contingent","relevant_dimensions":["wings","legs"],"bee_group":{"antennae":"X","wings":"2","pattern":"X","legs":"F"},"bonus":0.02},{"rt":65332,"response":{"Q0":["Two or six legs","Stripes or spots on body","Single or double wings","Antennae or no antennae"]},"question_order":[0],"trial_type":"survey-multi-select","trial_index":8,"time_elapsed":464396,"internal_node_id":"0.0-3.0-4.0-1.0","subject_id":"6130bde304c92dc7a19fc8d1","study_id":"6197b3f67c2b5cd3b6d9596a","session_id":"619be41f3a1a6700d791c850","condition":"contingent","relevant_dimensions":["wings","legs"],"bee_group":{"antennae":"X","wings":"2","pattern":"X","legs":"F"},"correct":true,"bonus":0.02},{"rt":114165,"response":{"Q1":"No.","Q2":"Based on the four features of the bee.","Q3":"You do not learn if it was friendly or dangerous, and do not alter your bonus."},"question_order":[0,1,2],"trial_type":"survey-multi-choice","trial_index":9,"time_elapsed":578564,"internal_node_id":"0.0-3.0-4.0-2.0","subject_id":"6130bde304c92dc7a19fc8d1","study_id":"6197b3f67c2b5cd3b6d9596a","session_id":"619be41f3a1a6700d791c850","condition":"contingent","relevant_dimensions":["wings","legs"],"bee_group":{"antennae":"X","wings":"2","pattern":"X","legs":"F"},"correct":true,"bonus":0.02},{"rt":2565.300000000745,"stimulus":"<p>Congrats, you got everything right<br>When you're ready, click the button below to continue to the experiment.</p>","response":0,"trial_type":"html-button-response","trial_index":10,"time_elapsed":581131,"internal_node_id":"0.0-3.0-4.0-3.0","subject_id":"6130bde304c92dc7a19fc8d1","study_id":"6197b3f67c2b5cd3b6d9596a","session_id":"619be41f3a1a6700d791c850","condition":"contingent","relevant_dimensions":["wings","legs"],"bee_group":{"antennae":"X","wings":"2","pattern":"X","legs":"F"},"bonus":0.02},{"rt":16344.10000000149,"stimulus":"bees-with-color/bee-B1SM.svg","response":0,"trial_type":"image-button-response","trial_index":11,"time_elapsed":597479,"internal_node_id":"0.0-4.0-0.0","subject_id":"6130bde304c92dc7a19fc8d1","study_id":"6197b3f67c2b5cd3b6d9596a","session_id":"619be41f3a1a6700d791c850","condition":"contingent","relevant_dimensions":["wings","legs"],"bee_group":{"antennae":"X","wings":"2","pattern":"X","legs":"F"},"action":"harvest","summary":"good-harvest","bonus":0.02},{"rt":19977.400000002235,"stimulus":"\n                    <p><b>Action: <em>harvest</em></b></p>\n                    <p>This is the bee that you just saw.</p>\n                    <img src=\"bees-with-color/bee-B1SM.svg\" width=\"200\">\n                    <p><span class=\"greenText\"><b>Successful harvest!</b></span><br>Your pay has increased by $0.02. Your bonus pay is now $0.56.</p>\n            ","response":0,"trial_type":"html-button-response","trial_index":12,"time_elapsed":617460,"internal_node_id":"0.0-4.0-1.0","subject_id":"6130bde304c92dc7a19fc8d1","study_id":"6197b3f67c2b5cd3b6d9596a","session_id":"619be41f3a1a6700d791c850","condition":"contingent","relevant_dimensions":["wings","legs"],"bee_group":{"antennae":"X","wings":"2","pattern":"X","legs":"F"},"bonus":0.02},{"rt":7444.5,"stimulus":"bees-with-color/bee-A1SF.svg","response":1,"trial_type":"image-button-response","trial_index":13,"time_elapsed":624907,"internal_node_id":"0.0-4.0-0.1","subject_id":"6130bde304c92dc7a19fc8d1","study_id":"6197b3f67c2b5cd3b6d9596a","session_id":"619be41f3a1a6700d791c850","condition":"contingent","relevant_dimensions":["wings","legs"],"bee_group":{"antennae":"X","wings":"2","pattern":"X","legs":"F"},"action":"avoid","summary":"bad-avoid","bonus":0.02},{"rt":9918.10000000149,"stimulus":"\n                    <p><b>Action: <em>avoid</em></b></p>\n                    <p>This is the bee that you just saw.</p>\n                    <img src=\"bees-with-color/bee-A1SF.svg\" width=\"200\">\n                    <p><br>Your bonus pay is unchanged, and remains at $0.56.</p>\n            ","response":0,"trial_type":"html-button-response","trial_index":14,"time_elapsed":634827,"internal_node_id":"0.0-4.0-1.1","subject_id":"6130bde304c92dc7a19fc8d1","study_id":"6197b3f67c2b5cd3b6d9596a","session_id":"619be41f3a1a6700d791c850","condition":"contingent","relevant_dimensions":["wings","legs"],"bee_group":{"antennae":"X","wings":"2","pattern":"X","legs":"F"},"bonus":0.02},{"rt":2192,"stimulus":"bees-with-color/bee-B2DF.svg","response":1,"trial_type":"image-button-response","trial_index":15,"time_elapsed":637023,"internal_node_id":"0.0-4.0-0.2","subject_id":"6130bde304c92dc7a19fc8d1","study_id":"6197b3f67c2b5cd3b6d9596a","session_id":"619be41f3a1a6700d791c850","condition":"contingent","relevant_dimensions":["wings","legs"],"bee_group":{"antennae":"X","wings":"2","pattern":"X","legs":"F"},"action":"avoid","summary":"good-avoid","bonus":0.02},{"rt":4907.699999999255,"stimulus":"\n                    <p><b>Action: <em>avoid</em></b></p>\n                    <p>This is the bee that you just saw.</p>\n                    <img src=\"bees-with-color/bee-B2DF.svg\" width=\"200\">\n                    <p><br>Your bonus pay is unchanged, and remains at $0.56.</p>\n            ","response":0,"trial_type":"html-button-response","trial_index":16,"time_elapsed":641933,"internal_node_id":"0.0-4.0-1.2","subject_id":"6130bde304c92dc7a19fc8d1","study_id":"6197b3f67c2b5cd3b6d9596a","session_id":"619be41f3a1a6700d791c850","condition":"contingent","relevant_dimensions":["wings","legs"],"bee_group":{"antennae":"X","wings":"2","pattern":"X","legs":"F"},"bonus":0.02},{"rt":4330.20000000298,"stimulus":"bees-with-color/bee-B1SF.svg","response":0,"trial_type":"image-button-response","trial_index":17,"time_elapsed":646265,"internal_node_id":"0.0-4.0-0.3","subject_id":"6130bde304c92dc7a19fc8d1","study_id":"6197b3f67c2b5cd3b6d9596a","session_id":"619be41f3a1a6700d791c850","condition":"contingent","relevant_dimensions":["wings","legs"],"bee_group":{"antennae":"X","wings":"2","pattern":"X","legs":"F"},"action":"harvest","summary":"good-harvest","bonus":0.02},{"rt":4001.800000000745,"stimulus":"\n                    <p><b>Action: <em>harvest</em></b></p>\n                    <p>This is the bee that you just saw.</p>\n                    <img src=\"bees-with-color/bee-B1SF.svg\" width=\"200\">\n                    <p><span class=\"greenText\"><b>Successful harvest!</b></span><br>Your pay has increased by $0.02. Your bonus pay is now $0.58.</p>\n            ","response":0,"trial_type":"html-button-response","trial_index":18,"time_elapsed":650269,"internal_node_id":"0.0-4.0-1.3","subject_id":"6130bde304c92dc7a19fc8d1","study_id":"6197b3f67c2b5cd3b6d9596a","session_id":"619be41f3a1a6700d791c850","condition":"contingent","relevant_dimensions":["wings","legs"],"bee_group":{"antennae":"X","wings":"2","pattern":"X","legs":"F"},"bonus":0.02},{"rt":6758,"stimulus":"bees-with-color/bee-A2DF.svg","response":1,"trial_type":"image-button-response","trial_index":19,"time_elapsed":657030,"internal_node_id":"0.0-4.0-0.4","subject_id":"6130bde304c92dc7a19fc8d1","study_id":"6197b3f67c2b5cd3b6d9596a","session_id":"619be41f3a1a6700d791c850","condition":"contingent","relevant_dimensions":["wings","legs"],"bee_group":{"antennae":"X","wings":"2","pattern":"X","legs":"F"},"action":"avoid","summary":"good-avoid","bonus":0.02},{"rt":1942.5,"stimulus":"\n                    <p><b>Action: <em>avoid</em></b></p>\n                    <p>This is the bee that you just saw.</p>\n                    <img src=\"bees-with-color/bee-A2DF.svg\" width=\"200\">\n                    <p><br>Your bonus pay is unchanged, and remains at $0.58.</p>\n            ","response":0,"trial_type":"html-button-response","trial_index":20,"time_elapsed":658974,"internal_node_id":"0.0-4.0-1.4","subject_id":"6130bde304c92dc7a19fc8d1","study_id":"6197b3f67c2b5cd3b6d9596a","session_id":"619be41f3a1a6700d791c850","condition":"contingent","relevant_dimensions":["wings","legs"],"bee_group":{"antennae":"X","wings":"2","pattern":"X","legs":"F"},"bonus":0.02},{"rt":1950.5,"stimulus":"bees-with-color/bee-A1DF.svg","response":0,"trial_type":"image-button-response","trial_index":21,"time_elapsed":660928,"internal_node_id":"0.0-4.0-0.5","subject_id":"6130bde304c92dc7a19fc8d1","study_id":"6197b3f67c2b5cd3b6d9596a","session_id":"619be41f3a1a6700d791c850","condition":"contingent","relevant_dimensions":["wings","legs"],"bee_group":{"antennae":"X","wings":"2","pattern":"X","legs":"F"},"action":"harvest","summary":"good-harvest","bonus":0.02},{"rt":2623.5,"stimulus":"\n                    <p><b>Action: <em>harvest</em></b></p>\n                    <p>This is the bee that you just saw.</p>\n                    <img src=\"bees-with-color/bee-A1DF.svg\" width=\"200\">\n                    <p><span class=\"greenText\"><b>Successful harvest!</b></span><br>Your pay has increased by $0.02. Your bonus pay is now $0.60.</p>\n            ","response":0,"trial_type":"html-button-response","trial_index":22,"time_elapsed":663553,"internal_node_id":"0.0-4.0-1.5","subject_id":"6130bde304c92dc7a19fc8d1","study_id":"6197b3f67c2b5cd3b6d9596a","session_id":"619be41f3a1a6700d791c850","condition":"contingent","relevant_dimensions":["wings","legs"],"bee_group":{"antennae":"X","wings":"2","pattern":"X","legs":"F"},"bonus":0.02},{"rt":2310.2000000029802,"stimulus":"bees-with-color/bee-B1DF.svg","response":0,"trial_type":"image-button-response","trial_index":23,"time_elapsed":665866,"internal_node_id":"0.0-4.0-0.6","subject_id":"6130bde304c92dc7a19fc8d1","study_id":"6197b3f67c2b5cd3b6d9596a","session_id":"619be41f3a1a6700d791c850","condition":"contingent","relevant_dimensions":["wings","legs"],"bee_group":{"antennae":"X","wings":"2","pattern":"X","legs":"F"},"action":"harvest","summary":"good-harvest","bonus":0.02},{"rt":2016.300000000745,"stimulus":"\n                    <p><b>Action: <em>harvest</em></b></p>\n                    <p>This is the bee that you just saw.</p>\n                    <img src=\"bees-with-color/bee-B1DF.svg\" width=\"200\">\n                    <p><span class=\"greenText\"><b>Successful harvest!</b></span><br>Your pay has increased by $0.02. Your bonus pay is now $0.62.</p>\n            ","response":0,"trial_type":"html-button-response","trial_index":24,"time_elapsed":667884,"internal_node_id":"0.0-4.0-1.6","subject_id":"6130bde304c92dc7a19fc8d1","study_id":"6197b3f67c2b5cd3b6d9596a","session_id":"619be41f3a1a6700d791c850","condition":"contingent","relevant_dimensions":["wings","legs"],"bee_group":{"antennae":"X","wings":"2","pattern":"X","legs":"F"},"bonus":0.02},{"rt":3053.900000002235,"stimulus":"bees-with-color/bee-A2DM.svg","response":1,"trial_type":"image-button-response","trial_index":25,"time_elapsed":670941,"internal_node_id":"0.0-4.0-0.7","subject_id":"6130bde304c92dc7a19fc8d1","study_id":"6197b3f67c2b5cd3b6d9596a","session_id":"619be41f3a1a6700d791c850","condition":"contingent","relevant_dimensions":["wings","legs"],"bee_group":{"antennae":"X","wings":"2","pattern":"X","legs":"F"},"action":"avoid","summary":"bad-avoid","bonus":0.02},{"rt":1737.2000000029802,"stimulus":"\n                    <p><b>Action: <em>avoid</em></b></p>\n                    <p>This is the bee that you just saw.</p>\n                    <img src=\"bees-with-color/bee-A2DM.svg\" width=\"200\">\n                    <p><br>Your bonus pay is unchanged, and remains at $0.62.</p>\n            ","response":0,"trial_type":"html-button-response","trial_index":26,"time_elapsed":672680,"internal_node_id":"0.0-4.0-1.7","subject_id":"6130bde304c92dc7a19fc8d1","study_id":"6197b3f67c2b5cd3b6d9596a","session_id":"619be41f3a1a6700d791c850","condition":"contingent","relevant_dimensions":["wings","legs"],"bee_group":{"antennae":"X","wings":"2","pattern":"X","legs":"F"},"bonus":0.02},{"rt":2404.300000000745,"stimulus":"bees-with-color/bee-A2SF.svg","response":1,"trial_type":"image-button-response","trial_index":27,"time_elapsed":675087,"internal_node_id":"0.0-4.0-0.8","subject_id":"6130bde304c92dc7a19fc8d1","study_id":"6197b3f67c2b5cd3b6d9596a","session_id":"619be41f3a1a6700d791c850","condition":"contingent","relevant_dimensions":["wings","legs"],"bee_group":{"antennae":"X","wings":"2","pattern":"X","legs":"F"},"action":"avoid","summary":"good-avoid","bonus":0.02},{"rt":1345.0999999977648,"stimulus":"\n                    <p><b>Action: <em>avoid</em></b></p>\n                    <p>This is the bee that you just saw.</p>\n                    <img src=\"bees-with-color/bee-A2SF.svg\" width=\"200\">\n                    <p><br>Your bonus pay is unchanged, and remains at $0.62.</p>\n            ","response":0,"trial_type":"html-button-response","trial_index":28,"time_elapsed":676434,"internal_node_id":"0.0-4.0-1.8","subject_id":"6130bde304c92dc7a19fc8d1","study_id":"6197b3f67c2b5cd3b6d9596a","session_id":"619be41f3a1a6700d791c850","condition":"contingent","relevant_dimensions":["wings","legs"],"bee_group":{"antennae":"X","wings":"2","pattern":"X","legs":"F"},"bonus":0.02},{"rt":1579.3999999985099,"stimulus":"bees-with-color/bee-B1DM.svg","response":0,"trial_type":"image-button-response","trial_index":29,"time_elapsed":678016,"internal_node_id":"0.0-4.0-0.9","subject_id":"6130bde304c92dc7a19fc8d1","study_id":"6197b3f67c2b5cd3b6d9596a","session_id":"619be41f3a1a6700d791c850","condition":"contingent","relevant_dimensions":["wings","legs"],"bee_group":{"antennae":"X","wings":"2","pattern":"X","legs":"F"},"action":"harvest","summary":"good-harvest","bonus":0.02},{"rt":2218,"stimulus":"\n                    <p><b>Action: <em>harvest</em></b></p>\n                    <p>This is the bee that you just saw.</p>\n                    <img src=\"bees-with-color/bee-B1DM.svg\" width=\"200\">\n                    <p><span class=\"greenText\"><b>Successful harvest!</b></span><br>Your pay has increased by $0.02. Your bonus pay is now $0.64.</p>\n            ","response":0,"trial_type":"html-button-response","trial_index":30,"time_elapsed":680236,"internal_node_id":"0.0-4.0-1.9","subject_id":"6130bde304c92dc7a19fc8d1","study_id":"6197b3f67c2b5cd3b6d9596a","session_id":"619be41f3a1a6700d791c850","condition":"contingent","relevant_dimensions":["wings","legs"],"bee_group":{"antennae":"X","wings":"2","pattern":"X","legs":"F"},"bonus":0.02},{"rt":2147.800000000745,"stimulus":"bees-with-color/bee-A1SM.svg","response":1,"trial_type":"image-button-response","trial_index":31,"time_elapsed":682386,"internal_node_id":"0.0-4.0-0.10","subject_id":"6130bde304c92dc7a19fc8d1","study_id":"6197b3f67c2b5cd3b6d9596a","session_id":"619be41f3a1a6700d791c850","condition":"contingent","relevant_dimensions":["wings","legs"],"bee_group":{"antennae":"X","wings":"2","pattern":"X","legs":"F"},"action":"avoid","summary":"bad-avoid","bonus":0.02},{"rt":1337.199999999255,"stimulus":"\n                    <p><b>Action: <em>avoid</em></b></p>\n                    <p>This is the bee that you just saw.</p>\n                    <img src=\"bees-with-color/bee-A1SM.svg\" width=\"200\">\n                    <p><br>Your bonus pay is unchanged, and remains at $0.64.</p>\n            ","response":0,"trial_type":"html-button-response","trial_index":32,"time_elapsed":683726,"internal_node_id":"0.0-4.0-1.10","subject_id":"6130bde304c92dc7a19fc8d1","study_id":"6197b3f67c2b5cd3b6d9596a","session_id":"619be41f3a1a6700d791c850","condition":"contingent","relevant_dimensions":["wings","legs"],"bee_group":{"antennae":"X","wings":"2","pattern":"X","legs":"F"},"bonus":0.02},{"rt":1977.199999999255,"stimulus":"bees-with-color/bee-A2SM.svg","response":1,"trial_type":"image-button-response","trial_index":33,"time_elapsed":685705,"internal_node_id":"0.0-4.0-0.11","subject_id":"6130bde304c92dc7a19fc8d1","study_id":"6197b3f67c2b5cd3b6d9596a","session_id":"619be41f3a1a6700d791c850","condition":"contingent","relevant_dimensions":["wings","legs"],"bee_group":{"antennae":"X","wings":"2","pattern":"X","legs":"F"},"action":"avoid","summary":"bad-avoid","bonus":0.02},{"rt":1551.800000000745,"stimulus":"\n                    <p><b>Action: <em>avoid</em></b></p>\n                    <p>This is the bee that you just saw.</p>\n                    <img src=\"bees-with-color/bee-A2SM.svg\" width=\"200\">\n                    <p><br>Your bonus pay is unchanged, and remains at $0.64.</p>\n            ","response":0,"trial_type":"html-button-response","trial_index":34,"time_elapsed":687260,"internal_node_id":"0.0-4.0-1.11","subject_id":"6130bde304c92dc7a19fc8d1","study_id":"6197b3f67c2b5cd3b6d9596a","session_id":"619be41f3a1a6700d791c850","condition":"contingent","relevant_dimensions":["wings","legs"],"bee_group":{"antennae":"X","wings":"2","pattern":"X","legs":"F"},"bonus":0.02},{"rt":1990.699999999255,"stimulus":"bees-with-color/bee-B2DM.svg","response":0,"trial_type":"image-button-response","trial_index":35,"time_elapsed":689253,"internal_node_id":"0.0-4.0-0.12","subject_id":"6130bde304c92dc7a19fc8d1","study_id":"6197b3f67c2b5cd3b6d9596a","session_id":"619be41f3a1a6700d791c850","condition":"contingent","relevant_dimensions":["wings","legs"],"bee_group":{"antennae":"X","wings":"2","pattern":"X","legs":"F"},"action":"harvest","summary":"good-harvest","bonus":0.02},{"rt":2192.400000002235,"stimulus":"\n                    <p><b>Action: <em>harvest</em></b></p>\n                    <p>This is the bee that you just saw.</p>\n                    <img src=\"bees-with-color/bee-B2DM.svg\" width=\"200\">\n                    <p><span class=\"greenText\"><b>Successful harvest!</b></span><br>Your pay has increased by $0.02. Your bonus pay is now $0.66.</p>\n            ","response":0,"trial_type":"html-button-response","trial_index":36,"time_elapsed":691448,"internal_node_id":"0.0-4.0-1.12","subject_id":"6130bde304c92dc7a19fc8d1","study_id":"6197b3f67c2b5cd3b6d9596a","session_id":"619be41f3a1a6700d791c850","condition":"contingent","relevant_dimensions":["wings","legs"],"bee_group":{"antennae":"X","wings":"2","pattern":"X","legs":"F"},"bonus":0.02},{"rt":1468,"stimulus":"bees-with-color/bee-B2SM.svg","response":0,"trial_type":"image-button-response","trial_index":37,"time_elapsed":692918,"internal_node_id":"0.0-4.0-0.13","subject_id":"6130bde304c92dc7a19fc8d1","study_id":"6197b3f67c2b5cd3b6d9596a","session_id":"619be41f3a1a6700d791c850","condition":"contingent","relevant_dimensions":["wings","legs"],"bee_group":{"antennae":"X","wings":"2","pattern":"X","legs":"F"},"action":"harvest","summary":"good-harvest","bonus":0.02},{"rt":1763.199999999255,"stimulus":"\n                    <p><b>Action: <em>harvest</em></b></p>\n                    <p>This is the bee that you just saw.</p>\n                    <img src=\"bees-with-color/bee-B2SM.svg\" width=\"200\">\n                    <p><span class=\"greenText\"><b>Successful harvest!</b></span><br>Your pay has increased by $0.02. Your bonus pay is now $0.68.</p>\n            ","response":0,"trial_type":"html-button-response","trial_index":38,"time_elapsed":694684,"internal_node_id":"0.0-4.0-1.13","subject_id":"6130bde304c92dc7a19fc8d1","study_id":"6197b3f67c2b5cd3b6d9596a","session_id":"619be41f3a1a6700d791c850","condition":"contingent","relevant_dimensions":["wings","legs"],"bee_group":{"antennae":"X","wings":"2","pattern":"X","legs":"F"},"bonus":0.02},{"rt":1746.6000000014901,"stimulus":"bees-with-color/bee-A1DM.svg","response":1,"trial_type":"image-button-response","trial_index":39,"time_elapsed":696432,"internal_node_id":"0.0-4.0-0.14","subject_id":"6130bde304c92dc7a19fc8d1","study_id":"6197b3f67c2b5cd3b6d9596a","session_id":"619be41f3a1a6700d791c850","condition":"contingent","relevant_dimensions":["wings","legs"],"bee_group":{"antennae":"X","wings":"2","pattern":"X","legs":"F"},"action":"avoid","summary":"bad-avoid","bonus":0.02},{"rt":1532.5,"stimulus":"\n                    <p><b>Action: <em>avoid</em></b></p>\n                    <p>This is the bee that you just saw.</p>\n                    <img src=\"bees-with-color/bee-A1DM.svg\" width=\"200\">\n                    <p><br>Your bonus pay is unchanged, and remains at $0.68.</p>\n            ","response":0,"trial_type":"html-button-response","trial_index":40,"time_elapsed":697967,"internal_node_id":"0.0-4.0-1.14","subject_id":"6130bde304c92dc7a19fc8d1","study_id":"6197b3f67c2b5cd3b6d9596a","session_id":"619be41f3a1a6700d791c850","condition":"contingent","relevant_dimensions":["wings","legs"],"bee_group":{"antennae":"X","wings":"2","pattern":"X","legs":"F"},"bonus":0.02},{"rt":1710.7999999970198,"stimulus":"bees-with-color/bee-B2SF.svg","response":0,"trial_type":"image-button-response","trial_index":41,"time_elapsed":699680,"internal_node_id":"0.0-4.0-0.15","subject_id":"6130bde304c92dc7a19fc8d1","study_id":"6197b3f67c2b5cd3b6d9596a","session_id":"619be41f3a1a6700d791c850","condition":"contingent","relevant_dimensions":["wings","legs"],"bee_group":{"antennae":"X","wings":"2","pattern":"X","legs":"F"},"action":"harvest","summary":"bad-harvest","bonus":0.02},{"rt":2561.89999999851,"stimulus":"\n                    <p><b>Action: <em>harvest</em></b></p>\n                    <p>This is the bee that you just saw.</p>\n                    <img src=\"bees-with-color/bee-B2SF.svg\" width=\"200\">\n                    <p><span class=\"redText\">Bad choice, the bee was angry.</span><br><b>You have been stung!</b><br>Your pay has been decreased by $0.10. Your bonus pay is now $0.58.</p>\n            ","response":0,"trial_type":"html-button-response","trial_index":42,"time_elapsed":702244,"internal_node_id":"0.0-4.0-1.15","subject_id":"6130bde304c92dc7a19fc8d1","study_id":"6197b3f67c2b5cd3b6d9596a","session_id":"619be41f3a1a6700d791c850","condition":"contingent","relevant_dimensions":["wings","legs"],"bee_group":{"antennae":"X","wings":"2","pattern":"X","legs":"F"},"bonus":0.02},{"rt":1748,"stimulus":"bees-with-color/bee-B1DF.svg","response":0,"trial_type":"image-button-response","trial_index":43,"time_elapsed":703996,"internal_node_id":"0.0-4.0-0.16","subject_id":"6130bde304c92dc7a19fc8d1","study_id":"6197b3f67c2b5cd3b6d9596a","session_id":"619be41f3a1a6700d791c850","condition":"contingent","relevant_dimensions":["wings","legs"],"bee_group":{"antennae":"X","wings":"2","pattern":"X","legs":"F"},"action":"harvest","summary":"good-harvest","bonus":0.02},{"rt":1696.1000000014901,"stimulus":"\n                    <p><b>Action: <em>harvest</em></b></p>\n                    <p>This is the bee that you just saw.</p>\n                    <img src=\"bees-with-color/bee-B1DF.svg\" width=\"200\">\n                    <p><span class=\"greenText\"><b>Successful harvest!</b></span><br>Your pay has increased by $0.02. Your bonus pay is now $0.60.</p>\n            ","response":0,"trial_type":"html-button-response","trial_index":44,"time_elapsed":705695,"internal_node_id":"0.0-4.0-1.16","subject_id":"6130bde304c92dc7a19fc8d1","study_id":"6197b3f67c2b5cd3b6d9596a","session_id":"619be41f3a1a6700d791c850","condition":"contingent","relevant_dimensions":["wings","legs"],"bee_group":{"antennae":"X","wings":"2","pattern":"X","legs":"F"},"bonus":0.02},{"rt":1818.4000000022352,"stimulus":"bees-with-color/bee-B2SF.svg","response":0,"trial_type":"image-button-response","trial_index":45,"time_elapsed":707516,"internal_node_id":"0.0-4.0-0.17","subject_id":"6130bde304c92dc7a19fc8d1","study_id":"6197b3f67c2b5cd3b6d9596a","session_id":"619be41f3a1a6700d791c850","condition":"contingent","relevant_dimensions":["wings","legs"],"bee_group":{"antennae":"X","wings":"2","pattern":"X","legs":"F"},"action":"harvest","summary":"bad-harvest","bonus":0.02},{"rt":1534.8999999985099,"stimulus":"\n                    <p><b>Action: <em>harvest</em></b></p>\n                    <p>This is the bee that you just saw.</p>\n                    <img src=\"bees-with-color/bee-B2SF.svg\" width=\"200\">\n                    <p><span class=\"redText\">Bad choice, the bee was angry.</span><br><b>You have been stung!</b><br>Your pay has been decreased by $0.10. Your bonus pay is now $0.50.</p>\n            ","response":0,"trial_type":"html-button-response","trial_index":46,"time_elapsed":709053,"internal_node_id":"0.0-4.0-1.17","subject_id":"6130bde304c92dc7a19fc8d1","study_id":"6197b3f67c2b5cd3b6d9596a","session_id":"619be41f3a1a6700d791c850","condition":"contingent","relevant_dimensions":["wings","legs"],"bee_group":{"antennae":"X","wings":"2","pattern":"X","legs":"F"},"bonus":0.02},{"rt":3304.10000000149,"stimulus":"bees-with-color/bee-A2SM.svg","response":1,"trial_type":"image-button-response","trial_index":47,"time_elapsed":712359,"internal_node_id":"0.0-4.0-0.18","subject_id":"6130bde304c92dc7a19fc8d1","study_id":"6197b3f67c2b5cd3b6d9596a","session_id":"619be41f3a1a6700d791c850","condition":"contingent","relevant_dimensions":["wings","legs"],"bee_group":{"antennae":"X","wings":"2","pattern":"X","legs":"F"},"action":"avoid","summary":"bad-avoid","bonus":0.02},{"rt":1527.3999999985099,"stimulus":"\n                    <p><b>Action: <em>avoid</em></b></p>\n                    <p>This is the bee that you just saw.</p>\n                    <img src=\"bees-with-color/bee-A2SM.svg\" width=\"200\">\n                    <p><br>Your bonus pay is unchanged, and remains at $0.50.</p>\n            ","response":0,"trial_type":"html-button-response","trial_index":48,"time_elapsed":713890,"internal_node_id":"0.0-4.0-1.18","subject_id":"6130bde304c92dc7a19fc8d1","study_id":"6197b3f67c2b5cd3b6d9596a","session_id":"619be41f3a1a6700d791c850","condition":"contingent","relevant_dimensions":["wings","legs"],"bee_group":{"antennae":"X","wings":"2","pattern":"X","legs":"F"},"bonus":0.02},{"rt":1494.699999999255,"stimulus":"bees-with-color/bee-A1SM.svg","response":0,"trial_type":"image-button-response","trial_index":49,"time_elapsed":715388,"internal_node_id":"0.0-4.0-0.19","subject_id":"6130bde304c92dc7a19fc8d1","study_id":"6197b3f67c2b5cd3b6d9596a","session_id":"619be41f3a1a6700d791c850","condition":"contingent","relevant_dimensions":["wings","legs"],"bee_group":{"antennae":"X","wings":"2","pattern":"X","legs":"F"},"action":"harvest","summary":"good-harvest","bonus":0.02},{"rt":1980.1000000014901,"stimulus":"\n                    <p><b>Action: <em>harvest</em></b></p>\n                    <p>This is the bee that you just saw.</p>\n                    <img src=\"bees-with-color/bee-A1SM.svg\" width=\"200\">\n                    <p><span class=\"greenText\"><b>Successful harvest!</b></span><br>Your pay has increased by $0.02. Your bonus pay is now $0.52.</p>\n            ","response":0,"trial_type":"html-button-response","trial_index":50,"time_elapsed":717370,"internal_node_id":"0.0-4.0-1.19","subject_id":"6130bde304c92dc7a19fc8d1","study_id":"6197b3f67c2b5cd3b6d9596a","session_id":"619be41f3a1a6700d791c850","condition":"contingent","relevant_dimensions":["wings","legs"],"bee_group":{"antennae":"X","wings":"2","pattern":"X","legs":"F"},"bonus":0.02},{"rt":1760.5999999977648,"stimulus":"bees-with-color/bee-B1SF.svg","response":1,"trial_type":"image-button-response","trial_index":51,"time_elapsed":719133,"internal_node_id":"0.0-4.0-0.20","subject_id":"6130bde304c92dc7a19fc8d1","study_id":"6197b3f67c2b5cd3b6d9596a","session_id":"619be41f3a1a6700d791c850","condition":"contingent","relevant_dimensions":["wings","legs"],"bee_group":{"antennae":"X","wings":"2","pattern":"X","legs":"F"},"action":"avoid","summary":"bad-avoid","bonus":0.02},{"rt":1132.699999999255,"stimulus":"\n                    <p><b>Action: <em>avoid</em></b></p>\n                    <p>This is the bee that you just saw.</p>\n                    <img src=\"bees-with-color/bee-B1SF.svg\" width=\"200\">\n                    <p><br>Your bonus pay is unchanged, and remains at $0.52.</p>\n            ","response":0,"trial_type":"html-button-response","trial_index":52,"time_elapsed":720268,"internal_node_id":"0.0-4.0-1.20","subject_id":"6130bde304c92dc7a19fc8d1","study_id":"6197b3f67c2b5cd3b6d9596a","session_id":"619be41f3a1a6700d791c850","condition":"contingent","relevant_dimensions":["wings","legs"],"bee_group":{"antennae":"X","wings":"2","pattern":"X","legs":"F"},"bonus":0.02},{"rt":3230.199999999255,"stimulus":"bees-with-color/bee-B2DM.svg","response":0,"trial_type":"image-button-response","trial_index":53,"time_elapsed":723500,"internal_node_id":"0.0-4.0-0.21","subject_id":"6130bde304c92dc7a19fc8d1","study_id":"6197b3f67c2b5cd3b6d9596a","session_id":"619be41f3a1a6700d791c850","condition":"contingent","relevant_dimensions":["wings","legs"],"bee_group":{"antennae":"X","wings":"2","pattern":"X","legs":"F"},"action":"harvest","summary":"good-harvest","bonus":0.02},{"rt":1539.699999999255,"stimulus":"\n                    <p><b>Action: <em>harvest</em></b></p>\n                    <p>This is the bee that you just saw.</p>\n                    <img src=\"bees-with-color/bee-B2DM.svg\" width=\"200\">\n                    <p><span class=\"greenText\"><b>Successful harvest!</b></span><br>Your pay has increased by $0.02. Your bonus pay is now $0.54.</p>\n            ","response":0,"trial_type":"html-button-response","trial_index":54,"time_elapsed":725042,"internal_node_id":"0.0-4.0-1.21","subject_id":"6130bde304c92dc7a19fc8d1","study_id":"6197b3f67c2b5cd3b6d9596a","session_id":"619be41f3a1a6700d791c850","condition":"contingent","relevant_dimensions":["wings","legs"],"bee_group":{"antennae":"X","wings":"2","pattern":"X","legs":"F"},"bonus":0.02},{"rt":2732.599999997765,"stimulus":"bees-with-color/bee-A2SF.svg","response":0,"trial_type":"image-button-response","trial_index":55,"time_elapsed":727778,"internal_node_id":"0.0-4.0-0.22","subject_id":"6130bde304c92dc7a19fc8d1","study_id":"6197b3f67c2b5cd3b6d9596a","session_id":"619be41f3a1a6700d791c850","condition":"contingent","relevant_dimensions":["wings","legs"],"bee_group":{"antennae":"X","wings":"2","pattern":"X","legs":"F"},"action":"harvest","summary":"bad-harvest","bonus":0.02},{"rt":1597.0999999977648,"stimulus":"\n                    <p><b>Action: <em>harvest</em></b></p>\n                    <p>This is the bee that you just saw.</p>\n                    <img src=\"bees-with-color/bee-A2SF.svg\" width=\"200\">\n                    <p><span class=\"redText\">Bad choice, the bee was angry.</span><br><b>You have been stung!</b><br>Your pay has been decreased by $0.10. Your bonus pay is now $0.44.</p>\n            ","response":0,"trial_type":"html-button-response","trial_index":56,"time_elapsed":729377,"internal_node_id":"0.0-4.0-1.22","subject_id":"6130bde304c92dc7a19fc8d1","study_id":"6197b3f67c2b5cd3b6d9596a","session_id":"619be41f3a1a6700d791c850","condition":"contingent","relevant_dimensions":["wings","legs"],"bee_group":{"antennae":"X","wings":"2","pattern":"X","legs":"F"},"bonus":0.02},{"rt":1353,"stimulus":"bees-with-color/bee-A1DM.svg","response":1,"trial_type":"image-button-response","trial_index":57,"time_elapsed":730733,"internal_node_id":"0.0-4.0-0.23","subject_id":"6130bde304c92dc7a19fc8d1","study_id":"6197b3f67c2b5cd3b6d9596a","session_id":"619be41f3a1a6700d791c850","condition":"contingent","relevant_dimensions":["wings","legs"],"bee_group":{"antennae":"X","wings":"2","pattern":"X","legs":"F"},"action":"avoid","summary":"bad-avoid","bonus":0.02},{"rt":1575.199999999255,"stimulus":"\n                    <p><b>Action: <em>avoid</em></b></p>\n                    <p>This is the bee that you just saw.</p>\n                    <img src=\"bees-with-color/bee-A1DM.svg\" width=\"200\">\n                    <p><br>Your bonus pay is unchanged, and remains at $0.44.</p>\n            ","response":0,"trial_type":"html-button-response","trial_index":58,"time_elapsed":732311,"internal_node_id":"0.0-4.0-1.23","subject_id":"6130bde304c92dc7a19fc8d1","study_id":"6197b3f67c2b5cd3b6d9596a","session_id":"619be41f3a1a6700d791c850","condition":"contingent","relevant_dimensions":["wings","legs"],"bee_group":{"antennae":"X","wings":"2","pattern":"X","legs":"F"},"bonus":0.02},{"rt":1890.5,"stimulus":"bees-with-color/bee-B1DM.svg","response":0,"trial_type":"image-button-response","trial_index":59,"time_elapsed":734204,"internal_node_id":"0.0-4.0-0.24","subject_id":"6130bde304c92dc7a19fc8d1","study_id":"6197b3f67c2b5cd3b6d9596a","session_id":"619be41f3a1a6700d791c850","condition":"contingent","relevant_dimensions":["wings","legs"],"bee_group":{"antennae":"X","wings":"2","pattern":"X","legs":"F"},"action":"harvest","summary":"good-harvest","bonus":0.02},{"rt":1526.5,"stimulus":"\n                    <p><b>Action: <em>harvest</em></b></p>\n                    <p>This is the bee that you just saw.</p>\n                    <img src=\"bees-with-color/bee-B1DM.svg\" width=\"200\">\n                    <p><span class=\"greenText\"><b>Successful harvest!</b></span><br>Your pay has increased by $0.02. Your bonus pay is now $0.46.</p>\n            ","response":0,"trial_type":"html-button-response","trial_index":60,"time_elapsed":735733,"internal_node_id":"0.0-4.0-1.24","subject_id":"6130bde304c92dc7a19fc8d1","study_id":"6197b3f67c2b5cd3b6d9596a","session_id":"619be41f3a1a6700d791c850","condition":"contingent","relevant_dimensions":["wings","legs"],"bee_group":{"antennae":"X","wings":"2","pattern":"X","legs":"F"},"bonus":0.02},{"rt":2057.5,"stimulus":"bees-with-color/bee-B2DF.svg","response":0,"trial_type":"image-button-response","trial_index":61,"time_elapsed":737795,"internal_node_id":"0.0-4.0-0.25","subject_id":"6130bde304c92dc7a19fc8d1","study_id":"6197b3f67c2b5cd3b6d9596a","session_id":"619be41f3a1a6700d791c850","condition":"contingent","relevant_dimensions":["wings","legs"],"bee_group":{"antennae":"X","wings":"2","pattern":"X","legs":"F"},"action":"harvest","summary":"bad-harvest","bonus":0.02},{"rt":1516.1000000014901,"stimulus":"\n                    <p><b>Action: <em>harvest</em></b></p>\n                    <p>This is the bee that you just saw.</p>\n                    <img src=\"bees-with-color/bee-B2DF.svg\" width=\"200\">\n                    <p><span class=\"redText\">Bad choice, the bee was angry.</span><br><b>You have been stung!</b><br>Your pay has been decreased by $0.10. Your bonus pay is now $0.36.</p>\n            ","response":0,"trial_type":"html-button-response","trial_index":62,"time_elapsed":739313,"internal_node_id":"0.0-4.0-1.25","subject_id":"6130bde304c92dc7a19fc8d1","study_id":"6197b3f67c2b5cd3b6d9596a","session_id":"619be41f3a1a6700d791c850","condition":"contingent","relevant_dimensions":["wings","legs"],"bee_group":{"antennae":"X","wings":"2","pattern":"X","legs":"F"},"bonus":0.02},{"rt":1096.199999999255,"stimulus":"bees-with-color/bee-A1DF.svg","response":0,"trial_type":"image-button-response","trial_index":63,"time_elapsed":740412,"internal_node_id":"0.0-4.0-0.26","subject_id":"6130bde304c92dc7a19fc8d1","study_id":"6197b3f67c2b5cd3b6d9596a","session_id":"619be41f3a1a6700d791c850","condition":"contingent","relevant_dimensions":["wings","legs"],"bee_group":{"antennae":"X","wings":"2","pattern":"X","legs":"F"},"action":"harvest","summary":"good-harvest","bonus":0.02},{"rt":1638.6000000014901,"stimulus":"\n                    <p><b>Action: <em>harvest</em></b></p>\n                    <p>This is the bee that you just saw.</p>\n                    <img src=\"bees-with-color/bee-A1DF.svg\" width=\"200\">\n                    <p><span class=\"greenText\"><b>Successful harvest!</b></span><br>Your pay has increased by $0.02. Your bonus pay is now $0.38.</p>\n            ","response":0,"trial_type":"html-button-response","trial_index":64,"time_elapsed":742053,"internal_node_id":"0.0-4.0-1.26","subject_id":"6130bde304c92dc7a19fc8d1","study_id":"6197b3f67c2b5cd3b6d9596a","session_id":"619be41f3a1a6700d791c850","condition":"contingent","relevant_dimensions":["wings","legs"],"bee_group":{"antennae":"X","wings":"2","pattern":"X","legs":"F"},"bonus":0.02},{"rt":1456.300000000745,"stimulus":"bees-with-color/bee-B2SM.svg","response":0,"trial_type":"image-button-response","trial_index":65,"time_elapsed":743513,"internal_node_id":"0.0-4.0-0.27","subject_id":"6130bde304c92dc7a19fc8d1","study_id":"6197b3f67c2b5cd3b6d9596a","session_id":"619be41f3a1a6700d791c850","condition":"contingent","relevant_dimensions":["wings","legs"],"bee_group":{"antennae":"X","wings":"2","pattern":"X","legs":"F"},"action":"harvest","summary":"good-harvest","bonus":0.02},{"rt":1436.699999999255,"stimulus":"\n                    <p><b>Action: <em>harvest</em></b></p>\n                    <p>This is the bee that you just saw.</p>\n                    <img src=\"bees-with-color/bee-B2SM.svg\" width=\"200\">\n                    <p><span class=\"greenText\"><b>Successful harvest!</b></span><br>Your pay has increased by $0.02. Your bonus pay is now $0.40.</p>\n            ","response":0,"trial_type":"html-button-response","trial_index":66,"time_elapsed":744952,"internal_node_id":"0.0-4.0-1.27","subject_id":"6130bde304c92dc7a19fc8d1","study_id":"6197b3f67c2b5cd3b6d9596a","session_id":"619be41f3a1a6700d791c850","condition":"contingent","relevant_dimensions":["wings","legs"],"bee_group":{"antennae":"X","wings":"2","pattern":"X","legs":"F"},"bonus":0.02},{"rt":1108.300000000745,"stimulus":"bees-with-color/bee-A2DF.svg","response":0,"trial_type":"image-button-response","trial_index":67,"time_elapsed":746064,"internal_node_id":"0.0-4.0-0.28","subject_id":"6130bde304c92dc7a19fc8d1","study_id":"6197b3f67c2b5cd3b6d9596a","session_id":"619be41f3a1a6700d791c850","condition":"contingent","relevant_dimensions":["wings","legs"],"bee_group":{"antennae":"X","wings":"2","pattern":"X","legs":"F"},"action":"harvest","summary":"bad-harvest","bonus":0.02},{"rt":1347.300000000745,"stimulus":"\n                    <p><b>Action: <em>harvest</em></b></p>\n                    <p>This is the bee that you just saw.</p>\n                    <img src=\"bees-with-color/bee-A2DF.svg\" width=\"200\">\n                    <p><span class=\"redText\">Bad choice, the bee was angry.</span><br><b>You have been stung!</b><br>Your pay has been decreased by $0.10. Your bonus pay is now $0.30.</p>\n            ","response":0,"trial_type":"html-button-response","trial_index":68,"time_elapsed":747413,"internal_node_id":"0.0-4.0-1.28","subject_id":"6130bde304c92dc7a19fc8d1","study_id":"6197b3f67c2b5cd3b6d9596a","session_id":"619be41f3a1a6700d791c850","condition":"contingent","relevant_dimensions":["wings","legs"],"bee_group":{"antennae":"X","wings":"2","pattern":"X","legs":"F"},"bonus":0.02},{"rt":1578.4000000022352,"stimulus":"bees-with-color/bee-B1SM.svg","response":0,"trial_type":"image-button-response","trial_index":69,"time_elapsed":748994,"internal_node_id":"0.0-4.0-0.29","subject_id":"6130bde304c92dc7a19fc8d1","study_id":"6197b3f67c2b5cd3b6d9596a","session_id":"619be41f3a1a6700d791c850","condition":"contingent","relevant_dimensions":["wings","legs"],"bee_group":{"antennae":"X","wings":"2","pattern":"X","legs":"F"},"action":"harvest","summary":"good-harvest","bonus":0.02},{"rt":1322.9000000022352,"stimulus":"\n                    <p><b>Action: <em>harvest</em></b></p>\n                    <p>This is the bee that you just saw.</p>\n                    <img src=\"bees-with-color/bee-B1SM.svg\" width=\"200\">\n                    <p><span class=\"greenText\"><b>Successful harvest!</b></span><br>Your pay has increased by $0.02. Your bonus pay is now $0.32.</p>\n            ","response":0,"trial_type":"html-button-response","trial_index":70,"time_elapsed":750320,"internal_node_id":"0.0-4.0-1.29","subject_id":"6130bde304c92dc7a19fc8d1","study_id":"6197b3f67c2b5cd3b6d9596a","session_id":"619be41f3a1a6700d791c850","condition":"contingent","relevant_dimensions":["wings","legs"],"bee_group":{"antennae":"X","wings":"2","pattern":"X","legs":"F"},"bonus":0.02},{"rt":1391.5,"stimulus":"bees-with-color/bee-A1SF.svg","response":0,"trial_type":"image-button-response","trial_index":71,"time_elapsed":751713,"internal_node_id":"0.0-4.0-0.30","subject_id":"6130bde304c92dc7a19fc8d1","study_id":"6197b3f67c2b5cd3b6d9596a","session_id":"619be41f3a1a6700d791c850","condition":"contingent","relevant_dimensions":["wings","legs"],"bee_group":{"antennae":"X","wings":"2","pattern":"X","legs":"F"},"action":"harvest","summary":"good-harvest","bonus":0.02},{"rt":1433.4000000022352,"stimulus":"\n                    <p><b>Action: <em>harvest</em></b></p>\n                    <p>This is the bee that you just saw.</p>\n                    <img src=\"bees-with-color/bee-A1SF.svg\" width=\"200\">\n                    <p><span class=\"greenText\"><b>Successful harvest!</b></span><br>Your pay has increased by $0.02. Your bonus pay is now $0.34.</p>\n            ","response":0,"trial_type":"html-button-response","trial_index":72,"time_elapsed":753148,"internal_node_id":"0.0-4.0-1.30","subject_id":"6130bde304c92dc7a19fc8d1","study_id":"6197b3f67c2b5cd3b6d9596a","session_id":"619be41f3a1a6700d791c850","condition":"contingent","relevant_dimensions":["wings","legs"],"bee_group":{"antennae":"X","wings":"2","pattern":"X","legs":"F"},"bonus":0.02},{"rt":1487.5999999977648,"stimulus":"bees-with-color/bee-A2DM.svg","response":1,"trial_type":"image-button-response","trial_index":73,"time_elapsed":754638,"internal_node_id":"0.0-4.0-0.31","subject_id":"6130bde304c92dc7a19fc8d1","study_id":"6197b3f67c2b5cd3b6d9596a","session_id":"619be41f3a1a6700d791c850","condition":"contingent","relevant_dimensions":["wings","legs"],"bee_group":{"antennae":"X","wings":"2","pattern":"X","legs":"F"},"action":"avoid","summary":"bad-avoid","bonus":0.02},{"rt":1525.3999999985099,"stimulus":"\n                    <p><b>Action: <em>avoid</em></b></p>\n                    <p>This is the bee that you just saw.</p>\n                    <img src=\"bees-with-color/bee-A2DM.svg\" width=\"200\">\n                    <p><br>Your bonus pay is unchanged, and remains at $0.34.</p>\n            ","response":0,"trial_type":"html-button-response","trial_index":74,"time_elapsed":756165,"internal_node_id":"0.0-4.0-1.31","subject_id":"6130bde304c92dc7a19fc8d1","study_id":"6197b3f67c2b5cd3b6d9596a","session_id":"619be41f3a1a6700d791c850","condition":"contingent","relevant_dimensions":["wings","legs"],"bee_group":{"antennae":"X","wings":"2","pattern":"X","legs":"F"},"bonus":0.02},{"rt":1253.5,"stimulus":"bees-with-color/bee-B1SF.svg","response":0,"trial_type":"image-button-response","trial_index":75,"time_elapsed":757421,"internal_node_id":"0.0-4.0-0.32","subject_id":"6130bde304c92dc7a19fc8d1","study_id":"6197b3f67c2b5cd3b6d9596a","session_id":"619be41f3a1a6700d791c850","condition":"contingent","relevant_dimensions":["wings","legs"],"bee_group":{"antennae":"X","wings":"2","pattern":"X","legs":"F"},"action":"harvest","summary":"good-harvest","bonus":0.02},{"rt":1583.8999999985099,"stimulus":"\n                    <p><b>Action: <em>harvest</em></b></p>\n                    <p>This is the bee that you just saw.</p>\n                    <img src=\"bees-with-color/bee-B1SF.svg\" width=\"200\">\n                    <p><span class=\"greenText\"><b>Successful harvest!</b></span><br>Your pay has increased by $0.02. Your bonus pay is now $0.36.</p>\n            ","response":0,"trial_type":"html-button-response","trial_index":76,"time_elapsed":759007,"internal_node_id":"0.0-4.0-1.32","subject_id":"6130bde304c92dc7a19fc8d1","study_id":"6197b3f67c2b5cd3b6d9596a","session_id":"619be41f3a1a6700d791c850","condition":"contingent","relevant_dimensions":["wings","legs"],"bee_group":{"antennae":"X","wings":"2","pattern":"X","legs":"F"},"bonus":0.02},{"rt":1227.5,"stimulus":"bees-with-color/bee-B1DF.svg","response":0,"trial_type":"image-button-response","trial_index":77,"time_elapsed":760236,"internal_node_id":"0.0-4.0-0.33","subject_id":"6130bde304c92dc7a19fc8d1","study_id":"6197b3f67c2b5cd3b6d9596a","session_id":"619be41f3a1a6700d791c850","condition":"contingent","relevant_dimensions":["wings","legs"],"bee_group":{"antennae":"X","wings":"2","pattern":"X","legs":"F"},"action":"harvest","summary":"good-harvest","bonus":0.02},{"rt":1426,"stimulus":"\n                    <p><b>Action: <em>harvest</em></b></p>\n                    <p>This is the bee that you just saw.</p>\n                    <img src=\"bees-with-color/bee-B1DF.svg\" width=\"200\">\n                    <p><span class=\"greenText\"><b>Successful harvest!</b></span><br>Your pay has increased by $0.02. Your bonus pay is now $0.38.</p>\n            ","response":0,"trial_type":"html-button-response","trial_index":78,"time_elapsed":761665,"internal_node_id":"0.0-4.0-1.33","subject_id":"6130bde304c92dc7a19fc8d1","study_id":"6197b3f67c2b5cd3b6d9596a","session_id":"619be41f3a1a6700d791c850","condition":"contingent","relevant_dimensions":["wings","legs"],"bee_group":{"antennae":"X","wings":"2","pattern":"X","legs":"F"},"bonus":0.02},{"rt":1188.6000000014901,"stimulus":"bees-with-color/bee-B2DM.svg","response":1,"trial_type":"image-button-response","trial_index":79,"time_elapsed":762855,"internal_node_id":"0.0-4.0-0.34","subject_id":"6130bde304c92dc7a19fc8d1","study_id":"6197b3f67c2b5cd3b6d9596a","session_id":"619be41f3a1a6700d791c850","condition":"contingent","relevant_dimensions":["wings","legs"],"bee_group":{"antennae":"X","wings":"2","pattern":"X","legs":"F"},"action":"avoid","summary":"bad-avoid","bonus":0.02},{"rt":1529.5,"stimulus":"\n                    <p><b>Action: <em>avoid</em></b></p>\n                    <p>This is the bee that you just saw.</p>\n                    <img src=\"bees-with-color/bee-B2DM.svg\" width=\"200\">\n                    <p><br>Your bonus pay is unchanged, and remains at $0.38.</p>\n            ","response":0,"trial_type":"html-button-response","trial_index":80,"time_elapsed":764387,"internal_node_id":"0.0-4.0-1.34","subject_id":"6130bde304c92dc7a19fc8d1","study_id":"6197b3f67c2b5cd3b6d9596a","session_id":"619be41f3a1a6700d791c850","condition":"contingent","relevant_dimensions":["wings","legs"],"bee_group":{"antennae":"X","wings":"2","pattern":"X","legs":"F"},"bonus":0.02},{"rt":1195.5999999977648,"stimulus":"bees-with-color/bee-A2DM.svg","response":0,"trial_type":"image-button-response","trial_index":81,"time_elapsed":765584,"internal_node_id":"0.0-4.0-0.35","subject_id":"6130bde304c92dc7a19fc8d1","study_id":"6197b3f67c2b5cd3b6d9596a","session_id":"619be41f3a1a6700d791c850","condition":"contingent","relevant_dimensions":["wings","legs"],"bee_group":{"antennae":"X","wings":"2","pattern":"X","legs":"F"},"action":"harvest","summary":"good-harvest","bonus":0.02},{"rt":1653.699999999255,"stimulus":"\n                    <p><b>Action: <em>harvest</em></b></p>\n                    <p>This is the bee that you just saw.</p>\n                    <img src=\"bees-with-color/bee-A2DM.svg\" width=\"200\">\n                    <p><span class=\"greenText\"><b>Successful harvest!</b></span><br>Your pay has increased by $0.02. Your bonus pay is now $0.40.</p>\n            ","response":0,"trial_type":"html-button-response","trial_index":82,"time_elapsed":767240,"internal_node_id":"0.0-4.0-1.35","subject_id":"6130bde304c92dc7a19fc8d1","study_id":"6197b3f67c2b5cd3b6d9596a","session_id":"619be41f3a1a6700d791c850","condition":"contingent","relevant_dimensions":["wings","legs"],"bee_group":{"antennae":"X","wings":"2","pattern":"X","legs":"F"},"bonus":0.02},{"rt":1193.199999999255,"stimulus":"bees-with-color/bee-A1SF.svg","response":0,"trial_type":"image-button-response","trial_index":83,"time_elapsed":768435,"internal_node_id":"0.0-4.0-0.36","subject_id":"6130bde304c92dc7a19fc8d1","study_id":"6197b3f67c2b5cd3b6d9596a","session_id":"619be41f3a1a6700d791c850","condition":"contingent","relevant_dimensions":["wings","legs"],"bee_group":{"antennae":"X","wings":"2","pattern":"X","legs":"F"},"action":"harvest","summary":"good-harvest","bonus":0.02},{"rt":1277.5,"stimulus":"\n                    <p><b>Action: <em>harvest</em></b></p>\n                    <p>This is the bee that you just saw.</p>\n                    <img src=\"bees-with-color/bee-A1SF.svg\" width=\"200\">\n                    <p><span class=\"greenText\"><b>Successful harvest!</b></span><br>Your pay has increased by $0.02. Your bonus pay is now $0.42.</p>\n            ","response":0,"trial_type":"html-button-response","trial_index":84,"time_elapsed":769714,"internal_node_id":"0.0-4.0-1.36","subject_id":"6130bde304c92dc7a19fc8d1","study_id":"6197b3f67c2b5cd3b6d9596a","session_id":"619be41f3a1a6700d791c850","condition":"contingent","relevant_dimensions":["wings","legs"],"bee_group":{"antennae":"X","wings":"2","pattern":"X","legs":"F"},"bonus":0.02},{"rt":1288,"stimulus":"bees-with-color/bee-A1SM.svg","response":1,"trial_type":"image-button-response","trial_index":85,"time_elapsed":771005,"internal_node_id":"0.0-4.0-0.37","subject_id":"6130bde304c92dc7a19fc8d1","study_id":"6197b3f67c2b5cd3b6d9596a","session_id":"619be41f3a1a6700d791c850","condition":"contingent","relevant_dimensions":["wings","legs"],"bee_group":{"antennae":"X","wings":"2","pattern":"X","legs":"F"},"action":"avoid","summary":"bad-avoid","bonus":0.02},{"rt":1396.300000000745,"stimulus":"\n                    <p><b>Action: <em>avoid</em></b></p>\n                    <p>This is the bee that you just saw.</p>\n                    <img src=\"bees-with-color/bee-A1SM.svg\" width=\"200\">\n                    <p><br>Your bonus pay is unchanged, and remains at $0.42.</p>\n            ","response":0,"trial_type":"html-button-response","trial_index":86,"time_elapsed":772404,"internal_node_id":"0.0-4.0-1.37","subject_id":"6130bde304c92dc7a19fc8d1","study_id":"6197b3f67c2b5cd3b6d9596a","session_id":"619be41f3a1a6700d791c850","condition":"contingent","relevant_dimensions":["wings","legs"],"bee_group":{"antennae":"X","wings":"2","pattern":"X","legs":"F"},"bonus":0.02},{"rt":1136.4000000022352,"stimulus":"bees-with-color/bee-A2SF.svg","response":0,"trial_type":"image-button-response","trial_index":87,"time_elapsed":773542,"internal_node_id":"0.0-4.0-0.38","subject_id":"6130bde304c92dc7a19fc8d1","study_id":"6197b3f67c2b5cd3b6d9596a","session_id":"619be41f3a1a6700d791c850","condition":"contingent","relevant_dimensions":["wings","legs"],"bee_group":{"antennae":"X","wings":"2","pattern":"X","legs":"F"},"action":"harvest","summary":"bad-harvest","bonus":0.02},{"rt":1509,"stimulus":"\n                    <p><b>Action: <em>harvest</em></b></p>\n                    <p>This is the bee that you just saw.</p>\n                    <img src=\"bees-with-color/bee-A2SF.svg\" width=\"200\">\n                    <p><span class=\"redText\">Bad choice, the bee was angry.</span><br><b>You have been stung!</b><br>Your pay has been decreased by $0.10. Your bonus pay is now $0.32.</p>\n            ","response":0,"trial_type":"html-button-response","trial_index":88,"time_elapsed":775053,"internal_node_id":"0.0-4.0-1.38","subject_id":"6130bde304c92dc7a19fc8d1","study_id":"6197b3f67c2b5cd3b6d9596a","session_id":"619be41f3a1a6700d791c850","condition":"contingent","relevant_dimensions":["wings","legs"],"bee_group":{"antennae":"X","wings":"2","pattern":"X","legs":"F"},"bonus":0.02},{"rt":1177.699999999255,"stimulus":"bees-with-color/bee-B2DF.svg","response":0,"trial_type":"image-button-response","trial_index":89,"time_elapsed":776233,"internal_node_id":"0.0-4.0-0.39","subject_id":"6130bde304c92dc7a19fc8d1","study_id":"6197b3f67c2b5cd3b6d9596a","session_id":"619be41f3a1a6700d791c850","condition":"contingent","relevant_dimensions":["wings","legs"],"bee_group":{"antennae":"X","wings":"2","pattern":"X","legs":"F"},"action":"harvest","summary":"bad-harvest","bonus":0.02},{"rt":1417.699999999255,"stimulus":"\n                    <p><b>Action: <em>harvest</em></b></p>\n                    <p>This is the bee that you just saw.</p>\n                    <img src=\"bees-with-color/bee-B2DF.svg\" width=\"200\">\n                    <p><span class=\"redText\">Bad choice, the bee was angry.</span><br><b>You have been stung!</b><br>Your pay has been decreased by $0.10. Your bonus pay is now $0.22.</p>\n            ","response":0,"trial_type":"html-button-response","trial_index":90,"time_elapsed":777652,"internal_node_id":"0.0-4.0-1.39","subject_id":"6130bde304c92dc7a19fc8d1","study_id":"6197b3f67c2b5cd3b6d9596a","session_id":"619be41f3a1a6700d791c850","condition":"contingent","relevant_dimensions":["wings","legs"],"bee_group":{"antennae":"X","wings":"2","pattern":"X","legs":"F"},"bonus":0.02},{"rt":1928.800000000745,"stimulus":"bees-with-color/bee-A1DF.svg","response":0,"trial_type":"image-button-response","trial_index":91,"time_elapsed":779583,"internal_node_id":"0.0-4.0-0.40","subject_id":"6130bde304c92dc7a19fc8d1","study_id":"6197b3f67c2b5cd3b6d9596a","session_id":"619be41f3a1a6700d791c850","condition":"contingent","relevant_dimensions":["wings","legs"],"bee_group":{"antennae":"X","wings":"2","pattern":"X","legs":"F"},"action":"harvest","summary":"good-harvest","bonus":0.02},{"rt":1866.9000000022352,"stimulus":"\n                    <p><b>Action: <em>harvest</em></b></p>\n                    <p>This is the bee that you just saw.</p>\n                    <img src=\"bees-with-color/bee-A1DF.svg\" width=\"200\">\n                    <p><span class=\"greenText\"><b>Successful harvest!</b></span><br>Your pay has increased by $0.02. Your bonus pay is now $0.24.</p>\n            ","response":0,"trial_type":"html-button-response","trial_index":92,"time_elapsed":781453,"internal_node_id":"0.0-4.0-1.40","subject_id":"6130bde304c92dc7a19fc8d1","study_id":"6197b3f67c2b5cd3b6d9596a","session_id":"619be41f3a1a6700d791c850","condition":"contingent","relevant_dimensions":["wings","legs"],"bee_group":{"antennae":"X","wings":"2","pattern":"X","legs":"F"},"bonus":0.02},{"rt":2602.7999999970198,"stimulus":"bees-with-color/bee-B1DM.svg","response":0,"trial_type":"image-button-response","trial_index":93,"time_elapsed":784058,"internal_node_id":"0.0-4.0-0.41","subject_id":"6130bde304c92dc7a19fc8d1","study_id":"6197b3f67c2b5cd3b6d9596a","session_id":"619be41f3a1a6700d791c850","condition":"contingent","relevant_dimensions":["wings","legs"],"bee_group":{"antennae":"X","wings":"2","pattern":"X","legs":"F"},"action":"harvest","summary":"good-harvest","bonus":0.02},{"rt":1191.5,"stimulus":"\n                    <p><b>Action: <em>harvest</em></b></p>\n                    <p>This is the bee that you just saw.</p>\n                    <img src=\"bees-with-color/bee-B1DM.svg\" width=\"200\">\n                    <p><span class=\"greenText\"><b>Successful harvest!</b></span><br>Your pay has increased by $0.02. Your bonus pay is now $0.26.</p>\n            ","response":0,"trial_type":"html-button-response","trial_index":94,"time_elapsed":785252,"internal_node_id":"0.0-4.0-1.41","subject_id":"6130bde304c92dc7a19fc8d1","study_id":"6197b3f67c2b5cd3b6d9596a","session_id":"619be41f3a1a6700d791c850","condition":"contingent","relevant_dimensions":["wings","legs"],"bee_group":{"antennae":"X","wings":"2","pattern":"X","legs":"F"},"bonus":0.02},{"rt":1865.300000000745,"stimulus":"bees-with-color/bee-B1SM.svg","response":1,"trial_type":"image-button-response","trial_index":95,"time_elapsed":787119,"internal_node_id":"0.0-4.0-0.42","subject_id":"6130bde304c92dc7a19fc8d1","study_id":"6197b3f67c2b5cd3b6d9596a","session_id":"619be41f3a1a6700d791c850","condition":"contingent","relevant_dimensions":["wings","legs"],"bee_group":{"antennae":"X","wings":"2","pattern":"X","legs":"F"},"action":"avoid","summary":"bad-avoid","bonus":0.02},{"rt":1887.6000000014901,"stimulus":"\n                    <p><b>Action: <em>avoid</em></b></p>\n                    <p>This is the bee that you just saw.</p>\n                    <img src=\"bees-with-color/bee-B1SM.svg\" width=\"200\">\n                    <p><br>Your bonus pay is unchanged, and remains at $0.26.</p>\n            ","response":0,"trial_type":"html-button-response","trial_index":96,"time_elapsed":789009,"internal_node_id":"0.0-4.0-1.42","subject_id":"6130bde304c92dc7a19fc8d1","study_id":"6197b3f67c2b5cd3b6d9596a","session_id":"619be41f3a1a6700d791c850","condition":"contingent","relevant_dimensions":["wings","legs"],"bee_group":{"antennae":"X","wings":"2","pattern":"X","legs":"F"},"bonus":0.02},{"rt":1785,"stimulus":"bees-with-color/bee-A2SM.svg","response":0,"trial_type":"image-button-response","trial_index":97,"time_elapsed":790797,"internal_node_id":"0.0-4.0-0.43","subject_id":"6130bde304c92dc7a19fc8d1","study_id":"6197b3f67c2b5cd3b6d9596a","session_id":"619be41f3a1a6700d791c850","condition":"contingent","relevant_dimensions":["wings","legs"],"bee_group":{"antennae":"X","wings":"2","pattern":"X","legs":"F"},"action":"harvest","summary":"good-harvest","bonus":0.02},{"rt":1755.3999999985099,"stimulus":"\n                    <p><b>Action: <em>harvest</em></b></p>\n                    <p>This is the bee that you just saw.</p>\n                    <img src=\"bees-with-color/bee-A2SM.svg\" width=\"200\">\n                    <p><span class=\"greenText\"><b>Successful harvest!</b></span><br>Your pay has increased by $0.02. Your bonus pay is now $0.28.</p>\n            ","response":0,"trial_type":"html-button-response","trial_index":98,"time_elapsed":792555,"internal_node_id":"0.0-4.0-1.43","subject_id":"6130bde304c92dc7a19fc8d1","study_id":"6197b3f67c2b5cd3b6d9596a","session_id":"619be41f3a1a6700d791c850","condition":"contingent","relevant_dimensions":["wings","legs"],"bee_group":{"antennae":"X","wings":"2","pattern":"X","legs":"F"},"bonus":0.02},{"rt":1185.300000000745,"stimulus":"bees-with-color/bee-B2SF.svg","response":0,"trial_type":"image-button-response","trial_index":99,"time_elapsed":793743,"internal_node_id":"0.0-4.0-0.44","subject_id":"6130bde304c92dc7a19fc8d1","study_id":"6197b3f67c2b5cd3b6d9596a","session_id":"619be41f3a1a6700d791c850","condition":"contingent","relevant_dimensions":["wings","legs"],"bee_group":{"antennae":"X","wings":"2","pattern":"X","legs":"F"},"action":"harvest","summary":"bad-harvest","bonus":0.02},{"rt":1539.8999999985099,"stimulus":"\n                    <p><b>Action: <em>harvest</em></b></p>\n                    <p>This is the bee that you just saw.</p>\n                    <img src=\"bees-with-color/bee-B2SF.svg\" width=\"200\">\n                    <p><span class=\"redText\">Bad choice, the bee was angry.</span><br><b>You have been stung!</b><br>Your pay has been decreased by $0.10. Your bonus pay is now $0.18.</p>\n            ","response":0,"trial_type":"html-button-response","trial_index":100,"time_elapsed":795285,"internal_node_id":"0.0-4.0-1.44","subject_id":"6130bde304c92dc7a19fc8d1","study_id":"6197b3f67c2b5cd3b6d9596a","session_id":"619be41f3a1a6700d791c850","condition":"contingent","relevant_dimensions":["wings","legs"],"bee_group":{"antennae":"X","wings":"2","pattern":"X","legs":"F"},"bonus":0.02},{"rt":1327,"stimulus":"bees-with-color/bee-B2SM.svg","response":1,"trial_type":"image-button-response","trial_index":101,"time_elapsed":796614,"internal_node_id":"0.0-4.0-0.45","subject_id":"6130bde304c92dc7a19fc8d1","study_id":"6197b3f67c2b5cd3b6d9596a","session_id":"619be41f3a1a6700d791c850","condition":"contingent","relevant_dimensions":["wings","legs"],"bee_group":{"antennae":"X","wings":"2","pattern":"X","legs":"F"},"action":"avoid","summary":"bad-avoid","bonus":0.02},{"rt":1339,"stimulus":"\n                    <p><b>Action: <em>avoid</em></b></p>\n                    <p>This is the bee that you just saw.</p>\n                    <img src=\"bees-with-color/bee-B2SM.svg\" width=\"200\">\n                    <p><br>Your bonus pay is unchanged, and remains at $0.18.</p>\n            ","response":0,"trial_type":"html-button-response","trial_index":102,"time_elapsed":797956,"internal_node_id":"0.0-4.0-1.45","subject_id":"6130bde304c92dc7a19fc8d1","study_id":"6197b3f67c2b5cd3b6d9596a","session_id":"619be41f3a1a6700d791c850","condition":"contingent","relevant_dimensions":["wings","legs"],"bee_group":{"antennae":"X","wings":"2","pattern":"X","legs":"F"},"bonus":0.02},{"rt":1109.800000000745,"stimulus":"bees-with-color/bee-A1DM.svg","response":0,"trial_type":"image-button-response","trial_index":103,"time_elapsed":799068,"internal_node_id":"0.0-4.0-0.46","subject_id":"6130bde304c92dc7a19fc8d1","study_id":"6197b3f67c2b5cd3b6d9596a","session_id":"619be41f3a1a6700d791c850","condition":"contingent","relevant_dimensions":["wings","legs"],"bee_group":{"antennae":"X","wings":"2","pattern":"X","legs":"F"},"action":"harvest","summary":"good-harvest","bonus":0.02},{"rt":1576,"stimulus":"\n                    <p><b>Action: <em>harvest</em></b></p>\n                    <p>This is the bee that you just saw.</p>\n                    <img src=\"bees-with-color/bee-A1DM.svg\" width=\"200\">\n                    <p><span class=\"greenText\"><b>Successful harvest!</b></span><br>Your pay has increased by $0.02. Your bonus pay is now $0.20.</p>\n            ","response":0,"trial_type":"html-button-response","trial_index":104,"time_elapsed":800646,"internal_node_id":"0.0-4.0-1.46","subject_id":"6130bde304c92dc7a19fc8d1","study_id":"6197b3f67c2b5cd3b6d9596a","session_id":"619be41f3a1a6700d791c850","condition":"contingent","relevant_dimensions":["wings","legs"],"bee_group":{"antennae":"X","wings":"2","pattern":"X","legs":"F"},"bonus":0.02},{"rt":2027.4000000022352,"stimulus":"bees-with-color/bee-A2DF.svg","response":1,"trial_type":"image-button-response","trial_index":105,"time_elapsed":802676,"internal_node_id":"0.0-4.0-0.47","subject_id":"6130bde304c92dc7a19fc8d1","study_id":"6197b3f67c2b5cd3b6d9596a","session_id":"619be41f3a1a6700d791c850","condition":"contingent","relevant_dimensions":["wings","legs"],"bee_group":{"antennae":"X","wings":"2","pattern":"X","legs":"F"},"action":"avoid","summary":"good-avoid","bonus":0.02},{"rt":1469.5,"stimulus":"\n                    <p><b>Action: <em>avoid</em></b></p>\n                    <p>This is the bee that you just saw.</p>\n                    <img src=\"bees-with-color/bee-A2DF.svg\" width=\"200\">\n                    <p><br>Your bonus pay is unchanged, and remains at $0.20.</p>\n            ","response":0,"trial_type":"html-button-response","trial_index":106,"time_elapsed":804147,"internal_node_id":"0.0-4.0-1.47","subject_id":"6130bde304c92dc7a19fc8d1","study_id":"6197b3f67c2b5cd3b6d9596a","session_id":"619be41f3a1a6700d791c850","condition":"contingent","relevant_dimensions":["wings","legs"],"bee_group":{"antennae":"X","wings":"2","pattern":"X","legs":"F"},"bonus":0.02},{"rt":6715.199999999255,"stimulus":"bees-with-color/bee-B2DF.svg","response":0,"trial_type":"image-button-response","trial_index":107,"time_elapsed":810865,"internal_node_id":"0.0-4.0-0.48","subject_id":"6130bde304c92dc7a19fc8d1","study_id":"6197b3f67c2b5cd3b6d9596a","session_id":"619be41f3a1a6700d791c850","condition":"contingent","relevant_dimensions":["wings","legs"],"bee_group":{"antennae":"X","wings":"2","pattern":"X","legs":"F"},"action":"harvest","summary":"bad-harvest","bonus":0.02},{"rt":1805.199999999255,"stimulus":"\n                    <p><b>Action: <em>harvest</em></b></p>\n                    <p>This is the bee that you just saw.</p>\n                    <img src=\"bees-with-color/bee-B2DF.svg\" width=\"200\">\n                    <p><span class=\"redText\">Bad choice, the bee was angry.</span><br><b>You have been stung!</b><br>Your pay has been decreased by $0.10. Your bonus pay is now $0.10.</p>\n            ","response":0,"trial_type":"html-button-response","trial_index":108,"time_elapsed":812673,"internal_node_id":"0.0-4.0-1.48","subject_id":"6130bde304c92dc7a19fc8d1","study_id":"6197b3f67c2b5cd3b6d9596a","session_id":"619be41f3a1a6700d791c850","condition":"contingent","relevant_dimensions":["wings","legs"],"bee_group":{"antennae":"X","wings":"2","pattern":"X","legs":"F"},"bonus":0.02},{"rt":2186.60000000149,"stimulus":"bees-with-color/bee-A1DM.svg","response":1,"trial_type":"image-button-response","trial_index":109,"time_elapsed":814862,"internal_node_id":"0.0-4.0-0.49","subject_id":"6130bde304c92dc7a19fc8d1","study_id":"6197b3f67c2b5cd3b6d9596a","session_id":"619be41f3a1a6700d791c850","condition":"contingent","relevant_dimensions":["wings","legs"],"bee_group":{"antennae":"X","wings":"2","pattern":"X","legs":"F"},"action":"avoid","summary":"bad-avoid","bonus":0.02},{"rt":1373,"stimulus":"\n                    <p><b>Action: <em>avoid</em></b></p>\n                    <p>This is the bee that you just saw.</p>\n                    <img src=\"bees-with-color/bee-A1DM.svg\" width=\"200\">\n                    <p><br>Your bonus pay is unchanged, and remains at $0.10.</p>\n            ","response":0,"trial_type":"html-button-response","trial_index":110,"time_elapsed":816237,"internal_node_id":"0.0-4.0-1.49","subject_id":"6130bde304c92dc7a19fc8d1","study_id":"6197b3f67c2b5cd3b6d9596a","session_id":"619be41f3a1a6700d791c850","condition":"contingent","relevant_dimensions":["wings","legs"],"bee_group":{"antennae":"X","wings":"2","pattern":"X","legs":"F"},"bonus":0.02},{"rt":1181,"stimulus":"bees-with-color/bee-B2DM.svg","response":0,"trial_type":"image-button-response","trial_index":111,"time_elapsed":817421,"internal_node_id":"0.0-4.0-0.50","subject_id":"6130bde304c92dc7a19fc8d1","study_id":"6197b3f67c2b5cd3b6d9596a","session_id":"619be41f3a1a6700d791c850","condition":"contingent","relevant_dimensions":["wings","legs"],"bee_group":{"antennae":"X","wings":"2","pattern":"X","legs":"F"},"action":"harvest","summary":"good-harvest","bonus":0.02},{"rt":1376.5,"stimulus":"\n                    <p><b>Action: <em>harvest</em></b></p>\n                    <p>This is the bee that you just saw.</p>\n                    <img src=\"bees-with-color/bee-B2DM.svg\" width=\"200\">\n                    <p><span class=\"greenText\"><b>Successful harvest!</b></span><br>Your pay has increased by $0.02. Your bonus pay is now $0.12.</p>\n            ","response":0,"trial_type":"html-button-response","trial_index":112,"time_elapsed":818801,"internal_node_id":"0.0-4.0-1.50","subject_id":"6130bde304c92dc7a19fc8d1","study_id":"6197b3f67c2b5cd3b6d9596a","session_id":"619be41f3a1a6700d791c850","condition":"contingent","relevant_dimensions":["wings","legs"],"bee_group":{"antennae":"X","wings":"2","pattern":"X","legs":"F"},"bonus":0.02},{"rt":1097.6000000014901,"stimulus":"bees-with-color/bee-A2SM.svg","response":0,"trial_type":"image-button-response","trial_index":113,"time_elapsed":819901,"internal_node_id":"0.0-4.0-0.51","subject_id":"6130bde304c92dc7a19fc8d1","study_id":"6197b3f67c2b5cd3b6d9596a","session_id":"619be41f3a1a6700d791c850","condition":"contingent","relevant_dimensions":["wings","legs"],"bee_group":{"antennae":"X","wings":"2","pattern":"X","legs":"F"},"action":"harvest","summary":"good-harvest","bonus":0.02},{"rt":1237.3999999985099,"stimulus":"\n                    <p><b>Action: <em>harvest</em></b></p>\n                    <p>This is the bee that you just saw.</p>\n                    <img src=\"bees-with-color/bee-A2SM.svg\" width=\"200\">\n                    <p><span class=\"greenText\"><b>Successful harvest!</b></span><br>Your pay has increased by $0.02. Your bonus pay is now $0.14.</p>\n            ","response":0,"trial_type":"html-button-response","trial_index":114,"time_elapsed":821140,"internal_node_id":"0.0-4.0-1.51","subject_id":"6130bde304c92dc7a19fc8d1","study_id":"6197b3f67c2b5cd3b6d9596a","session_id":"619be41f3a1a6700d791c850","condition":"contingent","relevant_dimensions":["wings","legs"],"bee_group":{"antennae":"X","wings":"2","pattern":"X","legs":"F"},"bonus":0.02},{"rt":1163.5999999977648,"stimulus":"bees-with-color/bee-B2SM.svg","response":0,"trial_type":"image-button-response","trial_index":115,"time_elapsed":822306,"internal_node_id":"0.0-4.0-0.52","subject_id":"6130bde304c92dc7a19fc8d1","study_id":"6197b3f67c2b5cd3b6d9596a","session_id":"619be41f3a1a6700d791c850","condition":"contingent","relevant_dimensions":["wings","legs"],"bee_group":{"antennae":"X","wings":"2","pattern":"X","legs":"F"},"action":"harvest","summary":"good-harvest","bonus":0.02},{"rt":1544.300000000745,"stimulus":"\n                    <p><b>Action: <em>harvest</em></b></p>\n                    <p>This is the bee that you just saw.</p>\n                    <img src=\"bees-with-color/bee-B2SM.svg\" width=\"200\">\n                    <p><span class=\"greenText\"><b>Successful harvest!</b></span><br>Your pay has increased by $0.02. Your bonus pay is now $0.16.</p>\n            ","response":0,"trial_type":"html-button-response","trial_index":116,"time_elapsed":823853,"internal_node_id":"0.0-4.0-1.52","subject_id":"6130bde304c92dc7a19fc8d1","study_id":"6197b3f67c2b5cd3b6d9596a","session_id":"619be41f3a1a6700d791c850","condition":"contingent","relevant_dimensions":["wings","legs"],"bee_group":{"antennae":"X","wings":"2","pattern":"X","legs":"F"},"bonus":0.02},{"rt":1207.4000000022352,"stimulus":"bees-with-color/bee-A1SM.svg","response":0,"trial_type":"image-button-response","trial_index":117,"time_elapsed":825063,"internal_node_id":"0.0-4.0-0.53","subject_id":"6130bde304c92dc7a19fc8d1","study_id":"6197b3f67c2b5cd3b6d9596a","session_id":"619be41f3a1a6700d791c850","condition":"contingent","relevant_dimensions":["wings","legs"],"bee_group":{"antennae":"X","wings":"2","pattern":"X","legs":"F"},"action":"harvest","summary":"good-harvest","bonus":0.02},{"rt":1538.7999999970198,"stimulus":"\n                    <p><b>Action: <em>harvest</em></b></p>\n                    <p>This is the bee that you just saw.</p>\n                    <img src=\"bees-with-color/bee-A1SM.svg\" width=\"200\">\n                    <p><span class=\"greenText\"><b>Successful harvest!</b></span><br>Your pay has increased by $0.02. Your bonus pay is now $0.18.</p>\n            ","response":0,"trial_type":"html-button-response","trial_index":118,"time_elapsed":826605,"internal_node_id":"0.0-4.0-1.53","subject_id":"6130bde304c92dc7a19fc8d1","study_id":"6197b3f67c2b5cd3b6d9596a","session_id":"619be41f3a1a6700d791c850","condition":"contingent","relevant_dimensions":["wings","legs"],"bee_group":{"antennae":"X","wings":"2","pattern":"X","legs":"F"},"bonus":0.02},{"rt":1169.6000000014901,"stimulus":"bees-with-color/bee-A2SF.svg","response":0,"trial_type":"image-button-response","trial_index":119,"time_elapsed":827776,"internal_node_id":"0.0-4.0-0.54","subject_id":"6130bde304c92dc7a19fc8d1","study_id":"6197b3f67c2b5cd3b6d9596a","session_id":"619be41f3a1a6700d791c850","condition":"contingent","relevant_dimensions":["wings","legs"],"bee_group":{"antennae":"X","wings":"2","pattern":"X","legs":"F"},"action":"harvest","summary":"bad-harvest","bonus":0.02},{"rt":1715.199999999255,"stimulus":"\n                    <p><b>Action: <em>harvest</em></b></p>\n                    <p>This is the bee that you just saw.</p>\n                    <img src=\"bees-with-color/bee-A2SF.svg\" width=\"200\">\n                    <p><span class=\"redText\">Bad choice, the bee was angry.</span><br><b>You have been stung!</b><br>Your pay has been decreased by $0.10. Your bonus pay is now $0.08.</p>\n            ","response":0,"trial_type":"html-button-response","trial_index":120,"time_elapsed":829494,"internal_node_id":"0.0-4.0-1.54","subject_id":"6130bde304c92dc7a19fc8d1","study_id":"6197b3f67c2b5cd3b6d9596a","session_id":"619be41f3a1a6700d791c850","condition":"contingent","relevant_dimensions":["wings","legs"],"bee_group":{"antennae":"X","wings":"2","pattern":"X","legs":"F"},"bonus":0.02},{"rt":1362.8999999985099,"stimulus":"bees-with-color/bee-B1DM.svg","response":0,"trial_type":"image-button-response","trial_index":121,"time_elapsed":830860,"internal_node_id":"0.0-4.0-0.55","subject_id":"6130bde304c92dc7a19fc8d1","study_id":"6197b3f67c2b5cd3b6d9596a","session_id":"619be41f3a1a6700d791c850","condition":"contingent","relevant_dimensions":["wings","legs"],"bee_group":{"antennae":"X","wings":"2","pattern":"X","legs":"F"},"action":"harvest","summary":"good-harvest","bonus":0.02},{"rt":2164.400000002235,"stimulus":"\n                    <p><b>Action: <em>harvest</em></b></p>\n                    <p>This is the bee that you just saw.</p>\n                    <img src=\"bees-with-color/bee-B1DM.svg\" width=\"200\">\n                    <p><span class=\"greenText\"><b>Successful harvest!</b></span><br>Your pay has increased by $0.02. Your bonus pay is now $0.10.</p>\n            ","response":0,"trial_type":"html-button-response","trial_index":122,"time_elapsed":833027,"internal_node_id":"0.0-4.0-1.55","subject_id":"6130bde304c92dc7a19fc8d1","study_id":"6197b3f67c2b5cd3b6d9596a","session_id":"619be41f3a1a6700d791c850","condition":"contingent","relevant_dimensions":["wings","legs"],"bee_group":{"antennae":"X","wings":"2","pattern":"X","legs":"F"},"bonus":0.02},{"rt":1270.199999999255,"stimulus":"bees-with-color/bee-A2DF.svg","response":0,"trial_type":"image-button-response","trial_index":123,"time_elapsed":834301,"internal_node_id":"0.0-4.0-0.56","subject_id":"6130bde304c92dc7a19fc8d1","study_id":"6197b3f67c2b5cd3b6d9596a","session_id":"619be41f3a1a6700d791c850","condition":"contingent","relevant_dimensions":["wings","legs"],"bee_group":{"antennae":"X","wings":"2","pattern":"X","legs":"F"},"action":"harvest","summary":"bad-harvest","bonus":0.02},{"rt":1262.5,"stimulus":"\n                    <p><b>Action: <em>harvest</em></b></p>\n                    <p>This is the bee that you just saw.</p>\n                    <img src=\"bees-with-color/bee-A2DF.svg\" width=\"200\">\n                    <p><span class=\"redText\">Bad choice, the bee was angry.</span><br><b>You have been stung!</b><br>Your pay has been decreased by $0.10. Your bonus pay is now $0.00.</p>\n            ","response":0,"trial_type":"html-button-response","trial_index":124,"time_elapsed":835566,"internal_node_id":"0.0-4.0-1.56","subject_id":"6130bde304c92dc7a19fc8d1","study_id":"6197b3f67c2b5cd3b6d9596a","session_id":"619be41f3a1a6700d791c850","condition":"contingent","relevant_dimensions":["wings","legs"],"bee_group":{"antennae":"X","wings":"2","pattern":"X","legs":"F"},"bonus":0.02},{"rt":2668,"stimulus":"bees-with-color/bee-A1DF.svg","response":0,"trial_type":"image-button-response","trial_index":125,"time_elapsed":838237,"internal_node_id":"0.0-4.0-0.57","subject_id":"6130bde304c92dc7a19fc8d1","study_id":"6197b3f67c2b5cd3b6d9596a","session_id":"619be41f3a1a6700d791c850","condition":"contingent","relevant_dimensions":["wings","legs"],"bee_group":{"antennae":"X","wings":"2","pattern":"X","legs":"F"},"action":"harvest","summary":"good-harvest","bonus":0.02},{"rt":1551.5,"stimulus":"\n                    <p><b>Action: <em>harvest</em></b></p>\n                    <p>This is the bee that you just saw.</p>\n                    <img src=\"bees-with-color/bee-A1DF.svg\" width=\"200\">\n                    <p><span class=\"greenText\"><b>Successful harvest!</b></span><br>Your pay has increased by $0.02. Your bonus pay is now $0.02.</p>\n            ","response":0,"trial_type":"html-button-response","trial_index":126,"time_elapsed":839792,"internal_node_id":"0.0-4.0-1.57","subject_id":"6130bde304c92dc7a19fc8d1","study_id":"6197b3f67c2b5cd3b6d9596a","session_id":"619be41f3a1a6700d791c850","condition":"contingent","relevant_dimensions":["wings","legs"],"bee_group":{"antennae":"X","wings":"2","pattern":"X","legs":"F"},"bonus":0.02},{"rt":1245.5999999977648,"stimulus":"bees-with-color/bee-B2SF.svg","response":0,"trial_type":"image-button-response","trial_index":127,"time_elapsed":841041,"internal_node_id":"0.0-4.0-0.58","subject_id":"6130bde304c92dc7a19fc8d1","study_id":"6197b3f67c2b5cd3b6d9596a","session_id":"619be41f3a1a6700d791c850","condition":"contingent","relevant_dimensions":["wings","legs"],"bee_group":{"antennae":"X","wings":"2","pattern":"X","legs":"F"},"action":"harvest","summary":"bad-harvest","bonus":0.02},{"rt":1427.2000000029802,"stimulus":"\n                    <p><b>Action: <em>harvest</em></b></p>\n                    <p>This is the bee that you just saw.</p>\n                    <img src=\"bees-with-color/bee-B2SF.svg\" width=\"200\">\n                    <p><span class=\"redText\">Bad choice, the bee was angry.</span><br><b>You have been stung!</b><br>Your pay has been decreased by $0.10. Your bonus pay is now $0.00.</p>\n            ","response":0,"trial_type":"html-button-response","trial_index":128,"time_elapsed":842470,"internal_node_id":"0.0-4.0-1.58","subject_id":"6130bde304c92dc7a19fc8d1","study_id":"6197b3f67c2b5cd3b6d9596a","session_id":"619be41f3a1a6700d791c850","condition":"contingent","relevant_dimensions":["wings","legs"],"bee_group":{"antennae":"X","wings":"2","pattern":"X","legs":"F"},"bonus":0.02},{"rt":1885.5,"stimulus":"bees-with-color/bee-B1SM.svg","response":0,"trial_type":"image-button-response","trial_index":129,"time_elapsed":844358,"internal_node_id":"0.0-4.0-0.59","subject_id":"6130bde304c92dc7a19fc8d1","study_id":"6197b3f67c2b5cd3b6d9596a","session_id":"619be41f3a1a6700d791c850","condition":"contingent","relevant_dimensions":["wings","legs"],"bee_group":{"antennae":"X","wings":"2","pattern":"X","legs":"F"},"action":"harvest","summary":"good-harvest","bonus":0.02},{"rt":1758.1000000014901,"stimulus":"\n                    <p><b>Action: <em>harvest</em></b></p>\n                    <p>This is the bee that you just saw.</p>\n                    <img src=\"bees-with-color/bee-B1SM.svg\" width=\"200\">\n                    <p><span class=\"greenText\"><b>Successful harvest!</b></span><br>Your pay has increased by $0.02. Your bonus pay is now $0.02.</p>\n            ","response":0,"trial_type":"html-button-response","trial_index":130,"time_elapsed":846119,"internal_node_id":"0.0-4.0-1.59","subject_id":"6130bde304c92dc7a19fc8d1","study_id":"6197b3f67c2b5cd3b6d9596a","session_id":"619be41f3a1a6700d791c850","condition":"contingent","relevant_dimensions":["wings","legs"],"bee_group":{"antennae":"X","wings":"2","pattern":"X","legs":"F"},"bonus":0.02},{"rt":1277.699999999255,"stimulus":"bees-with-color/bee-B1SF.svg","response":0,"trial_type":"image-button-response","trial_index":131,"time_elapsed":847399,"internal_node_id":"0.0-4.0-0.60","subject_id":"6130bde304c92dc7a19fc8d1","study_id":"6197b3f67c2b5cd3b6d9596a","session_id":"619be41f3a1a6700d791c850","condition":"contingent","relevant_dimensions":["wings","legs"],"bee_group":{"antennae":"X","wings":"2","pattern":"X","legs":"F"},"action":"harvest","summary":"good-harvest","bonus":0.02},{"rt":1431.8999999985099,"stimulus":"\n                    <p><b>Action: <em>harvest</em></b></p>\n                    <p>This is the bee that you just saw.</p>\n                    <img src=\"bees-with-color/bee-B1SF.svg\" width=\"200\">\n                    <p><span class=\"greenText\"><b>Successful harvest!</b></span><br>Your pay has increased by $0.02. Your bonus pay is now $0.04.</p>\n            ","response":0,"trial_type":"html-button-response","trial_index":132,"time_elapsed":848833,"internal_node_id":"0.0-4.0-1.60","subject_id":"6130bde304c92dc7a19fc8d1","study_id":"6197b3f67c2b5cd3b6d9596a","session_id":"619be41f3a1a6700d791c850","condition":"contingent","relevant_dimensions":["wings","legs"],"bee_group":{"antennae":"X","wings":"2","pattern":"X","legs":"F"},"bonus":0.02},{"rt":1257.5,"stimulus":"bees-with-color/bee-B1DF.svg","response":0,"trial_type":"image-button-response","trial_index":133,"time_elapsed":850092,"internal_node_id":"0.0-4.0-0.61","subject_id":"6130bde304c92dc7a19fc8d1","study_id":"6197b3f67c2b5cd3b6d9596a","session_id":"619be41f3a1a6700d791c850","condition":"contingent","relevant_dimensions":["wings","legs"],"bee_group":{"antennae":"X","wings":"2","pattern":"X","legs":"F"},"action":"harvest","summary":"good-harvest","bonus":0.02},{"rt":1761.199999999255,"stimulus":"\n                    <p><b>Action: <em>harvest</em></b></p>\n                    <p>This is the bee that you just saw.</p>\n                    <img src=\"bees-with-color/bee-B1DF.svg\" width=\"200\">\n                    <p><span class=\"greenText\"><b>Successful harvest!</b></span><br>Your pay has increased by $0.02. Your bonus pay is now $0.06.</p>\n            ","response":0,"trial_type":"html-button-response","trial_index":134,"time_elapsed":851856,"internal_node_id":"0.0-4.0-1.61","subject_id":"6130bde304c92dc7a19fc8d1","study_id":"6197b3f67c2b5cd3b6d9596a","session_id":"619be41f3a1a6700d791c850","condition":"contingent","relevant_dimensions":["wings","legs"],"bee_group":{"antennae":"X","wings":"2","pattern":"X","legs":"F"},"bonus":0.02},{"rt":1263.199999999255,"stimulus":"bees-with-color/bee-A1SF.svg","response":0,"trial_type":"image-button-response","trial_index":135,"time_elapsed":853121,"internal_node_id":"0.0-4.0-0.62","subject_id":"6130bde304c92dc7a19fc8d1","study_id":"6197b3f67c2b5cd3b6d9596a","session_id":"619be41f3a1a6700d791c850","condition":"contingent","relevant_dimensions":["wings","legs"],"bee_group":{"antennae":"X","wings":"2","pattern":"X","legs":"F"},"action":"harvest","summary":"good-harvest","bonus":0.02},{"rt":1459.699999999255,"stimulus":"\n                    <p><b>Action: <em>harvest</em></b></p>\n                    <p>This is the bee that you just saw.</p>\n                    <img src=\"bees-with-color/bee-A1SF.svg\" width=\"200\">\n                    <p><span class=\"greenText\"><b>Successful harvest!</b></span><br>Your pay has increased by $0.02. Your bonus pay is now $0.08.</p>\n            ","response":0,"trial_type":"html-button-response","trial_index":136,"time_elapsed":854583,"internal_node_id":"0.0-4.0-1.62","subject_id":"6130bde304c92dc7a19fc8d1","study_id":"6197b3f67c2b5cd3b6d9596a","session_id":"619be41f3a1a6700d791c850","condition":"contingent","relevant_dimensions":["wings","legs"],"bee_group":{"antennae":"X","wings":"2","pattern":"X","legs":"F"},"bonus":0.02},{"rt":1233.699999999255,"stimulus":"bees-with-color/bee-A2DM.svg","response":0,"trial_type":"image-button-response","trial_index":137,"time_elapsed":855818,"internal_node_id":"0.0-4.0-0.63","subject_id":"6130bde304c92dc7a19fc8d1","study_id":"6197b3f67c2b5cd3b6d9596a","session_id":"619be41f3a1a6700d791c850","condition":"contingent","relevant_dimensions":["wings","legs"],"bee_group":{"antennae":"X","wings":"2","pattern":"X","legs":"F"},"action":"harvest","summary":"good-harvest","bonus":0.02},{"rt":1490,"stimulus":"\n                    <p><b>Action: <em>harvest</em></b></p>\n                    <p>This is the bee that you just saw.</p>\n                    <img src=\"bees-with-color/bee-A2DM.svg\" width=\"200\">\n                    <p><span class=\"greenText\"><b>Successful harvest!</b></span><br>Your pay has increased by $0.02. Your bonus pay is now $0.10.</p>\n            ","response":0,"trial_type":"html-button-response","trial_index":138,"time_elapsed":857310,"internal_node_id":"0.0-4.0-1.63","subject_id":"6130bde304c92dc7a19fc8d1","study_id":"6197b3f67c2b5cd3b6d9596a","session_id":"619be41f3a1a6700d791c850","condition":"contingent","relevant_dimensions":["wings","legs"],"bee_group":{"antennae":"X","wings":"2","pattern":"X","legs":"F"},"bonus":0.02},{"rt":3633.10000000149,"stimulus":"You have completed the first part of this experiment.<br><br>You will now begin a shorter second part, in which you will receive no feedback.<br>The same rules regarding bonus pay apply.<br><br>Press any key to begin.","response":" ","trial_type":"html-keyboard-response","trial_index":139,"time_elapsed":860945,"internal_node_id":"0.0-5.0","subject_id":"6130bde304c92dc7a19fc8d1","study_id":"6197b3f67c2b5cd3b6d9596a","session_id":"619be41f3a1a6700d791c850","condition":"contingent","relevant_dimensions":["wings","legs"],"bee_group":{"antennae":"X","wings":"2","pattern":"X","legs":"F"},"bonus":0.02},{"rt":3217.699999999255,"stimulus":"bees-with-color/bee-A2SF.svg","response":0,"trial_type":"image-button-response","trial_index":140,"time_elapsed":864182,"internal_node_id":"0.0-6.0-0.0","subject_id":"6130bde304c92dc7a19fc8d1","study_id":"6197b3f67c2b5cd3b6d9596a","session_id":"619be41f3a1a6700d791c850","condition":"contingent","relevant_dimensions":["wings","legs"],"bee_group":{"antennae":"X","wings":"2","pattern":"X","legs":"F"},"bonus":0.02},{"rt":2995.199999999255,"stimulus":"bees-with-color/bee-B2DM.svg","response":0,"trial_type":"image-button-response","trial_index":141,"time_elapsed":867180,"internal_node_id":"0.0-6.0-0.1","subject_id":"6130bde304c92dc7a19fc8d1","study_id":"6197b3f67c2b5cd3b6d9596a","session_id":"619be41f3a1a6700d791c850","condition":"contingent","relevant_dimensions":["wings","legs"],"bee_group":{"antennae":"X","wings":"2","pattern":"X","legs":"F"},"bonus":0.02},{"rt":4774.300000000745,"stimulus":"bees-with-color/bee-A1DM.svg","response":1,"trial_type":"image-button-response","trial_index":142,"time_elapsed":871957,"internal_node_id":"0.0-6.0-0.2","subject_id":"6130bde304c92dc7a19fc8d1","study_id":"6197b3f67c2b5cd3b6d9596a","session_id":"619be41f3a1a6700d791c850","condition":"contingent","relevant_dimensions":["wings","legs"],"bee_group":{"antennae":"X","wings":"2","pattern":"X","legs":"F"},"bonus":0.02},{"rt":3015.900000002235,"stimulus":"bees-with-color/bee-B2SM.svg","response":0,"trial_type":"image-button-response","trial_index":143,"time_elapsed":874976,"internal_node_id":"0.0-6.0-0.3","subject_id":"6130bde304c92dc7a19fc8d1","study_id":"6197b3f67c2b5cd3b6d9596a","session_id":"619be41f3a1a6700d791c850","condition":"contingent","relevant_dimensions":["wings","legs"],"bee_group":{"antennae":"X","wings":"2","pattern":"X","legs":"F"},"bonus":0.02},{"rt":2293.7999999970198,"stimulus":"bees-with-color/bee-A2DF.svg","response":0,"trial_type":"image-button-response","trial_index":144,"time_elapsed":877273,"internal_node_id":"0.0-6.0-0.4","subject_id":"6130bde304c92dc7a19fc8d1","study_id":"6197b3f67c2b5cd3b6d9596a","session_id":"619be41f3a1a6700d791c850","condition":"contingent","relevant_dimensions":["wings","legs"],"bee_group":{"antennae":"X","wings":"2","pattern":"X","legs":"F"},"bonus":0.02},{"rt":2497.900000002235,"stimulus":"bees-with-color/bee-B1DM.svg","response":1,"trial_type":"image-button-response","trial_index":145,"time_elapsed":879774,"internal_node_id":"0.0-6.0-0.5","subject_id":"6130bde304c92dc7a19fc8d1","study_id":"6197b3f67c2b5cd3b6d9596a","session_id":"619be41f3a1a6700d791c850","condition":"contingent","relevant_dimensions":["wings","legs"],"bee_group":{"antennae":"X","wings":"2","pattern":"X","legs":"F"},"bonus":0.02},{"rt":1131.0999999977648,"stimulus":"bees-with-color/bee-B1SM.svg","response":1,"trial_type":"image-button-response","trial_index":146,"time_elapsed":880910,"internal_node_id":"0.0-6.0-0.6","subject_id":"6130bde304c92dc7a19fc8d1","study_id":"6197b3f67c2b5cd3b6d9596a","session_id":"619be41f3a1a6700d791c850","condition":"contingent","relevant_dimensions":["wings","legs"],"bee_group":{"antennae":"X","wings":"2","pattern":"X","legs":"F"},"bonus":0.02},{"rt":1370.8999999985099,"stimulus":"bees-with-color/bee-A2DM.svg","response":0,"trial_type":"image-button-response","trial_index":147,"time_elapsed":882284,"internal_node_id":"0.0-6.0-0.7","subject_id":"6130bde304c92dc7a19fc8d1","study_id":"6197b3f67c2b5cd3b6d9596a","session_id":"619be41f3a1a6700d791c850","condition":"contingent","relevant_dimensions":["wings","legs"],"bee_group":{"antennae":"X","wings":"2","pattern":"X","legs":"F"},"bonus":0.02},{"rt":934.1999999992549,"stimulus":"bees-with-color/bee-B1DF.svg","response":0,"trial_type":"image-button-response","trial_index":148,"time_elapsed":883221,"internal_node_id":"0.0-6.0-0.8","subject_id":"6130bde304c92dc7a19fc8d1","study_id":"6197b3f67c2b5cd3b6d9596a","session_id":"619be41f3a1a6700d791c850","condition":"contingent","relevant_dimensions":["wings","legs"],"bee_group":{"antennae":"X","wings":"2","pattern":"X","legs":"F"},"bonus":0.02},{"rt":1635,"stimulus":"bees-with-color/bee-B1SF.svg","response":1,"trial_type":"image-button-response","trial_index":149,"time_elapsed":884859,"internal_node_id":"0.0-6.0-0.9","subject_id":"6130bde304c92dc7a19fc8d1","study_id":"6197b3f67c2b5cd3b6d9596a","session_id":"619be41f3a1a6700d791c850","condition":"contingent","relevant_dimensions":["wings","legs"],"bee_group":{"antennae":"X","wings":"2","pattern":"X","legs":"F"},"bonus":0.02},{"rt":1845.8999999985099,"stimulus":"bees-with-color/bee-B2DF.svg","response":0,"trial_type":"image-button-response","trial_index":150,"time_elapsed":886707,"internal_node_id":"0.0-6.0-0.10","subject_id":"6130bde304c92dc7a19fc8d1","study_id":"6197b3f67c2b5cd3b6d9596a","session_id":"619be41f3a1a6700d791c850","condition":"contingent","relevant_dimensions":["wings","legs"],"bee_group":{"antennae":"X","wings":"2","pattern":"X","legs":"F"},"bonus":0.02},{"rt":1046.800000000745,"stimulus":"bees-with-color/bee-A1DF.svg","response":0,"trial_type":"image-button-response","trial_index":151,"time_elapsed":887757,"internal_node_id":"0.0-6.0-0.11","subject_id":"6130bde304c92dc7a19fc8d1","study_id":"6197b3f67c2b5cd3b6d9596a","session_id":"619be41f3a1a6700d791c850","condition":"contingent","relevant_dimensions":["wings","legs"],"bee_group":{"antennae":"X","wings":"2","pattern":"X","legs":"F"},"bonus":0.02},{"rt":1594.300000000745,"stimulus":"bees-with-color/bee-A2SM.svg","response":1,"trial_type":"image-button-response","trial_index":152,"time_elapsed":889354,"internal_node_id":"0.0-6.0-0.12","subject_id":"6130bde304c92dc7a19fc8d1","study_id":"6197b3f67c2b5cd3b6d9596a","session_id":"619be41f3a1a6700d791c850","condition":"contingent","relevant_dimensions":["wings","legs"],"bee_group":{"antennae":"X","wings":"2","pattern":"X","legs":"F"},"bonus":0.02},{"rt":1313,"stimulus":"bees-with-color/bee-A1SF.svg","response":0,"trial_type":"image-button-response","trial_index":153,"time_elapsed":890670,"internal_node_id":"0.0-6.0-0.13","subject_id":"6130bde304c92dc7a19fc8d1","study_id":"6197b3f67c2b5cd3b6d9596a","session_id":"619be41f3a1a6700d791c850","condition":"contingent","relevant_dimensions":["wings","legs"],"bee_group":{"antennae":"X","wings":"2","pattern":"X","legs":"F"},"bonus":0.02},{"rt":446.5,"stimulus":"bees-with-color/bee-B2SF.svg","response":0,"trial_type":"image-button-response","trial_index":154,"time_elapsed":891120,"internal_node_id":"0.0-6.0-0.14","subject_id":"6130bde304c92dc7a19fc8d1","study_id":"6197b3f67c2b5cd3b6d9596a","session_id":"619be41f3a1a6700d791c850","condition":"contingent","relevant_dimensions":["wings","legs"],"bee_group":{"antennae":"X","wings":"2","pattern":"X","legs":"F"},"bonus":0.02},{"rt":303.1000000014901,"stimulus":"bees-with-color/bee-A1SM.svg","response":0,"trial_type":"image-button-response","trial_index":155,"time_elapsed":891426,"internal_node_id":"0.0-6.0-0.15","subject_id":"6130bde304c92dc7a19fc8d1","study_id":"6197b3f67c2b5cd3b6d9596a","session_id":"619be41f3a1a6700d791c850","condition":"contingent","relevant_dimensions":["wings","legs"],"bee_group":{"antennae":"X","wings":"2","pattern":"X","legs":"F"},"bonus":0.02},{"rt":317.8999999985099,"stimulus":"bees-with-color/bee-A1DM.svg","response":0,"trial_type":"image-button-response","trial_index":156,"time_elapsed":891747,"internal_node_id":"0.0-6.0-0.16","subject_id":"6130bde304c92dc7a19fc8d1","study_id":"6197b3f67c2b5cd3b6d9596a","session_id":"619be41f3a1a6700d791c850","condition":"contingent","relevant_dimensions":["wings","legs"],"bee_group":{"antennae":"X","wings":"2","pattern":"X","legs":"F"},"bonus":0.02},{"rt":358.30000000074506,"stimulus":"bees-with-color/bee-A2SF.svg","response":0,"trial_type":"image-button-response","trial_index":157,"time_elapsed":892108,"internal_node_id":"0.0-6.0-0.17","subject_id":"6130bde304c92dc7a19fc8d1","study_id":"6197b3f67c2b5cd3b6d9596a","session_id":"619be41f3a1a6700d791c850","condition":"contingent","relevant_dimensions":["wings","legs"],"bee_group":{"antennae":"X","wings":"2","pattern":"X","legs":"F"},"bonus":0.02},{"rt":1083.0999999977648,"stimulus":"bees-with-color/bee-A1SM.svg","response":1,"trial_type":"image-button-response","trial_index":158,"time_elapsed":893193,"internal_node_id":"0.0-6.0-0.18","subject_id":"6130bde304c92dc7a19fc8d1","study_id":"6197b3f67c2b5cd3b6d9596a","session_id":"619be41f3a1a6700d791c850","condition":"contingent","relevant_dimensions":["wings","legs"],"bee_group":{"antennae":"X","wings":"2","pattern":"X","legs":"F"},"bonus":0.02},{"rt":751.1999999992549,"stimulus":"bees-with-color/bee-A2DM.svg","response":1,"trial_type":"image-button-response","trial_index":159,"time_elapsed":893947,"internal_node_id":"0.0-6.0-0.19","subject_id":"6130bde304c92dc7a19fc8d1","study_id":"6197b3f67c2b5cd3b6d9596a","session_id":"619be41f3a1a6700d791c850","condition":"contingent","relevant_dimensions":["wings","legs"],"bee_group":{"antennae":"X","wings":"2","pattern":"X","legs":"F"},"bonus":0.02},{"rt":747.3000000007451,"stimulus":"bees-with-color/bee-B1SM.svg","response":1,"trial_type":"image-button-response","trial_index":160,"time_elapsed":894697,"internal_node_id":"0.0-6.0-0.20","subject_id":"6130bde304c92dc7a19fc8d1","study_id":"6197b3f67c2b5cd3b6d9596a","session_id":"619be41f3a1a6700d791c850","condition":"contingent","relevant_dimensions":["wings","legs"],"bee_group":{"antennae":"X","wings":"2","pattern":"X","legs":"F"},"bonus":0.02},{"rt":1455.300000000745,"stimulus":"bees-with-color/bee-B2SF.svg","response":0,"trial_type":"image-button-response","trial_index":161,"time_elapsed":896155,"internal_node_id":"0.0-6.0-0.21","subject_id":"6130bde304c92dc7a19fc8d1","study_id":"6197b3f67c2b5cd3b6d9596a","session_id":"619be41f3a1a6700d791c850","condition":"contingent","relevant_dimensions":["wings","legs"],"bee_group":{"antennae":"X","wings":"2","pattern":"X","legs":"F"},"bonus":0.02},{"rt":413,"stimulus":"bees-with-color/bee-B1DF.svg","response":0,"trial_type":"image-button-response","trial_index":162,"time_elapsed":896571,"internal_node_id":"0.0-6.0-0.22","subject_id":"6130bde304c92dc7a19fc8d1","study_id":"6197b3f67c2b5cd3b6d9596a","session_id":"619be41f3a1a6700d791c850","condition":"contingent","relevant_dimensions":["wings","legs"],"bee_group":{"antennae":"X","wings":"2","pattern":"X","legs":"F"},"bonus":0.02},{"rt":1686.8999999985099,"stimulus":"bees-with-color/bee-A1DF.svg","response":0,"trial_type":"image-button-response","trial_index":163,"time_elapsed":898260,"internal_node_id":"0.0-6.0-0.23","subject_id":"6130bde304c92dc7a19fc8d1","study_id":"6197b3f67c2b5cd3b6d9596a","session_id":"619be41f3a1a6700d791c850","condition":"contingent","relevant_dimensions":["wings","legs"],"bee_group":{"antennae":"X","wings":"2","pattern":"X","legs":"F"},"bonus":0.02},{"rt":1041.7000000029802,"stimulus":"bees-with-color/bee-B1DM.svg","response":1,"trial_type":"image-button-response","trial_index":164,"time_elapsed":899304,"internal_node_id":"0.0-6.0-0.24","subject_id":"6130bde304c92dc7a19fc8d1","study_id":"6197b3f67c2b5cd3b6d9596a","session_id":"619be41f3a1a6700d791c850","condition":"contingent","relevant_dimensions":["wings","legs"],"bee_group":{"antennae":"X","wings":"2","pattern":"X","legs":"F"},"bonus":0.02},{"rt":1042.8999999985099,"stimulus":"bees-with-color/bee-A2SM.svg","response":0,"trial_type":"image-button-response","trial_index":165,"time_elapsed":900350,"internal_node_id":"0.0-6.0-0.25","subject_id":"6130bde304c92dc7a19fc8d1","study_id":"6197b3f67c2b5cd3b6d9596a","session_id":"619be41f3a1a6700d791c850","condition":"contingent","relevant_dimensions":["wings","legs"],"