[{"success":true,"trial_type":"fullscreen","trial_index":0,"time_elapsed":7000,"internal_node_id":"0.0-0.0","subject_id":"5d2b45b9f7ef930001c5fa2d","study_id":"6197b3f67c2b5cd3b6d9596a","session_id":"619be788c155023d57698d8c","condition":"full-information","relevant_dimensions":["antennae","pattern"],"bee_group":{"antennae":"A","wings":"X","pattern":"S","legs":"X"},"bonus":1.540000000000001},{"success":true,"timeout":false,"failed_images":[],"failed_audio":[],"failed_video":[],"trial_type":"preload","trial_index":1,"time_elapsed":8614,"internal_node_id":"0.0-1.0","subject_id":"5d2b45b9f7ef930001c5fa2d","study_id":"6197b3f67c2b5cd3b6d9596a","session_id":"619be788c155023d57698d8c","condition":"full-information","relevant_dimensions":["antennae","pattern"],"bee_group":{"antennae":"A","wings":"X","pattern":"S","legs":"X"},"bonus":1.540000000000001},{"rt":1626.0999999977648,"stimulus":"Welcome! Press any key to begin.","response":"g","trial_type":"html-keyboard-response","trial_index":2,"time_elapsed":10244,"internal_node_id":"0.0-2.0","subject_id":"5d2b45b9f7ef930001c5fa2d","study_id":"6197b3f67c2b5cd3b6d9596a","session_id":"619be788c155023d57698d8c","condition":"full-information","relevant_dimensions":["antennae","pattern"],"bee_group":{"antennae":"A","wings":"X","pattern":"S","legs":"X"},"bonus":1.540000000000001},{"view_history":[{"page_index":0,"viewing_time":4309.5},{"page_index":1,"viewing_time":11055.199999999255},{"page_index":2,"viewing_time":8312.60000000149},{"page_index":3,"viewing_time":13024.199999999255},{"page_index":4,"viewing_time":5752.699999999255},{"page_index":5,"viewing_time":7315.800000000745},{"page_index":6,"viewing_time":8889.5},{"page_index":7,"viewing_time":65712.69999999925},{"page_index":8,"viewing_time":8804.800000000745},{"page_index":9,"viewing_time":8592},{"page_index":10,"viewing_time":10944.60000000149},{"page_index":11,"viewing_time":5820},{"page_index":12,"viewing_time":42076.800000000745},{"page_index":13,"viewing_time":1460.0999999977648},{"page_index":14,"viewing_time":3532.300000000745}],"rt":205603.69999999925,"trial_type":"instructions","trial_index":3,"time_elapsed":215851,"internal_node_id":"0.0-3.0-0.0","subject_id":"5d2b45b9f7ef930001c5fa2d","study_id":"6197b3f67c2b5cd3b6d9596a","session_id":"619be788c155023d57698d8c","condition":"full-information","relevant_dimensions":["antennae","pattern"],"bee_group":{"antennae":"A","wings":"X","pattern":"S","legs":"X"},"bonus":1.540000000000001},{"rt":21421.10000000149,"response":{"Q0":["Two or six legs","Stripes or spots on body","Single or double wings","Antennae or no antennae"]},"question_order":[0],"trial_type":"survey-multi-select","trial_index":4,"time_elapsed":237290,"internal_node_id":"0.0-3.0-1.0","subject_id":"5d2b45b9f7ef930001c5fa2d","study_id":"6197b3f67c2b5cd3b6d9596a","session_id":"619be788c155023d57698d8c","condition":"full-information","relevant_dimensions":["antennae","pattern"],"bee_group":{"antennae":"A","wings":"X","pattern":"S","legs":"X"},"correct":true,"bonus":1.540000000000001},{"rt":14612.60000000149,"response":{"Q1":"No.","Q2":"Based on the four features of the bee.","Q3":"You do not learn if it was friendly or dangerous, and do not alter your bonus."},"question_order":[0,1,2],"trial_type":"survey-multi-choice","trial_index":5,"time_elapsed":251909,"internal_node_id":"0.0-3.0-2.0","subject_id":"5d2b45b9f7ef930001c5fa2d","study_id":"6197b3f67c2b5cd3b6d9596a","session_id":"619be788c155023d57698d8c","condition":"full-information","relevant_dimensions":["antennae","pattern"],"bee_group":{"antennae":"A","wings":"X","pattern":"S","legs":"X"},"correct":false,"bonus":1.540000000000001},{"rt":2151.900000002235,"stimulus":"<p>You did not answer all comprehension questions correctly.<br>Press <b>continue</b> to review the instructions again.</p>","response":0,"trial_type":"html-button-response","trial_index":6,"time_elapsed":254067,"internal_node_id":"0.0-3.0-3.0","subject_id":"5d2b45b9f7ef930001c5fa2d","study_id":"6197b3f67c2b5cd3b6d9596a","session_id":"619be788c155023d57698d8c","condition":"full-information","relevant_dimensions":["antennae","pattern"],"bee_group":{"antennae":"A","wings":"X","pattern":"S","legs":"X"},"bonus":1.540000000000001},{"view_history":[{"page_index":0,"viewing_time":1769.0999999977648},{"page_index":1,"viewing_time":7400.10000000149},{"page_index":2,"viewing_time":4816.199999999255},{"page_index":3,"viewing_time":9028.199999999255},{"page_index":4,"viewing_time":5708.699999999255},{"page_index":5,"viewing_time":4887.800000000745},{"page_index":6,"viewing_time":1148.5},{"page_index":7,"viewing_time":1032.1000000014901},{"page_index":8,"viewing_time":1059.199999999255},{"page_index":9,"viewing_time":532.3999999985099},{"page_index":10,"viewing_time":424.20000000298023},{"page_index":11,"viewing_time":1535.699999999255},{"page_index":12,"viewing_time":1152.800000000745},{"page_index":13,"viewing_time":1247.3999999985099},{"page_index":14,"viewing_time":916}],"rt":42660.199999999255,"trial_type":"instructions","trial_index":7,"time_elapsed":296731,"internal_node_id":"0.0-3.0-4.0-0.0","subject_id":"5d2b45b9f7ef930001c5fa2d","study_id":"6197b3f67c2b5cd3b6d9596a","session_id":"619be788c155023d57698d8c","condition":"full-information","relevant_dimensions":["antennae","pattern"],"bee_group":{"antennae":"A","wings":"X","pattern":"S","legs":"X"},"bonus":1.540000000000001},{"rt":7660.800000000745,"response":{"Q0":["Two or six legs","Stripes or spots on body","Single or double wings","Antennae or no antennae"]},"question_order":[0],"trial_type":"survey-multi-select","trial_index":8,"time_elapsed":304408,"internal_node_id":"0.0-3.0-4.0-1.0","subject_id":"5d2b45b9f7ef930001c5fa2d","study_id":"6197b3f67c2b5cd3b6d9596a","session_id":"619be788c155023d57698d8c","condition":"full-information","relevant_dimensions":["antennae","pattern"],"bee_group":{"antennae":"A","wings":"X","pattern":"S","legs":"X"},"correct":true,"bonus":1.540000000000001},{"rt":13978.60000000149,"response":{"Q1":"No.","Q2":"Based on the four features of the bee.","Q3":"You learn if it was friendly or dangerous, but do not alter your bonus."},"question_order":[0,1,2],"trial_type":"survey-multi-choice","trial_index":9,"time_elapsed":318392,"internal_node_id":"0.0-3.0-4.0-2.0","subject_id":"5d2b45b9f7ef930001c5fa2d","study_id":"6197b3f67c2b5cd3b6d9596a","session_id":"619be788c155023d57698d8c","condition":"full-information","relevant_dimensions":["antennae","pattern"],"bee_group":{"antennae":"A","wings":"X","pattern":"S","legs":"X"},"correct":true,"bonus":1.540000000000001},{"rt":2337.39999999851,"stimulus":"<p>Congrats, you got everything right<br>When you're ready, click the button below to continue to the experiment.</p>","response":0,"trial_type":"html-button-response","trial_index":10,"time_elapsed":320735,"internal_node_id":"0.0-3.0-4.0-3.0","subject_id":"5d2b45b9f7ef930001c5fa2d","study_id":"6197b3f67c2b5cd3b6d9596a","session_id":"619be788c155023d57698d8c","condition":"full-information","relevant_dimensions":["antennae","pattern"],"bee_group":{"antennae":"A","wings":"X","pattern":"S","legs":"X"},"bonus":1.540000000000001},{"rt":18326.900000002235,"stimulus":"bees-with-color/bee-A2DM.svg","response":1,"trial_type":"image-button-response","trial_index":11,"time_elapsed":339074,"internal_node_id":"0.0-4.0-0.0","subject_id":"5d2b45b9f7ef930001c5fa2d","study_id":"6197b3f67c2b5cd3b6d9596a","session_id":"619be788c155023d57698d8c","condition":"full-information","relevant_dimensions":["antennae","pattern"],"bee_group":{"antennae":"A","wings":"X","pattern":"S","legs":"X"},"action":"avoid","summary":"bad-avoid","bonus":1.540000000000001},{"rt":11240.10000000149,"stimulus":"\n                    <p><b>Action: <em>avoid</em></b></p>\n                    <p>This is the bee that you just saw.</p>\n                    <img src=\"bees-with-color/bee-A2DM.svg\" width=\"200\">\n                    <p><span class=\"redText\">Bad choice,</span> the bee was friendly.<br>Your bonus pay is unchanged, and remains at $0.54.</p>\n            ","response":0,"trial_type":"html-button-response","trial_index":12,"time_elapsed":350353,"internal_node_id":"0.0-4.0-1.0","subject_id":"5d2b45b9f7ef930001c5fa2d","study_id":"6197b3f67c2b5cd3b6d9596a","session_id":"619be788c155023d57698d8c","condition":"full-information","relevant_dimensions":["antennae","pattern"],"bee_group":{"antennae":"A","wings":"X","pattern":"S","legs":"X"},"bonus":1.540000000000001},{"rt":14484.099999997765,"stimulus":"bees-with-color/bee-A1SM.svg","response":1,"trial_type":"image-button-response","trial_index":13,"time_elapsed":364845,"internal_node_id":"0.0-4.0-0.1","subject_id":"5d2b45b9f7ef930001c5fa2d","study_id":"6197b3f67c2b5cd3b6d9596a","session_id":"619be788c155023d57698d8c","condition":"full-information","relevant_dimensions":["antennae","pattern"],"bee_group":{"antennae":"A","wings":"X","pattern":"S","legs":"X"},"action":"avoid","summary":"good-avoid","bonus":1.540000000000001},{"rt":9312.599999997765,"stimulus":"\n                    <p><b>Action: <em>avoid</em></b></p>\n                    <p>This is the bee that you just saw.</p>\n                    <img src=\"bees-with-color/bee-A1SM.svg\" width=\"200\">\n                    <p><span class=\"greenText\">Good choice!</span>  This bee would have stung you.<br>Your bonus pay is unchanged, and remains at $0.54.</p>\n            ","response":0,"trial_type":"html-button-response","trial_index":14,"time_elapsed":374162,"internal_node_id":"0.0-4.0-1.1","subject_id":"5d2b45b9f7ef930001c5fa2d","study_id":"6197b3f67c2b5cd3b6d9596a","session_id":"619be788c155023d57698d8c","condition":"full-information","relevant_dimensions":["antennae","pattern"],"bee_group":{"antennae":"A","wings":"X","pattern":"S","legs":"X"},"bonus":1.540000000000001},{"rt":22748,"stimulus":"bees-with-color/bee-B1DM.svg","response":1,"trial_type":"image-button-response","trial_index":15,"time_elapsed":396917,"internal_node_id":"0.0-4.0-0.2","subject_id":"5d2b45b9f7ef930001c5fa2d","study_id":"6197b3f67c2b5cd3b6d9596a","session_id":"619be788c155023d57698d8c","condition":"full-information","relevant_dimensions":["antennae","pattern"],"bee_group":{"antennae":"A","wings":"X","pattern":"S","legs":"X"},"action":"avoid","summary":"bad-avoid","bonus":1.540000000000001},{"rt":13837.60000000149,"stimulus":"\n                    <p><b>Action: <em>avoid</em></b></p>\n                    <p>This is the bee that you just saw.</p>\n                    <img src=\"bees-with-color/bee-B1DM.svg\" width=\"200\">\n                    <p><span class=\"redText\">Bad choice,</span> the bee was friendly.<br>Your bonus pay is unchanged, and remains at $0.54.</p>\n            ","response":0,"trial_type":"html-button-response","trial_index":16,"time_elapsed":410759,"internal_node_id":"0.0-4.0-1.2","subject_id":"5d2b45b9f7ef930001c5fa2d","study_id":"6197b3f67c2b5cd3b6d9596a","session_id":"619be788c155023d57698d8c","condition":"full-information","relevant_dimensions":["antennae","pattern"],"bee_group":{"antennae":"A","wings":"X","pattern":"S","legs":"X"},"bonus":1.540000000000001},{"rt":23977.39999999851,"stimulus":"bees-with-color/bee-A2DF.svg","response":1,"trial_type":"image-button-response","trial_index":17,"time_elapsed":434743,"internal_node_id":"0.0-4.0-0.3","subject_id":"5d2b45b9f7ef930001c5fa2d","study_id":"6197b3f67c2b5cd3b6d9596a","session_id":"619be788c155023d57698d8c","condition":"full-information","relevant_dimensions":["antennae","pattern"],"bee_group":{"antennae":"A","wings":"X","pattern":"S","legs":"X"},"action":"avoid","summary":"bad-avoid","bonus":1.540000000000001},{"rt":10376.400000002235,"stimulus":"\n                    <p><b>Action: <em>avoid</em></b></p>\n                    <p>This is the bee that you just saw.</p>\n                    <img src=\"bees-with-color/bee-A2DF.svg\" width=\"200\">\n                    <p><span class=\"redText\">Bad choice,</span> the bee was friendly.<br>Your bonus pay is unchanged, and remains at $0.54.</p>\n            ","response":0,"trial_type":"html-button-response","trial_index":18,"time_elapsed":445124,"internal_node_id":"0.0-4.0-1.3","subject_id":"5d2b45b9f7ef930001c5fa2d","study_id":"6197b3f67c2b5cd3b6d9596a","session_id":"619be788c155023d57698d8c","condition":"full-information","relevant_dimensions":["antennae","pattern"],"bee_group":{"antennae":"A","wings":"X","pattern":"S","legs":"X"},"bonus":1.540000000000001},{"rt":20385.20000000298,"stimulus":"bees-with-color/bee-B1SF.svg","response":1,"trial_type":"image-button-response","trial_index":19,"time_elapsed":465515,"internal_node_id":"0.0-4.0-0.4","subject_id":"5d2b45b9f7ef930001c5fa2d","study_id":"6197b3f67c2b5cd3b6d9596a","session_id":"619be788c155023d57698d8c","condition":"full-information","relevant_dimensions":["antennae","pattern"],"bee_group":{"antennae":"A","wings":"X","pattern":"S","legs":"X"},"action":"avoid","summary":"bad-avoid","bonus":1.540000000000001},{"rt":6266.39999999851,"stimulus":"\n                    <p><b>Action: <em>avoid</em></b></p>\n                    <p>This is the bee that you just saw.</p>\n                    <img src=\"bees-with-color/bee-B1SF.svg\" width=\"200\">\n                    <p><span class=\"redText\">Bad choice,</span> the bee was friendly.<br>Your bonus pay is unchanged, and remains at $0.54.</p>\n            ","response":0,"trial_type":"html-button-response","trial_index":20,"time_elapsed":471787,"internal_node_id":"0.0-4.0-1.4","subject_id":"5d2b45b9f7ef930001c5fa2d","study_id":"6197b3f67c2b5cd3b6d9596a","session_id":"619be788c155023d57698d8c","condition":"full-information","relevant_dimensions":["antennae","pattern"],"bee_group":{"antennae":"A","wings":"X","pattern":"S","legs":"X"},"bonus":1.540000000000001},{"rt":28402.599999997765,"stimulus":"bees-with-color/bee-A2SM.svg","response":1,"trial_type":"image-button-response","trial_index":21,"time_elapsed":500196,"internal_node_id":"0.0-4.0-0.5","subject_id":"5d2b45b9f7ef930001c5fa2d","study_id":"6197b3f67c2b5cd3b6d9596a","session_id":"619be788c155023d57698d8c","condition":"full-information","relevant_dimensions":["antennae","pattern"],"bee_group":{"antennae":"A","wings":"X","pattern":"S","legs":"X"},"action":"avoid","summary":"good-avoid","bonus":1.540000000000001},{"rt":13360.300000000745,"stimulus":"\n                    <p><b>Action: <em>avoid</em></b></p>\n                    <p>This is the bee that you just saw.</p>\n                    <img src=\"bees-with-color/bee-A2SM.svg\" width=\"200\">\n                    <p><span class=\"greenText\">Good choice!</span>  This bee would have stung you.<br>Your bonus pay is unchanged, and remains at $0.54.</p>\n            ","response":0,"trial_type":"html-button-response","trial_index":22,"time_elapsed":513561,"internal_node_id":"0.0-4.0-1.5","subject_id":"5d2b45b9f7ef930001c5fa2d","study_id":"6197b3f67c2b5cd3b6d9596a","session_id":"619be788c155023d57698d8c","condition":"full-information","relevant_dimensions":["antennae","pattern"],"bee_group":{"antennae":"A","wings":"X","pattern":"S","legs":"X"},"bonus":1.540000000000001},{"rt":25343.300000000745,"stimulus":"bees-with-color/bee-B2DF.svg","response":1,"trial_type":"image-button-response","trial_index":23,"time_elapsed":538914,"internal_node_id":"0.0-4.0-0.6","subject_id":"5d2b45b9f7ef930001c5fa2d","study_id":"6197b3f67c2b5cd3b6d9596a","session_id":"619be788c155023d57698d8c","condition":"full-information","relevant_dimensions":["antennae","pattern"],"bee_group":{"antennae":"A","wings":"X","pattern":"S","legs":"X"},"action":"avoid","summary":"bad-avoid","bonus":1.540000000000001},{"rt":6129.199999999255,"stimulus":"\n                    <p><b>Action: <em>avoid</em></b></p>\n                    <p>This is the bee that you just saw.</p>\n                    <img src=\"bees-with-color/bee-B2DF.svg\" width=\"200\">\n                    <p><span class=\"redText\">Bad choice,</span> the bee was friendly.<br>Your bonus pay is unchanged, and remains at $0.54.</p>\n            ","response":0,"trial_type":"html-button-response","trial_index":24,"time_elapsed":545049,"internal_node_id":"0.0-4.0-1.6","subject_id":"5d2b45b9f7ef930001c5fa2d","study_id":"6197b3f67c2b5cd3b6d9596a","session_id":"619be788c155023d57698d8c","condition":"full-information","relevant_dimensions":["antennae","pattern"],"bee_group":{"antennae":"A","wings":"X","pattern":"S","legs":"X"},"bonus":1.540000000000001},{"rt":30489.900000002235,"stimulus":"bees-with-color/bee-B1SM.svg","response":1,"trial_type":"image-button-response","trial_index":25,"time_elapsed":575547,"internal_node_id":"0.0-4.0-0.7","subject_id":"5d2b45b9f7ef930001c5fa2d","study_id":"6197b3f67c2b5cd3b6d9596a","session_id":"619be788c155023d57698d8c","condition":"full-information","relevant_dimensions":["antennae","pattern"],"bee_group":{"antennae":"A","wings":"X","pattern":"S","legs":"X"},"action":"avoid","summary":"bad-avoid","bonus":1.540000000000001},{"rt":9790.199999999255,"stimulus":"\n                    <p><b>Action: <em>avoid</em></b></p>\n                    <p>This is the bee that you just saw.</p>\n                    <img src=\"bees-with-color/bee-B1SM.svg\" width=\"200\">\n                    <p><span class=\"redText\">Bad choice,</span> the bee was friendly.<br>Your bonus pay is unchanged, and remains at $0.54.</p>\n            ","response":0,"trial_type":"html-button-response","trial_index":26,"time_elapsed":585344,"internal_node_id":"0.0-4.0-1.7","subject_id":"5d2b45b9f7ef930001c5fa2d","study_id":"6197b3f67c2b5cd3b6d9596a","session_id":"619be788c155023d57698d8c","condition":"full-information","relevant_dimensions":["antennae","pattern"],"bee_group":{"antennae":"A","wings":"X","pattern":"S","legs":"X"},"bonus":1.540000000000001},{"rt":41279.5,"stimulus":"bees-with-color/bee-A1DF.svg","response":1,"trial_type":"image-button-response","trial_index":27,"time_elapsed":626630,"internal_node_id":"0.0-4.0-0.8","subject_id":"5d2b45b9f7ef930001c5fa2d","study_id":"6197b3f67c2b5cd3b6d9596a","session_id":"619be788c155023d57698d8c","condition":"full-information","relevant_dimensions":["antennae","pattern"],"bee_group":{"antennae":"A","wings":"X","pattern":"S","legs":"X"},"action":"avoid","summary":"bad-avoid","bonus":1.540000000000001},{"rt":6547.400000002235,"stimulus":"\n                    <p><b>Action: <em>avoid</em></b></p>\n                    <p>This is the bee that you just saw.</p>\n                    <img src=\"bees-with-color/bee-A1DF.svg\" width=\"200\">\n                    <p><span class=\"redText\">Bad choice,</span> the bee was friendly.<br>Your bonus pay is unchanged, and remains at $0.54.</p>\n            ","response":0,"trial_type":"html-button-response","trial_index":28,"time_elapsed":633184,"internal_node_id":"0.0-4.0-1.8","subject_id":"5d2b45b9f7ef930001c5fa2d","study_id":"6197b3f67c2b5cd3b6d9596a","session_id":"619be788c155023d57698d8c","condition":"full-information","relevant_dimensions":["antennae","pattern"],"bee_group":{"antennae":"A","wings":"X","pattern":"S","legs":"X"},"bonus":1.540000000000001},{"rt":12551.300000000745,"stimulus":"bees-with-color/bee-A1DM.svg","response":0,"trial_type":"image-button-response","trial_index":29,"time_elapsed":645741,"internal_node_id":"0.0-4.0-0.9","subject_id":"5d2b45b9f7ef930001c5fa2d","study_id":"6197b3f67c2b5cd3b6d9596a","session_id":"619be788c155023d57698d8c","condition":"full-information","relevant_dimensions":["antennae","pattern"],"bee_group":{"antennae":"A","wings":"X","pattern":"S","legs":"X"},"action":"harvest","summary":"good-harvest","bonus":1.540000000000001},{"rt":5838.199999999255,"stimulus":"\n                    <p><b>Action: <em>harvest</em></b></p>\n                    <p>This is the bee that you just saw.</p>\n                    <img src=\"bees-with-color/bee-A1DM.svg\" width=\"200\">\n                    <p><span class=\"greenText\"><b>Successful harvest!</b></span><br>Your pay has increased by $0.02. Your bonus pay is now $0.56.</p>\n            ","response":0,"trial_type":"html-button-response","trial_index":30,"time_elapsed":651584,"internal_node_id":"0.0-4.0-1.9","subject_id":"5d2b45b9f7ef930001c5fa2d","study_id":"6197b3f67c2b5cd3b6d9596a","session_id":"619be788c155023d57698d8c","condition":"full-information","relevant_dimensions":["antennae","pattern"],"bee_group":{"antennae":"A","wings":"X","pattern":"S","legs":"X"},"bonus":1.540000000000001},{"rt":34679.39999999851,"stimulus":"bees-with-color/bee-B2SF.svg","response":1,"trial_type":"image-button-response","trial_index":31,"time_elapsed":686259,"internal_node_id":"0.0-4.0-0.10","subject_id":"5d2b45b9f7ef930001c5fa2d","study_id":"6197b3f67c2b5cd3b6d9596a","session_id":"619be788c155023d57698d8c","condition":"full-information","relevant_dimensions":["antennae","pattern"],"bee_group":{"antennae":"A","wings":"X","pattern":"S","legs":"X"},"action":"avoid","summary":"bad-avoid","bonus":1.540000000000001},{"rt":6699.300000000745,"stimulus":"\n                    <p><b>Action: <em>avoid</em></b></p>\n                    <p>This is the bee that you just saw.</p>\n                    <img src=\"bees-with-color/bee-B2SF.svg\" width=\"200\">\n                    <p><span class=\"redText\">Bad choice,</span> the bee was friendly.<br>Your bonus pay is unchanged, and remains at $0.56.</p>\n            ","response":0,"trial_type":"html-button-response","trial_index":32,"time_elapsed":692963,"internal_node_id":"0.0-4.0-1.10","subject_id":"5d2b45b9f7ef930001c5fa2d","study_id":"6197b3f67c2b5cd3b6d9596a","session_id":"619be788c155023d57698d8c","condition":"full-information","relevant_dimensions":["antennae","pattern"],"bee_group":{"antennae":"A","wings":"X","pattern":"S","legs":"X"},"bonus":1.540000000000001},{"rt":19458.5,"stimulus":"bees-with-color/bee-A1SF.svg","response":0,"trial_type":"image-button-response","trial_index":33,"time_elapsed":712427,"internal_node_id":"0.0-4.0-0.11","subject_id":"5d2b45b9f7ef930001c5fa2d","study_id":"6197b3f67c2b5cd3b6d9596a","session_id":"619be788c155023d57698d8c","condition":"full-information","relevant_dimensions":["antennae","pattern"],"bee_group":{"antennae":"A","wings":"X","pattern":"S","legs":"X"},"action":"harvest","summary":"bad-harvest","bonus":1.540000000000001},{"rt":27543.89999999851,"stimulus":"\n                    <p><b>Action: <em>harvest</em></b></p>\n                    <p>This is the bee that you just saw.</p>\n                    <img src=\"bees-with-color/bee-A1SF.svg\" width=\"200\">\n                    <p><span class=\"redText\">Bad choice, the bee was angry.</span><br><b>You have been stung!</b><br>Your pay has been decreased by $0.10. Your bonus pay is now $0.46.</p>\n            ","response":0,"trial_type":"html-button-response","trial_index":34,"time_elapsed":739978,"internal_node_id":"0.0-4.0-1.11","subject_id":"5d2b45b9f7ef930001c5fa2d","study_id":"6197b3f67c2b5cd3b6d9596a","session_id":"619be788c155023d57698d8c","condition":"full-information","relevant_dimensions":["antennae","pattern"],"bee_group":{"antennae":"A","wings":"X","pattern":"S","legs":"X"},"bonus":1.540000000000001},{"rt":44337.300000000745,"stimulus":"bees-with-color/bee-B1DF.svg","response":1,"trial_type":"image-button-response","trial_index":35,"time_elapsed":784333,"internal_node_id":"0.0-4.0-0.12","subject_id":"5d2b45b9f7ef930001c5fa2d","study_id":"6197b3f67c2b5cd3b6d9596a","session_id":"619be788c155023d57698d8c","condition":"full-information","relevant_dimensions":["antennae","pattern"],"bee_group":{"antennae":"A","wings":"X","pattern":"S","legs":"X"},"action":"avoid","summary":"bad-avoid","bonus":1.540000000000001},{"rt":15575.199999999255,"stimulus":"\n                    <p><b>Action: <em>avoid</em></b></p>\n                    <p>This is the bee that you just saw.</p>\n                    <img src=\"bees-with-color/bee-B1DF.svg\" width=\"200\">\n                    <p><span class=\"redText\">Bad choice,</span> the bee was friendly.<br>Your bonus pay is unchanged, and remains at $0.46.</p>\n            ","response":0,"trial_type":"html-button-response","trial_index":36,"time_elapsed":799914,"internal_node_id":"0.0-4.0-1.12","subject_id":"5d2b45b9f7ef930001c5fa2d","study_id":"6197b3f67c2b5cd3b6d9596a","session_id":"619be788c155023d57698d8c","condition":"full-information","relevant_dimensions":["antennae","pattern"],"bee_group":{"antennae":"A","wings":"X","pattern":"S","legs":"X"},"bonus":1.540000000000001},{"rt":45987.099999997765,"stimulus":"bees-with-color/bee-B2SM.svg","response":1,"trial_type":"image-button-response","trial_index":37,"time_elapsed":845908,"internal_node_id":"0.0-4.0-0.13","subject_id":"5d2b45b9f7ef930001c5fa2d","study_id":"6197b3f67c2b5cd3b6d9596a","session_id":"619be788c155023d57698d8c","condition":"full-information","relevant_dimensions":["antennae","pattern"],"bee_group":{"antennae":"A","wings":"X","pattern":"S","legs":"X"},"action":"avoid","summary":"bad-avoid","bonus":1.540000000000001},{"rt":5470.89999999851,"stimulus":"\n                    <p><b>Action: <em>avoid</em></b></p>\n                    <p>This is the bee that you just saw.</p>\n                    <img src=\"bees-with-color/bee-B2SM.svg\" width=\"200\">\n                    <p><span class=\"redText\">Bad choice,</span> the bee was friendly.<br>Your bonus pay is unchanged, and remains at $0.46.</p>\n            ","response":0,"trial_type":"html-button-response","trial_index":38,"time_elapsed":851384,"internal_node_id":"0.0-4.0-1.13","subject_id":"5d2b45b9f7ef930001c5fa2d","study_id":"6197b3f67c2b5cd3b6d9596a","session_id":"619be788c155023d57698d8c","condition":"full-information","relevant_dimensions":["antennae","pattern"],"bee_group":{"antennae":"A","wings":"X","pattern":"S","legs":"X"},"bonus":1.540000000000001},{"rt":41457.699999999255,"stimulus":"bees-with-color/bee-A2SF.svg","response":1,"trial_type":"image-button-response","trial_index":39,"time_elapsed":892850,"internal_node_id":"0.0-4.0-0.14","subject_id":"5d2b45b9f7ef930001c5fa2d","study_id":"6197b3f67c2b5cd3b6d9596a","session_id":"619be788c155023d57698d8c","condition":"full-information","relevant_dimensions":["antennae","pattern"],"bee_group":{"antennae":"A","wings":"X","pattern":"S","legs":"X"},"action":"avoid","summary":"good-avoid","bonus":1.540000000000001},{"rt":16065.5,"stimulus":"\n                    <p><b>Action: <em>avoid</em></b></p>\n                    <p>This is the bee that you just saw.</p>\n                    <img src=\"bees-with-color/bee-A2SF.svg\" width=\"200\">\n                    <p><span class=\"greenText\">Good choice!</span>  This bee would have stung you.<br>Your bonus pay is unchanged, and remains at $0.46.</p>\n            ","response":0,"trial_type":"html-button-response","trial_index":40,"time_elapsed":908920,"internal_node_id":"0.0-4.0-1.14","subject_id":"5d2b45b9f7ef930001c5fa2d","study_id":"6197b3f67c2b5cd3b6d9596a","session_id":"619be788c155023d57698d8c","condition":"full-information","relevant_dimensions":["antennae","pattern"],"bee_group":{"antennae":"A","wings":"X","pattern":"S","legs":"X"},"bonus":1.540000000000001},{"rt":35183.300000000745,"stimulus":"bees-with-color/bee-B2DM.svg","response":1,"trial_type":"image-button-response","trial_index":41,"time_elapsed":944110,"internal_node_id":"0.0-4.0-0.15","subject_id":"5d2b45b9f7ef930001c5fa2d","study_id":"6197b3f67c2b5cd3b6d9596a","session_id":"619be788c155023d57698d8c","condition":"full-information","relevant_dimensions":["antennae","pattern"],"bee_group":{"antennae":"A","wings":"X","pattern":"S","legs":"X"},"action":"avoid","summary":"bad-avoid","bonus":1.540000000000001},{"rt":7308.300000000745,"stimulus":"\n                    <p><b>Action: <em>avoid</em></b></p>\n                    <p>This is the bee that you just saw.</p>\n                    <img src=\"bees-with-color/bee-B2DM.svg\" width=\"200\">\n                    <p><span class=\"redText\">Bad choice,</span> the bee was friendly.<br>Your bonus pay is unchanged, and remains at $0.46.</p>\n            ","response":0,"trial_type":"html-button-response","trial_index":42,"time_elapsed":951423,"internal_node_id":"0.0-4.0-1.15","subject_id":"5d2b45b9f7ef930001c5fa2d","study_id":"6197b3f67c2b5cd3b6d9596a","session_id":"619be788c155023d57698d8c","condition":"full-information","relevant_dimensions":["antennae","pattern"],"bee_group":{"antennae":"A","wings":"X","pattern":"S","legs":"X"},"bonus":1.540000000000001},{"rt":6959,"stimulus":"bees-with-color/bee-A2DM.svg","response":0,"trial_type":"image-button-response","trial_index":43,"time_elapsed":958390,"internal_node_id":"0.0-4.0-0.16","subject_id":"5d2b45b9f7ef930001c5fa2d","study_id":"6197b3f67c2b5cd3b6d9596a","session_id":"619be788c155023d57698d8c","condition":"full-information","relevant_dimensions":["antennae","pattern"],"bee_group":{"antennae":"A","wings":"X","pattern":"S","legs":"X"},"action":"harvest","summary":"good-harvest","bonus":1.540000000000001},{"rt":1059,"stimulus":"\n                    <p><b>Action: <em>harvest</em></b></p>\n                    <p>This is the bee that you just saw.</p>\n                    <img src=\"bees-with-color/bee-A2DM.svg\" width=\"200\">\n                    <p><span class=\"greenText\"><b>Successful harvest!</b></span><br>Your pay has increased by $0.02. Your bonus pay is now $0.48.</p>\n            ","response":0,"trial_type":"html-button-response","trial_index":44,"time_elapsed":959454,"internal_node_id":"0.0-4.0-1.16","subject_id":"5d2b45b9f7ef930001c5fa2d","study_id":"6197b3f67c2b5cd3b6d9596a","session_id":"619be788c155023d57698d8c","condition":"full-information","relevant_dimensions":["antennae","pattern"],"bee_group":{"antennae":"A","wings":"X","pattern":"S","legs":"X"},"bonus":1.540000000000001},{"rt":7241.900000002235,"stimulus":"bees-with-color/bee-A2DF.svg","response":0,"trial_type":"image-button-response","trial_index":45,"time_elapsed":966702,"internal_node_id":"0.0-4.0-0.17","subject_id":"5d2b45b9f7ef930001c5fa2d","study_id":"6197b3f67c2b5cd3b6d9596a","session_id":"619be788c155023d57698d8c","condition":"full-information","relevant_dimensions":["antennae","pattern"],"bee_group":{"antennae":"A","wings":"X","pattern":"S","legs":"X"},"action":"harvest","summary":"good-harvest","bonus":1.540000000000001},{"rt":1155.8999999985099,"stimulus":"\n                    <p><b>Action: <em>harvest</em></b></p>\n                    <p>This is the bee that you just saw.</p>\n                    <img src=\"bees-with-color/bee-A2DF.svg\" width=\"200\">\n                    <p><span class=\"greenText\"><b>Successful harvest!</b></span><br>Your pay has increased by $0.02. Your bonus pay is now $0.50.</p>\n            ","response":0,"trial_type":"html-button-response","trial_index":46,"time_elapsed":967865,"internal_node_id":"0.0-4.0-1.17","subject_id":"5d2b45b9f7ef930001c5fa2d","study_id":"6197b3f67c2b5cd3b6d9596a","session_id":"619be788c155023d57698d8c","condition":"full-information","relevant_dimensions":["antennae","pattern"],"bee_group":{"antennae":"A","wings":"X","pattern":"S","legs":"X"},"bonus":1.540000000000001},{"rt":18824.300000000745,"stimulus":"bees-with-color/bee-A1DF.svg","response":0,"trial_type":"image-button-response","trial_index":47,"time_elapsed":986695,"internal_node_id":"0.0-4.0-0.18","subject_id":"5d2b45b9f7ef930001c5fa2d","study_id":"6197b3f67c2b5cd3b6d9596a","session_id":"619be788c155023d57698d8c","condition":"full-information","relevant_dimensions":["antennae","pattern"],"bee_group":{"antennae":"A","wings":"X","pattern":"S","legs":"X"},"action":"harvest","summary":"good-harvest","bonus":1.540000000000001},{"rt":1043.5,"stimulus":"\n                    <p><b>Action: <em>harvest</em></b></p>\n                    <p>This is the bee that you just saw.</p>\n                    <img src=\"bees-with-color/bee-A1DF.svg\" width=\"200\">\n                    <p><span class=\"greenText\"><b>Successful harvest!</b></span><br>Your pay has increased by $0.02. Your bonus pay is now $0.52.</p>\n            ","response":0,"trial_type":"html-button-response","trial_index":48,"time_elapsed":987743,"internal_node_id":"0.0-4.0-1.18","subject_id":"5d2b45b9f7ef930001c5fa2d","study_id":"6197b3f67c2b5cd3b6d9596a","session_id":"619be788c155023d57698d8c","condition":"full-information","relevant_dimensions":["antennae","pattern"],"bee_group":{"antennae":"A","wings":"X","pattern":"S","legs":"X"},"bonus":1.540000000000001},{"rt":9858.699999999255,"stimulus":"bees-with-color/bee-B1DM.svg","response":0,"trial_type":"image-button-response","trial_index":49,"time_elapsed":997608,"internal_node_id":"0.0-4.0-0.19","subject_id":"5d2b45b9f7ef930001c5fa2d","study_id":"6197b3f67c2b5cd3b6d9596a","session_id":"619be788c155023d57698d8c","condition":"full-information","relevant_dimensions":["antennae","pattern"],"bee_group":{"antennae":"A","wings":"X","pattern":"S","legs":"X"},"action":"harvest","summary":"good-harvest","bonus":1.540000000000001},{"rt":1170.5,"stimulus":"\n                    <p><b>Action: <em>harvest</em></b></p>\n                    <p>This is the bee that you just saw.</p>\n                    <img src=\"bees-with-color/bee-B1DM.svg\" width=\"200\">\n                    <p><span class=\"greenText\"><b>Successful harvest!</b></span><br>Your pay has increased by $0.02. Your bonus pay is now $0.54.</p>\n            ","response":0,"trial_type":"html-button-response","trial_index":50,"time_elapsed":998783,"internal_node_id":"0.0-4.0-1.19","subject_id":"5d2b45b9f7ef930001c5fa2d","study_id":"6197b3f67c2b5cd3b6d9596a","session_id":"619be788c155023d57698d8c","condition":"full-information","relevant_dimensions":["antennae","pattern"],"bee_group":{"antennae":"A","wings":"X","pattern":"S","legs":"X"},"bonus":1.540000000000001},{"rt":17961.300000000745,"stimulus":"bees-with-color/bee-A1SF.svg","response":1,"trial_type":"image-button-response","trial_index":51,"time_elapsed":1016749,"internal_node_id":"0.0-4.0-0.20","subject_id":"5d2b45b9f7ef930001c5fa2d","study_id":"6197b3f67c2b5cd3b6d9596a","session_id":"619be788c155023d57698d8c","condition":"full-information","relevant_dimensions":["antennae","pattern"],"bee_group":{"antennae":"A","wings":"X","pattern":"S","legs":"X"},"action":"avoid","summary":"good-avoid","bonus":1.540000000000001},{"rt":1856.5,"stimulus":"\n                    <p><b>Action: <em>avoid</em></b></p>\n                    <p>This is the bee that you just saw.</p>\n                    <img src=\"bees-with-color/bee-A1SF.svg\" width=\"200\">\n                    <p><span class=\"greenText\">Good choice!</span>  This bee would have stung you.<br>Your bonus pay is unchanged, and remains at $0.54.</p>\n            ","response":0,"trial_type":"html-button-response","trial_index":52,"time_elapsed":1018612,"internal_node_id":"0.0-4.0-1.20","subject_id":"5d2b45b9f7ef930001c5fa2d","study_id":"6197b3f67c2b5cd3b6d9596a","session_id":"619be788c155023d57698d8c","condition":"full-information","relevant_dimensions":["antennae","pattern"],"bee_group":{"antennae":"A","wings":"X","pattern":"S","legs":"X"},"bonus":1.540000000000001},{"rt":14922.300000000745,"stimulus":"bees-with-color/bee-A1SM.svg","response":1,"trial_type":"image-button-response","trial_index":53,"time_elapsed":1033541,"internal_node_id":"0.0-4.0-0.21","subject_id":"5d2b45b9f7ef930001c5fa2d","study_id":"6197b3f67c2b5cd3b6d9596a","session_id":"619be788c155023d57698d8c","condition":"full-information","relevant_dimensions":["antennae","pattern"],"bee_group":{"antennae":"A","wings":"X","pattern":"S","legs":"X"},"action":"avoid","summary":"good-avoid","bonus":1.540000000000001},{"rt":1346.8999999985099,"stimulus":"\n                    <p><b>Action: <em>avoid</em></b></p>\n                    <p>This is the bee that you just saw.</p>\n                    <img src=\"bees-with-color/bee-A1SM.svg\" width=\"200\">\n                    <p><span class=\"greenText\">Good choice!</span>  This bee would have stung you.<br>Your bonus pay is unchanged, and remains at $0.54.</p>\n            ","response":0,"trial_type":"html-button-response","trial_index":54,"time_elapsed":1034892,"internal_node_id":"0.0-4.0-1.21","subject_id":"5d2b45b9f7ef930001c5fa2d","study_id":"6197b3f67c2b5cd3b6d9596a","session_id":"619be788c155023d57698d8c","condition":"full-information","relevant_dimensions":["antennae","pattern"],"bee_group":{"antennae":"A","wings":"X","pattern":"S","legs":"X"},"bonus":1.540000000000001},{"rt":35872.699999999255,"stimulus":"bees-with-color/bee-A1DM.svg","response":1,"trial_type":"image-button-response","trial_index":55,"time_elapsed":1070770,"internal_node_id":"0.0-4.0-0.22","subject_id":"5d2b45b9f7ef930001c5fa2d","study_id":"6197b3f67c2b5cd3b6d9596a","session_id":"619be788c155023d57698d8c","condition":"full-information","relevant_dimensions":["antennae","pattern"],"bee_group":{"antennae":"A","wings":"X","pattern":"S","legs":"X"},"action":"avoid","summary":"bad-avoid","bonus":1.540000000000001},{"rt":5045.800000000745,"stimulus":"\n                    <p><b>Action: <em>avoid</em></b></p>\n                    <p>This is the bee that you just saw.</p>\n                    <img src=\"bees-with-color/bee-A1DM.svg\" width=\"200\">\n                    <p><span class=\"redText\">Bad choice,</span> the bee was friendly.<br>Your bonus pay is unchanged, and remains at $0.54.</p>\n            ","response":0,"trial_type":"html-button-response","trial_index":56,"time_elapsed":1075822,"internal_node_id":"0.0-4.0-1.22","subject_id":"5d2b45b9f7ef930001c5fa2d","study_id":"6197b3f67c2b5cd3b6d9596a","session_id":"619be788c155023d57698d8c","condition":"full-information","relevant_dimensions":["antennae","pattern"],"bee_group":{"antennae":"A","wings":"X","pattern":"S","legs":"X"},"bonus":1.540000000000001},{"rt":13229.900000002235,"stimulus":"bees-with-color/bee-B1DF.svg","response":0,"trial_type":"image-button-response","trial_index":57,"time_elapsed":1089059,"internal_node_id":"0.0-4.0-0.23","subject_id":"5d2b45b9f7ef930001c5fa2d","study_id":"6197b3f67c2b5cd3b6d9596a","session_id":"619be788c155023d57698d8c","condition":"full-information","relevant_dimensions":["antennae","pattern"],"bee_group":{"antennae":"A","wings":"X","pattern":"S","legs":"X"},"action":"harvest","summary":"good-harvest","bonus":1.540000000000001},{"rt":881.2999999970198,"stimulus":"\n                    <p><b>Action: <em>harvest</em></b></p>\n                    <p>This is the bee that you just saw.</p>\n                    <img src=\"bees-with-color/bee-B1DF.svg\" width=\"200\">\n                    <p><span class=\"greenText\"><b>Successful harvest!</b></span><br>Your pay has increased by $0.02. Your bonus pay is now $0.56.</p>\n            ","response":0,"trial_type":"html-button-response","trial_index":58,"time_elapsed":1089946,"internal_node_id":"0.0-4.0-1.23","subject_id":"5d2b45b9f7ef930001c5fa2d","study_id":"6197b3f67c2b5cd3b6d9596a","session_id":"619be788c155023d57698d8c","condition":"full-information","relevant_dimensions":["antennae","pattern"],"bee_group":{"antennae":"A","wings":"X","pattern":"S","legs":"X"},"bonus":1.540000000000001},{"rt":20124.20000000298,"stimulus":"bees-with-color/bee-B2SM.svg","response":0,"trial_type":"image-button-response","trial_index":59,"time_elapsed":1110078,"internal_node_id":"0.0-4.0-0.24","subject_id":"5d2b45b9f7ef930001c5fa2d","study_id":"6197b3f67c2b5cd3b6d9596a","session_id":"619be788c155023d57698d8c","condition":"full-information","relevant_dimensions":["antennae","pattern"],"bee_group":{"antennae":"A","wings":"X","pattern":"S","legs":"X"},"action":"harvest","summary":"good-harvest","bonus":1.540000000000001},{"rt":993.1999999992549,"stimulus":"\n                    <p><b>Action: <em>harvest</em></b></p>\n                    <p>This is the bee that you just saw.</p>\n                    <img src=\"bees-with-color/bee-B2SM.svg\" width=\"200\">\n                    <p><span class=\"greenText\"><b>Successful harvest!</b></span><br>Your pay has increased by $0.02. Your bonus pay is now $0.58.</p>\n            ","response":0,"trial_type":"html-button-response","trial_index":60,"time_elapsed":1111077,"internal_node_id":"0.0-4.0-1.24","subject_id":"5d2b45b9f7ef930001c5fa2d","study_id":"6197b3f67c2b5cd3b6d9596a","session_id":"619be788c155023d57698d8c","condition":"full-information","relevant_dimensions":["antennae","pattern"],"bee_group":{"antennae":"A","wings":"X","pattern":"S","legs":"X"},"bonus":1.540000000000001},{"rt":10894.39999999851,"stimulus":"bees-with-color/bee-B2DF.svg","response":0,"trial_type":"image-button-response","trial_index":61,"time_elapsed":1121979,"internal_node_id":"0.0-4.0-0.25","subject_id":"5d2b45b9f7ef930001c5fa2d","study_id":"6197b3f67c2b5cd3b6d9596a","session_id":"619be788c155023d57698d8c","condition":"full-information","relevant_dimensions":["antennae","pattern"],"bee_group":{"antennae":"A","wings":"X","pattern":"S","legs":"X"},"action":"harvest","summary":"good-harvest","bonus":1.540000000000001},{"rt":1484.5,"stimulus":"\n                    <p><b>Action: <em>harvest</em></b></p>\n                    <p>This is the bee that you just saw.</p>\n                    <img src=\"bees-with-color/bee-B2DF.svg\" width=\"200\">\n                    <p><span class=\"greenText\"><b>Successful harvest!</b></span><br>Your pay has increased by $0.02. Your bonus pay is now $0.60.</p>\n            ","response":0,"trial_type":"html-button-response","trial_index":62,"time_elapsed":1123467,"internal_node_id":"0.0-4.0-1.25","subject_id":"5d2b45b9f7ef930001c5fa2d","study_id":"6197b3f67c2b5cd3b6d9596a","session_id":"619be788c155023d57698d8c","condition":"full-information","relevant_dimensions":["antennae","pattern"],"bee_group":{"antennae":"A","wings":"X","pattern":"S","legs":"X"},"bonus":1.540000000000001},{"rt":27723.89999999851,"stimulus":"bees-with-color/bee-A2SF.svg","response":1,"trial_type":"image-button-response","trial_index":63,"time_elapsed":1151196,"internal_node_id":"0.0-4.0-0.26","subject_id":"5d2b45b9f7ef930001c5fa2d","study_id":"6197b3f67c2b5cd3b6d9596a","session_id":"619be788c155023d57698d8c","condition":"full-information","relevant_dimensions":["antennae","pattern"],"bee_group":{"antennae":"A","wings":"X","pattern":"S","legs":"X"},"action":"avoid","summary":"good-avoid","bonus":1.540000000000001},{"rt":1539.9000000022352,"stimulus":"\n                    <p><b>Action: <em>avoid</em></b></p>\n                    <p>This is the bee that you just saw.</p>\n                    <img src=\"bees-with-color/bee-A2SF.svg\" width=\"200\">\n                    <p><span class=\"greenText\">Good choice!</span>  This bee would have stung you.<br>Your bonus pay is unchanged, and remains at $0.60.</p>\n            ","response":0,"trial_type":"html-button-response","trial_index":64,"time_elapsed":1152740,"internal_node_id":"0.0-4.0-1.26","subject_id":"5d2b45b9f7ef930001c5fa2d","study_id":"6197b3f67c2b5cd3b6d9596a","session_id":"619be788c155023d57698d8c","condition":"full-information","relevant_dimensions":["antennae","pattern"],"bee_group":{"antennae":"A","wings":"X","pattern":"S","legs":"X"},"bonus":1.540000000000001},{"rt":11370.5,"stimulus":"bees-with-color/bee-B2SF.svg","response":0,"trial_type":"image-button-response","trial_index":65,"time_elapsed":1164116,"internal_node_id":"0.0-4.0-0.27","subject_id":"5d2b45b9f7ef930001c5fa2d","study_id":"6197b3f67c2b5cd3b6d9596a","session_id":"619be788c155023d57698d8c","condition":"full-information","relevant_dimensions":["antennae","pattern"],"bee_group":{"antennae":"A","wings":"X","pattern":"S","legs":"X"},"action":"harvest","summary":"good-harvest","bonus":1.540000000000001},{"rt":999.4000000022352,"stimulus":"\n                    <p><b>Action: <em>harvest</em></b></p>\n                    <p>This is the bee that you just saw.</p>\n                    <img src=\"bees-with-color/bee-B2SF.svg\" width=\"200\">\n                    <p><span class=\"greenText\"><b>Successful harvest!</b></span><br>Your pay has increased by $0.02. Your bonus pay is now $0.62.</p>\n            ","response":0,"trial_type":"html-button-response","trial_index":66,"time_elapsed":1165120,"internal_node_id":"0.0-4.0-1.27","subject_id":"5d2b45b9f7ef930001c5fa2d","study_id":"6197b3f67c2b5cd3b6d9596a","session_id":"619be788c155023d57698d8c","condition":"full-information","relevant_dimensions":["antennae","pattern"],"bee_group":{"antennae":"A","wings":"X","pattern":"S","legs":"X"},"bonus":1.540000000000001},{"rt":17014,"stimulus":"bees-with-color/bee-B2DM.svg","response":0,"trial_type":"image-button-response","trial_index":67,"time_elapsed":1182141,"internal_node_id":"0.0-4.0-0.28","subject_id":"5d2b45b9f7ef930001c5fa2d","study_id":"6197b3f67c2b5cd3b6d9596a","session_id":"619be788c155023d57698d8c","condition":"full-information","relevant_dimensions":["antennae","pattern"],"bee_group":{"antennae":"A","wings":"X","pattern":"S","legs":"X"},"action":"harvest","summary":"good-harvest","bonus":1.540000000000001},{"rt":1527.699999999255,"stimulus":"\n                    <p><b>Action: <em>harvest</em></b></p>\n                    <p>This is the bee that you just saw.</p>\n                    <img src=\"bees-with-color/bee-B2DM.svg\" width=\"200\">\n                    <p><span class=\"greenText\"><b>Successful harvest!</b></span><br>Your pay has increased by $0.02. Your bonus pay is now $0.64.</p>\n            ","response":0,"trial_type":"html-button-response","trial_index":68,"time_elapsed":1183673,"internal_node_id":"0.0-4.0-1.28","subject_id":"5d2b45b9f7ef930001c5fa2d","study_id":"6197b3f67c2b5cd3b6d9596a","session_id":"619be788c155023d57698d8c","condition":"full-information","relevant_dimensions":["antennae","pattern"],"bee_group":{"antennae":"A","wings":"X","pattern":"S","legs":"X"},"bonus":1.540000000000001},{"rt":13498.89999999851,"stimulus":"bees-with-color/bee-B1SM.svg","response":0,"trial_type":"image-button-response","trial_index":69,"time_elapsed":1197177,"internal_node_id":"0.0-4.0-0.29","subject_id":"5d2b45b9f7ef930001c5fa2d","study_id":"6197b3f67c2b5cd3b6d9596a","session_id":"619be788c155023d57698d8c","condition":"full-information","relevant_dimensions":["antennae","pattern"],"bee_group":{"antennae":"A","wings":"X","pattern":"S","legs":"X"},"action":"harvest","summary":"good-harvest","bonus":1.540000000000001},{"rt":931.5,"stimulus":"\n                    <p><b>Action: <em>harvest</em></b></p>\n                    <p>This is the bee that you just saw.</p>\n                    <img src=\"bees-with-color/bee-B1SM.svg\" width=\"200\">\n                    <p><span class=\"greenText\"><b>Successful harvest!</b></span><br>Your pay has increased by $0.02. Your bonus pay is now $0.66.</p>\n            ","response":0,"trial_type":"html-button-response","trial_index":70,"time_elapsed":1198113,"internal_node_id":"0.0-4.0-1.29","subject_id":"5d2b45b9f7ef930001c5fa2d","study_id":"6197b3f67c2b5cd3b6d9596a","session_id":"619be788c155023d57698d8c","condition":"full-information","relevant_dimensions":["antennae","pattern"],"bee_group":{"antennae":"A","wings":"X","pattern":"S","legs":"X"},"bonus":1.540000000000001},{"rt":6418.5,"stimulus":"bees-with-color/bee-B1SF.svg","response":0,"trial_type":"image-button-response","trial_index":71,"time_elapsed":1204538,"internal_node_id":"0.0-4.0-0.30","subject_id":"5d2b45b9f7ef930001c5fa2d","study_id":"6197b3f67c2b5cd3b6d9596a","session_id":"619be788c155023d57698d8c","condition":"full-information","relevant_dimensions":["antennae","pattern"],"bee_group":{"antennae":"A","wings":"X","pattern":"S","legs":"X"},"action":"harvest","summary":"good-harvest","bonus":1.540000000000001},{"rt":1299.199999999255,"stimulus":"\n                    <p><b>Action: <em>harvest</em></b></p>\n                    <p>This is the bee that you just saw.</p>\n                    <img src=\"bees-with-color/bee-B1SF.svg\" width=\"200\">\n                    <p><span class=\"greenText\"><b>Successful harvest!</b></span><br>Your pay has increased by $0.02. Your bonus pay is now $0.68.</p>\n            ","response":0,"trial_type":"html-button-response","trial_index":72,"time_elapsed":1205842,"internal_node_id":"0.0-4.0-1.30","subject_id":"5d2b45b9f7ef930001c5fa2d","study_id":"6197b3f67c2b5cd3b6d9596a","session_id":"619be788c155023d57698d8c","condition":"full-information","relevant_dimensions":["antennae","pattern"],"bee_group":{"antennae":"A","wings":"X","pattern":"S","legs":"X"},"bonus":1.540000000000001},{"rt":13674.599999997765,"stimulus":"bees-with-color/bee-A2SM.svg","response":1,"trial_type":"image-button-response","trial_index":73,"time_elapsed":1219522,"internal_node_id":"0.0-4.0-0.31","subject_id":"5d2b45b9f7ef930001c5fa2d","study_id":"6197b3f67c2b5cd3b6d9596a","session_id":"619be788c155023d57698d8c","condition":"full-information","relevant_dimensions":["antennae","pattern"],"bee_group":{"antennae":"A","wings":"X","pattern":"S","legs":"X"},"action":"avoid","summary":"good-avoid","bonus":1.540000000000001},{"rt":1460.300000000745,"stimulus":"\n                    <p><b>Action: <em>avoid</em></b></p>\n                    <p>This is the bee that you just saw.</p>\n                    <img src=\"bees-with-color/bee-A2SM.svg\" width=\"200\">\n                    <p><span class=\"greenText\">Good choice!</span>  This bee would have stung you.<br>Your bonus pay is unchanged, and remains at $0.68.</p>\n            ","response":0,"trial_type":"html-button-response","trial_index":74,"time_elapsed":1220986,"internal_node_id":"0.0-4.0-1.31","subject_id":"5d2b45b9f7ef930001c5fa2d","study_id":"6197b3f67c2b5cd3b6d9596a","session_id":"619be788c155023d57698d8c","condition":"full-information","relevant_dimensions":["antennae","pattern"],"bee_group":{"antennae":"A","wings":"X","pattern":"S","legs":"X"},"bonus":1.540000000000001},{"rt":16814.699999999255,"stimulus":"bees-with-color/bee-A1DM.svg","response":0,"trial_type":"image-button-response","trial_index":75,"time_elapsed":1237807,"internal_node_id":"0.0-4.0-0.32","subject_id":"5d2b45b9f7ef930001c5fa2d","study_id":"6197b3f67c2b5cd3b6d9596a","session_id":"619be788c155023d57698d8c","condition":"full-information","relevant_dimensions":["antennae","pattern"],"bee_group":{"antennae":"A","wings":"X","pattern":"S","legs":"X"},"action":"harvest","summary":"good-harvest","bonus":1.540000000000001},{"rt":930.5,"stimulus":"\n                    <p><b>Action: <em>harvest</em></b></p>\n                    <p>This is the bee that you just saw.</p>\n                    <img src=\"bees-with-color/bee-A1DM.svg\" width=\"200\">\n                    <p><span class=\"greenText\"><b>Successful harvest!</b></span><br>Your pay has increased by $0.02. Your bonus pay is now $0.70.</p>\n            ","response":0,"trial_type":"html-button-response","trial_index":76,"time_elapsed":1238743,"internal_node_id":"0.0-4.0-1.32","subject_id":"5d2b45b9f7ef930001c5fa2d","study_id":"6197b3f67c2b5cd3b6d9596a","session_id":"619be788c155023d57698d8c","condition":"full-information","relevant_dimensions":["antennae","pattern"],"bee_group":{"antennae":"A","wings":"X","pattern":"S","legs":"X"},"bonus":1.540000000000001},{"rt":10809.89999999851,"stimulus":"bees-with-color/bee-A2SM.svg","response":1,"trial_type":"image-button-response","trial_index":77,"time_elapsed":1249560,"internal_node_id":"0.0-4.0-0.33","subject_id":"5d2b45b9f7ef930001c5fa2d","study_id":"6197b3f67c2b5cd3b6d9596a","session_id":"619be788c155023d57698d8c","condition":"full-information","relevant_dimensions":["antennae","pattern"],"bee_group":{"antennae":"A","wings":"X","pattern":"S","legs":"X"},"action":"avoid","summary":"good-avoid","bonus":1.540000000000001},{"rt":1442,"stimulus":"\n                    <p><b>Action: <em>avoid</em></b></p>\n                    <p>This is the bee that you just saw.</p>\n                    <img src=\"bees-with-color/bee-A2SM.svg\" width=\"200\">\n                    <p><span class=\"greenText\">Good choice!</span>  This bee would have stung you.<br>Your bonus pay is unchanged, and remains at $0.70.</p>\n            ","response":0,"trial_type":"html-button-response","trial_index":78,"time_elapsed":1251008,"internal_node_id":"0.0-4.0-1.33","subject_id":"5d2b45b9f7ef930001c5fa2d","study_id":"6197b3f67c2b5cd3b6d9596a","session_id":"619be788c155023d57698d8c","condition":"full-information","relevant_dimensions":["antennae","pattern"],"bee_group":{"antennae":"A","wings":"X","pattern":"S","legs":"X"},"bonus":1.540000000000001},{"rt":15288.900000002235,"stimulus":"bees-with-color/bee-B1SM.svg","response":0,"trial_type":"image-button-response","trial_index":79,"time_elapsed":1266303,"internal_node_id":"0.0-4.0-0.34","subject_id":"5d2b45b9f7ef930001c5fa2d","study_id":"6197b3f67c2b5cd3b6d9596a","session_id":"619be788c155023d57698d8c","condition":"full-information","relevant_dimensions":["antennae","pattern"],"bee_group":{"antennae":"A","wings":"X","pattern":"S","legs":"X"},"action":"harvest","summary":"good-harvest","bonus":1.540000000000001},{"rt":1004.4000000022352,"stimulus":"\n                    <p><b>Action: <em>harvest</em></b></p>\n                    <p>This is the bee that you just saw.</p>\n                    <img src=\"bees-with-color/bee-B1SM.svg\" width=\"200\">\n                    <p><span class=\"greenText\"><b>Successful harvest!</b></span><br>Your pay has increased by $0.02. Your bonus pay is now $0.72.</p>\n            ","response":0,"trial_type":"html-button-response","trial_index":80,"time_elapsed":1267311,"internal_node_id":"0.0-4.0-1.34","subject_id":"5d2b45b9f7ef930001c5fa2d","study_id":"6197b3f67c2b5cd3b6d9596a","session_id":"619be788c155023d57698d8c","condition":"full-information","relevant_dimensions":["antennae","pattern"],"bee_group":{"antennae":"A","wings":"X","pattern":"S","legs":"X"},"bonus":1.540000000000001},{"rt":22386.300000000745,"stimulus":"bees-with-color/bee-A1DF.svg","response":0,"trial_type":"image-button-response","trial_index":81,"time_elapsed":1289704,"internal_node_id":"0.0-4.0-0.35","subject_id":"5d2b45b9f7ef930001c5fa2d","study_id":"6197b3f67c2b5cd3b6d9596a","session_id":"619be788c155023d57698d8c","condition":"full-information","relevant_dimensions":["antennae","pattern"],"bee_group":{"antennae":"A","wings":"X","pattern":"S","legs":"X"},"action":"harvest","summary":"good-harvest","bonus":1.540000000000001},{"rt":956,"stimulus":"\n                    <p><b>Action: <em>harvest</em></b></p>\n                    <p>This is the bee that you just saw.</p>\n                    <img src=\"bees-with-color/bee-A1DF.svg\" width=\"200\">\n                    <p><span class=\"greenText\"><b>Successful harvest!</b></span><br>Your pay has increased by $0.02. Your bonus pay is now $0.74.</p>\n            ","response":0,"trial_type":"html-button-response","trial_index":82,"time_elapsed":1290664,"internal_node_id":"0.0-4.0-1.35","subject_id":"5d2b45b9f7ef930001c5fa2d","study_id":"6197b3f67c2b5cd3b6d9596a","session_id":"619be788c155023d57698d8c","condition":"full-information","relevant_dimensions":["antennae","pattern"],"bee_group":{"antennae":"A","wings":"X","pattern":"S","legs":"X"},"bonus":1.540000000000001},{"rt":11059.39999999851,"stimulus":"bees-with-color/bee-A2DF.svg","response":0,"trial_type":"image-button-response","trial_index":83,"time_elapsed":1301729,"internal_node_id":"0.0-4.0-0.36","subject_id":"5d2b45b9f7ef930001c5fa2d","study_id":"6197b3f67c2b5cd3b6d9596a","session_id":"619be788c155023d57698d8c","condition":"full-information","relevant_dimensions":["antennae","pattern"],"bee_group":{"antennae":"A","wings":"X","pattern":"S","legs":"X"},"action":"harvest","summary":"good-harvest","bonus":1.540000000000001},{"rt":902.8999999985099,"stimulus":"\n                    <p><b>Action: <em>harvest</em></b></p>\n                    <p>This is the bee that you just saw.</p>\n                    <img src=\"bees-with-color/bee-A2DF.svg\" width=\"200\">\n                    <p><span class=\"greenText\"><b>Successful harvest!</b></span><br>Your pay has increased by $0.02. Your bonus pay is now $0.76.</p>\n            ","response":0,"trial_type":"html-button-response","trial_index":84,"time_elapsed":1302637,"internal_node_id":"0.0-4.0-1.36","subject_id":"5d2b45b9f7ef930001c5fa2d","study_id":"6197b3f67c2b5cd3b6d9596a","session_id":"619be788c155023d57698d8c","condition":"full-information","relevant_dimensions":["antennae","pattern"],"bee_group":{"antennae":"A","wings":"X","pattern":"S","legs":"X"},"bonus":1.540000000000001},{"rt":9682.300000000745,"stimulus":"bees-with-color/bee-A1SM.svg","response":1,"trial_type":"image-button-response","trial_index":85,"time_elapsed":1312326,"internal_node_id":"0.0-4.0-0.37","subject_id":"5d2b45b9f7ef930001c5fa2d","study_id":"6197b3f67c2b5cd3b6d9596a","session_id":"619be788c155023d57698d8c","condition":"full-information","relevant_dimensions":["antennae","pattern"],"bee_group":{"antennae":"A","wings":"X","pattern":"S","legs":"X"},"action":"avoid","summary":"good-avoid","bonus":1.540000000000001},{"rt":1258.9000000022352,"stimulus":"\n                    <p><b>Action: <em>avoid</em></b></p>\n                    <p>This is the bee that you just saw.</p>\n                    <img src=\"bees-with-color/bee-A1SM.svg\" width=\"200\">\n                    <p><span class=\"greenText\">Good choice!</span>  This bee would have stung you.<br>Your bonus pay is unchanged, and remains at $0.76.</p>\n            ","response":0,"trial_type":"html-button-response","trial_index":86,"time_elapsed":1313589,"internal_node_id":"0.0-4.0-1.37","subject_id":"5d2b45b9f7ef930001c5fa2d","study_id":"6197b3f67c2b5cd3b6d9596a","session_id":"619be788c155023d57698d8c","condition":"full-information","relevant_dimensions":["antennae","pattern"],"bee_group":{"antennae":"A","wings":"X","pattern":"S","legs":"X"},"bonus":1.540000000000001},{"rt":11554.39999999851,"stimulus":"bees-with-color/bee-B2SF.svg","response":0,"trial_type":"image-button-response","trial_index":87,"time_elapsed":1325150,"internal_node_id":"0.0-4.0-0.38","subject_id":"5d2b45b9f7ef930001c5fa2d","study_id":"6197b3f67c2b5cd3b6d9596a","session_id":"619be788c155023d57698d8c","condition":"full-information","relevant_dimensions":["antennae","pattern"],"bee_group":{"antennae":"A","wings":"X","pattern":"S","legs":"X"},"action":"harvest","summary":"good-harvest","bonus":1.540000000000001},{"rt":938.3000000007451,"stimulus":"\n                    <p><b>Action: <em>harvest</em></b></p>\n                    <p>This is the bee that you just saw.</p>\n                    <img src=\"bees-with-color/bee-B2SF.svg\" width=\"200\">\n                    <p><span class=\"greenText\"><b>Successful harvest!</b></span><br>Your pay has increased by $0.02. Your bonus pay is now $0.78.</p>\n            ","response":0,"trial_type":"html-button-response","trial_index":88,"time_elapsed":1326094,"internal_node_id":"0.0-4.0-1.38","subject_id":"5d2b45b9f7ef930001c5fa2d","study_id":"6197b3f67c2b5cd3b6d9596a","session_id":"619be788c155023d57698d8c","condition":"full-information","relevant_dimensions":["antennae","pattern"],"bee_group":{"antennae":"A","wings":"X","pattern":"S","legs":"X"},"bonus":1.540000000000001},{"rt":9347.70000000298,"stimulus":"bees-with-color/bee-B2DF.svg","response":0,"trial_type":"image-button-response","trial_index":89,"time_elapsed":1335446,"internal_node_id":"0.0-4.0-0.39","subject_id":"5d2b45b9f7ef930001c5fa2d","study_id":"6197b3f67c2b5cd3b6d9596a","session_id":"619be788c155023d57698d8c","condition":"full-information","relevant_dimensions":["antennae","pattern"],"bee_group":{"antennae":"A","wings":"X","pattern":"S","legs":"X"},"action":"harvest","summary":"good-harvest","bonus":1.540000000000001},{"rt":827.8999999985099,"stimulus":"\n                    <p><b>Action: <em>harvest</em></b></p>\n                    <p>This is the bee that you just saw.</p>\n                    <img src=\"bees-with-color/bee-B2DF.svg\" width=\"200\">\n                    <p><span class=\"greenText\"><b>Successful harvest!</b></span><br>Your pay has increased by $0.02. Your bonus pay is now $0.80.</p>\n            ","response":0,"trial_type":"html-button-response","trial_index":90,"time_elapsed":1336280,"internal_node_id":"0.0-4.0-1.39","subject_id":"5d2b45b9f7ef930001c5fa2d","study_id":"6197b3f67c2b5cd3b6d9596a","session_id":"619be788c155023d57698d8c","condition":"full-information","relevant_dimensions":["antennae","pattern"],"bee_group":{"antennae":"A","wings":"X","pattern":"S","legs":"X"},"bonus":1.540000000000001},{"rt":16464.800000000745,"stimulus":"bees-with-color/bee-B1DF.svg","response":0,"trial_type":"image-button-response","trial_index":91,"time_elapsed":1352750,"internal_node_id":"0.0-4.0-0.40","subject_id":"5d2b45b9f7ef930001c5fa2d","study_id":"6197b3f67c2b5cd3b6d9596a","session_id":"619be788c155023d57698d8c","condition":"full-information","relevant_dimensions":["antennae","pattern"],"bee_group":{"antennae":"A","wings":"X","pattern":"S","legs":"X"},"action":"harvest","summary":"good-harvest","bonus":1.540000000000001},{"rt":939.4000000022352,"stimulus":"\n                    <p><b>Action: <em>harvest</em></b></p>\n                    <p>This is the bee that you just saw.</p>\n                    <img src=\"bees-with-color/bee-B1DF.svg\" width=\"200\">\n                    <p><span class=\"greenText\"><b>Successful harvest!</b></span><br>Your pay has increased by $0.02. Your bonus pay is now $0.82.</p>\n            ","response":0,"trial_type":"html-button-response","trial_index":92,"time_elapsed":1353695,"internal_node_id":"0.0-4.0-1.40","subject_id":"5d2b45b9f7ef930001c5fa2d","study_id":"6197b3f67c2b5cd3b6d9596a","session_id":"619be788c155023d57698d8c","condition":"full-information","relevant_dimensions":["antennae","pattern"],"bee_group":{"antennae":"A","wings":"X","pattern":"S","legs":"X"},"bonus":1.540000000000001},{"rt":7516.89999999851,"stimulus":"bees-with-color/bee-A2DM.svg","response":0,"trial_type":"image-button-response","trial_index":93,"time_elapsed":1361219,"internal_node_id":"0.0-4.0-0.41","subject_id":"5d2b45b9f7ef930001c5fa2d","study_id":"6197b3f67c2b5cd3b6d9596a","session_id":"619be788c155023d57698d8c","condition":"full-information","relevant_dimensions":["antennae","pattern"],"bee_group":{"antennae":"A","wings":"X","pattern":"S","legs":"X"},"action":"harvest","summary":"good-harvest","bonus":1.540000000000001},{"rt":843.8999999985099,"stimulus":"\n                    <p><b>Action: <em>harvest</em></b></p>\n                    <p>This is the bee that you just saw.</p>\n                    <img src=\"bees-with-color/bee-A2DM.svg\" width=\"200\">\n                    <p><span class=\"greenText\"><b>Successful harvest!</b></span><br>Your pay has increased by $0.02. Your bonus pay is now $0.84.</p>\n            ","response":0,"trial_type":"html-button-response","trial_index":94,"time_elapsed":1362068,"internal_node_id":"0.0-4.0-1.41","subject_id":"5d2b45b9f7ef930001c5fa2d","study_id":"6197b3f67c2b5cd3b6d9596a","session_id":"619be788c155023d57698d8c","condition":"full-information","relevant_dimensions":["antennae","pattern"],"bee_group":{"antennae":"A","wings":"X","pattern":"S","legs":"X"},"bonus":1.540000000000001},{"rt":16090.29999999702,"stimulus":"bees-with-color/bee-B2SM.svg","response":0,"trial_type":"image-button-response","trial_index":95,"time_elapsed":1378164,"internal_node_id":"0.0-4.0-0.42","subject_id":"5d2b45b9f7ef930001c5fa2d","study_id":"6197b3f67c2b5cd3b6d9596a","session_id":"619be788c155023d57698d8c","condition":"full-information","relevant_dimensions":["antennae","pattern"],"bee_group":{"antennae":"A","wings":"X","pattern":"S","legs":"X"},"action":"harvest","summary":"good-harvest","bonus":1.540000000000001},{"rt":942.8000000007451,"stimulus":"\n                    <p><b>Action: <em>harvest</em></b></p>\n                    <p>This is the bee that you just saw.</p>\n                    <img src=\"bees-with-color/bee-B2SM.svg\" width=\"200\">\n                    <p><span class=\"greenText\"><b>Successful harvest!</b></span><br>Your pay has increased by $0.02. Your bonus pay is now $0.86.</p>\n            ","response":0,"trial_type":"html-button-response","trial_index":96,"time_elapsed":1379111,"internal_node_id":"0.0-4.0-1.42","subject_id":"5d2b45b9f7ef930001c5fa2d","study_id":"6197b3f67c2b5cd3b6d9596a","session_id":"619be788c155023d57698d8c","condition":"full-information","relevant_dimensions":["antennae","pattern"],"bee_group":{"antennae":"A","wings":"X","pattern":"S","legs":"X"},"bonus":1.540000000000001},{"rt":13713.10000000149,"stimulus":"bees-with-color/bee-B1DM.svg","response":0,"trial_type":"image-button-response","trial_index":97,"time_elapsed":1392828,"internal_node_id":"0.0-4.0-0.43","subject_id":"5d2b45b9f7ef930001c5fa2d","study_id":"6197b3f67c2b5cd3b6d9596a","session_id":"619be788c155023d57698d8c","condition":"full-information","relevant_dimensions":["antennae","pattern"],"bee_group":{"antennae":"A","wings":"X","pattern":"S","legs":"X"},"action":"harvest","summary":"good-harvest","bonus":1.540000000000001},{"rt":1066.5,"stimulus":"\n                    <p><b>Action: <em>harvest</em></b></p>\n                    <p>This is the bee that you just saw.</p>\n                    <img src=\"bees-with-color/bee-B1DM.svg\" width=\"200\">\n                    <p><span class=\"greenText\"><b>Successful harvest!</b></span><br>Your pay has increased by $0.02. Your bonus pay is now $0.88.</p>\n            ","response":0,"trial_type":"html-button-response","trial_index":98,"time_elapsed":1393900,"internal_node_id":"0.0-4.0-1.43","subject_id":"5d2b45b9f7ef930001c5fa2d","study_id":"6197b3f67c2b5cd3b6d9596a","session_id":"619be788c155023d57698d8c","condition":"full-information","relevant_dimensions":["antennae","pattern"],"bee_group":{"antennae":"A","wings":"X","pattern":"S","legs":"X"},"bonus":1.540000000000001},{"rt":15378.79999999702,"stimulus":"bees-with-color/bee-A1SF.svg","response":1,"trial_type":"image-button-response","trial_index":99,"time_elapsed":1409284,"internal_node_id":"0.0-4.0-0.44","subject_id":"5d2b45b9f7ef930001c5fa2d","study_id":"6197b3f67c2b5cd3b6d9596a","session_id":"619be788c155023d57698d8c","condition":"full-information","relevant_dimensions":["antennae","pattern"],"bee_group":{"antennae":"A","wings":"X","pattern":"S","legs":"X"},"action":"avoid","summary":"good-avoid","bonus":1.540000000000001},{"rt":1170.4000000022352,"stimulus":"\n                    <p><b>Action: <em>avoid</em></b></p>\n                    <p>This is the bee that you just saw.</p>\n                    <img src=\"bees-with-color/bee-A1SF.svg\" width=\"200\">\n                    <p><span class=\"greenText\">Good choice!</span>  This bee would have stung you.<br>Your bonus pay is unchanged, and remains at $0.88.</p>\n            ","response":0,"trial_type":"html-button-response","trial_index":100,"time_elapsed":1410461,"internal_node_id":"0.0-4.0-1.44","subject_id":"5d2b45b9f7ef930001c5fa2d","study_id":"6197b3f67c2b5cd3b6d9596a","session_id":"619be788c155023d57698d8c","condition":"full-information","relevant_dimensions":["antennae","pattern"],"bee_group":{"antennae":"A","wings":"X","pattern":"S","legs":"X"},"bonus":1.540000000000001},{"rt":15368.60000000149,"stimulus":"bees-with-color/bee-B1SF.svg","response":0,"trial_type":"image-button-response","trial_index":101,"time_elapsed":1425837,"internal_node_id":"0.0-4.0-0.45","subject_id":"5d2b45b9f7ef930001c5fa2d","study_id":"6197b3f67c2b5cd3b6d9596a","session_id":"619be788c155023d57698d8c","condition":"full-information","relevant_dimensions":["antennae","pattern"],"bee_group":{"antennae":"A","wings":"X","pattern":"S","legs":"X"},"action":"harvest","summary":"good-harvest","bonus":1.540000000000001},{"rt":878.5,"stimulus":"\n                    <p><b>Action: <em>harvest</em></b></p>\n                    <p>This is the bee that you just saw.</p>\n                    <img src=\"bees-with-color/bee-B1SF.svg\" width=\"200\">\n                    <p><span class=\"greenText\"><b>Successful harvest!</b></span><br>Your pay has increased by $0.02. Your bonus pay is now $0.90.</p>\n            ","response":0,"trial_type":"html-button-response","trial_index":102,"time_elapsed":1426721,"internal_node_id":"0.0-4.0-1.45","subject_id":"5d2b45b9f7ef930001c5fa2d","study_id":"6197b3f67c2b5cd3b6d9596a","session_id":"619be788c155023d57698d8c","condition":"full-information","relevant_dimensions":["antennae","pattern"],"bee_group":{"antennae":"A","wings":"X","pattern":"S","legs":"X"},"bonus":1.540000000000001},{"rt":12885.699999999255,"stimulus":"bees-with-color/bee-B2DM.svg","response":0,"trial_type":"image-button-response","trial_index":103,"time_elapsed":1439613,"internal_node_id":"0.0-4.0-0.46","subject_id":"5d2b45b9f7ef930001c5fa2d","study_id":"6197b3f67c2b5cd3b6d9596a","session_id":"619be788c155023d57698d8c","condition":"full-information","relevant_dimensions":["antennae","pattern"],"bee_group":{"antennae":"A","wings":"X","pattern":"S","legs":"X"},"action":"harvest","summary":"good-harvest","bonus":1.540000000000001},{"rt":981.6999999992549,"stimulus":"\n                    <p><b>Action: <em>harvest</em></b></p>\n                    <p>This is the bee that you just saw.</p>\n                    <img src=\"bees-with-color/bee-B2DM.svg\" width=\"200\">\n                    <p><span class=\"greenText\"><b>Successful harvest!</b></span><br>Your pay has increased by $0.02. Your bonus pay is now $0.92.</p>\n            ","response":0,"trial_type":"html-button-response","trial_index":104,"time_elapsed":1440601,"internal_node_id":"0.0-4.0-1.46","subject_id":"5d2b45b9f7ef930001c5fa2d","study_id":"6197b3f67c2b5cd3b6d9596a","session_id":"619be788c155023d57698d8c","condition":"full-information","relevant_dimensions":["antennae","pattern"],"bee_group":{"antennae":"A","wings":"X","pattern":"S","legs":"X"},"bonus":1.540000000000001},{"rt":24120.400000002235,"stimulus":"bees-with-color/bee-A2SF.svg","response":1,"trial_type":"image-button-response","trial_index":105,"time_elapsed":1464729,"internal_node_id":"0.0-4.0-0.47","subject_id":"5d2b45b9f7ef930001c5fa2d","study_id":"6197b3f67c2b5cd3b6d9596a","session_id":"619be788c155023d57698d8c","condition":"full-information","relevant_dimensions":["antennae","pattern"],"bee_group":{"antennae":"A","wings":"X","pattern":"S","legs":"X"},"action":"avoid","summary":"good-avoid","bonus":1.540000000000001},{"rt":1119.3999999985099,"stimulus":"\n                    <p><b>Action: <em>avoid</em></b></p>\n                    <p>This is the bee that you just saw.</p>\n                    <img src=\"bees-with-color/bee-A2SF.svg\" width=\"200\">\n                    <p><span class=\"greenText\">Good choice!</span>  This bee would have stung you.<br>Your bonus pay is unchanged, and remains at $0.92.</p>\n            ","response":0,"trial_type":"html-button-response","trial_index":106,"time_elapsed":1465858,"internal_node_id":"0.0-4.0-1.47","subject_id":"5d2b45b9f7ef930001c5fa2d","study_id":"6197b3f67c2b5cd3b6d9596a","session_id":"619be788c155023d57698d8c","condition":"full-information","relevant_dimensions":["antennae","pattern"],"bee_group":{"antennae":"A","wings":"X","pattern":"S","legs":"X"},"bonus":1.540000000000001},{"rt":13042.699999999255,"stimulus":"bees-with-color/bee-B1SM.svg","response":0,"trial_type":"image-button-response","trial_index":107,"time_elapsed":1478906,"internal_node_id":"0.0-4.0-0.48","subject_id":"5d2b45b9f7ef930001c5fa2d","study_id":"6197b3f67c2b5cd3b6d9596a","session_id":"619be788c155023d57698d8c","condition":"full-information","relevant_dimensions":["antennae","pattern"],"bee_group":{"antennae":"A","wings":"X","pattern":"S","legs":"X"},"action":"harvest","summary":"good-harvest","bonus":1.540000000000001},{"rt":825.2000000029802,"stimulus":"\n                    <p><b>Action: <em>harvest</em></b></p>\n                    <p>This is the bee that you just saw.</p>\n                    <img src=\"bees-with-color/bee-B1SM.svg\" width=\"200\">\n                    <p><span class=\"greenText\"><b>Successful harvest!</b></span><br>Your pay has increased by $0.02. Your bonus pay is now $0.94.</p>\n            ","response":0,"trial_type":"html-button-response","trial_index":108,"time_elapsed":1479735,"internal_node_id":"0.0-4.0-1.48","subject_id":"5d2b45b9f7ef930001c5fa2d","study_id":"6197b3f67c2b5cd3b6d9596a","session_id":"619be788c155023d57698d8c","condition":"full-information","relevant_dimensions":["antennae","pattern"],"bee_group":{"antennae":"A","wings":"X","pattern":"S","legs":"X"},"bonus":1.540000000000001},{"rt":13024,"stimulus":"bees-with-color/bee-A2DF.svg","response":0,"trial_type":"image-button-response","trial_index":109,"time_elapsed":1492764,"internal_node_id":"0.0-4.0-0.49","subject_id":"5d2b45b9f7ef930001c5fa2d","study_id":"6197b3f67c2b5cd3b6d9596a","session_id":"619be788c155023d57698d8c","condition":"full-information","relevant_dimensions":["antennae","pattern"],"bee_group":{"antennae":"A","wings":"X","pattern":"S","legs":"X"},"action":"harvest","summary":"good-harvest","bonus":1.540000000000001},{"rt":1026.5,"stimulus":"\n                    <p><b>Action: <em>harvest</em></b></p>\n                    <p>This is the bee that you just saw.</p>\n                    <img src=\"bees-with-color/bee-A2DF.svg\" width=\"200\">\n                    <p><span class=\"greenText\"><b>Successful harvest!</b></span><br>Your pay has increased by $0.02. Your bonus pay is now $0.96.</p>\n            ","response":0,"trial_type":"html-button-response","trial_index":110,"time_elapsed":1493795,"internal_node_id":"0.0-4.0-1.49","subject_id":"5d2b45b9f7ef930001c5fa2d","study_id":"6197b3f67c2b5cd3b6d9596a","session_id":"619be788c155023d57698d8c","condition":"full-information","relevant_dimensions":["antennae","pattern"],"bee_group":{"antennae":"A","wings":"X","pattern":"S","legs":"X"},"bonus":1.540000000000001},{"rt":7466.699999999255,"stimulus":"bees-with-color/bee-B1SF.svg","response":0,"trial_type":"image-button-response","trial_index":111,"time_elapsed":1501268,"internal_node_id":"0.0-4.0-0.50","subject_id":"5d2b45b9f7ef930001c5fa2d","study_id":"6197b3f67c2b5cd3b6d9596a","session_id":"619be788c155023d57698d8c","condition":"full-information","relevant_dimensions":["antennae","pattern"],"bee_group":{"antennae":"A","wings":"X","pattern":"S","legs":"X"},"action":"harvest","summary":"good-harvest","bonus":1.540000000000001},{"rt":758.6999999992549,"stimulus":"\n                    <p><b>Action: <em>harvest</em></b></p>\n                    <p>This is the bee that you just saw.</p>\n                    <img src=\"bees-with-color/bee-B1SF.svg\" width=\"200\">\n                    <p><span class=\"greenText\"><b>Successful harvest!</b></span><br>Your pay has increased by $0.02. Your bonus pay is now $0.98.</p>\n            ","response":0,"trial_type":"html-button-response","trial_index":112,"time_elapsed":1502031,"internal_node_id":"0.0-4.0-1.50","subject_id":"5d2b45b9f7ef930001c5fa2d","study_id":"6197b3f67c2b5cd3b6d9596a","session_id":"619be788c155023d57698d8c","condition":"full-information","relevant_dimensions":["antennae","pattern"],"bee_group":{"antennae":"A","wings":"X","pattern":"S","legs":"X"},"bonus":1.540000000000001},{"rt":16427.300000000745,"stimulus":"bees-with-color/bee-B2SM.svg","response":0,"trial_type":"image-button-response","trial_index":113,"time_elapsed":1518465,"internal_node_id":"0.0-4.0-0.51","subject_id":"5d2b45b9f7ef930001c5fa2d","study_id":"6197b3f67c2b5cd3b6d9596a","session_id":"619be788c155023d57698d8c","condition":"full-information","relevant_dimensions":["antennae","pattern"],"bee_group":{"antennae":"A","wings":"X","pattern":"S","legs":"X"},"action":"harvest","summary":"good-harvest","bonus":1.540000000000001},{"rt":914.1999999992549,"stimulus":"\n                    <p><b>Action: <em>harvest</em></b></p>\n                    <p>This is the bee that you just saw.</p>\n                    <img src=\"bees-with-color/bee-B2SM.svg\" width=\"200\">\n                    <p><span class=\"greenText\"><b>Successful harvest!</b></span><br>Your pay has increased by $0.02. Your bonus pay is now $1.00.</p>\n            ","response":0,"trial_type":"html-button-response","trial_index":114,"time_elapsed":1519384,"internal_node_id":"0.0-4.0-1.51","subject_id":"5d2b45b9f7ef930001c5fa2d","study_id":"6197b3f67c2b5cd3b6d9596a","session_id":"619be788c155023d57698d8c","condition":"full-information","relevant_dimensions":["antennae","pattern"],"bee_group":{"antennae":"A","wings":"X","pattern":"S","legs":"X"},"bonus":1.540000000000001},{"rt":12082,"stimulus":"bees-with-color/bee-A2SM.svg","response":1,"trial_type":"image-button-response","trial_index":115,"time_elapsed":1531472,"internal_node_id":"0.0-4.0-0.52","subject_id":"5d2b45b9f7ef930001c5fa2d","study_id":"6197b3f67c2b5cd3b6d9596a","session_id":"619be788c155023d57698d8c","condition":"full-information","relevant_dimensions":["antennae","pattern"],"bee_group":{"antennae":"A","wings":"X","pattern":"S","legs":"X"},"action":"avoid","summary":"good-avoid","bonus":1.540000000000001},{"rt":787.8999999985099,"stimulus":"\n                    <p><b>Action: <em>avoid</em></b></p>\n                    <p>This is the bee that you just saw.</p>\n                    <img src=\"bees-with-color/bee-A2SM.svg\" width=\"200\">\n                    <p><span class=\"greenText\">Good choice!</span>  This bee would have stung you.<br>Your bonus pay is unchanged, and remains at $1.00.</p>\n            ","response":0,"trial_type":"html-button-response","trial_index":116,"time_elapsed":1532264,"internal_node_id":"0.0-4.0-1.52","subject_id":"5d2b45b9f7ef930001c5fa2d","study_id":"6197b3f67c2b5cd3b6d9596a","session_id":"619be788c155023d57698d8c","condition":"full-information","relevant_dimensions":["antennae","pattern"],"bee_group":{"antennae":"A","wings":"X","pattern":"S","legs":"X"},"bonus":1.540000000000001},{"rt":15296.800000000745,"stimulus":"bees-with-color/bee-A1SF.svg","response":1,"trial_type":"image-button-response","trial_index":117,"time_elapsed":1547569,"internal_node_id":"0.0-4.0-0.53","subject_id":"5d2b45b9f7ef930001c5fa2d","study_id":"6197b3f67c2b5cd3b6d9596a","session_id":"619be788c155023d57698d8c","condition":"full-information","relevant_dimensions":["antennae","pattern"],"bee_group":{"antennae":"A","wings":"X","pattern":"S","legs":"X"},"action":"avoid","summary":"good-avoid","bonus":1.540000000000001},{"rt":1128.800000000745,"stimulus":"\n                    <p><b>Action: <em>avoid</em></b></p>\n                    <p>This is the bee that you just saw.</p>\n                    <img src=\"bees-with-color/bee-A1SF.svg\" width=\"200\">\n                    <p><span class=\"greenText\">Good choice!</span>  This bee would have stung you.<br>Your bonus pay is unchanged, and remains at $1.00.</p>\n            ","response":0,"trial_type":"html-button-response","trial_index":118,"time_elapsed":1548705,"internal_node_id":"0.0-4.0-1.53","subject_id":"5d2b45b9f7ef930001c5fa2d","study_id":"6197b3f67c2b5cd3b6d9596a","session_id":"619be788c155023d57698d8c","condition":"full-information","relevant_dimensions":["antennae","pattern"],"bee_group":{"antennae":"A","wings":"X","pattern":"S","legs":"X"},"bonus":1.540000000000001},{"rt":12304.800000000745,"stimulus":"bees-with-color/bee-B2SF.svg","response":0,"trial_type":"image-button-response","trial_index":119,"time_elapsed":1561017,"internal_node_id":"0.0-4.0-0.54","subject_id":"5d2b45b9f7ef930001c5fa2d","study_id":"6197b3f67c2b5cd3b6d9596a","session_id":"619be788c155023d57698d8c","condition":"full-information","relevant_dimensions":["antennae","pattern"],"bee_group":{"antennae":"A","wings":"X","pattern":"S","legs":"X"},"action":"harvest","summary":"good-harvest","bonus":1.540000000000001},{"rt":839,"stimulus":"\n                    <p><b>Action: <em>harvest</em></b></p>\n                    <p>This is the bee that you just saw.</p>\n                    <img src=\"bees-with-color/bee-B2SF.svg\" width=\"200\">\n                    <p><span class=\"greenText\"><b>Successful harvest!</b></span><br>Your pay has increased by $0.02. Your bonus pay is now $1.02.</p>\n            ","response":0,"trial_type":"html-button-response","trial_index":120,"time_elapsed":1561862,"internal_node_id":"0.0-4.0-1.54","subject_id":"5d2b45b9f7ef930001c5fa2d","study_id":"6197b3f67c2b5cd3b6d9596a","session_id":"619be788c155023d57698d8c","condition":"full-information","relevant_dimensions":["antennae","pattern"],"bee_group":{"antennae":"A","wings":"X","pattern":"S","legs":"X"},"bonus":1.540000000000001},{"rt":8460.89999999851,"stimulus":"bees-with-color/bee-B2DF.svg","response":0,"trial_type":"image-button-response","trial_index":121,"time_elapsed":1570330,"internal_node_id":"0.0-4.0-0.55","subject_id":"5d2b45b9f7ef930001c5fa2d","study_id":"6197b3f67c2b5cd3b6d9596a","session_id":"619be788c155023d57698d8c","condition":"full-information","relevant_dimensions":["antennae","pattern"],"bee_group":{"antennae":"A","wings":"X","pattern":"S","legs":"X"},"action":"harvest","summary":"good-harvest","bonus":1.540000000000001},{"rt":881.8000000007451,"stimulus":"\n                    <p><b>Action: <em>harvest</em></b></p>\n                    <p>This is the bee that you just saw.</p>\n                    <img src=\"bees-with-color/bee-B2DF.svg\" width=\"200\">\n                    <p><span class=\"greenText\"><b>Successful harvest!</b></span><br>Your pay has increased by $0.02. Your bonus pay is now $1.04.</p>\n            ","response":0,"trial_type":"html-button-response","trial_index":122,"time_elapsed":1571218,"internal_node_id":"0.0-4.0-1.55","subject_id":"5d2b45b9f7ef930001c5fa2d","study_id":"6197b3f67c2b5cd3b6d9596a","session_id":"619be788c155023d57698d8c","condition":"full-information","relevant_dimensions":["antennae","pattern"],"bee_group":{"antennae":"A","wings":"X","pattern":"S","legs":"X"},"bonus":1.540000000000001},{"rt":17489.39999999851,"stimulus":"bees-with-color/bee-A1DM.svg","response":0,"trial_type":"image-button-response","trial_index":123,"time_elapsed":1588714,"internal_node_id":"0.0-4.0-0.56","subject_id":"5d2b45b9f7ef930001c5fa2d","study_id":"6197b3f67c2b5cd3b6d9596a","session_id":"619be788c155023d57698d8c","condition":"full-information","relevant_dimensions":["antennae","pattern"],"bee_group":{"antennae":"A","wings":"X","pattern":"S","legs":"X"},"action":"harvest","summary":"good-harvest","bonus":1.540000000000001},{"rt":899.6000000014901,"stimulus":"\n                    <p><b>Action: <em>harvest</em></b></p>\n                    <p>This is the bee that you just saw.</p>\n                    <img src=\"bees-with-color/bee-A1DM.svg\" width=\"200\">\n                    <p><span class=\"greenText\"><b>Successful harvest!</b></span><br>Your pay has increased by $0.02. Your bonus pay is now $1.06.</p>\n            ","response":0,"trial_type":"html-button-response","trial_index":124,"time_elapsed":1589617,"internal_node_id":"0.0-4.0-1.56","subject_id":"5d2b45b9f7ef930001c5fa2d","study_id":"6197b3f67c2b5cd3b6d9596a","session_id":"619be788c155023d57698d8c","condition":"full-information","relevant_dimensions":["antennae","pattern"],"bee_group":{"antennae":"A","wings":"X","pattern":"S","legs":"X"},"bonus":1.540000000000001},{"rt":8678.199999999255,"stimulus":"bees-with-color/bee-A1SM.svg","response":1,"trial_type":"image-button-response","trial_index":125,"time_elapsed":1598301,"internal_node_id":"0.0-4.0-0.57","subject_id":"5d2b45b9f7ef930001c5fa2d","study_id":"6197b3f67c2b5cd3b6d9596a","session_id":"619be788c155023d57698d8c","condition":"full-information","relevant_dimensions":["antennae","pattern"],"bee_group":{"antennae":"A","wings":"X","pattern":"S","legs":"X"},"action":"avoid","summary":"good-avoid","bonus":1.540000000000001},{"rt":1261.199999999255,"stimulus":"\n                    <p><b>Action: <em>avoid</em></b></p>\n                    <p>This is the bee that you just saw.</p>\n                    <img src=\"bees-with-color/bee-A1SM.svg\" width=\"200\">\n                    <p><span class=\"greenText\">Good choice!</span>  This bee would have stung you.<br>Your bonus pay is unchanged, and remains at $1.06.</p>\n            ","response":0,"trial_type":"html-button-response","trial_index":126,"time_elapsed":1599566,"internal_node_id":"0.0-4.0-1.57","subject_id":"5d2b45b9f7ef930001c5fa2d","study_id":"6197b3f67c2b5cd3b6d9596a","session_id":"619be788c155023d57698d8c","condition":"full-information","relevant_dimensions":["antennae","pattern"],"bee_group":{"antennae":"A","wings":"X","pattern":"S","legs":"X"},"bonus":1.540000000000001},{"rt":16032,"stimulus":"bees-with-color/bee-B1DF.svg","response":0,"trial_type":"image-button-response","trial_index":127,"time_elapsed":1615604,"internal_node_id":"0.0-4.0-0.58","subject_id":"5d2b45b9f7ef930001c5fa2d","study_id":"6197b3f67c2b5cd3b6d9596a","session_id":"619be788c155023d57698d8c","condition":"full-information","relevant_dimensions":["antennae","pattern"],"bee_group":{"antennae":"A","wings":"X","pattern":"S","legs":"X"},"action":"harvest","summary":"good-harvest","bonus":1.540000000000001},{"rt":854.3999999985099,"stimulus":"\n                    <p><b>Action: <em>harvest</em></b></p>\n                    <p>This is the bee that you just saw.</p>\n                    <img src=\"bees-with-color/bee-B1DF.svg\" width=\"200\">\n                    <p><span class=\"greenText\"><b>Successful harvest!</b></span><br>Your pay has increased by $0.02. Your bonus pay is now $1.08.</p>\n            ","response":0,"trial_type":"html-button-response","trial_index":128,"time_elapsed":1616462,"internal_node_id":"0.0-4.0-1.58","subject_id":"5d2b45b9f7ef930001c5fa2d","study_id":"6197b3f67c2b5cd3b6d9596a","session_id":"619be788c155023d57698d8c","condition":"full-information","relevant_dimensions":["antennae","pattern"],"bee_group":{"antennae":"A","wings":"X","pattern":"S","legs":"X"},"bonus":1.540000000000001},{"rt":14353.300000000745,"stimulus":"bees-with-color/bee-B2DM.svg","response":0,"trial_type":"image-button-response","trial_index":129,"time_elapsed":1630823,"internal_node_id":"0.0-4.0-0.59","subject_id":"5d2b45b9f7ef930001c5fa2d","study_id":"6197b3f67c2b5cd3b6d9596a","session_id":"619be788c155023d57698d8c","condition":"full-information","relevant_dimensions":["antennae","pattern"],"bee_group":{"antennae":"A","wings":"X","pattern":"S","legs":"X"},"action":"harvest","summary":"good-harvest","bonus":1.540000000000001},{"rt":907.5,"stimulus":"\n                    <p><b>Action: <em>harvest</em></b></p>\n                    <p>This is the bee that you just saw.</p>\n                    <img src=\"bees-with-color/bee-B2DM.svg\" width=\"200\">\n                    <p><span class=\"greenText\"><b>Successful harvest!</b></span><br>Your pay has increased by $0.02. Your bonus pay is now $1.10.</p>\n            ","response":0,"trial_type":"html-button-response","trial_index":130,"time_elapsed":1631734,"internal_node_id":"0.0-4.0-1.59","subject_id":"5d2b45b9f7ef930001c5fa2d","study_id":"6197b3f67c2b5cd3b6d9596a","session_id":"619be788c155023d57698d8c","condition":"full-information","relevant_dimensions":["antennae","pattern"],"bee_group":{"antennae":"A","wings":"X","pattern":"S","legs":"X"},"bonus":1.540000000000001},{"rt":7108.699999999255,"stimulus":"bees-with-color/bee-B1DM.svg","response":0,"trial_type":"image-button-response","trial_index":131,"time_elapsed":1638848,"internal_node_id":"0.0-4.0-0.60","subject_id":"5d2b45b9f7ef930001c5fa2d","study_id":"6197b3f67c2b5cd3b6d9596a","session_id":"619be788c155023d57698d8c","condition":"full-information","relevant_dimensions":["antennae","pattern"],"bee_group":{"antennae":"A","wings":"X","pattern":"S","legs":"X"},"action":"harvest","summary":"good-harvest","bonus":1.540000000000001},{"rt":849.9000000022352,"stimulus":"\n                    <p><b>Action: <em>harvest</em></b></p>\n                    <p>This is the bee that you just saw.</p>\n                    <img src=\"bees-with-color/bee-B1DM.svg\" width=\"200\">\n                    <p><span class=\"greenText\"><b>Successful harvest!</b></span><br>Your pay has increased by $0.02. Your bonus pay is now $1.12.</p>\n            ","response":0,"trial_type":"html-button-response","trial_index":132,"time_elapsed":1639703,"internal_node_id":"0.0-4.0-1.60","subject_id":"5d2b45b9f7ef930001c5fa2d","study_id":"6197b3f67c2b5cd3b6d9596a","session_id":"619be788c155023d57698d8c","condition":"full-information","relevant_dimensions":["antennae","pattern"],"bee_group":{"antennae":"A","wings":"X","pattern":"S","legs":"X"},"bonus":1.540000000000001},{"rt":14472,"stimulus":"bees-with-color/bee-A1DF.svg","response":0,"trial_type":"image-button-response","trial_index":133,"time_elapsed":1654180,"internal_node_id":"0.0-4.0-0.61","subject_id":"5d2b45b9f7ef930001c5fa2d","study_id":"6197b3f67c2b5cd3b6d9596a","session_id":"619be788c155023d57698d8c","condition":"full-information","relevant_dimensions":["antennae","pattern"],"bee_group":{"antennae":"A","wings":"X","pattern":"S","legs":"X"},"action":"harvest","summary":"good-harvest","bonus":1.540000000000001},{"rt":1013.8000000007451,"stimulus":"\n                    <p><b>Action: <em>harvest</em></b></p>\n                    <p>This is the bee that you just saw.</p>\n                    <img src=\"bees-with-color/bee-A1DF.svg\" width=\"200\">\n                    <p><span class=\"greenText\"><b>Successful harvest!</b></span><br>Your pay has increased by $0.02. Your bonus pay is now $1.14.</p>\n            ","response":0,"trial_type":"html-button-response","trial_index":134,"time_elapsed":1655201,"internal_node_id":"0.0-4.0-1.61","subject_id":"5d2b45b9f7ef930001c5fa2d","study_id":"6197b3f67c2b5cd3b6d9596a","session_id":"619be788c155023d57698d8c","condition":"full-information","relevant_dimensions":["antennae","pattern"],"bee_group":{"antennae":"A","wings":"X","pattern":"S","legs":"X"},"bonus":1.540000000000001},{"rt":18502.800000000745,"stimulus":"bees-with-color/bee-A2SF.svg","response":1,"trial_type":"image-button-response","trial_index":135,"time_elapsed":1673711,"internal_node_id":"0.0-4.0-0.62","subject_id":"5d2b45b9f7ef930001c5fa2d","study_id":"6197b3f67c2b5cd3b6d9596a","session_id":"619be788c155023d57698d8c","condition":"full-information","relevant_dimensions":["antennae","pattern"],"bee_group":{"antennae":"A","wings":"X","pattern":"S","legs":"X"},"action":"avoid","summary":"good-avoid","bonus":1.540000000000001},{"rt":1291.7000000029802,"stimulus":"\n                    <p><b>Action: <em>avoid</em></b></p>\n                    <p>This is the bee that you just saw.</p>\n                    <img src=\"bees-with-color/bee-A2SF.svg\" width=\"200\">\n                    <p><span class=\"greenText\">Good choice!</span>  This bee would have stung you.<br>Your bonus pay is unchanged, and remains at $1.14.</p>\n            ","response":0,"trial_type":"html-button-response","trial_index":136,"time_elapsed":1675009,"internal_node_id":"0.0-4.0-1.62","subject_id":"5d2b45b9f7ef930001c5fa2d","study_id":"6197b3f67c2b5cd3b6d9596a","session_id":"619be788c155023d57698d8c","condition":"full-information","relevant_dimensions":["antennae","pattern"],"bee_group":{"antennae":"A","wings":"X","pattern":"S","legs":"X"},"bonus":1.540000000000001},{"rt":10793.699999999255,"stimulus":"bees-with-color/bee-A2DM.svg","response":0,"trial_type":"image-button-response","trial_index":137,"time_elapsed":1685809,"internal_node_id":"0.0-4.0-0.63","subject_id":"5d2b45b9f7ef930001c5fa2d","study_id":"6197b3f67c2b5cd3b6d9596a","session_id":"619be788c155023d57698d8c","condition":"full-information","relevant_dimensions":["antennae","pattern"],"bee_group":{"antennae":"A","wings":"X","pattern":"S","legs":"X"},"action":"harvest","summary":"good-harvest","bonus":1.540000000000001},{"rt":1101.0999999977648,"stimulus":"\n                    <p><b>Action: <em>harvest</em></b></p>\n                    <p>This is the bee that you just saw.</p>\n                    <img src=\"bees-with-color/bee-A2DM.svg\" width=\"200\">\n                    <p><span class=\"greenText\"><b>Successful harvest!</b></span><br>Your pay has increased by $0.02. Your bonus pay is now $1.16.</p>\n            ","response":0,"trial_type":"html-button-response","trial_index":138,"time_elapsed":1686916,"internal_node_id":"0.0-4.0-1.63","subject_id":"5d2b45b9f7ef930001c5fa2d","study_id":"6197b3f67c2b5cd3b6d9596a","session_id":"619be788c155023d57698d8c","condition":"full-information","relevant_dimensions":["antennae","pattern"],"bee_group":{"antennae":"A","wings":"X","pattern":"S","legs":"X"},"bonus":1.540000000000001},{"rt":7554.20000000298,"stimulus":"You have completed the first part of this experiment.<br><br>You will now begin a shorter second part, in which you will receive no feedback.<br>The same rules regarding bonus pay apply.<br><br>Press any key to begin.","response":" ","trial_type":"html-keyboard-response","trial_index":139,"time_elapsed":1694479,"internal_node_id":"0.0-5.0","subject_id":"5d2b45b9f7ef930001c5fa2d","study_id":"6197b3f67c2b5cd3b6d9596a","session_id":"619be788c155023d57698d8c","condition":"full-information","relevant_dimensions":["antennae","pattern"],"bee_group":{"antennae":"A","wings":"X","pattern":"S","legs":"X"},"bonus":1.540000000000001},{"rt":18248.39999999851,"stimulus":"bees-with-color/bee-A2SF.svg","response":1,"trial_type":"image-button-response","trial_index":140,"time_elapsed":1712766,"internal_node_id":"0.0-6.0-0.0","subject_id":"5d2b45b9f7ef930001c5fa2d","study_id":"6197b3f67c2b5cd3b6d9596a","session_id":"619be788c155023d57698d8c","condition":"full-information","relevant_dimensions":["antennae","pattern"],"bee_group":{"antennae":"A","wings":"X","pattern":"S","legs":"X"},"bonus":1.540000000000001},{"rt":17603.5,"stimulus":"bees-with-color/bee-A1DM.svg","response":0,"trial_type":"image-button-response","trial_index":141,"time_elapsed":1730378,"internal_node_id":"0.0-6.0-0.1","subject_id":"5d2b45b9f7ef930001c5fa2d","study_id":"6197b3f67c2b5cd3b6d9596a","session_id":"619be788c155023d57698d8c","condition":"full-information","relevant_dimensions":["antennae","pattern"],"bee_group":{"antennae":"A","wings":"X","pattern":"S","legs":"X"},"bonus":1.540000000000001},{"rt":19840,"stimulus":"bees-with-color/bee-B2SF.svg","response":0,"trial_type":"image-button-response","trial_index":142,"time_elapsed":1750227,"internal_node_id":"0.0-6.0-0.2","subject_id":"5d2b45b9f7ef930001c5fa2d","study_id":"6197b3f67c2b5cd3b6d9596a","session_id":"619be788c155023d57698d8c","condition":"full-information","relevant_dimensions":["antennae","pattern"],"bee_group":{"antennae":"A","wings":"X","pattern":"S","legs":"X"},"bonus":1.540000000000001},{"rt":9633.5,"stimulus":"bees-with-color/bee-A2DM.svg","response":0,"trial_type":"image-button-response","trial_index":143,"time_elapsed":1759867,"internal_node_id":"0.0-6.0-0.3","subject_id":"5d2b45b9f7ef930001c5fa2d","study_id":"6197b3f67c2b5cd3b6d9596a","session_id":"619be788c155023d57698d8c","condition":"full-information","relevant_dimensions":["antennae","pattern"],"bee_group":{"antennae":"A","wings":"X","pattern":"S","legs":"X"},"bonus":1.540000000000001},{"rt":13631,"stimulus":"bees-with-color/bee-B1DF.svg","response":0,"trial_type":"image-button-response","trial_index":144,"time_elapsed":1773508,"internal_node_id":"0.0-6.0-0.4","subject_id":"5d2b45b9f7ef930001c5fa2d","study_id":"6197b3f67c2b5cd3b6d9596a","session_id":"619be788c155023d57698d8c","condition":"full-information","relevant_dimensions":["antennae","pattern"],"bee_group":{"antennae":"A","wings":"X","pattern":"S","legs":"X"},"bonus":1.540000000000001},{"rt":11831.199999999255,"stimulus":"bees-with-color/bee-A1DF.svg","response":0,"trial_type":"image-button-response","trial_index":145,"time_elapsed":1785349,"internal_node_id":"0.0-6.0-0.5","subject_id":"5d2b45b9f7ef930001c5fa2d","study_id":"6197b3f67c2b5cd3b6d9596a","session_id":"619be788c155023d57698d8c","condition":"full-information","relevant_dimensions":["antennae","pattern"],"bee_group":{"antennae":"A","wings":"X","pattern":"S","legs":"X"},"bonus":1.540000000000001},{"rt":8886.5,"stimulus":"bees-with-color/bee-A2SM.svg","response":1,"trial_type":"image-button-response","trial_index":146,"time_elapsed":1794245,"internal_node_id":"0.0-6.0-0.6","subject_id":"5d2b45b9f7ef930001c5fa2d","study_id":"6197b3f67c2b5cd3b6d9596a","session_id":"619be788c155023d57698d8c","condition":"full-information","relevant_dimensions":["antennae","pattern"],"bee_group":{"antennae":"A","wings":"X","pattern":"S","legs":"X"},"bonus":1.540000000000001},{"rt":16096.39999999851,"stimulus":"bees-with-color/bee-B2SM.svg","response":0,"trial_type":"image-button-response","trial_index":147,"time_elapsed":1810350,"internal_node_id":"0.0-6.0-0.7","subject_id":"5d2b45b9f7ef930001c5fa2d","study_id":"6197b3f67c2b5cd3b6d9596a","session_id":"619be788c155023d57698d8c","condition":"full-information","relevant_dimensions":["antennae","pattern"],"bee_group":{"antennae":"A","wings":"X","pattern":"S","legs":"X"},"bonus":1.540000000000001},{"rt":8030.699999999255,"stimulus":"bees-with-color/bee-B1SF.svg","response":0,"trial_type":"image-button-response","trial_index":148,"time_elapsed":1818389,"internal_node_id":"0.0-6.0-0.8","subject_id":"5d2b45b9f7ef930001c5fa2d","study_id":"6197b3f67c2b5cd3b6d9596a","session_id":"619be788c155023d57698d8c","condition":"full-information","relevant_dimensions":["antennae","pattern"],"bee_group":{"antennae":"A","wings":"X","pattern":"S","legs":"X"},"bonus":1.540000000000001},{"rt":12187.89999999851,"stimulus":"bees-with-color/bee-A1SF.svg","response":1,"trial_type":"image-button-response","trial_index":149,"time_elapsed":1830587,"internal_node_id":"0.0-6.0-0.9","subject_id":"5d2b45b9f7ef930001c5fa2d","study_id":"6197b3f67c2b5cd3b6d9596a","session_id":"619be788c155023d57698d8c","condition":"full-information","relevant_dimensions":["antennae","pattern"],"bee_group":{"antennae":"A","wings":"X","pattern":"S","legs":"X"},"bonus":1.540000000000001},{"rt":15151.900000002235,"stimulus":"bees-with-color/bee-B2DM.svg","response":0,"trial_type":"image-button-response","trial_index":150,"time_elapsed":1845746,"internal_node_id":"0.0-6.0-0.10","subject_id":"5d2b45b9f7ef930001c5fa2d","study_id":"6197b3f67c2b5cd3b6d9596a","session_id":"619be788c155023d57698d8c","condition":"full-information","relevant_dimensions":["antennae","pattern"],"bee_group":{"antennae":"A","wings":"X","pattern":"S","legs":"X"},"bonus":1.540000000000001},{"rt":15496.5,"stimulus":"bees-with-color/bee-A1SM.svg","response":0,"trial_type":"image-button-response","trial_index":151,"time_elapsed":1861250,"internal_node_id":"0.0-6.0-0.11","subject_id":"5d2b45b9f7ef930001c5fa2d","study_id":"6197b3f67c2b5cd3b6d9596a","session_id":"619be788c155023d57698d8c","condition":"full-information","relevant_dimensions":["antennae","pattern"],"bee_group":{"antennae":"A","wings":"X","pattern":"S","legs":"X"},"bonus":1.540000000000001},{"rt":11069.099999997765,"stimulus":"bees-with-color/bee-B1SM.svg","response":0,"trial_type":"image-button-response","trial_index":152,"time_elapsed":1872327,"internal_node_id":"0.0-6.0-0.12","subject_id":"5d2b45b9f7ef930001c5fa2d","study_id":"6197b3f67c2b5cd3b6d9596a","session_id":"619be788c155023d57698d8c","condition":"full-information","relevant_dimensions":["antennae","pattern"],"bee_group":{"antennae":"A","wings":"X","pattern":"S","legs":"X"},"bonus":1.540000000000001},{"rt":7944.20000000298,"stimulus":"bees-with-color/bee-A2DF.svg","response":0,"trial_type":"image-button-response","trial_index":153,"time_elapsed":1880279,"internal_node_id":"0.0-6.0-0.13","subject_id":"5d2b45b9f7ef930001c5fa2d","study_id":"6197b3f67c2b5cd3b6d9596a","session_id":"619be788c155023d57698d8c","condition":"full-information","relevant_dimensions":["antennae","pattern"],"bee_group":{"antennae":"A","wings":"X","pattern":"S","legs":"X"},"bonus":1.540000000000001},{"rt":9585.39999999851,"stimulus":"bees-with-color/bee-B2DF.svg","response":0,"trial_type":"image-button-response","trial_index":154,"time_elapsed":1889873,"internal_node_id":"0.0-6.0-0.14","subject_id":"5d2b45b9f7ef930001c5fa2d","study_id":"6197b3f67c2b5cd3b6d9596a","session_id":"619be788c155023d57698d8c","condition":"full-information","relevant_dimensions":["antennae","pattern"],"bee_group":{"antenna