[{"success":true,"trial_type":"fullscreen","trial_index":0,"time_elapsed":5116,"internal_node_id":"0.0-0.0","subject_id":"60352627fdd89aa8314af71b","study_id":"6197b3f67c2b5cd3b6d9596a","session_id":"619be3f57374a283f56cd098","condition":"contingent","relevant_dimensions":["pattern","legs"],"bee_group":{"antennae":"X","wings":"X","pattern":"S","legs":"M"},"bonus":1.4600000000000013},{"success":true,"timeout":false,"failed_images":[],"failed_audio":[],"failed_video":[],"trial_type":"preload","trial_index":1,"time_elapsed":10067,"internal_node_id":"0.0-1.0","subject_id":"60352627fdd89aa8314af71b","study_id":"6197b3f67c2b5cd3b6d9596a","session_id":"619be3f57374a283f56cd098","condition":"contingent","relevant_dimensions":["pattern","legs"],"bee_group":{"antennae":"X","wings":"X","pattern":"S","legs":"M"},"bonus":1.4600000000000013},{"rt":3931.6999999284744,"stimulus":"Welcome! Press any key to begin.","response":" ","trial_type":"html-keyboard-response","trial_index":2,"time_elapsed":13999,"internal_node_id":"0.0-2.0","subject_id":"60352627fdd89aa8314af71b","study_id":"6197b3f67c2b5cd3b6d9596a","session_id":"619be3f57374a283f56cd098","condition":"contingent","relevant_dimensions":["pattern","legs"],"bee_group":{"antennae":"X","wings":"X","pattern":"S","legs":"M"},"bonus":1.4600000000000013},{"view_history":[{"page_index":0,"viewing_time":13937.399999976158},{"page_index":1,"viewing_time":27141.100000023842},{"page_index":2,"viewing_time":21679.300000071526},{"page_index":3,"viewing_time":24206.699999928474},{"page_index":4,"viewing_time":10595.399999976158},{"page_index":5,"viewing_time":16187.700000047684},{"page_index":6,"viewing_time":37824},{"page_index":7,"viewing_time":8706.399999976158},{"page_index":8,"viewing_time":6007.600000023842},{"page_index":9,"viewing_time":11856.600000023842},{"page_index":10,"viewing_time":6400.399999976158},{"page_index":11,"viewing_time":46203.700000047684},{"page_index":12,"viewing_time":14647.699999928474},{"page_index":13,"viewing_time":2156.7000000476837},{"page_index":14,"viewing_time":2945.6999999284744}],"rt":250496.80000007153,"trial_type":"instructions","trial_index":3,"time_elapsed":264497,"internal_node_id":"0.0-3.0-0.0","subject_id":"60352627fdd89aa8314af71b","study_id":"6197b3f67c2b5cd3b6d9596a","session_id":"619be3f57374a283f56cd098","condition":"contingent","relevant_dimensions":["pattern","legs"],"bee_group":{"antennae":"X","wings":"X","pattern":"S","legs":"M"},"bonus":1.4600000000000013},{"rt":18411.899999976158,"response":{"Q0":["Two or six legs","Stripes or spots on body","Single or double wings","Antennae or no antennae"]},"question_order":[0],"trial_type":"survey-multi-select","trial_index":4,"time_elapsed":282912,"internal_node_id":"0.0-3.0-1.0","subject_id":"60352627fdd89aa8314af71b","study_id":"6197b3f67c2b5cd3b6d9596a","session_id":"619be3f57374a283f56cd098","condition":"contingent","relevant_dimensions":["pattern","legs"],"bee_group":{"antennae":"X","wings":"X","pattern":"S","legs":"M"},"correct":true,"bonus":1.4600000000000013},{"rt":35358.10000002384,"response":{"Q1":"No.","Q2":"Based on the four features of the bee.","Q3":"You do not learn if it was friendly or dangerous, and do not alter your bonus."},"question_order":[0,1,2],"trial_type":"survey-multi-choice","trial_index":5,"time_elapsed":318272,"internal_node_id":"0.0-3.0-2.0","subject_id":"60352627fdd89aa8314af71b","study_id":"6197b3f67c2b5cd3b6d9596a","session_id":"619be3f57374a283f56cd098","condition":"contingent","relevant_dimensions":["pattern","legs"],"bee_group":{"antennae":"X","wings":"X","pattern":"S","legs":"M"},"correct":true,"bonus":1.4600000000000013},{"rt":3788.1999999284744,"stimulus":"<p>Congrats, you got everything right<br>When you're ready, click the button below to continue to the experiment.</p>","response":0,"trial_type":"html-button-response","trial_index":6,"time_elapsed":322061,"internal_node_id":"0.0-3.0-3.0","subject_id":"60352627fdd89aa8314af71b","study_id":"6197b3f67c2b5cd3b6d9596a","session_id":"619be3f57374a283f56cd098","condition":"contingent","relevant_dimensions":["pattern","legs"],"bee_group":{"antennae":"X","wings":"X","pattern":"S","legs":"M"},"bonus":1.4600000000000013},{"rt":17888.799999952316,"stimulus":"bees-with-color/bee-A2SM.svg","response":0,"trial_type":"image-button-response","trial_index":7,"time_elapsed":339953,"internal_node_id":"0.0-4.0-0.0","subject_id":"60352627fdd89aa8314af71b","study_id":"6197b3f67c2b5cd3b6d9596a","session_id":"619be3f57374a283f56cd098","condition":"contingent","relevant_dimensions":["pattern","legs"],"bee_group":{"antennae":"X","wings":"X","pattern":"S","legs":"M"},"action":"harvest","summary":"bad-harvest","bonus":1.4600000000000013},{"rt":15216.600000023842,"stimulus":"\n                    <p><b>Action: <em>harvest</em></b></p>\n                    <p>This is the bee that you just saw.</p>\n                    <img src=\"bees-with-color/bee-A2SM.svg\" width=\"200\">\n                    <p><span class=\"redText\">Bad choice, the bee was angry.</span><br><b>You have been stung!</b><br>Your pay has been decreased by $0.10. Your bonus pay is now $0.44.</p>\n            ","response":0,"trial_type":"html-button-response","trial_index":8,"time_elapsed":355172,"internal_node_id":"0.0-4.0-1.0","subject_id":"60352627fdd89aa8314af71b","study_id":"6197b3f67c2b5cd3b6d9596a","session_id":"619be3f57374a283f56cd098","condition":"contingent","relevant_dimensions":["pattern","legs"],"bee_group":{"antennae":"X","wings":"X","pattern":"S","legs":"M"},"bonus":1.4600000000000013},{"rt":5310.800000071526,"stimulus":"bees-with-color/bee-B2SF.svg","response":0,"trial_type":"image-button-response","trial_index":9,"time_elapsed":360485,"internal_node_id":"0.0-4.0-0.1","subject_id":"60352627fdd89aa8314af71b","study_id":"6197b3f67c2b5cd3b6d9596a","session_id":"619be3f57374a283f56cd098","condition":"contingent","relevant_dimensions":["pattern","legs"],"bee_group":{"antennae":"X","wings":"X","pattern":"S","legs":"M"},"action":"harvest","summary":"good-harvest","bonus":1.4600000000000013},{"rt":10642.299999952316,"stimulus":"\n                    <p><b>Action: <em>harvest</em></b></p>\n                    <p>This is the bee that you just saw.</p>\n                    <img src=\"bees-with-color/bee-B2SF.svg\" width=\"200\">\n                    <p><span class=\"greenText\"><b>Successful harvest!</b></span><br>Your pay has increased by $0.02. Your bonus pay is now $0.46.</p>\n            ","response":0,"trial_type":"html-button-response","trial_index":10,"time_elapsed":371129,"internal_node_id":"0.0-4.0-1.1","subject_id":"60352627fdd89aa8314af71b","study_id":"6197b3f67c2b5cd3b6d9596a","session_id":"619be3f57374a283f56cd098","condition":"contingent","relevant_dimensions":["pattern","legs"],"bee_group":{"antennae":"X","wings":"X","pattern":"S","legs":"M"},"bonus":1.4600000000000013},{"rt":2671.6999999284744,"stimulus":"bees-with-color/bee-B1DM.svg","response":0,"trial_type":"image-button-response","trial_index":11,"time_elapsed":373803,"internal_node_id":"0.0-4.0-0.2","subject_id":"60352627fdd89aa8314af71b","study_id":"6197b3f67c2b5cd3b6d9596a","session_id":"619be3f57374a283f56cd098","condition":"contingent","relevant_dimensions":["pattern","legs"],"bee_group":{"antennae":"X","wings":"X","pattern":"S","legs":"M"},"action":"harvest","summary":"good-harvest","bonus":1.4600000000000013},{"rt":3596.2999999523163,"stimulus":"\n                    <p><b>Action: <em>harvest</em></b></p>\n                    <p>This is the bee that you just saw.</p>\n                    <img src=\"bees-with-color/bee-B1DM.svg\" width=\"200\">\n                    <p><span class=\"greenText\"><b>Successful harvest!</b></span><br>Your pay has increased by $0.02. Your bonus pay is now $0.48.</p>\n            ","response":0,"trial_type":"html-button-response","trial_index":12,"time_elapsed":377401,"internal_node_id":"0.0-4.0-1.2","subject_id":"60352627fdd89aa8314af71b","study_id":"6197b3f67c2b5cd3b6d9596a","session_id":"619be3f57374a283f56cd098","condition":"contingent","relevant_dimensions":["pattern","legs"],"bee_group":{"antennae":"X","wings":"X","pattern":"S","legs":"M"},"bonus":1.4600000000000013},{"rt":2372.2999999523163,"stimulus":"bees-with-color/bee-A2DF.svg","response":0,"trial_type":"image-button-response","trial_index":13,"time_elapsed":379775,"internal_node_id":"0.0-4.0-0.3","subject_id":"60352627fdd89aa8314af71b","study_id":"6197b3f67c2b5cd3b6d9596a","session_id":"619be3f57374a283f56cd098","condition":"contingent","relevant_dimensions":["pattern","legs"],"bee_group":{"antennae":"X","wings":"X","pattern":"S","legs":"M"},"action":"harvest","summary":"good-harvest","bonus":1.4600000000000013},{"rt":4102.899999976158,"stimulus":"\n                    <p><b>Action: <em>harvest</em></b></p>\n                    <p>This is the bee that you just saw.</p>\n                    <img src=\"bees-with-color/bee-A2DF.svg\" width=\"200\">\n                    <p><span class=\"greenText\"><b>Successful harvest!</b></span><br>Your pay has increased by $0.02. Your bonus pay is now $0.50.</p>\n            ","response":0,"trial_type":"html-button-response","trial_index":14,"time_elapsed":383879,"internal_node_id":"0.0-4.0-1.3","subject_id":"60352627fdd89aa8314af71b","study_id":"6197b3f67c2b5cd3b6d9596a","session_id":"619be3f57374a283f56cd098","condition":"contingent","relevant_dimensions":["pattern","legs"],"bee_group":{"antennae":"X","wings":"X","pattern":"S","legs":"M"},"bonus":1.4600000000000013},{"rt":2049.899999976158,"stimulus":"bees-with-color/bee-A2DM.svg","response":0,"trial_type":"image-button-response","trial_index":15,"time_elapsed":385930,"internal_node_id":"0.0-4.0-0.4","subject_id":"60352627fdd89aa8314af71b","study_id":"6197b3f67c2b5cd3b6d9596a","session_id":"619be3f57374a283f56cd098","condition":"contingent","relevant_dimensions":["pattern","legs"],"bee_group":{"antennae":"X","wings":"X","pattern":"S","legs":"M"},"action":"harvest","summary":"good-harvest","bonus":1.4600000000000013},{"rt":5616.800000071526,"stimulus":"\n                    <p><b>Action: <em>harvest</em></b></p>\n                    <p>This is the bee that you just saw.</p>\n                    <img src=\"bees-with-color/bee-A2DM.svg\" width=\"200\">\n                    <p><span class=\"greenText\"><b>Successful harvest!</b></span><br>Your pay has increased by $0.02. Your bonus pay is now $0.52.</p>\n            ","response":0,"trial_type":"html-button-response","trial_index":16,"time_elapsed":391548,"internal_node_id":"0.0-4.0-1.4","subject_id":"60352627fdd89aa8314af71b","study_id":"6197b3f67c2b5cd3b6d9596a","session_id":"619be3f57374a283f56cd098","condition":"contingent","relevant_dimensions":["pattern","legs"],"bee_group":{"antennae":"X","wings":"X","pattern":"S","legs":"M"},"bonus":1.4600000000000013},{"rt":3765.899999976158,"stimulus":"bees-with-color/bee-A2SF.svg","response":0,"trial_type":"image-button-response","trial_index":17,"time_elapsed":395316,"internal_node_id":"0.0-4.0-0.5","subject_id":"60352627fdd89aa8314af71b","study_id":"6197b3f67c2b5cd3b6d9596a","session_id":"619be3f57374a283f56cd098","condition":"contingent","relevant_dimensions":["pattern","legs"],"bee_group":{"antennae":"X","wings":"X","pattern":"S","legs":"M"},"action":"harvest","summary":"good-harvest","bonus":1.4600000000000013},{"rt":2893.899999976158,"stimulus":"\n                    <p><b>Action: <em>harvest</em></b></p>\n                    <p>This is the bee that you just saw.</p>\n                    <img src=\"bees-with-color/bee-A2SF.svg\" width=\"200\">\n                    <p><span class=\"greenText\"><b>Successful harvest!</b></span><br>Your pay has increased by $0.02. Your bonus pay is now $0.54.</p>\n            ","response":0,"trial_type":"html-button-response","trial_index":18,"time_elapsed":398212,"internal_node_id":"0.0-4.0-1.5","subject_id":"60352627fdd89aa8314af71b","study_id":"6197b3f67c2b5cd3b6d9596a","session_id":"619be3f57374a283f56cd098","condition":"contingent","relevant_dimensions":["pattern","legs"],"bee_group":{"antennae":"X","wings":"X","pattern":"S","legs":"M"},"bonus":1.4600000000000013},{"rt":1179.3999999761581,"stimulus":"bees-with-color/bee-B2DM.svg","response":0,"trial_type":"image-button-response","trial_index":19,"time_elapsed":399393,"internal_node_id":"0.0-4.0-0.6","subject_id":"60352627fdd89aa8314af71b","study_id":"6197b3f67c2b5cd3b6d9596a","session_id":"619be3f57374a283f56cd098","condition":"contingent","relevant_dimensions":["pattern","legs"],"bee_group":{"antennae":"X","wings":"X","pattern":"S","legs":"M"},"action":"harvest","summary":"good-harvest","bonus":1.4600000000000013},{"rt":1580.3000000715256,"stimulus":"\n                    <p><b>Action: <em>harvest</em></b></p>\n                    <p>This is the bee that you just saw.</p>\n                    <img src=\"bees-with-color/bee-B2DM.svg\" width=\"200\">\n                    <p><span class=\"greenText\"><b>Successful harvest!</b></span><br>Your pay has increased by $0.02. Your bonus pay is now $0.56.</p>\n            ","response":0,"trial_type":"html-button-response","trial_index":20,"time_elapsed":400975,"internal_node_id":"0.0-4.0-1.6","subject_id":"60352627fdd89aa8314af71b","study_id":"6197b3f67c2b5cd3b6d9596a","session_id":"619be3f57374a283f56cd098","condition":"contingent","relevant_dimensions":["pattern","legs"],"bee_group":{"antennae":"X","wings":"X","pattern":"S","legs":"M"},"bonus":1.4600000000000013},{"rt":1096.7000000476837,"stimulus":"bees-with-color/bee-B1SM.svg","response":0,"trial_type":"image-button-response","trial_index":21,"time_elapsed":402073,"internal_node_id":"0.0-4.0-0.7","subject_id":"60352627fdd89aa8314af71b","study_id":"6197b3f67c2b5cd3b6d9596a","session_id":"619be3f57374a283f56cd098","condition":"contingent","relevant_dimensions":["pattern","legs"],"bee_group":{"antennae":"X","wings":"X","pattern":"S","legs":"M"},"action":"harvest","summary":"bad-harvest","bonus":1.4600000000000013},{"rt":10536.799999952316,"stimulus":"\n                    <p><b>Action: <em>harvest</em></b></p>\n                    <p>This is the bee that you just saw.</p>\n                    <img src=\"bees-with-color/bee-B1SM.svg\" width=\"200\">\n                    <p><span class=\"redText\">Bad choice, the bee was angry.</span><br><b>You have been stung!</b><br>Your pay has been decreased by $0.10. Your bonus pay is now $0.46.</p>\n            ","response":0,"trial_type":"html-button-response","trial_index":22,"time_elapsed":412612,"internal_node_id":"0.0-4.0-1.7","subject_id":"60352627fdd89aa8314af71b","study_id":"6197b3f67c2b5cd3b6d9596a","session_id":"619be3f57374a283f56cd098","condition":"contingent","relevant_dimensions":["pattern","legs"],"bee_group":{"antennae":"X","wings":"X","pattern":"S","legs":"M"},"bonus":1.4600000000000013},{"rt":6038.300000071526,"stimulus":"bees-with-color/bee-B1DF.svg","response":0,"trial_type":"image-button-response","trial_index":23,"time_elapsed":418652,"internal_node_id":"0.0-4.0-0.8","subject_id":"60352627fdd89aa8314af71b","study_id":"6197b3f67c2b5cd3b6d9596a","session_id":"619be3f57374a283f56cd098","condition":"contingent","relevant_dimensions":["pattern","legs"],"bee_group":{"antennae":"X","wings":"X","pattern":"S","legs":"M"},"action":"harvest","summary":"good-harvest","bonus":1.4600000000000013},{"rt":9776.700000047684,"stimulus":"\n                    <p><b>Action: <em>harvest</em></b></p>\n                    <p>This is the bee that you just saw.</p>\n                    <img src=\"bees-with-color/bee-B1DF.svg\" width=\"200\">\n                    <p><span class=\"greenText\"><b>Successful harvest!</b></span><br>Your pay has increased by $0.02. Your bonus pay is now $0.48.</p>\n            ","response":0,"trial_type":"html-button-response","trial_index":24,"time_elapsed":428430,"internal_node_id":"0.0-4.0-1.8","subject_id":"60352627fdd89aa8314af71b","study_id":"6197b3f67c2b5cd3b6d9596a","session_id":"619be3f57374a283f56cd098","condition":"contingent","relevant_dimensions":["pattern","legs"],"bee_group":{"antennae":"X","wings":"X","pattern":"S","legs":"M"},"bonus":1.4600000000000013},{"rt":3313.899999976158,"stimulus":"bees-with-color/bee-A1DM.svg","response":0,"trial_type":"image-button-response","trial_index":25,"time_elapsed":431746,"internal_node_id":"0.0-4.0-0.9","subject_id":"60352627fdd89aa8314af71b","study_id":"6197b3f67c2b5cd3b6d9596a","session_id":"619be3f57374a283f56cd098","condition":"contingent","relevant_dimensions":["pattern","legs"],"bee_group":{"antennae":"X","wings":"X","pattern":"S","legs":"M"},"action":"harvest","summary":"good-harvest","bonus":1.4600000000000013},{"rt":11646.600000023842,"stimulus":"\n                    <p><b>Action: <em>harvest</em></b></p>\n                    <p>This is the bee that you just saw.</p>\n                    <img src=\"bees-with-color/bee-A1DM.svg\" width=\"200\">\n                    <p><span class=\"greenText\"><b>Successful harvest!</b></span><br>Your pay has increased by $0.02. Your bonus pay is now $0.50.</p>\n            ","response":0,"trial_type":"html-button-response","trial_index":26,"time_elapsed":443393,"internal_node_id":"0.0-4.0-1.9","subject_id":"60352627fdd89aa8314af71b","study_id":"6197b3f67c2b5cd3b6d9596a","session_id":"619be3f57374a283f56cd098","condition":"contingent","relevant_dimensions":["pattern","legs"],"bee_group":{"antennae":"X","wings":"X","pattern":"S","legs":"M"},"bonus":1.4600000000000013},{"rt":1364.8000000715256,"stimulus":"bees-with-color/bee-A1SM.svg","response":0,"trial_type":"image-button-response","trial_index":27,"time_elapsed":444760,"internal_node_id":"0.0-4.0-0.10","subject_id":"60352627fdd89aa8314af71b","study_id":"6197b3f67c2b5cd3b6d9596a","session_id":"619be3f57374a283f56cd098","condition":"contingent","relevant_dimensions":["pattern","legs"],"bee_group":{"antennae":"X","wings":"X","pattern":"S","legs":"M"},"action":"harvest","summary":"bad-harvest","bonus":1.4600000000000013},{"rt":25105.700000047684,"stimulus":"\n                    <p><b>Action: <em>harvest</em></b></p>\n                    <p>This is the bee that you just saw.</p>\n                    <img src=\"bees-with-color/bee-A1SM.svg\" width=\"200\">\n                    <p><span class=\"redText\">Bad choice, the bee was angry.</span><br><b>You have been stung!</b><br>Your pay has been decreased by $0.10. Your bonus pay is now $0.40.</p>\n            ","response":0,"trial_type":"html-button-response","trial_index":28,"time_elapsed":469867,"internal_node_id":"0.0-4.0-1.10","subject_id":"60352627fdd89aa8314af71b","study_id":"6197b3f67c2b5cd3b6d9596a","session_id":"619be3f57374a283f56cd098","condition":"contingent","relevant_dimensions":["pattern","legs"],"bee_group":{"antennae":"X","wings":"X","pattern":"S","legs":"M"},"bonus":1.4600000000000013},{"rt":5647.299999952316,"stimulus":"bees-with-color/bee-A1DF.svg","response":0,"trial_type":"image-button-response","trial_index":29,"time_elapsed":475516,"internal_node_id":"0.0-4.0-0.11","subject_id":"60352627fdd89aa8314af71b","study_id":"6197b3f67c2b5cd3b6d9596a","session_id":"619be3f57374a283f56cd098","condition":"contingent","relevant_dimensions":["pattern","legs"],"bee_group":{"antennae":"X","wings":"X","pattern":"S","legs":"M"},"action":"harvest","summary":"good-harvest","bonus":1.4600000000000013},{"rt":11826.600000023842,"stimulus":"\n                    <p><b>Action: <em>harvest</em></b></p>\n                    <p>This is the bee that you just saw.</p>\n                    <img src=\"bees-with-color/bee-A1DF.svg\" width=\"200\">\n                    <p><span class=\"greenText\"><b>Successful harvest!</b></span><br>Your pay has increased by $0.02. Your bonus pay is now $0.42.</p>\n            ","response":0,"trial_type":"html-button-response","trial_index":30,"time_elapsed":487344,"internal_node_id":"0.0-4.0-1.11","subject_id":"60352627fdd89aa8314af71b","study_id":"6197b3f67c2b5cd3b6d9596a","session_id":"619be3f57374a283f56cd098","condition":"contingent","relevant_dimensions":["pattern","legs"],"bee_group":{"antennae":"X","wings":"X","pattern":"S","legs":"M"},"bonus":1.4600000000000013},{"rt":906.5,"stimulus":"bees-with-color/bee-B2SM.svg","response":0,"trial_type":"image-button-response","trial_index":31,"time_elapsed":488252,"internal_node_id":"0.0-4.0-0.12","subject_id":"60352627fdd89aa8314af71b","study_id":"6197b3f67c2b5cd3b6d9596a","session_id":"619be3f57374a283f56cd098","condition":"contingent","relevant_dimensions":["pattern","legs"],"bee_group":{"antennae":"X","wings":"X","pattern":"S","legs":"M"},"action":"harvest","summary":"bad-harvest","bonus":1.4600000000000013},{"rt":22085.700000047684,"stimulus":"\n                    <p><b>Action: <em>harvest</em></b></p>\n                    <p>This is the bee that you just saw.</p>\n                    <img src=\"bees-with-color/bee-B2SM.svg\" width=\"200\">\n                    <p><span class=\"redText\">Bad choice, the bee was angry.</span><br><b>You have been stung!</b><br>Your pay has been decreased by $0.10. Your bonus pay is now $0.32.</p>\n            ","response":0,"trial_type":"html-button-response","trial_index":32,"time_elapsed":510339,"internal_node_id":"0.0-4.0-1.12","subject_id":"60352627fdd89aa8314af71b","study_id":"6197b3f67c2b5cd3b6d9596a","session_id":"619be3f57374a283f56cd098","condition":"contingent","relevant_dimensions":["pattern","legs"],"bee_group":{"antennae":"X","wings":"X","pattern":"S","legs":"M"},"bonus":1.4600000000000013},{"rt":7313.699999928474,"stimulus":"bees-with-color/bee-A1SF.svg","response":0,"trial_type":"image-button-response","trial_index":33,"time_elapsed":517654,"internal_node_id":"0.0-4.0-0.13","subject_id":"60352627fdd89aa8314af71b","study_id":"6197b3f67c2b5cd3b6d9596a","session_id":"619be3f57374a283f56cd098","condition":"contingent","relevant_dimensions":["pattern","legs"],"bee_group":{"antennae":"X","wings":"X","pattern":"S","legs":"M"},"action":"harvest","summary":"good-harvest","bonus":1.4600000000000013},{"rt":10902.100000023842,"stimulus":"\n                    <p><b>Action: <em>harvest</em></b></p>\n                    <p>This is the bee that you just saw.</p>\n                    <img src=\"bees-with-color/bee-A1SF.svg\" width=\"200\">\n                    <p><span class=\"greenText\"><b>Successful harvest!</b></span><br>Your pay has increased by $0.02. Your bonus pay is now $0.34.</p>\n            ","response":0,"trial_type":"html-button-response","trial_index":34,"time_elapsed":528558,"internal_node_id":"0.0-4.0-1.13","subject_id":"60352627fdd89aa8314af71b","study_id":"6197b3f67c2b5cd3b6d9596a","session_id":"619be3f57374a283f56cd098","condition":"contingent","relevant_dimensions":["pattern","legs"],"bee_group":{"antennae":"X","wings":"X","pattern":"S","legs":"M"},"bonus":1.4600000000000013},{"rt":7798.200000047684,"stimulus":"bees-with-color/bee-B2DF.svg","response":0,"trial_type":"image-button-response","trial_index":35,"time_elapsed":536358,"internal_node_id":"0.0-4.0-0.14","subject_id":"60352627fdd89aa8314af71b","study_id":"6197b3f67c2b5cd3b6d9596a","session_id":"619be3f57374a283f56cd098","condition":"contingent","relevant_dimensions":["pattern","legs"],"bee_group":{"antennae":"X","wings":"X","pattern":"S","legs":"M"},"action":"harvest","summary":"good-harvest","bonus":1.4600000000000013},{"rt":18774.199999928474,"stimulus":"\n                    <p><b>Action: <em>harvest</em></b></p>\n                    <p>This is the bee that you just saw.</p>\n                    <img src=\"bees-with-color/bee-B2DF.svg\" width=\"200\">\n                    <p><span class=\"greenText\"><b>Successful harvest!</b></span><br>Your pay has increased by $0.02. Your bonus pay is now $0.36.</p>\n            ","response":0,"trial_type":"html-button-response","trial_index":36,"time_elapsed":555133,"internal_node_id":"0.0-4.0-1.14","subject_id":"60352627fdd89aa8314af71b","study_id":"6197b3f67c2b5cd3b6d9596a","session_id":"619be3f57374a283f56cd098","condition":"contingent","relevant_dimensions":["pattern","legs"],"bee_group":{"antennae":"X","wings":"X","pattern":"S","legs":"M"},"bonus":1.4600000000000013},{"rt":10430.800000071526,"stimulus":"bees-with-color/bee-B1SF.svg","response":0,"trial_type":"image-button-response","trial_index":37,"time_elapsed":565566,"internal_node_id":"0.0-4.0-0.15","subject_id":"60352627fdd89aa8314af71b","study_id":"6197b3f67c2b5cd3b6d9596a","session_id":"619be3f57374a283f56cd098","condition":"contingent","relevant_dimensions":["pattern","legs"],"bee_group":{"antennae":"X","wings":"X","pattern":"S","legs":"M"},"action":"harvest","summary":"good-harvest","bonus":1.4600000000000013},{"rt":19075.5,"stimulus":"\n                    <p><b>Action: <em>harvest</em></b></p>\n                    <p>This is the bee that you just saw.</p>\n                    <img src=\"bees-with-color/bee-B1SF.svg\" width=\"200\">\n                    <p><span class=\"greenText\"><b>Successful harvest!</b></span><br>Your pay has increased by $0.02. Your bonus pay is now $0.38.</p>\n            ","response":0,"trial_type":"html-button-response","trial_index":38,"time_elapsed":584644,"internal_node_id":"0.0-4.0-1.15","subject_id":"60352627fdd89aa8314af71b","study_id":"6197b3f67c2b5cd3b6d9596a","session_id":"619be3f57374a283f56cd098","condition":"contingent","relevant_dimensions":["pattern","legs"],"bee_group":{"antennae":"X","wings":"X","pattern":"S","legs":"M"},"bonus":1.4600000000000013},{"rt":9049.799999952316,"stimulus":"bees-with-color/bee-A1DM.svg","response":0,"trial_type":"image-button-response","trial_index":39,"time_elapsed":593695,"internal_node_id":"0.0-4.0-0.16","subject_id":"60352627fdd89aa8314af71b","study_id":"6197b3f67c2b5cd3b6d9596a","session_id":"619be3f57374a283f56cd098","condition":"contingent","relevant_dimensions":["pattern","legs"],"bee_group":{"antennae":"X","wings":"X","pattern":"S","legs":"M"},"action":"harvest","summary":"good-harvest","bonus":1.4600000000000013},{"rt":1535.6999999284744,"stimulus":"\n                    <p><b>Action: <em>harvest</em></b></p>\n                    <p>This is the bee that you just saw.</p>\n                    <img src=\"bees-with-color/bee-A1DM.svg\" width=\"200\">\n                    <p><span class=\"greenText\"><b>Successful harvest!</b></span><br>Your pay has increased by $0.02. Your bonus pay is now $0.40.</p>\n            ","response":0,"trial_type":"html-button-response","trial_index":40,"time_elapsed":595233,"internal_node_id":"0.0-4.0-1.16","subject_id":"60352627fdd89aa8314af71b","study_id":"6197b3f67c2b5cd3b6d9596a","session_id":"619be3f57374a283f56cd098","condition":"contingent","relevant_dimensions":["pattern","legs"],"bee_group":{"antennae":"X","wings":"X","pattern":"S","legs":"M"},"bonus":1.4600000000000013},{"rt":7680.800000071526,"stimulus":"bees-with-color/bee-A2DM.svg","response":0,"trial_type":"image-button-response","trial_index":41,"time_elapsed":602916,"internal_node_id":"0.0-4.0-0.17","subject_id":"60352627fdd89aa8314af71b","study_id":"6197b3f67c2b5cd3b6d9596a","session_id":"619be3f57374a283f56cd098","condition":"contingent","relevant_dimensions":["pattern","legs"],"bee_group":{"antennae":"X","wings":"X","pattern":"S","legs":"M"},"action":"harvest","summary":"good-harvest","bonus":1.4600000000000013},{"rt":12904.700000047684,"stimulus":"\n                    <p><b>Action: <em>harvest</em></b></p>\n                    <p>This is the bee that you just saw.</p>\n                    <img src=\"bees-with-color/bee-A2DM.svg\" width=\"200\">\n                    <p><span class=\"greenText\"><b>Successful harvest!</b></span><br>Your pay has increased by $0.02. Your bonus pay is now $0.42.</p>\n            ","response":0,"trial_type":"html-button-response","trial_index":42,"time_elapsed":615822,"internal_node_id":"0.0-4.0-1.17","subject_id":"60352627fdd89aa8314af71b","study_id":"6197b3f67c2b5cd3b6d9596a","session_id":"619be3f57374a283f56cd098","condition":"contingent","relevant_dimensions":["pattern","legs"],"bee_group":{"antennae":"X","wings":"X","pattern":"S","legs":"M"},"bonus":1.4600000000000013},{"rt":7494.299999952316,"stimulus":"bees-with-color/bee-B1SM.svg","response":1,"trial_type":"image-button-response","trial_index":43,"time_elapsed":623318,"internal_node_id":"0.0-4.0-0.18","subject_id":"60352627fdd89aa8314af71b","study_id":"6197b3f67c2b5cd3b6d9596a","session_id":"619be3f57374a283f56cd098","condition":"contingent","relevant_dimensions":["pattern","legs"],"bee_group":{"antennae":"X","wings":"X","pattern":"S","legs":"M"},"action":"avoid","summary":"good-avoid","bonus":1.4600000000000013},{"rt":2738.899999976158,"stimulus":"\n                    <p><b>Action: <em>avoid</em></b></p>\n                    <p>This is the bee that you just saw.</p>\n                    <img src=\"bees-with-color/bee-B1SM.svg\" width=\"200\">\n                    <p><br>Your bonus pay is unchanged, and remains at $0.42.</p>\n            ","response":0,"trial_type":"html-button-response","trial_index":44,"time_elapsed":626059,"internal_node_id":"0.0-4.0-1.18","subject_id":"60352627fdd89aa8314af71b","study_id":"6197b3f67c2b5cd3b6d9596a","session_id":"619be3f57374a283f56cd098","condition":"contingent","relevant_dimensions":["pattern","legs"],"bee_group":{"antennae":"X","wings":"X","pattern":"S","legs":"M"},"bonus":1.4600000000000013},{"rt":9647,"stimulus":"bees-with-color/bee-B1DM.svg","response":0,"trial_type":"image-button-response","trial_index":45,"time_elapsed":635707,"internal_node_id":"0.0-4.0-0.19","subject_id":"60352627fdd89aa8314af71b","study_id":"6197b3f67c2b5cd3b6d9596a","session_id":"619be3f57374a283f56cd098","condition":"contingent","relevant_dimensions":["pattern","legs"],"bee_group":{"antennae":"X","wings":"X","pattern":"S","legs":"M"},"action":"harvest","summary":"good-harvest","bonus":1.4600000000000013},{"rt":16956.700000047684,"stimulus":"\n                    <p><b>Action: <em>harvest</em></b></p>\n                    <p>This is the bee that you just saw.</p>\n                    <img src=\"bees-with-color/bee-B1DM.svg\" width=\"200\">\n                    <p><span class=\"greenText\"><b>Successful harvest!</b></span><br>Your pay has increased by $0.02. Your bonus pay is now $0.44.</p>\n            ","response":0,"trial_type":"html-button-response","trial_index":46,"time_elapsed":652665,"internal_node_id":"0.0-4.0-1.19","subject_id":"60352627fdd89aa8314af71b","study_id":"6197b3f67c2b5cd3b6d9596a","session_id":"619be3f57374a283f56cd098","condition":"contingent","relevant_dimensions":["pattern","legs"],"bee_group":{"antennae":"X","wings":"X","pattern":"S","legs":"M"},"bonus":1.4600000000000013},{"rt":11072.5,"stimulus":"bees-with-color/bee-A2SF.svg","response":0,"trial_type":"image-button-response","trial_index":47,"time_elapsed":663739,"internal_node_id":"0.0-4.0-0.20","subject_id":"60352627fdd89aa8314af71b","study_id":"6197b3f67c2b5cd3b6d9596a","session_id":"619be3f57374a283f56cd098","condition":"contingent","relevant_dimensions":["pattern","legs"],"bee_group":{"antennae":"X","wings":"X","pattern":"S","legs":"M"},"action":"harvest","summary":"good-harvest","bonus":1.4600000000000013},{"rt":9112.199999928474,"stimulus":"\n                    <p><b>Action: <em>harvest</em></b></p>\n                    <p>This is the bee that you just saw.</p>\n                    <img src=\"bees-with-color/bee-A2SF.svg\" width=\"200\">\n                    <p><span class=\"greenText\"><b>Successful harvest!</b></span><br>Your pay has increased by $0.02. Your bonus pay is now $0.46.</p>\n            ","response":0,"trial_type":"html-button-response","trial_index":48,"time_elapsed":672852,"internal_node_id":"0.0-4.0-1.20","subject_id":"60352627fdd89aa8314af71b","study_id":"6197b3f67c2b5cd3b6d9596a","session_id":"619be3f57374a283f56cd098","condition":"contingent","relevant_dimensions":["pattern","legs"],"bee_group":{"antennae":"X","wings":"X","pattern":"S","legs":"M"},"bonus":1.4600000000000013},{"rt":5058.599999904633,"stimulus":"bees-with-color/bee-B2DF.svg","response":0,"trial_type":"image-button-response","trial_index":49,"time_elapsed":677912,"internal_node_id":"0.0-4.0-0.21","subject_id":"60352627fdd89aa8314af71b","study_id":"6197b3f67c2b5cd3b6d9596a","session_id":"619be3f57374a283f56cd098","condition":"contingent","relevant_dimensions":["pattern","legs"],"bee_group":{"antennae":"X","wings":"X","pattern":"S","legs":"M"},"action":"harvest","summary":"good-harvest","bonus":1.4600000000000013},{"rt":1019.5,"stimulus":"\n                    <p><b>Action: <em>harvest</em></b></p>\n                    <p>This is the bee that you just saw.</p>\n                    <img src=\"bees-with-color/bee-B2DF.svg\" width=\"200\">\n                    <p><span class=\"greenText\"><b>Successful harvest!</b></span><br>Your pay has increased by $0.02. Your bonus pay is now $0.48.</p>\n            ","response":0,"trial_type":"html-button-response","trial_index":50,"time_elapsed":678933,"internal_node_id":"0.0-4.0-1.21","subject_id":"60352627fdd89aa8314af71b","study_id":"6197b3f67c2b5cd3b6d9596a","session_id":"619be3f57374a283f56cd098","condition":"contingent","relevant_dimensions":["pattern","legs"],"bee_group":{"antennae":"X","wings":"X","pattern":"S","legs":"M"},"bonus":1.4600000000000013},{"rt":8151.300000071526,"stimulus":"bees-with-color/bee-B2SM.svg","response":1,"trial_type":"image-button-response","trial_index":51,"time_elapsed":687085,"internal_node_id":"0.0-4.0-0.22","subject_id":"60352627fdd89aa8314af71b","study_id":"6197b3f67c2b5cd3b6d9596a","session_id":"619be3f57374a283f56cd098","condition":"contingent","relevant_dimensions":["pattern","legs"],"bee_group":{"antennae":"X","wings":"X","pattern":"S","legs":"M"},"action":"avoid","summary":"good-avoid","bonus":1.4600000000000013},{"rt":2004.1000000238419,"stimulus":"\n                    <p><b>Action: <em>avoid</em></b></p>\n                    <p>This is the bee that you just saw.</p>\n                    <img src=\"bees-with-color/bee-B2SM.svg\" width=\"200\">\n                    <p><br>Your bonus pay is unchanged, and remains at $0.48.</p>\n            ","response":0,"trial_type":"html-button-response","trial_index":52,"time_elapsed":689091,"internal_node_id":"0.0-4.0-1.22","subject_id":"60352627fdd89aa8314af71b","study_id":"6197b3f67c2b5cd3b6d9596a","session_id":"619be3f57374a283f56cd098","condition":"contingent","relevant_dimensions":["pattern","legs"],"bee_group":{"antennae":"X","wings":"X","pattern":"S","legs":"M"},"bonus":1.4600000000000013},{"rt":11286.099999904633,"stimulus":"bees-with-color/bee-A2DF.svg","response":0,"trial_type":"image-button-response","trial_index":53,"time_elapsed":700379,"internal_node_id":"0.0-4.0-0.23","subject_id":"60352627fdd89aa8314af71b","study_id":"6197b3f67c2b5cd3b6d9596a","session_id":"619be3f57374a283f56cd098","condition":"contingent","relevant_dimensions":["pattern","legs"],"bee_group":{"antennae":"X","wings":"X","pattern":"S","legs":"M"},"action":"harvest","summary":"good-harvest","bonus":1.4600000000000013},{"rt":8866.600000023842,"stimulus":"\n                    <p><b>Action: <em>harvest</em></b></p>\n                    <p>This is the bee that you just saw.</p>\n                    <img src=\"bees-with-color/bee-A2DF.svg\" width=\"200\">\n                    <p><span class=\"greenText\"><b>Successful harvest!</b></span><br>Your pay has increased by $0.02. Your bonus pay is now $0.50.</p>\n            ","response":0,"trial_type":"html-button-response","trial_index":54,"time_elapsed":709246,"internal_node_id":"0.0-4.0-1.23","subject_id":"60352627fdd89aa8314af71b","study_id":"6197b3f67c2b5cd3b6d9596a","session_id":"619be3f57374a283f56cd098","condition":"contingent","relevant_dimensions":["pattern","legs"],"bee_group":{"antennae":"X","wings":"X","pattern":"S","legs":"M"},"bonus":1.4600000000000013},{"rt":6461.599999904633,"stimulus":"bees-with-color/bee-B2SF.svg","response":0,"trial_type":"image-button-response","trial_index":55,"time_elapsed":715709,"internal_node_id":"0.0-4.0-0.24","subject_id":"60352627fdd89aa8314af71b","study_id":"6197b3f67c2b5cd3b6d9596a","session_id":"619be3f57374a283f56cd098","condition":"contingent","relevant_dimensions":["pattern","legs"],"bee_group":{"antennae":"X","wings":"X","pattern":"S","legs":"M"},"action":"harvest","summary":"good-harvest","bonus":1.4600000000000013},{"rt":1989.1000000238419,"stimulus":"\n                    <p><b>Action: <em>harvest</em></b></p>\n                    <p>This is the bee that you just saw.</p>\n                    <img src=\"bees-with-color/bee-B2SF.svg\" width=\"200\">\n                    <p><span class=\"greenText\"><b>Successful harvest!</b></span><br>Your pay has increased by $0.02. Your bonus pay is now $0.52.</p>\n            ","response":0,"trial_type":"html-button-response","trial_index":56,"time_elapsed":717699,"internal_node_id":"0.0-4.0-1.24","subject_id":"60352627fdd89aa8314af71b","study_id":"6197b3f67c2b5cd3b6d9596a","session_id":"619be3f57374a283f56cd098","condition":"contingent","relevant_dimensions":["pattern","legs"],"bee_group":{"antennae":"X","wings":"X","pattern":"S","legs":"M"},"bonus":1.4600000000000013},{"rt":7239.899999976158,"stimulus":"bees-with-color/bee-B2DM.svg","response":0,"trial_type":"image-button-response","trial_index":57,"time_elapsed":724941,"internal_node_id":"0.0-4.0-0.25","subject_id":"60352627fdd89aa8314af71b","study_id":"6197b3f67c2b5cd3b6d9596a","session_id":"619be3f57374a283f56cd098","condition":"contingent","relevant_dimensions":["pattern","legs"],"bee_group":{"antennae":"X","wings":"X","pattern":"S","legs":"M"},"action":"harvest","summary":"good-harvest","bonus":1.4600000000000013},{"rt":1018.6000000238419,"stimulus":"\n                    <p><b>Action: <em>harvest</em></b></p>\n                    <p>This is the bee that you just saw.</p>\n                    <img src=\"bees-with-color/bee-B2DM.svg\" width=\"200\">\n                    <p><span class=\"greenText\"><b>Successful harvest!</b></span><br>Your pay has increased by $0.02. Your bonus pay is now $0.54.</p>\n            ","response":0,"trial_type":"html-button-response","trial_index":58,"time_elapsed":725961,"internal_node_id":"0.0-4.0-1.25","subject_id":"60352627fdd89aa8314af71b","study_id":"6197b3f67c2b5cd3b6d9596a","session_id":"619be3f57374a283f56cd098","condition":"contingent","relevant_dimensions":["pattern","legs"],"bee_group":{"antennae":"X","wings":"X","pattern":"S","legs":"M"},"bonus":1.4600000000000013},{"rt":4567,"stimulus":"bees-with-color/bee-A1SM.svg","response":1,"trial_type":"image-button-response","trial_index":59,"time_elapsed":730530,"internal_node_id":"0.0-4.0-0.26","subject_id":"60352627fdd89aa8314af71b","study_id":"6197b3f67c2b5cd3b6d9596a","session_id":"619be3f57374a283f56cd098","condition":"contingent","relevant_dimensions":["pattern","legs"],"bee_group":{"antennae":"X","wings":"X","pattern":"S","legs":"M"},"action":"avoid","summary":"good-avoid","bonus":1.4600000000000013},{"rt":1749.3000000715256,"stimulus":"\n                    <p><b>Action: <em>avoid</em></b></p>\n                    <p>This is the bee that you just saw.</p>\n                    <img src=\"bees-with-color/bee-A1SM.svg\" width=\"200\">\n                    <p><br>Your bonus pay is unchanged, and remains at $0.54.</p>\n            ","response":0,"trial_type":"html-button-response","trial_index":60,"time_elapsed":732281,"internal_node_id":"0.0-4.0-1.26","subject_id":"60352627fdd89aa8314af71b","study_id":"6197b3f67c2b5cd3b6d9596a","session_id":"619be3f57374a283f56cd098","condition":"contingent","relevant_dimensions":["pattern","legs"],"bee_group":{"antennae":"X","wings":"X","pattern":"S","legs":"M"},"bonus":1.4600000000000013},{"rt":3405.100000023842,"stimulus":"bees-with-color/bee-A2SM.svg","response":1,"trial_type":"image-button-response","trial_index":61,"time_elapsed":735688,"internal_node_id":"0.0-4.0-0.27","subject_id":"60352627fdd89aa8314af71b","study_id":"6197b3f67c2b5cd3b6d9596a","session_id":"619be3f57374a283f56cd098","condition":"contingent","relevant_dimensions":["pattern","legs"],"bee_group":{"antennae":"X","wings":"X","pattern":"S","legs":"M"},"action":"avoid","summary":"good-avoid","bonus":1.4600000000000013},{"rt":2258.9000000953674,"stimulus":"\n                    <p><b>Action: <em>avoid</em></b></p>\n                    <p>This is the bee that you just saw.</p>\n                    <img src=\"bees-with-color/bee-A2SM.svg\" width=\"200\">\n                    <p><br>Your bonus pay is unchanged, and remains at $0.54.</p>\n            ","response":0,"trial_type":"html-button-response","trial_index":62,"time_elapsed":737948,"internal_node_id":"0.0-4.0-1.27","subject_id":"60352627fdd89aa8314af71b","study_id":"6197b3f67c2b5cd3b6d9596a","session_id":"619be3f57374a283f56cd098","condition":"contingent","relevant_dimensions":["pattern","legs"],"bee_group":{"antennae":"X","wings":"X","pattern":"S","legs":"M"},"bonus":1.4600000000000013},{"rt":2368.1999999284744,"stimulus":"bees-with-color/bee-A1DF.svg","response":0,"trial_type":"image-button-response","trial_index":63,"time_elapsed":740317,"internal_node_id":"0.0-4.0-0.28","subject_id":"60352627fdd89aa8314af71b","study_id":"6197b3f67c2b5cd3b6d9596a","session_id":"619be3f57374a283f56cd098","condition":"contingent","relevant_dimensions":["pattern","legs"],"bee_group":{"antennae":"X","wings":"X","pattern":"S","legs":"M"},"action":"harvest","summary":"good-harvest","bonus":1.4600000000000013},{"rt":1045.7999999523163,"stimulus":"\n                    <p><b>Action: <em>harvest</em></b></p>\n                    <p>This is the bee that you just saw.</p>\n                    <img src=\"bees-with-color/bee-A1DF.svg\" width=\"200\">\n                    <p><span class=\"greenText\"><b>Successful harvest!</b></span><br>Your pay has increased by $0.02. Your bonus pay is now $0.56.</p>\n            ","response":0,"trial_type":"html-button-response","trial_index":64,"time_elapsed":741364,"internal_node_id":"0.0-4.0-1.28","subject_id":"60352627fdd89aa8314af71b","study_id":"6197b3f67c2b5cd3b6d9596a","session_id":"619be3f57374a283f56cd098","condition":"contingent","relevant_dimensions":["pattern","legs"],"bee_group":{"antennae":"X","wings":"X","pattern":"S","legs":"M"},"bonus":1.4600000000000013},{"rt":973.6999999284744,"stimulus":"bees-with-color/bee-B1DF.svg","response":0,"trial_type":"image-button-response","trial_index":65,"time_elapsed":742339,"internal_node_id":"0.0-4.0-0.29","subject_id":"60352627fdd89aa8314af71b","study_id":"6197b3f67c2b5cd3b6d9596a","session_id":"619be3f57374a283f56cd098","condition":"contingent","relevant_dimensions":["pattern","legs"],"bee_group":{"antennae":"X","wings":"X","pattern":"S","legs":"M"},"action":"harvest","summary":"good-harvest","bonus":1.4600000000000013},{"rt":874.5,"stimulus":"\n                    <p><b>Action: <em>harvest</em></b></p>\n                    <p>This is the bee that you just saw.</p>\n                    <img src=\"bees-with-color/bee-B1DF.svg\" width=\"200\">\n                    <p><span class=\"greenText\"><b>Successful harvest!</b></span><br>Your pay has increased by $0.02. Your bonus pay is now $0.58.</p>\n            ","response":0,"trial_type":"html-button-response","trial_index":66,"time_elapsed":743215,"internal_node_id":"0.0-4.0-1.29","subject_id":"60352627fdd89aa8314af71b","study_id":"6197b3f67c2b5cd3b6d9596a","session_id":"619be3f57374a283f56cd098","condition":"contingent","relevant_dimensions":["pattern","legs"],"bee_group":{"antennae":"X","wings":"X","pattern":"S","legs":"M"},"bonus":1.4600000000000013},{"rt":6087.100000023842,"stimulus":"bees-with-color/bee-A1SF.svg","response":0,"trial_type":"image-button-response","trial_index":67,"time_elapsed":749304,"internal_node_id":"0.0-4.0-0.30","subject_id":"60352627fdd89aa8314af71b","study_id":"6197b3f67c2b5cd3b6d9596a","session_id":"619be3f57374a283f56cd098","condition":"contingent","relevant_dimensions":["pattern","legs"],"bee_group":{"antennae":"X","wings":"X","pattern":"S","legs":"M"},"action":"harvest","summary":"good-harvest","bonus":1.4600000000000013},{"rt":1143.1000000238419,"stimulus":"\n                    <p><b>Action: <em>harvest</em></b></p>\n                    <p>This is the bee that you just saw.</p>\n                    <img src=\"bees-with-color/bee-A1SF.svg\" width=\"200\">\n                    <p><span class=\"greenText\"><b>Successful harvest!</b></span><br>Your pay has increased by $0.02. Your bonus pay is now $0.60.</p>\n            ","response":0,"trial_type":"html-button-response","trial_index":68,"time_elapsed":750448,"internal_node_id":"0.0-4.0-1.30","subject_id":"60352627fdd89aa8314af71b","study_id":"6197b3f67c2b5cd3b6d9596a","session_id":"619be3f57374a283f56cd098","condition":"contingent","relevant_dimensions":["pattern","legs"],"bee_group":{"antennae":"X","wings":"X","pattern":"S","legs":"M"},"bonus":1.4600000000000013},{"rt":4848.799999952316,"stimulus":"bees-with-color/bee-B1SF.svg","response":0,"trial_type":"image-button-response","trial_index":69,"time_elapsed":755298,"internal_node_id":"0.0-4.0-0.31","subject_id":"60352627fdd89aa8314af71b","study_id":"6197b3f67c2b5cd3b6d9596a","session_id":"619be3f57374a283f56cd098","condition":"contingent","relevant_dimensions":["pattern","legs"],"bee_group":{"antennae":"X","wings":"X","pattern":"S","legs":"M"},"action":"harvest","summary":"good-harvest","bonus":1.4600000000000013},{"rt":1529.5999999046326,"stimulus":"\n                    <p><b>Action: <em>harvest</em></b></p>\n                    <p>This is the bee that you just saw.</p>\n                    <img src=\"bees-with-color/bee-B1SF.svg\" width=\"200\">\n                    <p><span class=\"greenText\"><b>Successful harvest!</b></span><br>Your pay has increased by $0.02. Your bonus pay is now $0.62.</p>\n            ","response":0,"trial_type":"html-button-response","trial_index":70,"time_elapsed":756829,"internal_node_id":"0.0-4.0-1.31","subject_id":"60352627fdd89aa8314af71b","study_id":"6197b3f67c2b5cd3b6d9596a","session_id":"619be3f57374a283f56cd098","condition":"contingent","relevant_dimensions":["pattern","legs"],"bee_group":{"antennae":"X","wings":"X","pattern":"S","legs":"M"},"bonus":1.4600000000000013},{"rt":1572.5,"stimulus":"bees-with-color/bee-B1DF.svg","response":0,"trial_type":"image-button-response","trial_index":71,"time_elapsed":758403,"internal_node_id":"0.0-4.0-0.32","subject_id":"60352627fdd89aa8314af71b","study_id":"6197b3f67c2b5cd3b6d9596a","session_id":"619be3f57374a283f56cd098","condition":"contingent","relevant_dimensions":["pattern","legs"],"bee_group":{"antennae":"X","wings":"X","pattern":"S","legs":"M"},"action":"harvest","summary":"good-harvest","bonus":1.4600000000000013},{"rt":1433.9000000953674,"stimulus":"\n                    <p><b>Action: <em>harvest</em></b></p>\n                    <p>This is the bee that you just saw.</p>\n                    <img src=\"bees-with-color/bee-B1DF.svg\" width=\"200\">\n                    <p><span class=\"greenText\"><b>Successful harvest!</b></span><br>Your pay has increased by $0.02. Your bonus pay is now $0.64.</p>\n            ","response":0,"trial_type":"html-button-response","trial_index":72,"time_elapsed":759839,"internal_node_id":"0.0-4.0-1.32","subject_id":"60352627fdd89aa8314af71b","study_id":"6197b3f67c2b5cd3b6d9596a","session_id":"619be3f57374a283f56cd098","condition":"contingent","relevant_dimensions":["pattern","legs"],"bee_group":{"antennae":"X","wings":"X","pattern":"S","legs":"M"},"bonus":1.4600000000000013},{"rt":5172.100000023842,"stimulus":"bees-with-color/bee-B2DF.svg","response":0,"trial_type":"image-button-response","trial_index":73,"time_elapsed":765012,"internal_node_id":"0.0-4.0-0.33","subject_id":"60352627fdd89aa8314af71b","study_id":"6197b3f67c2b5cd3b6d9596a","session_id":"619be3f57374a283f56cd098","condition":"contingent","relevant_dimensions":["pattern","legs"],"bee_group":{"antennae":"X","wings":"X","pattern":"S","legs":"M"},"action":"harvest","summary":"good-harvest","bonus":1.4600000000000013},{"rt":1373.6999999284744,"stimulus":"\n                    <p><b>Action: <em>harvest</em></b></p>\n                    <p>This is the bee that you just saw.</p>\n                    <img src=\"bees-with-color/bee-B2DF.svg\" width=\"200\">\n                    <p><span class=\"greenText\"><b>Successful harvest!</b></span><br>Your pay has increased by $0.02. Your bonus pay is now $0.66.</p>\n            ","response":0,"trial_type":"html-button-response","trial_index":74,"time_elapsed":766387,"internal_node_id":"0.0-4.0-1.33","subject_id":"60352627fdd89aa8314af71b","study_id":"6197b3f67c2b5cd3b6d9596a","session_id":"619be3f57374a283f56cd098","condition":"contingent","relevant_dimensions":["pattern","legs"],"bee_group":{"antennae":"X","wings":"X","pattern":"S","legs":"M"},"bonus":1.4600000000000013},{"rt":5904.5,"stimulus":"bees-with-color/bee-B2SM.svg","response":1,"trial_type":"image-button-response","trial_index":75,"time_elapsed":772293,"internal_node_id":"0.0-4.0-0.34","subject_id":"60352627fdd89aa8314af71b","study_id":"6197b3f67c2b5cd3b6d9596a","session_id":"619be3f57374a283f56cd098","condition":"contingent","relevant_dimensions":["pattern","legs"],"bee_group":{"antennae":"X","wings":"X","pattern":"S","legs":"M"},"action":"avoid","summary":"good-avoid","bonus":1.4600000000000013},{"rt":957.7999999523163,"stimulus":"\n                    <p><b>Action: <em>avoid</em></b></p>\n                    <p>This is the bee that you just saw.</p>\n                    <img src=\"bees-with-color/bee-B2SM.svg\" width=\"200\">\n                    <p><br>Your bonus pay is unchanged, and remains at $0.66.</p>\n            ","response":0,"trial_type":"html-button-response","trial_index":76,"time_elapsed":773253,"internal_node_id":"0.0-4.0-1.34","subject_id":"60352627fdd89aa8314af71b","study_id":"6197b3f67c2b5cd3b6d9596a","session_id":"619be3f57374a283f56cd098","condition":"contingent","relevant_dimensions":["pattern","legs"],"bee_group":{"antennae":"X","wings":"X","pattern":"S","legs":"M"},"bonus":1.4600000000000013},{"rt":1534.2000000476837,"stimulus":"bees-with-color/bee-B2DM.svg","response":0,"trial_type":"image-button-response","trial_index":77,"time_elapsed":774789,"internal_node_id":"0.0-4.0-0.35","subject_id":"60352627fdd89aa8314af71b","study_id":"6197b3f67c2b5cd3b6d9596a","session_id":"619be3f57374a283f56cd098","condition":"contingent","relevant_dimensions":["pattern","legs"],"bee_group":{"antennae":"X","wings":"X","pattern":"S","legs":"M"},"action":"harvest","summary":"good-harvest","bonus":1.4600000000000013},{"rt":1020.8999999761581,"stimulus":"\n                    <p><b>Action: <em>harvest</em></b></p>\n                    <p>This is the bee that you just saw.</p>\n                    <img src=\"bees-with-color/bee-B2DM.svg\" width=\"200\">\n                    <p><span class=\"greenText\"><b>Successful harvest!</b></span><br>Your pay has increased by $0.02. Your bonus pay is now $0.68.</p>\n            ","response":0,"trial_type":"html-button-response","trial_index":78,"time_elapsed":775811,"internal_node_id":"0.0-4.0-1.35","subject_id":"60352627fdd89aa8314af71b","study_id":"6197b3f67c2b5cd3b6d9596a","session_id":"619be3f57374a283f56cd098","condition":"contingent","relevant_dimensions":["pattern","legs"],"bee_group":{"antennae":"X","wings":"X","pattern":"S","legs":"M"},"bonus":1.4600000000000013},{"rt":4364.5,"stimulus":"bees-with-color/bee-A1DM.svg","response":0,"trial_type":"image-button-response","trial_index":79,"time_elapsed":780177,"internal_node_id":"0.0-4.0-0.36","subject_id":"60352627fdd89aa8314af71b","study_id":"6197b3f67c2b5cd3b6d9596a","session_id":"619be3f57374a283f56cd098","condition":"contingent","relevant_dimensions":["pattern","legs"],"bee_group":{"antennae":"X","wings":"X","pattern":"S","legs":"M"},"action":"harvest","summary":"good-harvest","bonus":1.4600000000000013},{"rt":774.2999999523163,"stimulus":"\n                    <p><b>Action: <em>harvest</em></b></p>\n                    <p>This is the bee that you just saw.</p>\n                    <img src=\"bees-with-color/bee-A1DM.svg\" width=\"200\">\n                    <p><span class=\"greenText\"><b>Successful harvest!</b></span><br>Your pay has increased by $0.02. Your bonus pay is now $0.70.</p>\n            ","response":0,"trial_type":"html-button-response","trial_index":80,"time_elapsed":780953,"internal_node_id":"0.0-4.0-1.36","subject_id":"60352627fdd89aa8314af71b","study_id":"6197b3f67c2b5cd3b6d9596a","session_id":"619be3f57374a283f56cd098","condition":"contingent","relevant_dimensions":["pattern","legs"],"bee_group":{"antennae":"X","wings":"X","pattern":"S","legs":"M"},"bonus":1.4600000000000013},{"rt":1411.4000000953674,"stimulus":"bees-with-color/bee-B1DM.svg","response":0,"trial_type":"image-button-response","trial_index":81,"time_elapsed":782366,"internal_node_id":"0.0-4.0-0.37","subject_id":"60352627fdd89aa8314af71b","study_id":"6197b3f67c2b5cd3b6d9596a","session_id":"619be3f57374a283f56cd098","condition":"contingent","relevant_dimensions":["pattern","legs"],"bee_group":{"antennae":"X","wings":"X","pattern":"S","legs":"M"},"action":"harvest","summary":"good-harvest","bonus":1.4600000000000013},{"rt":776.7999999523163,"stimulus":"\n                    <p><b>Action: <em>harvest</em></b></p>\n                    <p>This is the bee that you just saw.</p>\n                    <img src=\"bees-with-color/bee-B1DM.svg\" width=\"200\">\n                    <p><span class=\"greenText\"><b>Successful harvest!</b></span><br>Your pay has increased by $0.02. Your bonus pay is now $0.72.</p>\n            ","response":0,"trial_type":"html-button-response","trial_index":82,"time_elapsed":783144,"internal_node_id":"0.0-4.0-1.37","subject_id":"60352627fdd89aa8314af71b","study_id":"6197b3f67c2b5cd3b6d9596a","session_id":"619be3f57374a283f56cd098","condition":"contingent","relevant_dimensions":["pattern","legs"],"bee_group":{"antennae":"X","wings":"X","pattern":"S","legs":"M"},"bonus":1.4600000000000013},{"rt":1058.7000000476837,"stimulus":"bees-with-color/bee-B1SM.svg","response":1,"trial_type":"image-button-response","trial_index":83,"time_elapsed":784203,"internal_node_id":"0.0-4.0-0.38","subject_id":"60352627fdd89aa8314af71b","study_id":"6197b3f67c2b5cd3b6d9596a","session_id":"619be3f57374a283f56cd098","condition":"contingent","relevant_dimensions":["pattern","legs"],"bee_group":{"antennae":"X","wings":"X","pattern":"S","legs":"M"},"action":"avoid","summary":"good-avoid","bonus":1.4600000000000013},{"rt":820.7000000476837,"stimulus":"\n                    <p><b>Action: <em>avoid</em></b></p>\n                    <p>This is the bee that you just saw.</p>\n                    <img src=\"bees-with-color/bee-B1SM.svg\" width=\"200\">\n                    <p><br>Your bonus pay is unchanged, and remains at $0.72.</p>\n            ","response":0,"trial_type":"html-button-response","trial_index":84,"time_elapsed":785025,"internal_node_id":"0.0-4.0-1.38","subject_id":"60352627fdd89aa8314af71b","study_id":"6197b3f67c2b5cd3b6d9596a","session_id":"619be3f57374a283f56cd098","condition":"contingent","relevant_dimensions":["pattern","legs"],"bee_group":{"antennae":"X","wings":"X","pattern":"S","legs":"M"},"bonus":1.4600000000000013},{"rt":1357,"stimulus":"bees-with-color/bee-A1DF.svg","response":0,"trial_type":"image-button-response","trial_index":85,"time_elapsed":786383,"internal_node_id":"0.0-4.0-0.39","subject_id":"60352627fdd89aa8314af71b","study_id":"6197b3f67c2b5cd3b6d9596a","session_id":"619be3f57374a283f56cd098","condition":"contingent","relevant_dimensions":["pattern","legs"],"bee_group":{"antennae":"X","wings":"X","pattern":"S","legs":"M"},"action":"harvest","summary":"good-harvest","bonus":1.4600000000000013},{"rt":851.1999999284744,"stimulus":"\n                    <p><b>Action: <em>harvest</em></b></p>\n                    <p>This is the bee that you just saw.</p>\n                    <img src=\"bees-with-color/bee-A1DF.svg\" width=\"200\">\n                    <p><span class=\"greenText\"><b>Successful harvest!</b></span><br>Your pay has increased by $0.02. Your bonus pay is now $0.74.</p>\n            ","response":0,"trial_type":"html-button-response","trial_index":86,"time_elapsed":787236,"internal_node_id":"0.0-4.0-1.39","subject_id":"60352627fdd89aa8314af71b","study_id":"6197b3f67c2b5cd3b6d9596a","session_id":"619be3f57374a283f56cd098","condition":"contingent","relevant_dimensions":["pattern","legs"],"bee_group":{"antennae":"X","wings":"X","pattern":"S","legs":"M"},"bonus":1.4600000000000013},{"rt":3751.9000000953674,"stimulus":"bees-with-color/bee-A1SF.svg","response":0,"trial_type":"image-button-response","trial_index":87,"time_elapsed":790989,"internal_node_id":"0.0-4.0-0.40","subject_id":"60352627fdd89aa8314af71b","study_id":"6197b3f67c2b5cd3b6d9596a","session_id":"619be3f57374a283f56cd098","condition":"contingent","relevant_dimensions":["pattern","legs"],"bee_group":{"antennae":"X","wings":"X","pattern":"S","legs":"M"},"action":"harvest","summary":"good-harvest","bonus":1.4600000000000013},{"rt":907.6000000238419,"stimulus":"\n                    <p><b>Action: <em>harvest</em></b></p>\n                    <p>This is the bee that you just saw.</p>\n                    <img src=\"bees-with-color/bee-A1SF.svg\" width=\"200\">\n                    <p><span class=\"greenText\"><b>Successful harvest!</b></span><br>Your pay has increased by $0.02. Your bonus pay is now $0.76.</p>\n            ","response":0,"trial_type":"html-button-response","trial_index":88,"time_elapsed":791897,"internal_node_id":"0.0-4.0-1.40","subject_id":"60352627fdd89aa8314af71b","study_id":"6197b3f67c2b5cd3b6d9596a","session_id":"619be3f57374a283f56cd098","condition":"contingent","relevant_dimensions":["pattern","legs"],"bee_group":{"antennae":"X","wings":"X","pattern":"S","legs":"M"},"bonus":1.4600000000000013},{"rt":2202,"stimulus":"bees-with-color/bee-A2DM.svg","response":0,"trial_type":"image-button-response","trial_index":89,"time_elapsed":794101,"internal_node_id":"0.0-4.0-0.41","subject_id":"60352627fdd89aa8314af71b","study_id":"6197b3f67c2b5cd3b6d9596a","session_id":"619be3f57374a283f56cd098","condition":"contingent","relevant_dimensions":["pattern","legs"],"bee_group":{"antennae":"X","wings":"X","pattern":"S","legs":"M"},"action":"harvest","summary":"good-harvest","bonus":1.4600000000000013},{"rt":805.2000000476837,"stimulus":"\n                    <p><b>Action: <em>harvest</em></b></p>\n                    <p>This is the bee that you just saw.</p>\n                    <img src=\"bees-with-color/bee-A2DM.svg\" width=\"200\">\n                    <p><span class=\"greenText\"><b>Successful harvest!</b></span><br>Your pay has increased by $0.02. Your bonus pay is now $0.78.</p>\n            ","response":0,"trial_type":"html-button-response","trial_index":90,"time_elapsed":794907,"internal_node_id":"0.0-4.0-1.41","subject_id":"60352627fdd89aa8314af71b","study_id":"6197b3f67c2b5cd3b6d9596a","session_id":"619be3f57374a283f56cd098","condition":"contingent","relevant_dimensions":["pattern","legs"],"bee_group":{"antennae":"X","wings":"X","pattern":"S","legs":"M"},"bonus":1.4600000000000013},{"rt":4205.799999952316,"stimulus":"bees-with-color/bee-A2SF.svg","response":0,"trial_type":"image-button-response","trial_index":91,"time_elapsed":799114,"internal_node_id":"0.0-4.0-0.42","subject_id":"60352627fdd89aa8314af71b","study_id":"6197b3f67c2b5cd3b6d9596a","session_id":"619be3f57374a283f56cd098","condition":"contingent","relevant_dimensions":["pattern","legs"],"bee_group":{"antennae":"X","wings":"X","pattern":"S","legs":"M"},"action":"harvest","summary":"good-harvest","bonus":1.4600000000000013},{"rt":1065.2999999523163,"stimulus":"\n                    <p><b>Action: <em>harvest</em></b></p>\n                    <p>This is the bee that you just saw.</p>\n                    <img src=\"bees-with-color/bee-A2SF.svg\" width=\"200\">\n                    <p><span class=\"greenText\"><b>Successful harvest!</b></span><br>Your pay has increased by $0.02. Your bonus pay is now $0.80.</p>\n            ","response":0,"trial_type":"html-button-response","trial_index":92,"time_elapsed":800180,"internal_node_id":"0.0-4.0-1.42","subject_id":"60352627fdd89aa8314af71b","study_id":"6197b3f67c2b5cd3b6d9596a","session_id":"619be3f57374a283f56cd098","condition":"contingent","relevant_dimensions":["pattern","legs"],"bee_group":{"antennae":"X","wings":"X","pattern":"S","legs":"M"},"bonus":1.4600000000000013},{"rt":4621.899999976158,"stimulus":"bees-with-color/bee-A2SM.svg","response":1,"trial_type":"image-button-response","trial_index":93,"time_elapsed":804804,"internal_node_id":"0.0-4.0-0.43","subject_id":"60352627fdd89aa8314af71b","study_id":"6197b3f67c2b5cd3b6d9596a","session_id":"619be3f57374a283f56cd098","condition":"contingent","relevant_dimensions":["pattern","legs"],"bee_group":{"antennae":"X","wings":"X","pattern":"S","legs":"M"},"action":"avoid","summary":"good-avoid","bonus":1.4600000000000013},{"rt":1234.2999999523163,"stimulus":"\n                    <p><b>Action: <em>avoid</em></b></p>\n                    <p>This is the bee that you just saw.</p>\n                    <img src=\"bees-with-color/bee-A2SM.svg\" width=\"200\">\n                    <p><br>Your bonus pay is unchanged, and remains at $0.80.</p>\n            ","response":0,"trial_type":"html-button-response","trial_index":94,"time_elapsed":806039,"internal_node_id":"0.0-4.0-1.43","subject_id":"60352627fdd89aa8314af71b","study_id":"6197b3f67c2b5cd3b6d9596a","session_id":"619be3f57374a283f56cd098","condition":"contingent","relevant_dimensions":["pattern","legs"],"bee_group":{"antennae":"X","wings":"X","pattern":"S","legs":"M"},"bonus":1.4600000000000013},{"rt":1296.6000000238419,"stimulus":"bees-with-color/bee-B2SF.svg","response":0,"trial_type":"image-button-response","trial_index":95,"time_elapsed":807338,"internal_node_id":"0.0-4.0-0.44","subject_id":"60352627fdd89aa8314af71b","study_id":"6197b3f67c2b5cd3b6d9596a","session_id":"619be3f57374a283f56cd098","condition":"contingent","relevant_dimensions":["pattern","legs"],"bee_group":{"antennae":"X","wings":"X","pattern":"S","legs":"M"},"action":"harvest","summary":"good-harvest","bonus":1.4600000000000013},{"rt":912.1999999284744,"stimulus":"\n                    <p><b>Action: <em>harvest</em></b></p>\n                    <p>This is the bee that you just saw.</p>\n                    <img src=\"bees-with-color/bee-B2SF.svg\" width=\"200\">\n                    <p><span class=\"greenText\"><b>Successful harvest!</b></span><br>Your pay has increased by $0.02. Your bonus pay is now $0.82.</p>\n            ","response":0,"trial_type":"html-button-response","trial_index":96,"time_elapsed":808251,"internal_node_id":"0.0-4.0-1.44","subject_id":"60352627fdd89aa8314af71b","study_id":"6197b3f67c2b5cd3b6d9596a","session_id":"619be3f57374a283f56cd098","condition":"contingent","relevant_dimensions":["pattern","legs"],"bee_group":{"antennae":"X","wings":"X","pattern":"S","legs":"M"},"bonus":1.4600000000000013},{"rt":775,"stimulus":"bees-with-color/bee-B1SF.svg","response":0,"trial_type":"image-button-response","trial_index":97,"time_elapsed":809027,"internal_node_id":"0.0-4.0-0.45","subject_id":"60352627fdd89aa8314af71b","study_id":"6197b3f67c2b5cd3b6d9596a","session_id":"619be3f57374a283f56cd098","condition":"contingent","relevant_dimensions":["pattern","legs"],"bee_group":{"antennae":"X","wings":"X","pattern":"S","legs":"M"},"action":"harvest","summary":"good-harvest","bonus":1.4600000000000013},{"rt":672.8999999761581,"stimulus":"\n                    <p><b>Action: <em>harvest</em></b></p>\n                    <p>This is the bee that you just saw.</p>\n                    <img src=\"bees-with-color/bee-B1SF.svg\" width=\"200\">\n                    <p><span class=\"greenText\"><b>Successful harvest!</b></span><br>Your pay has increased by $0.02. Your bonus pay is now $0.84.</p>\n            ","response":0,"trial_type":"html-button-response","trial_index":98,"time_elapsed":809702,"internal_node_id":"0.0-4.0-1.45","subject_id":"60352627fdd89aa8314af71b","study_id":"6197b3f67c2b5cd3b6d9596a","session_id":"619be3f57374a283f56cd098","condition":"contingent","relevant_dimensions":["pattern","legs"],"bee_group":{"antennae":"X","wings":"X","pattern":"S","legs":"M"},"bonus":1.4600000000000013},{"rt":1021.8999999761581,"stimulus":"bees-with-color/bee-A2DF.svg","response":0,"trial_type":"image-button-response","trial_index":99,"time_elapsed":810725,"internal_node_id":"0.0-4.0-0.46","subject_id":"60352627fdd89aa8314af71b","study_id":"6197b3f67c2b5cd3b6d9596a","session_id":"619be3f57374a283f56cd098","condition":"contingent","relevant_dimensions":["pattern","legs"],"bee_group":{"antennae":"X","wings":"X","pattern":"S","legs":"M"},"action":"harvest","summary":"good-harvest","bonus":1.4600000000000013},{"rt":688,"stimulus":"\n                    <p><b>Action: <em>harvest</em></b></p>\n                    <p>This is the bee that you just saw.</p>\n                    <img src=\"bees-with-color/bee-A2DF.svg\" width=\"200\">\n                    <p><span class=\"greenText\"><b>Successful harvest!</b></span><br>Your pay has increased by $0.02. Your bonus pay is now $0.86.</p>\n            ","response":0,"trial_type":"html-button-response","trial_index":100,"time_elapsed":811414,"internal_node_id":"0.0-4.0-1.46","subject_id":"60352627fdd89aa8314af71b","study_id":"6197b3f67c2b5cd3b6d9596a","session_id":"619be3f57374a283f56cd098","condition":"contingent","relevant_dimensions":["pattern","legs"],"bee_group":{"antennae":"X","wings":"X","pattern":"S","legs":"M"},"bonus":1.4600000000000013},{"rt":1938.8999999761581,"stimulus":"bees-with-color/bee-A1SM.svg","response":1,"trial_type":"image-button-response","trial_index":101,"time_elapsed":813354,"internal_node_id":"0.0-4.0-0.47","subject_id":"60352627fdd89aa8314af71b","study_id":"6197b3f67c2b5cd3b6d9596a","session_id":"619be3f57374a283f56cd098","condition":"contingent","relevant_dimensions":["pattern","legs"],"bee_group":{"antennae":"X","wings":"X","pattern":"S","legs":"M"},"action":"avoid","summary":"good-avoid","bonus":1.4600000000000013},{"rt":1038.1999999284744,"stimulus":"\n                    <p><b>Action: <em>avoid</em></b></p>\n                    <p>This is the bee that you just saw.</p>\n                    <img src=\"bees-with-color/bee-A1SM.svg\" width=\"200\">\n                    <p><br>Your bonus pay is unchanged, and remains at $0.86.</p>\n            ","response":0,"trial_type":"html-button-response","trial_index":102,"time_elapsed":814394,"internal_node_id":"0.0-4.0-1.47","subject_id":"60352627fdd89aa8314af71b","study_id":"6197b3f67c2b5cd3b6d9596a","session_id":"619be3f57374a283f56cd098","condition":"contingent","relevant_dimensions":["pattern","legs"],"bee_group":{"antennae":"X","wings":"X","pattern":"S","legs":"M"},"bonus":1.4600000000000013},{"rt":1862.9000000953674,"stimulus":"bees-with-color/bee-B2SF.svg","response":0,"trial_type":"image-button-response","trial_index":103,"time_elapsed":816258,"internal_node_id":"0.0-4.0-0.48","subject_id":"60352627fdd89aa8314af71b","study_id":"6197b3f67c2b5cd3b6d9596a","session_id":"619be3f57374a283f56cd098","condition":"contingent","relevant_dimensions":["pattern","legs"],"bee_group":{"antennae":"X","wings":"X","pattern":"S","legs":"M"},"action":"harvest","summary":"good-harvest","bonus":1.4600000000000013},{"rt":781.7000000476837,"stimulus":"\n                    <p><b>Action: <em>harvest</em></b></p>\n                    <p>This is the bee that you just saw.</p>\n                    <img src=\"bees-with-color/bee-B2SF.svg\" width=\"200\">\n                    <p><span class=\"greenText\"><b>Successful harvest!</b></span><br>Your pay has increased by $0.02. Your bonus pay is now $0.88.</p>\n            ","response":0,"trial_type":"html-button-response","trial_index":104,"time_elapsed":817041,"internal_node_id":"0.0-4.0-1.48","subject_id":"60352627fdd89aa8314af71b","study_id":"6197b3f67c2b5cd3b6d9596a","session_id":"619be3f57374a283f56cd098","condition":"contingent","relevant_dimensions":["pattern","legs"],"bee_group":{"antennae":"X","wings":"X","pattern":"S","legs":"M"},"bonus":1.4600000000000013},{"rt":1214.5,"stimulus":"bees-with-color/bee-A1SM.svg","response":1,"trial_type":"image-button-response","trial_index":105,"time_elapsed":818257,"internal_node_id":"0.0-4.0-0.49","subject_id":"60352627fdd89aa8314af71b","study_id":"6197b3f67c2b5cd3b6d9596a","session_id":"619be3f57374a283f56cd098","condition":"contingent","relevant_dimensions":["pattern","legs"],"bee_group":{"antennae":"X","wings":"X","pattern":"S","legs":"M"},"action":"avoid","summary":"good-avoid","bonus":1.4600000000000013},{"rt":705.3999999761581,"stimulus":"\n                    <p><b>Action: <em>avoid</em></b></p>\n                    <p>This is the bee that you just saw.</p>\n                    <img src=\"bees-with-color/bee-A1SM.svg\" width=\"200\">\n                    <p><br>Your bonus pay is unchanged, and remains at $0.88.</p>\n            ","response":0,"trial_type":"html-button-response","trial_index":106,"time_elapsed":818963,"internal_node_id":"0.0-4.0-1.49","subject_id":"60352627fdd89aa8314af71b","study_id":"6197b3f67c2b5cd3b6d9596a","session_id":"619be3f57374a283f56cd098","condition":"contingent","relevant_dimensions":["pattern","legs"],"bee_group":{"antennae":"X","wings":"X","pattern":"S","legs":"M"},"bonus":1.4600000000000013},{"rt":895.7999999523163,"stimulus":"bees-with-color/bee-B2SM.svg","response":0,"trial_type":"image-button-response","trial_index":107,"time_elapsed":819860,"internal_node_id":"0.0-4.0-0.50","subject_id":"60352627fdd89aa8314af71b","study_id":"6197b3f67c2b5cd3b6d9596a","session_id":"619be3f57374a283f56cd098","condition":"contingent","relevant_dimensions":["pattern","legs"],"bee_group":{"antennae":"X","wings":"X","pattern":"S","legs":"M"},"action":"harvest","summary":"bad-harvest","bonus":1.4600000000000013},{"rt":5543,"stimulus":"\n                    <p><b>Action: <em>harvest</em></b></p>\n                    <p>This is the bee that you just saw.</p>\n                    <img src=\"bees-with-color/bee-B2SM.svg\" width=\"200\">\n                    <p><span class=\"redText\">Bad choice, the bee was angry.</span><br><b>You have been stung!</b><br>Your pay has been decreased by $0.10. Your bonus pay is now $0.78.</p>\n            ","response":0,"trial_type":"html-button-response","trial_index":108,"time_elapsed":825405,"internal_node_id":"0.0-4.0-1.50","subject_id":"60352627fdd89aa8314af71b","study_id":"6197b3f67c2b5cd3b6d9596a","session_id":"619be3f57374a283f56cd098","condition":"contingent","relevant_dimensions":["pattern","legs"],"bee_group":{"antennae":"X","wings":"X","pattern":"S","legs":"M"},"bonus":1.4600000000000013},{"rt":2569.899999976158,"stimulus":"bees-with-color/bee-A1DF.svg","response":0,"trial_type":"image-button-response","trial_index":109,"time_elapsed":827976,"internal_node_id":"0.0-4.0-0.51","subject_id":"60352627fdd89aa8314af71b","study_id":"6197b3f67c2b5cd3b6d9596a","session_id":"619be3f57374a283f56cd098","condition":"contingent","relevant_dimensions":["pattern","legs"],"bee_group":{"antennae":"X","wings":"X","pattern":"S","legs":"M"},"action":"harvest","summary":"good-harvest","bonus":1.4600000000000013},{"rt":859.1999999284744,"stimulus":"\n                    <p><b>Action: <em>harvest</em></b></p>\n                    <p>This is the bee that you just saw.</p>\n                    <img src=\"bees-with-color/bee-A1DF.svg\" width=\"200\">\n                    <p><span class=\"greenText\"><b>Successful harvest!</b></span><br>Your pay has increased by $0.02. Your bonus pay is now $0.80.</p>\n            ","response":0,"trial_type":"html-button-response","trial_index":110,"time_elapsed":828837,"internal_node_id":"0.0-4.0-1.51","subject_id":"60352627fdd89aa8314af71b","study_id":"6197b3f67c2b5cd3b6d9596a","session_id":"619be3f57374a283f56cd098","condition":"contingent","relevant_dimensions":["pattern","legs"],"bee_group":{"antennae":"X","wings":"X","pattern":"S","legs":"M"},"bonus":1.4600000000000013},{"rt":996.7999999523163,"stimulus":"bees-with-color/bee-B1DM.svg","response":0,"trial_type":"image-button-response","trial_index":111,"time_elapsed":829835,"internal_node_id":"0.0-4.0-0.52","subject_id":"60352627fdd89aa8314af71b","study_id":"6197b3f67c2b5cd3b6d9596a","session_id":"619be3f57374a283f56cd098","condition":"contingent","relevant_dimensions":["pattern","legs"],"bee_group":{"antennae":"X","wings":"X","pattern":"S","legs":"M"},"action":"harvest","summary":"good-harvest","bonus":1.4600000000000013},{"rt":621,"stimulus":"\n                    <p><b>Action: <em>harvest</em></b></p>\n                    <p>This is the bee that you just saw.</p>\n                    <img src=\"bees-with-color/bee-B1DM.svg\" width=\"200\">\n                    <p><span class=\"greenText\"><b>Successful harvest!</b></span><br>Your pay has increased by $0.02. Your bonus pay is now $0.82.</p>\n            ","response":0,"trial_type":"html-button-response","trial_index":112,"time_elapsed":830457,"internal_node_id":"0.0-4.0-1.52","subject_id":"60352627fdd89aa8314af71b","study_id":"6197b3f67c2b5cd3b6d9596a","session_id":"619be3f57374a283f56cd098","condition":"contingent","relevant_dimensions":["pattern","legs"],"bee_group":{"antennae":"X","wings":"X","pattern":"S","legs":"M"},"bonus":1.4600000000000013},{"rt":928.3000000715256,"stimulus":"bees-with-color/bee-B2DF.svg","response":0,"trial_type":"image-button-response","trial_index":113,"time_elapsed":831387,"internal_node_id":"0.0-4.0-0.53","subject_id":"60352627fdd89aa8314af71b","study_id":"6197b3f67c2b5cd3b6d9596a","session_id":"619be3f57374a283f56cd098","condition":"contingent","relevant_dimensions":["pattern","legs"],"bee_group":{"antennae":"X","wings":"X","pattern":"S","legs":"M"},"action":"harvest","summary":"good-harvest","bonus":1.4600000000000013},{"rt":727.8999999761581,"stimulus":"\n                    <p><b>Action: <em>harvest</em></b></p>\n                    <p>This is the bee that you just saw.</p>\n                    <img src=\"bees-with-color/bee-B2DF.svg\" width=\"200\">\n                    <p><span class=\"greenText\"><b>Successful harvest!</b></span><br>Your pay has increased by $0.02. Your bonus pay is now $0.84.</p>\n            ","response":0,"trial_type":"html-button-response","trial_index":114,"time_elapsed":832116,"internal_node_id":"0.0-4.0-1.53","subject_id":"60352627fdd89aa8314af71b","study_id":"6197b3f67c2b5cd3b6d9596a","session_id":"619be3f57374a283f56cd098","condition":"contingent","relevant_dimensions":["pattern","legs"],"bee_group":{"antennae":"X","wings":"X","pattern":"S","legs":"M"},"bonus":1.4600000000000013},{"rt":2912.7999999523163,"stimulus":"bees-with-color/bee-A1SF.svg","response":0,"trial_type":"image-button-response","trial_index":115,"time_elapsed":835031,"internal_node_id":"0.0-4.0-0.54","subject_id":"60352627fdd89aa8314af71b","study_id":"6197b3f67c2b5cd3b6d9596a","session_id":"619be3f57374a283f56cd098","condition":"contingent","relevant_dimensions":["pattern","legs"],"bee_group":{"antennae":"X","wings":"X","pattern":"S","legs":"M"},"action":"harvest","summary":"good-harvest","bonus":1.4600000000000013},{"rt":647.3999999761581,"stimulus":"\n                    <p><b>Action: <em>harvest</em></b></p>\n                    <p>This is the bee that you just saw.</p>\n                    <img src=\"bees-with-color/bee-A1SF.svg\" width=\"200\">\n                    <p><span class=\"greenText\"><b>Successful harvest!</b></span><br>Your pay has increased by $0.02. Your bonus pay is now $0.86.</p>\n            ","response":0,"trial_type":"html-button-response","trial_index":116,"time_elapsed":835679,"internal_node_id":"0.0-4.0-1.54","subject_id":"60352627fdd89aa8314af71b","study_id":"6197b3f67c2b5cd3b6d9596a","session_id":"619be3f57374a283f56cd098","condition":"contingent","relevant_dimensions":["pattern","legs"],"bee_group":{"antennae":"X","wings":"X","pattern":"S","legs":"M"},"bonus":1.4600000000000013},{"rt":1364.5999999046326,"stimulus":"bees-with-color/bee-A2SF.svg","response":0,"trial_type":"image-button-response","trial_index":117,"time_elapsed":837045,"internal_node_id":"0.0-4.0-0.55","subject_id":"60352627fdd89aa8314af71b","study_id":"6197b3f67c2b5cd3b6d9596a","session_id":"619be3f57374a283f56cd098","condition":"contingent","relevant_dimensions":["pattern","legs"],"bee_group":{"antennae":"X","wings":"X","pattern":"S","legs":"M"},"action":"harvest","summary":"good-harvest","bonus":1.4600000000000013},{"rt":667.2000000476837,"stimulus":"\n                    <p><b>Action: <em>harvest</em></b></p>\n                    <p>This is the bee that you just saw.</p>\n                    <img src=\"bees-with-color/bee-A2SF.svg\" width=\"200\">\n                    <p><span class=\"greenText\"><b>Successful harvest!</b></span><br>Your pay has increased by $0.02. Your bonus pay is now $0.88.</p>\n            ","response":0,"trial_type":"html-button-response","trial_index":118,"time_elapsed":837713,"internal_node_id":"0.0-4.0-1.55","subject_id":"60352627fdd89aa8314af71b","study_id":"6197b3f67c2b5cd3b6d9596a","session_id":"619be3f57374a283f56cd098","condition":"contingent","relevant_dimensions":["pattern","legs"],"bee_group":{"antennae":"X","wings":"X","pattern":"S","legs":"M"},"bonus":1.4600000000000013},{"rt":836.1999999284744,"stimulus":"bees-with-color/bee-B1DF.svg","response":0,"trial_type":"image-button-response","trial_index":119,"time_elapsed":838551,"internal_node_id":"0.0-4.0-0.56","subject_id":"60352627fdd89aa8314af71b","study_id":"6197b3f67c2b5cd3b6d9596a","session_id":"619be3f57374a283f56cd098","condition":"contingent","relevant_dimensions":["pattern","legs"],"bee_group":{"antennae":"X","wings":"X","pattern":"S","legs":"M"},"action":"harvest","summary":"good-harvest","bonus":1.4600000000000013},{"rt":582.5,"stimulus":"\n                    <p><b>Action: <em>harvest</em></b></p>\n                    <p>This is the bee that you just saw.</p>\n                    <img src=\"bees-with-color/bee-B1DF.svg\" width=\"200\">\n                    <p><span class=\"greenText\"><b>Successful harvest!</b></span><br>Your pay has increased by $0.02. Your bonus pay is now $0.90.</p>\n            ","response":0,"trial_type":"html-button-response","trial_index":120,"time_elapsed":839134,"internal_node_id":"0.0-4.0-1.56","subject_id":"60352627fdd89aa8314af71b","study_id":"6197b3f67c2b5cd3b6d9596a","session_id":"619be3f57374a283f56cd098","condition":"contingent","relevant_dimensions":["pattern","legs"],"bee_group":{"antennae":"X","wings":"X","pattern":"S","legs":"M"},"bonus":1.4600000000000013},{"rt":1549.5,"stimulus":"bees-with-color/bee-A1DM.svg","response":0,"trial_type":"image-button-response","trial_index":121,"time_elapsed":840685,"internal_node_id":"0.0-4.0-0.57","subject_id":"60352627fdd89aa8314af71b","study_id":"6197b3f67c2b5cd3b6d9596a","session_id":"619be3f57374a283f56cd098","condition":"contingent","relevant_dimensions":["pattern","legs"],"bee_group":{"antennae":"X","wings":"X","pattern":"S","legs":"M"},"action":"harvest","summary":"good-harvest","bonus":1.4600000000000013},{"rt":767,"stimulus":"\n                    <p><b>Action: <em>harvest</em></b></p>\n                    <p>This is the bee that you just saw.</p>\n                    <img src=\"bees-with-color/bee-A1DM.svg\" width=\"200\">\n                    <p><span class=\"greenText\"><b>Successful harvest!</b></span><br>Your pay has increased by $0.02. Your bonus pay is now $0.92.</p>\n            ","response":0,"trial_type":"html-button-response","trial_index":122,"time_elapsed":841453,"internal_node_id":"0.0-4.0-1.57","subject_id":"60352627fdd89aa8314af71b","study_id":"6197b3f67c2b5cd3b6d9596a","session_id":"619be3f57374a283f56cd098","condition":"contingent","relevant_dimensions":["pattern","legs"],"bee_group":{"antennae":"X","wings":"X","pattern":"S","legs":"M"},"bonus":1.4600000000000013},{"rt":1173.5,"stimulus":"bees-with-color/bee-A2DM.svg","response":0,"trial_type":"image-button-response","trial_index":123,"time_elapsed":842627,"internal_node_id":"0.0-4.0-0.58","subject_id":"60352627fdd89aa8314af71b","study_id":"6197b3f67c2b5cd3b6d9596a","session_id":"619be3f57374a283f56cd098","condition":"contingent","relevant_dimensions":["pattern","legs"],"bee_group":{"antennae":"X","wings":"X","pattern":"S","legs":"M"},"action":"harvest","summary":"good-harvest","bonus":1.4600000000000013},{"rt":634.5,"stimulus":"\n                    <p><b>Action: <em>harvest</em></b></p>\n                    <p>This is the bee that you just saw.</p>\n                    <img src=\"bees-with-color/bee-A2DM.svg\" width=\"200\">\n                    <p><span class=\"greenText\"><b>Successful harvest!</b></span><br>Your pay has increased by $0.02. Your bonus pay is now $0.94.</p>\n            ","response":0,"trial_type":"html-button-response","trial_index":124,"time_elapsed":843263,"internal_node_id":"0.0-4.0-1.58","subject_id":"60352627fdd89aa8314af71b","study_id":"6197b3f67c2b5cd3b6d9596a","session_id":"619be3f57374a283f56cd098","condition":"contingent","relevant_dimensions":["pattern","legs"],"bee_group":{"antennae":"X","wings":"X","pattern":"S","legs":"M"},"bonus":1.4600000000000013},{"rt":1106.4000000953674,"stimulus":"bees-with-color/bee-A2DF.svg","response":0,"trial_type":"image-button-response","trial_index":125,"time_elapsed":844371,"internal_node_id":"0.0-4.0-0.59","subject_id":"60352627fdd89aa8314af71b","study_id":"6197b3f67c2b5cd3b6d9596a","session_id":"619be3f57374a283f56cd098","condition":"contingent","relevant_dimensions":["pattern","legs"],"bee_group":{"antennae":"X","wings":"X","pattern":"S","legs":"M"},"action":"harvest","summary":"good-harvest","bonus":1.4600000000000013},{"rt":713.2000000476837,"stimulus":"\n                    <p><b>Action: <em>harvest</em></b></p>\n                    <p>This is the bee that you just saw.</p>\n                    <img src=\"bees-with-color/bee-A2DF.svg\" width=\"200\">\n                    <p><span class=\"greenText\"><b>Successful harvest!</b></span><br>Your pay has increased by $0.02. Your bonus pay is now $0.96.</p>\n            ","response":0,"trial_type":"html-button-response","trial_index":126,"time_elapsed":845085,"internal_node_id":"0.0-4.0-1.59","subject_id":"60352627fdd89aa8314af71b","study_id":"6197b3f67c2b5cd3b6d9596a","session_id":"619be3f57374a283f56cd098","condition":"contingent","relevant_dimensions":["pattern","legs"],"bee_group":{"antennae":"X","wings":"X","pattern":"S","legs":"M"},"bonus":1.4600000000000013},{"rt":1733.8000000715256,"stimulus":"bees-with-color/bee-B1SM.svg","response":1,"trial_type":"image-button-response","trial_index":127,"time_elapsed":846820,"internal_node_id":"0.0-4.0-0.60","subject_id":"60352627fdd89aa8314af71b","study_id":"6197b3f67c2b5cd3b6d9596a","session_id":"619be3f57374a283f56cd098","condition":"contingent","relevant_dimensions":["pattern","legs"],"bee_group":{"antennae":"X","wings":"X","pattern":"S","legs":"M"},"action":"avoid","summary":"good-avoid","bonus":1.4600000000000013},{"rt":813.1000000238419,"stimulus":"\n                    <p><b>Action: <em>avoid</em></b></p>\n                    <p>This is the bee that you just saw.</p>\n                    <img src=\"bees-with-color/bee-B1SM.svg\" width=\"200\">\n                    <p><br>Your bonus pay is unchanged, and remains at $0.96.</p>\n            ","response":0,"trial_type":"html-button-response","trial_index":128,"time_elapsed":847634,"internal_node_id":"0.0-4.0-1.60","subject_id":"60352627fdd89aa8314af71b","study_id":"6197b3f67c2b5cd3b6d9596a","session_id":"619be3f57374a283f56cd098","condition":"contingent","relevant_dimensions":["pattern","legs"],"bee_group":{"antennae":"X","wings":"X","pattern":"S","legs":"M"},"bonus":1.4600000000000013},{"rt":1058.3999999761581,"stimulus":"bees-with-color/bee-B2DM.svg","response":0,"trial_type":"image-button-response","trial_index":129,"time_elapsed":848694,"internal_node_id":"0.0-4.0-0.61","subject_id":"60352627fdd89aa8314af71b","study_id":"6197b3f67c2b5cd3b6d9596a","session_id":"619be3f57374a283f56cd098","condition":"contingent","relevant_dimensions":["pattern","legs"],"bee_group":{"antennae":"X","wings":"X","pattern":"S","legs":"M"},"action":"harvest","summary":"good-harvest","bonus":1.4600000000000013},{"rt":581.7000000476837,"stimulus":"\n                    <p><b>Action: <em>harvest</em></b></p>\n                    <p>This is the bee that you just saw.</p>\n                    <img src=\"bees-with-color/bee-B2DM.svg\" width=\"200\">\n                    <p><span class=\"greenText\"><b>Successful harvest!</b></span><br>Your pay has increased by $0.02. Your bonus pay is now $0.98.</p>\n            ","response":0,"trial_type":"html-button-response","trial_index":130,"time_elapsed":849277,"internal_node_id":"0.0-4.0-1.61","subject_id":"60352627fdd89aa8314af71b","study_id":"6197b3f67c2b5cd3b6d9596a","session_id":"619be3f57374a283f56cd098","condition":"contingent","relevant_dimensions":["pattern","legs"],"bee_group":{"antennae":"X","wings":"X","pattern":"S","legs":"M"},"bonus":1.4600000000000013},{"rt":1448.3999999761581,"stimulus":"bees-with-color/bee-A2SM.svg","response":1,"trial_type":"image-button-response","trial_index":131,"time_elapsed":850726,"internal_node_id":"0.0-4.0-0.62","subject_id":"60352627fdd89aa8314af71b","study_id":"6197b3f67c2b5cd3b6d9596a","session_id":"619be3f57374a283f56cd098","condition":"contingent","relevant_dimensions":["pattern","legs"],"bee_group":{"antennae":"X","wings":"X","pattern":"S","legs":"M"},"action":"avoid","summary":"good-avoid","bonus":1.4600000000000013},{"rt":812.7999999523163,"stimulus":"\n                    <p><b>Action: <em>avoid</em></b></p>\n                    <p>This is the bee that you just saw.</p>\n                    <img src=\"bees-with-color/bee-A2SM.svg\" width=\"200\">\n                    <p><br>Your bonus pay is unchanged, and remains at $0.98.</p>\n            ","response":0,"trial_type":"html-button-response","trial_index":132,"time_elapsed":851540,"internal_node_id":"0.0-4.0-1.62","subject_id":"60352627fdd89aa8314af71b","study_id":"6197b3f67c2b5cd3b6d9596a","session_id":"619be3f57374a283f56cd098","condition":"contingent","relevant_dimensions":["pattern","legs"],"bee_group":{"antennae":"X","wings":"X","pattern":"S","legs":"M"},"bonus":1.4600000000000013},{"rt":1429.4000000953674,"stimulus":"bees-with-color/bee-B1SF.svg","response":0,"trial_type":"image-button-response","trial_index":133,"time_elapsed":852971,"internal_node_id":"0.0-4.0-0.63","subject_id":"60352627fdd89aa8314af71b","study_id":"6197b3f67c2b5cd3b6d9596a","session_id":"619be3f57374a283f56cd098","condition":"contingent","relevant_dimensions":["pattern","legs"],"bee_group":{"antennae":"X","wings":"X","pattern":"S","legs":"M"},"action":"harvest","summary":"good-harvest","bonus":1.4600000000000013},{"rt":720,"stimulus":"\n                    <p><b>Action: <em>harvest</em></b></p>\n                    <p>This is the bee that you just saw.</p>\n                    <img src=\"bees-with-color/bee-B1SF.svg\" width=\"200\">\n                    <p><span class=\"greenText\"><b>Successful harvest!</b></span><br>Your pay has increased by $0.02. Your bonus pay is now $1.00.</p>\n            ","response":0,"trial_type":"html-button-response","trial_index":134,"time_elapsed":853692,"internal_node_id":"0.0-4.0-1.63","subject_id":"60352627fdd89aa8314af71b","study_id":"6197b3f67c2b5cd3b6d9596a","session_id":"619be3f57374a283f56cd098","condition":"contingent","relevant_dimensions":["pattern","legs"],"bee_group":{"antennae":"X","wings":"X","pattern":"S","legs":"M"},"bonus":1.4600000000000013},{"rt":20692.399999976158,"stimulus":"You have completed the first part of this experiment.<br><br>You will now begin a shorter second part, in which you will receive no feedback.<br>The same rules regarding bonus pay apply.<br><br>Press any key to begin.","response":" ","trial_type":"html-keyboard-response","trial_index":135,"time_elapsed":874385,"internal_node_id":"0.0-5.0","subject_id":"60352627fdd89aa8314af71b","study_id":"6197b3f67c2b5cd3b6d9596a","session_id":"619be3f57374a283f56cd098","condition":"contingent","relevant_dimensions":["pattern","legs"],"bee_group":{"antennae":"X","wings":"X","pattern":"S","legs":"M"},"bonus":1.4600000000000013},{"rt":3626.3000000715256,"stimulus":"bees-with-color/bee-B2SF.svg","response":0,"trial_type":"image-button-response","trial_index":136,"time_elapsed":878021,"internal_node_id":"0.0-6.0-0.0","subject_id":"60352627fdd89aa8314af71b","study_id":"6197b3f67c2b5cd3b6d9596a","session_id":"619be3f57374a283f56cd098","condition":"contingent","relevant_dimensions":["pattern","legs"],"bee_group":{"antennae":"X","wings":"X","pattern":"S","legs":"M"},"bonus":1.4600000000000013},{"rt":3039.600000023842,"stimulus":"bees-with-color/bee-A2SM.svg","response":1,"trial_type":"image-button-response","trial_index":137,"time_elapsed":881065,"internal_node_id":"0.0-6.0-0.1","subject_id":"60352627fdd89aa8314af71b","study_id":"6197b3f67c2b5cd3b6d9596a","session_id":"619be3f57374a283f56cd098","condition":"contingent","relevant_dimensions":["pattern","legs"],"bee_group":{"antennae":"X","wings":"X","pattern":"S","legs":"M"},"bonus":1.4600000000000013},{"rt":1188.2000000476837,"stimulus":"bees-with-color/bee-B2DM.svg","response":0,"trial_type":"image-button-response","trial_index":138,"time_elapsed":882255,"internal_node_id":"0.0-6.0-0.2","subject_id":"60352627fdd89aa8314af71b","study_id":"6197b3f67c2b5cd3b6d9596a","session_id":"619be3f57374a283f56cd098","condition":"contingent","relevant_dimensions":["pattern","legs"],"bee_group":{"antennae":"X","wings":"X","pattern":"S","legs":"M"},"bonus":1.4600000000000013},{"rt":1541.3999999761581,"stimulus":"bees-with-color/bee-A1DF.svg","response":0,"trial_type":"image-button-response","trial_index":139,"time_elapsed":883798,"internal_node_id":"0.0-6.0-0.3","subject_id":"60352627fdd89aa8314af71b","study_id":"6197b3f67c2b5cd3b6d9596a","session_id":"619be3f57374a283f56cd098","condition":"contingent","relevant_dimensions":["pattern","legs"],"bee_group":{"antennae":"X","wings":"X","pattern":"S","legs":"M"},"bonus":1.4600000000000013},{"rt":1324.6000000238419,"stimulus":"bees-with-color/bee-B2SM.svg","response":1,"trial_type":"image-button-response","trial_index":140,"time_elapsed":885124,"internal_node_id":"0.0-6.0-0.4","subject_id":"60352627fdd89aa8314af71b","study_id":"6197b3f67c2b5cd3b6d9596a","session_id":"619be3f57374a283f56cd098","condition":"contingent","relevant_dimensions":["pattern","legs"],"bee_group":{"antennae":"X","wings":"X","pattern":"S","legs":"M"},"bonus":1.4600000000000013},{"rt":1044.7000000476837,"stimulus":"bees-with-color/bee-B1DF.svg","response":0,"trial_type":"image-button-response","trial_index":141,"time_elapsed":886171,"internal_node_id":"0.0-6.0-0.5","subject_id":"60352627fdd89aa8314af71b","study_id":"6197b3f67c2b5cd3b6d9596a","session_id":"619be3f57374a283f56cd098","condition":"contingent","relevant_dimensions":["pattern","legs"],"bee_group":{"antennae":"X","wings":"X","pattern":"S","legs":"M"},"bonus":1.4600000000000013},{"rt":1593.2000000476837,"stimulus":"bees-with-color/bee-B1SF.svg","response":0,"trial_type":"image-button-response","trial_index":142,"time_elapsed":887766,"internal_node_id":"0.0-6.0-0.6","subject_id":"60352627fdd89aa8314af71b","study_id":"6197b3f67c2b5cd3b6d9596a","session_id":"619be3f57374a283f56cd098","condition":"contingent","relevant_dimensions":["pattern","legs"],"bee_group":{"antennae":"X","wings":"X","pattern":"S","legs":"M"},"bonus":1.4600000000000013},{"rt":3176.5,"stimulus":"bees-with-color/bee-A2SF.svg","response":1,"trial_type":"image-button-response","trial_index":143,"time_elapsed":890945,"internal_node_id":"0.0-6.0-0.7","subject_id":"60352627fdd89aa8314af71b","study_id":"6197b3f67c2b5cd3b6d9596a","session_id":"619be3f57374a283f56cd098","condition":"contingent","relevant_dimensions":["pattern","legs"],"bee_group":{"antennae":"X","wings":"X","pattern":"S","legs":"M"},"bonus":1.4600000000000013},{"rt":1495.2999999523163,"stimulus":"bees-with-color/bee-A1SF.svg","response":0,"trial_type":"image-button-response","trial_index":144,"time_elapsed":892442,"internal_node_id":"0.0-6.0-0.8","subject_id":"60352627fdd89aa8314af71b","study_id":"6197b3f67c2b5cd3b6d9596a","session_id":"619be3f57374a283f56cd098","condition":"contingent","relevant_dimensions":["pattern","legs"],"bee_group":{"antennae":"X","wings":"X","pattern":"S","legs":"M"},"bonus":1.4600000000000013},{"rt":1306.2000000476837,"stimulus":"bees-with-color/bee-A1DM.svg","response":0,"trial_type":"image-button-response","trial_index":145,"time_elapsed":893749,"internal_node_id":"0.0-6.0-0.9","subject_id":"60352627fdd89aa8314af71b","study_id":"6197b3f67c2b5cd3b6d9596a","session_id":"619be3f57374a283f56cd098","condition":"contingent","relevant_dimensions":["pattern","legs"],"bee_group":{"antennae":"X","wings":"X","pattern":"S","legs":"M"},"bonus":1.4600000000000013},{"rt":619.5,"stimulus":"bees-with-color/bee-A2DM.svg","response":0,"trial_type":"image-button-response","trial_index":146,"time_elapsed":894371,"internal_node_id":"0.0-6.0-0.10","subject_id":"60352627fdd89aa8314af71b","study_id":"6197b3f67c2b5cd3b6d9596a","session_id":"619be3f57374a283f56cd098","condition":"contingent","relevant_dimensions":["pattern","legs"],"bee_group":{"antennae":"X","wings":"X","pattern":"S","legs":"M"},"bonus":1.4600000000000013},{"rt":587.6000000238419,"stimulus":"bees-with-color/bee-B1DM.svg","response":0,"trial_type":"image-button-response","trial_index":147,"time_elapsed":894960,"internal_node_id":"0.0-6.0-0.11","subject_id":"60352627fdd89aa8314af71b","study_id":"6197b3f67c2b5cd3b6d9596a","session_id":"619be3f57374a283f56cd098","condition":"contingent","relevant_dimensions":["pattern","legs"],"bee_group":{"antennae":"X","wings":"X","pattern":"S","legs":"M"},"bonus":1.4600000000000013},{"rt":1544.7999999523163,"stimulus":"bees-with-color/bee-B1SM.svg","response":1,"trial_type":"image-button-response","trial_index":148,"time_elapsed":896506,"internal_node_id":"0.0-6.0-0.12","subject_id":"60352627fdd89aa8314af71b","study_id":"6197b3f67c2b5cd3b6d9596a","session_id":"619be3f57374a283f56cd098","condition":"contingent","relevant_dimensions":["pattern","legs"],"bee_group":{"antennae":"X","wings":"X","pattern":"S","legs":"M"},"bonus":1.4600000000000013},{"rt":2092.600000023842,"stimulus":"bees-with-color/bee-B2DF.svg","response":0,"trial_type":"image-button-response","trial_index":149,"time_elapsed":898600,"internal_node_id":"0.0-6.0-0.13","subject_id":"60352627fdd89aa8314af71b","study_id":"6197b3f67c2b5cd3b6d9596a","session_id":"619be3f57374a283f56cd098","condition":"contingent","relevant_dimensions":["pattern","legs"],"bee_group":{"antennae":"X","wings":"X","pattern":"S","legs":"M"},"bonus":1.4600000000000013},{"rt":3540,"stimulus":"bees-with-color/bee-A1SM.svg","response":1,"trial_type":"image-button-response","trial_index":150,"time_elapsed":902142,"internal_node_id":"0.0-6.0-0.14","subject_id":"60352627fdd89aa8314af71b","study_id":"6197b3f67c2b5cd3b6d9596a","session_id":"619be3f57374a283f56cd098","condition":"contingent","relevant_dimensions":["pattern","legs"],"bee_group":{"antennae":"X","wings":"X","pattern":"S","legs":"M"},"bonus":1.4600000000000013},{"rt":827.2999999523163,"stimulus":"bees-with-color/bee-A2DF.svg","response":0,"trial_type":"image-button-response","trial_index":151,"time_elapsed":902971,"internal_node_id":"0.0-6.0-0.15","subject_id":"60352627fdd89aa8314af71b","study_id":"6197b3f67c2b5cd3b6d9596a","session_id":"619be3f57374a283f56cd098","condition":"contingent","relevant_dimensions":["pattern","legs"],"bee_group":{"antennae":"X","wings":"X","pattern":"S","legs":"M"},"bonus":1.4600000000000013},{"rt":1625.8999999761581,"stimulus":"bees-with-color/bee-B1SM.svg","response":1,"trial_type":"image-button-response","trial_index":152,"time_elapsed":904598,"internal_node_id":"0.0-6.0-0.16","subject_id":"60352627fdd89aa8314af71b","study_id":"6197b3f67c2b5cd3b6d9596a","session_id":"619be3f57374a283f56cd098","condition":"contingent","relevant_dimensions":["pattern","legs"],"bee_group":{"antennae":"X","wings":"X","pattern":"S","legs":"M"},"bonus":1.4600000000000013},{"rt":1026.5,"stimulus":"bees-with-color/bee-B2DF.svg","response":0,"trial_type":"image-button-response","trial_index":153,"time_elapsed":905627,"internal_node_id":"0.0-6.0-0.17","subject_id":"60352627fdd89aa8314af71b","study_id":"6197b3f67c2b5cd3b6d9596a","session_id":"619be3f57374a283f56cd098","condition":"contingent","relevant_dimensions":["pattern","legs"],"bee_group":{"antennae":"X","wings":"X","pattern":"S","legs":"M"},"bonus":1.4600000000000013},{"rt":649.8000000715256,"stimulus":"bees-with-color/bee-A2DF.svg","response":0,"trial_type":"image-button-response","trial_index":154,"time_elapsed":906279,"internal_node_id":"0.0-6.0-0.18","subject_id":"60352627fdd89aa8314af71b","study_id":"6197b3f67c2b5cd3b6d9596a","session_id":"619be3f57374a283f56cd098","condition":"contingent","relevant_dimensions":["pattern","legs"],"bee_group":{"antennae":"X","wings":"X","pattern":"S","legs":"M"},"bonus":1.4600000000000013},{"rt":4376.899999976158,"stimulus":"bees-with-color/bee-A2SF.svg","response":0,"trial_type":"image-button-response","trial_index":155,"time_elapsed":910657,"internal_node_id":"0.0-6.0-0.19","subject_id":"60352627fdd89aa8314af71b","study_id":"6197b3f67c2b5cd3b6d9596a","session_id":"619be3f57374a283f56cd098","condition":"contingent","relevant_dimensions":["pattern","legs"],"bee_group":{"antennae":"X","wings":"X","pattern":"S","legs":"M"},"bonus":1.4600000000000013},{"rt":2400.100000023842,"stimulus":"bees-with-color/bee-B2SM.svg","response":1,"trial_type":"image-button-response","trial_index":156,"time_elapsed":913059,"internal_node_id":"0.0-6.0-0.20","subject_id":"60352627fdd89aa8314af71b","study_id":"6197b3f67c2b5cd3b6d9596a","session_id":"619be3f57374a283f56cd098","condition":"contingent","relevant_dimensions":["pattern","legs"],"bee_group":{"antennae":"X","wings":"X","pattern":"S","legs":"M"},"bonus":1.4600000000000013},{"rt":5663.200000047684,"stimulus":"bees-with-color/bee-A1SF.svg","response":0,"trial_type":"image-button-response","trial_index":157,"time_elapsed":918724,"internal_node_id":"0.0-6.0-0.21","subject_id":"60352627fdd89aa8314af71b","study_id":"6197b3f67c2b5cd3b6d9596a","session_id":"619be3f57374a283f56cd098","condition":"contingent","relevant_dimensions":["pattern","legs"],"bee_group":{"antennae":"X","wings":"X","pattern":"S","legs":"M"},"bonus":1.4600000000000013},{"rt":10110.700000047684,"stimulus":"bees-with-color/bee-B2SF.svg","response":0,"trial_type":"image-button-response","trial_index":158,"time_elapsed":928837,"internal_node_id":"0.0-6.0-0.22","subject_id":"60352627fdd89aa8314af71b","study_id":"6197b3f67c2b5cd3b6d9596a","session_id":"619be3f57374a283f56cd098","condition":"contingent","relevant_dimensions":["pattern","legs"],"bee_group":{"antennae":"X","wings":"X","pattern":"S","legs":"M"},"bonus":1.4600000000000013},{"rt":1159,"stimulus":"bees-with-color/bee-B1SF.svg","response":0,"trial_type":"image-button-response","trial_index":159,"time_elapsed":929998,"internal_node_id":"0.0-6.0-0.23","subject_id":"60352627fdd89aa8314af71b","study_id":"6197b3f67c2b5cd3b6d9596a","session_id":"619be3f57374a283f56cd098","condition":"contingent","relevant_dimensions":["pattern","legs"],"bee_group":{"antennae":"X","wings":"X","pattern":"S","legs":"M"},"bonus":1.4600000000000013},{"rt":2578.0999999046326,"stimulus":"bees-with-color/bee-B2DM.svg","response":0,"trial_type":"image-button-response","trial_index":160,"time_elapsed":932578,"internal_node_id":"0.0-6.0-0.24","subject_id":"60352627fdd89aa8314af71b","study_id":"6197b3f67c2b5cd3b6d9596a","session_id":"619be3f57374a283f56cd098","condition":"contingent","relevant_dimensions":["pattern","legs"],"bee_group":{"antennae":"X","wings":"X","pattern":"S","legs":"M"},"bonus":1.4600000000000013},{"rt":1349.8000000715256,"stimulus":"bees-with-color/bee-A2SM.svg","response":1,"