[{"success":true,"trial_type":"fullscreen","trial_index":0,"time_elapsed":4149,"internal_node_id":"0.0-0.0","subject_id":"60ffe904432e387cabb282b3","study_id":"6197b3f67c2b5cd3b6d9596a","session_id":"6197b9ece104781dd5d7985c","condition":"full-information","relevant_dimensions":["wings","pattern"],"bee_group":{"antennae":"X","wings":"1","pattern":"S","legs":"X"},"bonus":1.040000000000001},{"success":true,"timeout":false,"failed_images":[],"failed_audio":[],"failed_video":[],"trial_type":"preload","trial_index":1,"time_elapsed":5649,"internal_node_id":"0.0-1.0","subject_id":"60ffe904432e387cabb282b3","study_id":"6197b3f67c2b5cd3b6d9596a","session_id":"6197b9ece104781dd5d7985c","condition":"full-information","relevant_dimensions":["wings","pattern"],"bee_group":{"antennae":"X","wings":"1","pattern":"S","legs":"X"},"bonus":1.040000000000001},{"rt":2149.5,"stimulus":"Welcome! Press any key to begin.","response":" ","trial_type":"html-keyboard-response","trial_index":2,"time_elapsed":7801,"internal_node_id":"0.0-2.0","subject_id":"60ffe904432e387cabb282b3","study_id":"6197b3f67c2b5cd3b6d9596a","session_id":"6197b9ece104781dd5d7985c","condition":"full-information","relevant_dimensions":["wings","pattern"],"bee_group":{"antennae":"X","wings":"1","pattern":"S","legs":"X"},"bonus":1.040000000000001},{"view_history":[{"page_index":0,"viewing_time":2713.5999999046326},{"page_index":1,"viewing_time":10103.200000047684},{"page_index":2,"viewing_time":14404.700000047684},{"page_index":3,"viewing_time":7481},{"page_index":4,"viewing_time":7350.599999904633},{"page_index":5,"viewing_time":5842.100000143051},{"page_index":6,"viewing_time":8849.399999856949},{"page_index":7,"viewing_time":12687.700000047684},{"page_index":8,"viewing_time":2144.2000000476837},{"page_index":9,"viewing_time":41.59999990463257},{"page_index":10,"viewing_time":1511.7000000476837},{"page_index":11,"viewing_time":6833},{"page_index":12,"viewing_time":6748.600000143051},{"page_index":13,"viewing_time":3729.7999999523163},{"page_index":14,"viewing_time":2552.5}],"rt":92994.40000009537,"trial_type":"instructions","trial_index":3,"time_elapsed":100796,"internal_node_id":"0.0-3.0-0.0","subject_id":"60ffe904432e387cabb282b3","study_id":"6197b3f67c2b5cd3b6d9596a","session_id":"6197b9ece104781dd5d7985c","condition":"full-information","relevant_dimensions":["wings","pattern"],"bee_group":{"antennae":"X","wings":"1","pattern":"S","legs":"X"},"bonus":1.040000000000001},{"rt":10217.599999904633,"response":{"Q0":["Two or six legs","Single or double wings","Antennae or no antennae"]},"question_order":[0],"trial_type":"survey-multi-select","trial_index":4,"time_elapsed":111020,"internal_node_id":"0.0-3.0-1.0","subject_id":"60ffe904432e387cabb282b3","study_id":"6197b3f67c2b5cd3b6d9596a","session_id":"6197b9ece104781dd5d7985c","condition":"full-information","relevant_dimensions":["wings","pattern"],"bee_group":{"antennae":"X","wings":"1","pattern":"S","legs":"X"},"correct":false,"bonus":1.040000000000001},{"rt":19599.5,"response":{"Q1":"No.","Q2":"Based on the four features of the bee.","Q3":"You learn if it was friendly or dangerous, but do not alter your bonus."},"question_order":[0,1,2],"trial_type":"survey-multi-choice","trial_index":5,"time_elapsed":130622,"internal_node_id":"0.0-3.0-2.0","subject_id":"60ffe904432e387cabb282b3","study_id":"6197b3f67c2b5cd3b6d9596a","session_id":"6197b9ece104781dd5d7985c","condition":"full-information","relevant_dimensions":["wings","pattern"],"bee_group":{"antennae":"X","wings":"1","pattern":"S","legs":"X"},"correct":true,"bonus":1.040000000000001},{"rt":4438.099999904633,"stimulus":"<p>You did not answer all comprehension questions correctly.<br>Press <b>continue</b> to review the instructions again.</p>","response":0,"trial_type":"html-button-response","trial_index":6,"time_elapsed":135064,"internal_node_id":"0.0-3.0-3.0","subject_id":"60ffe904432e387cabb282b3","study_id":"6197b3f67c2b5cd3b6d9596a","session_id":"6197b9ece104781dd5d7985c","condition":"full-information","relevant_dimensions":["wings","pattern"],"bee_group":{"antennae":"X","wings":"1","pattern":"S","legs":"X"},"bonus":1.040000000000001},{"view_history":[{"page_index":0,"viewing_time":1266.7000000476837},{"page_index":1,"viewing_time":1656.2000000476837},{"page_index":2,"viewing_time":81466.39999985695},{"page_index":3,"viewing_time":5105.900000095367},{"page_index":4,"viewing_time":11030.400000095367},{"page_index":5,"viewing_time":5551.399999856949},{"page_index":6,"viewing_time":5541.299999952316},{"page_index":7,"viewing_time":3315},{"page_index":8,"viewing_time":2752},{"page_index":9,"viewing_time":2074.100000143051},{"page_index":10,"viewing_time":1161},{"page_index":11,"viewing_time":2086.0999999046326},{"page_index":12,"viewing_time":1375},{"page_index":13,"viewing_time":1948.2999999523163},{"page_index":14,"viewing_time":836.8000001907349}],"rt":127167.40000009537,"trial_type":"instructions","trial_index":7,"time_elapsed":262234,"internal_node_id":"0.0-3.0-4.0-0.0","subject_id":"60ffe904432e387cabb282b3","study_id":"6197b3f67c2b5cd3b6d9596a","session_id":"6197b9ece104781dd5d7985c","condition":"full-information","relevant_dimensions":["wings","pattern"],"bee_group":{"antennae":"X","wings":"1","pattern":"S","legs":"X"},"bonus":1.040000000000001},{"rt":16695.200000047684,"response":{"Q0":["Two or six legs","Stripes or spots on body","Single or double wings","Antennae or no antennae"]},"question_order":[0],"trial_type":"survey-multi-select","trial_index":8,"time_elapsed":278939,"internal_node_id":"0.0-3.0-4.0-1.0","subject_id":"60ffe904432e387cabb282b3","study_id":"6197b3f67c2b5cd3b6d9596a","session_id":"6197b9ece104781dd5d7985c","condition":"full-information","relevant_dimensions":["wings","pattern"],"bee_group":{"antennae":"X","wings":"1","pattern":"S","legs":"X"},"correct":true,"bonus":1.040000000000001},{"rt":9321,"response":{"Q1":"No.","Q2":"Based on the four features of the bee.","Q3":"You learn if it was friendly or dangerous, but do not alter your bonus."},"question_order":[0,1,2],"trial_type":"survey-multi-choice","trial_index":9,"time_elapsed":288263,"internal_node_id":"0.0-3.0-4.0-2.0","subject_id":"60ffe904432e387cabb282b3","study_id":"6197b3f67c2b5cd3b6d9596a","session_id":"6197b9ece104781dd5d7985c","condition":"full-information","relevant_dimensions":["wings","pattern"],"bee_group":{"antennae":"X","wings":"1","pattern":"S","legs":"X"},"correct":true,"bonus":1.040000000000001},{"rt":5691.5,"stimulus":"<p>Congrats, you got everything right<br>When you're ready, click the button below to continue to the experiment.</p>","response":0,"trial_type":"html-button-response","trial_index":10,"time_elapsed":293957,"internal_node_id":"0.0-3.0-4.0-3.0","subject_id":"60ffe904432e387cabb282b3","study_id":"6197b3f67c2b5cd3b6d9596a","session_id":"6197b9ece104781dd5d7985c","condition":"full-information","relevant_dimensions":["wings","pattern"],"bee_group":{"antennae":"X","wings":"1","pattern":"S","legs":"X"},"bonus":1.040000000000001},{"rt":7011.5,"stimulus":"bees-with-color/bee-A2DF.svg","response":1,"trial_type":"image-button-response","trial_index":11,"time_elapsed":300973,"internal_node_id":"0.0-4.0-0.0","subject_id":"60ffe904432e387cabb282b3","study_id":"6197b3f67c2b5cd3b6d9596a","session_id":"6197b9ece104781dd5d7985c","condition":"full-information","relevant_dimensions":["wings","pattern"],"bee_group":{"antennae":"X","wings":"1","pattern":"S","legs":"X"},"action":"avoid","summary":"bad-avoid","bonus":1.040000000000001},{"rt":12762,"stimulus":"\n                    <p><b>Action: <em>avoid</em></b></p>\n                    <p>This is the bee that you just saw.</p>\n                    <img src=\"bees-with-color/bee-A2DF.svg\" width=\"200\">\n                    <p><span class=\"redText\">Bad choice,</span> the bee was friendly.<br>Your bonus pay is unchanged, and remains at $0.54.</p>\n            ","response":0,"trial_type":"html-button-response","trial_index":12,"time_elapsed":313743,"internal_node_id":"0.0-4.0-1.0","subject_id":"60ffe904432e387cabb282b3","study_id":"6197b3f67c2b5cd3b6d9596a","session_id":"6197b9ece104781dd5d7985c","condition":"full-information","relevant_dimensions":["wings","pattern"],"bee_group":{"antennae":"X","wings":"1","pattern":"S","legs":"X"},"bonus":1.040000000000001},{"rt":4578.699999809265,"stimulus":"bees-with-color/bee-B2DF.svg","response":1,"trial_type":"image-button-response","trial_index":13,"time_elapsed":318329,"internal_node_id":"0.0-4.0-0.1","subject_id":"60ffe904432e387cabb282b3","study_id":"6197b3f67c2b5cd3b6d9596a","session_id":"6197b9ece104781dd5d7985c","condition":"full-information","relevant_dimensions":["wings","pattern"],"bee_group":{"antennae":"X","wings":"1","pattern":"S","legs":"X"},"action":"avoid","summary":"bad-avoid","bonus":1.040000000000001},{"rt":5089.5,"stimulus":"\n                    <p><b>Action: <em>avoid</em></b></p>\n                    <p>This is the bee that you just saw.</p>\n                    <img src=\"bees-with-color/bee-B2DF.svg\" width=\"200\">\n                    <p><span class=\"redText\">Bad choice,</span> the bee was friendly.<br>Your bonus pay is unchanged, and remains at $0.54.</p>\n            ","response":0,"trial_type":"html-button-response","trial_index":14,"time_elapsed":323424,"internal_node_id":"0.0-4.0-1.1","subject_id":"60ffe904432e387cabb282b3","study_id":"6197b3f67c2b5cd3b6d9596a","session_id":"6197b9ece104781dd5d7985c","condition":"full-information","relevant_dimensions":["wings","pattern"],"bee_group":{"antennae":"X","wings":"1","pattern":"S","legs":"X"},"bonus":1.040000000000001},{"rt":4343.799999952316,"stimulus":"bees-with-color/bee-B2DM.svg","response":0,"trial_type":"image-button-response","trial_index":15,"time_elapsed":327773,"internal_node_id":"0.0-4.0-0.2","subject_id":"60ffe904432e387cabb282b3","study_id":"6197b3f67c2b5cd3b6d9596a","session_id":"6197b9ece104781dd5d7985c","condition":"full-information","relevant_dimensions":["wings","pattern"],"bee_group":{"antennae":"X","wings":"1","pattern":"S","legs":"X"},"action":"harvest","summary":"good-harvest","bonus":1.040000000000001},{"rt":1681.3999998569489,"stimulus":"\n                    <p><b>Action: <em>harvest</em></b></p>\n                    <p>This is the bee that you just saw.</p>\n                    <img src=\"bees-with-color/bee-B2DM.svg\" width=\"200\">\n                    <p><span class=\"greenText\"><b>Successful harvest!</b></span><br>Your pay has increased by $0.02. Your bonus pay is now $0.56.</p>\n            ","response":0,"trial_type":"html-button-response","trial_index":16,"time_elapsed":329458,"internal_node_id":"0.0-4.0-1.2","subject_id":"60ffe904432e387cabb282b3","study_id":"6197b3f67c2b5cd3b6d9596a","session_id":"6197b9ece104781dd5d7985c","condition":"full-information","relevant_dimensions":["wings","pattern"],"bee_group":{"antennae":"X","wings":"1","pattern":"S","legs":"X"},"bonus":1.040000000000001},{"rt":4153.199999809265,"stimulus":"bees-with-color/bee-B1SM.svg","response":1,"trial_type":"image-button-response","trial_index":17,"time_elapsed":333615,"internal_node_id":"0.0-4.0-0.3","subject_id":"60ffe904432e387cabb282b3","study_id":"6197b3f67c2b5cd3b6d9596a","session_id":"6197b9ece104781dd5d7985c","condition":"full-information","relevant_dimensions":["wings","pattern"],"bee_group":{"antennae":"X","wings":"1","pattern":"S","legs":"X"},"action":"avoid","summary":"good-avoid","bonus":1.040000000000001},{"rt":3542.0999999046326,"stimulus":"\n                    <p><b>Action: <em>avoid</em></b></p>\n                    <p>This is the bee that you just saw.</p>\n                    <img src=\"bees-with-color/bee-B1SM.svg\" width=\"200\">\n                    <p><span class=\"greenText\">Good choice!</span>  This bee would have stung you.<br>Your bonus pay is unchanged, and remains at $0.56.</p>\n            ","response":0,"trial_type":"html-button-response","trial_index":18,"time_elapsed":337160,"internal_node_id":"0.0-4.0-1.3","subject_id":"60ffe904432e387cabb282b3","study_id":"6197b3f67c2b5cd3b6d9596a","session_id":"6197b9ece104781dd5d7985c","condition":"full-information","relevant_dimensions":["wings","pattern"],"bee_group":{"antennae":"X","wings":"1","pattern":"S","legs":"X"},"bonus":1.040000000000001},{"rt":1842.9000000953674,"stimulus":"bees-with-color/bee-B2SM.svg","response":1,"trial_type":"image-button-response","trial_index":19,"time_elapsed":339007,"internal_node_id":"0.0-4.0-0.4","subject_id":"60ffe904432e387cabb282b3","study_id":"6197b3f67c2b5cd3b6d9596a","session_id":"6197b9ece104781dd5d7985c","condition":"full-information","relevant_dimensions":["wings","pattern"],"bee_group":{"antennae":"X","wings":"1","pattern":"S","legs":"X"},"action":"avoid","summary":"bad-avoid","bonus":1.040000000000001},{"rt":4710.700000047684,"stimulus":"\n                    <p><b>Action: <em>avoid</em></b></p>\n                    <p>This is the bee that you just saw.</p>\n                    <img src=\"bees-with-color/bee-B2SM.svg\" width=\"200\">\n                    <p><span class=\"redText\">Bad choice,</span> the bee was friendly.<br>Your bonus pay is unchanged, and remains at $0.56.</p>\n            ","response":0,"trial_type":"html-button-response","trial_index":20,"time_elapsed":343721,"internal_node_id":"0.0-4.0-1.4","subject_id":"60ffe904432e387cabb282b3","study_id":"6197b3f67c2b5cd3b6d9596a","session_id":"6197b9ece104781dd5d7985c","condition":"full-information","relevant_dimensions":["wings","pattern"],"bee_group":{"antennae":"X","wings":"1","pattern":"S","legs":"X"},"bonus":1.040000000000001},{"rt":2240.7999999523163,"stimulus":"bees-with-color/bee-B1DM.svg","response":0,"trial_type":"image-button-response","trial_index":21,"time_elapsed":345967,"internal_node_id":"0.0-4.0-0.5","subject_id":"60ffe904432e387cabb282b3","study_id":"6197b3f67c2b5cd3b6d9596a","session_id":"6197b9ece104781dd5d7985c","condition":"full-information","relevant_dimensions":["wings","pattern"],"bee_group":{"antennae":"X","wings":"1","pattern":"S","legs":"X"},"action":"harvest","summary":"good-harvest","bonus":1.040000000000001},{"rt":1420.7999999523163,"stimulus":"\n                    <p><b>Action: <em>harvest</em></b></p>\n                    <p>This is the bee that you just saw.</p>\n                    <img src=\"bees-with-color/bee-B1DM.svg\" width=\"200\">\n                    <p><span class=\"greenText\"><b>Successful harvest!</b></span><br>Your pay has increased by $0.02. Your bonus pay is now $0.58.</p>\n            ","response":0,"trial_type":"html-button-response","trial_index":22,"time_elapsed":347391,"internal_node_id":"0.0-4.0-1.5","subject_id":"60ffe904432e387cabb282b3","study_id":"6197b3f67c2b5cd3b6d9596a","session_id":"6197b9ece104781dd5d7985c","condition":"full-information","relevant_dimensions":["wings","pattern"],"bee_group":{"antennae":"X","wings":"1","pattern":"S","legs":"X"},"bonus":1.040000000000001},{"rt":1719.8000001907349,"stimulus":"bees-with-color/bee-A2SF.svg","response":1,"trial_type":"image-button-response","trial_index":23,"time_elapsed":349115,"internal_node_id":"0.0-4.0-0.6","subject_id":"60ffe904432e387cabb282b3","study_id":"6197b3f67c2b5cd3b6d9596a","session_id":"6197b9ece104781dd5d7985c","condition":"full-information","relevant_dimensions":["wings","pattern"],"bee_group":{"antennae":"X","wings":"1","pattern":"S","legs":"X"},"action":"avoid","summary":"bad-avoid","bonus":1.040000000000001},{"rt":3432,"stimulus":"\n                    <p><b>Action: <em>avoid</em></b></p>\n                    <p>This is the bee that you just saw.</p>\n                    <img src=\"bees-with-color/bee-A2SF.svg\" width=\"200\">\n                    <p><span class=\"redText\">Bad choice,</span> the bee was friendly.<br>Your bonus pay is unchanged, and remains at $0.58.</p>\n            ","response":0,"trial_type":"html-button-response","trial_index":24,"time_elapsed":352551,"internal_node_id":"0.0-4.0-1.6","subject_id":"60ffe904432e387cabb282b3","study_id":"6197b3f67c2b5cd3b6d9596a","session_id":"6197b9ece104781dd5d7985c","condition":"full-information","relevant_dimensions":["wings","pattern"],"bee_group":{"antennae":"X","wings":"1","pattern":"S","legs":"X"},"bonus":1.040000000000001},{"rt":5466.799999952316,"stimulus":"bees-with-color/bee-A1SM.svg","response":1,"trial_type":"image-button-response","trial_index":25,"time_elapsed":358021,"internal_node_id":"0.0-4.0-0.7","subject_id":"60ffe904432e387cabb282b3","study_id":"6197b3f67c2b5cd3b6d9596a","session_id":"6197b9ece104781dd5d7985c","condition":"full-information","relevant_dimensions":["wings","pattern"],"bee_group":{"antennae":"X","wings":"1","pattern":"S","legs":"X"},"action":"avoid","summary":"good-avoid","bonus":1.040000000000001},{"rt":1511.7000000476837,"stimulus":"\n                    <p><b>Action: <em>avoid</em></b></p>\n                    <p>This is the bee that you just saw.</p>\n                    <img src=\"bees-with-color/bee-A1SM.svg\" width=\"200\">\n                    <p><span class=\"greenText\">Good choice!</span>  This bee would have stung you.<br>Your bonus pay is unchanged, and remains at $0.58.</p>\n            ","response":0,"trial_type":"html-button-response","trial_index":26,"time_elapsed":359535,"internal_node_id":"0.0-4.0-1.7","subject_id":"60ffe904432e387cabb282b3","study_id":"6197b3f67c2b5cd3b6d9596a","session_id":"6197b9ece104781dd5d7985c","condition":"full-information","relevant_dimensions":["wings","pattern"],"bee_group":{"antennae":"X","wings":"1","pattern":"S","legs":"X"},"bonus":1.040000000000001},{"rt":3480.199999809265,"stimulus":"bees-with-color/bee-B2SF.svg","response":1,"trial_type":"image-button-response","trial_index":27,"time_elapsed":363020,"internal_node_id":"0.0-4.0-0.8","subject_id":"60ffe904432e387cabb282b3","study_id":"6197b3f67c2b5cd3b6d9596a","session_id":"6197b9ece104781dd5d7985c","condition":"full-information","relevant_dimensions":["wings","pattern"],"bee_group":{"antennae":"X","wings":"1","pattern":"S","legs":"X"},"action":"avoid","summary":"bad-avoid","bonus":1.040000000000001},{"rt":1892.4000000953674,"stimulus":"\n                    <p><b>Action: <em>avoid</em></b></p>\n                    <p>This is the bee that you just saw.</p>\n                    <img src=\"bees-with-color/bee-B2SF.svg\" width=\"200\">\n                    <p><span class=\"redText\">Bad choice,</span> the bee was friendly.<br>Your bonus pay is unchanged, and remains at $0.58.</p>\n            ","response":0,"trial_type":"html-button-response","trial_index":28,"time_elapsed":364914,"internal_node_id":"0.0-4.0-1.8","subject_id":"60ffe904432e387cabb282b3","study_id":"6197b3f67c2b5cd3b6d9596a","session_id":"6197b9ece104781dd5d7985c","condition":"full-information","relevant_dimensions":["wings","pattern"],"bee_group":{"antennae":"X","wings":"1","pattern":"S","legs":"X"},"bonus":1.040000000000001},{"rt":3068.9000000953674,"stimulus":"bees-with-color/bee-A1DF.svg","response":0,"trial_type":"image-button-response","trial_index":29,"time_elapsed":367986,"internal_node_id":"0.0-4.0-0.9","subject_id":"60ffe904432e387cabb282b3","study_id":"6197b3f67c2b5cd3b6d9596a","session_id":"6197b9ece104781dd5d7985c","condition":"full-information","relevant_dimensions":["wings","pattern"],"bee_group":{"antennae":"X","wings":"1","pattern":"S","legs":"X"},"action":"harvest","summary":"good-harvest","bonus":1.040000000000001},{"rt":1506.5,"stimulus":"\n                    <p><b>Action: <em>harvest</em></b></p>\n                    <p>This is the bee that you just saw.</p>\n                    <img src=\"bees-with-color/bee-A1DF.svg\" width=\"200\">\n                    <p><span class=\"greenText\"><b>Successful harvest!</b></span><br>Your pay has increased by $0.02. Your bonus pay is now $0.60.</p>\n            ","response":0,"trial_type":"html-button-response","trial_index":30,"time_elapsed":369496,"internal_node_id":"0.0-4.0-1.9","subject_id":"60ffe904432e387cabb282b3","study_id":"6197b3f67c2b5cd3b6d9596a","session_id":"6197b9ece104781dd5d7985c","condition":"full-information","relevant_dimensions":["wings","pattern"],"bee_group":{"antennae":"X","wings":"1","pattern":"S","legs":"X"},"bonus":1.040000000000001},{"rt":2344.0999999046326,"stimulus":"bees-with-color/bee-B1DF.svg","response":1,"trial_type":"image-button-response","trial_index":31,"time_elapsed":371841,"internal_node_id":"0.0-4.0-0.10","subject_id":"60ffe904432e387cabb282b3","study_id":"6197b3f67c2b5cd3b6d9596a","session_id":"6197b9ece104781dd5d7985c","condition":"full-information","relevant_dimensions":["wings","pattern"],"bee_group":{"antennae":"X","wings":"1","pattern":"S","legs":"X"},"action":"avoid","summary":"bad-avoid","bonus":1.040000000000001},{"rt":1595,"stimulus":"\n                    <p><b>Action: <em>avoid</em></b></p>\n                    <p>This is the bee that you just saw.</p>\n                    <img src=\"bees-with-color/bee-B1DF.svg\" width=\"200\">\n                    <p><span class=\"redText\">Bad choice,</span> the bee was friendly.<br>Your bonus pay is unchanged, and remains at $0.60.</p>\n            ","response":0,"trial_type":"html-button-response","trial_index":32,"time_elapsed":373440,"internal_node_id":"0.0-4.0-1.10","subject_id":"60ffe904432e387cabb282b3","study_id":"6197b3f67c2b5cd3b6d9596a","session_id":"6197b9ece104781dd5d7985c","condition":"full-information","relevant_dimensions":["wings","pattern"],"bee_group":{"antennae":"X","wings":"1","pattern":"S","legs":"X"},"bonus":1.040000000000001},{"rt":3475.600000143051,"stimulus":"bees-with-color/bee-A2SM.svg","response":1,"trial_type":"image-button-response","trial_index":33,"time_elapsed":376918,"internal_node_id":"0.0-4.0-0.11","subject_id":"60ffe904432e387cabb282b3","study_id":"6197b3f67c2b5cd3b6d9596a","session_id":"6197b9ece104781dd5d7985c","condition":"full-information","relevant_dimensions":["wings","pattern"],"bee_group":{"antennae":"X","wings":"1","pattern":"S","legs":"X"},"action":"avoid","summary":"bad-avoid","bonus":1.040000000000001},{"rt":1782.0999999046326,"stimulus":"\n                    <p><b>Action: <em>avoid</em></b></p>\n                    <p>This is the bee that you just saw.</p>\n                    <img src=\"bees-with-color/bee-A2SM.svg\" width=\"200\">\n                    <p><span class=\"redText\">Bad choice,</span> the bee was friendly.<br>Your bonus pay is unchanged, and remains at $0.60.</p>\n            ","response":0,"trial_type":"html-button-response","trial_index":34,"time_elapsed":378702,"internal_node_id":"0.0-4.0-1.11","subject_id":"60ffe904432e387cabb282b3","study_id":"6197b3f67c2b5cd3b6d9596a","session_id":"6197b9ece104781dd5d7985c","condition":"full-information","relevant_dimensions":["wings","pattern"],"bee_group":{"antennae":"X","wings":"1","pattern":"S","legs":"X"},"bonus":1.040000000000001},{"rt":3356.9000000953674,"stimulus":"bees-with-color/bee-A2DM.svg","response":0,"trial_type":"image-button-response","trial_index":35,"time_elapsed":382061,"internal_node_id":"0.0-4.0-0.12","subject_id":"60ffe904432e387cabb282b3","study_id":"6197b3f67c2b5cd3b6d9596a","session_id":"6197b9ece104781dd5d7985c","condition":"full-information","relevant_dimensions":["wings","pattern"],"bee_group":{"antennae":"X","wings":"1","pattern":"S","legs":"X"},"action":"harvest","summary":"good-harvest","bonus":1.040000000000001},{"rt":1391.6000001430511,"stimulus":"\n                    <p><b>Action: <em>harvest</em></b></p>\n                    <p>This is the bee that you just saw.</p>\n                    <img src=\"bees-with-color/bee-A2DM.svg\" width=\"200\">\n                    <p><span class=\"greenText\"><b>Successful harvest!</b></span><br>Your pay has increased by $0.02. Your bonus pay is now $0.62.</p>\n            ","response":0,"trial_type":"html-button-response","trial_index":36,"time_elapsed":383456,"internal_node_id":"0.0-4.0-1.12","subject_id":"60ffe904432e387cabb282b3","study_id":"6197b3f67c2b5cd3b6d9596a","session_id":"6197b9ece104781dd5d7985c","condition":"full-information","relevant_dimensions":["wings","pattern"],"bee_group":{"antennae":"X","wings":"1","pattern":"S","legs":"X"},"bonus":1.040000000000001},{"rt":3572.2999999523163,"stimulus":"bees-with-color/bee-A1SF.svg","response":1,"trial_type":"image-button-response","trial_index":37,"time_elapsed":387032,"internal_node_id":"0.0-4.0-0.13","subject_id":"60ffe904432e387cabb282b3","study_id":"6197b3f67c2b5cd3b6d9596a","session_id":"6197b9ece104781dd5d7985c","condition":"full-information","relevant_dimensions":["wings","pattern"],"bee_group":{"antennae":"X","wings":"1","pattern":"S","legs":"X"},"action":"avoid","summary":"good-avoid","bonus":1.040000000000001},{"rt":2298.800000190735,"stimulus":"\n                    <p><b>Action: <em>avoid</em></b></p>\n                    <p>This is the bee that you just saw.</p>\n                    <img src=\"bees-with-color/bee-A1SF.svg\" width=\"200\">\n                    <p><span class=\"greenText\">Good choice!</span>  This bee would have stung you.<br>Your bonus pay is unchanged, and remains at $0.62.</p>\n            ","response":0,"trial_type":"html-button-response","trial_index":38,"time_elapsed":389334,"internal_node_id":"0.0-4.0-1.13","subject_id":"60ffe904432e387cabb282b3","study_id":"6197b3f67c2b5cd3b6d9596a","session_id":"6197b9ece104781dd5d7985c","condition":"full-information","relevant_dimensions":["wings","pattern"],"bee_group":{"antennae":"X","wings":"1","pattern":"S","legs":"X"},"bonus":1.040000000000001},{"rt":4026.199999809265,"stimulus":"bees-with-color/bee-B1SF.svg","response":1,"trial_type":"image-button-response","trial_index":39,"time_elapsed":393366,"internal_node_id":"0.0-4.0-0.14","subject_id":"60ffe904432e387cabb282b3","study_id":"6197b3f67c2b5cd3b6d9596a","session_id":"6197b9ece104781dd5d7985c","condition":"full-information","relevant_dimensions":["wings","pattern"],"bee_group":{"antennae":"X","wings":"1","pattern":"S","legs":"X"},"action":"avoid","summary":"good-avoid","bonus":1.040000000000001},{"rt":1336.4000000953674,"stimulus":"\n                    <p><b>Action: <em>avoid</em></b></p>\n                    <p>This is the bee that you just saw.</p>\n                    <img src=\"bees-with-color/bee-B1SF.svg\" width=\"200\">\n                    <p><span class=\"greenText\">Good choice!</span>  This bee would have stung you.<br>Your bonus pay is unchanged, and remains at $0.62.</p>\n            ","response":0,"trial_type":"html-button-response","trial_index":40,"time_elapsed":394706,"internal_node_id":"0.0-4.0-1.14","subject_id":"60ffe904432e387cabb282b3","study_id":"6197b3f67c2b5cd3b6d9596a","session_id":"6197b9ece104781dd5d7985c","condition":"full-information","relevant_dimensions":["wings","pattern"],"bee_group":{"antennae":"X","wings":"1","pattern":"S","legs":"X"},"bonus":1.040000000000001},{"rt":2174.2000000476837,"stimulus":"bees-with-color/bee-A1DM.svg","response":0,"trial_type":"image-button-response","trial_index":41,"time_elapsed":396884,"internal_node_id":"0.0-4.0-0.15","subject_id":"60ffe904432e387cabb282b3","study_id":"6197b3f67c2b5cd3b6d9596a","session_id":"6197b9ece104781dd5d7985c","condition":"full-information","relevant_dimensions":["wings","pattern"],"bee_group":{"antennae":"X","wings":"1","pattern":"S","legs":"X"},"action":"harvest","summary":"good-harvest","bonus":1.040000000000001},{"rt":1338,"stimulus":"\n                    <p><b>Action: <em>harvest</em></b></p>\n                    <p>This is the bee that you just saw.</p>\n                    <img src=\"bees-with-color/bee-A1DM.svg\" width=\"200\">\n                    <p><span class=\"greenText\"><b>Successful harvest!</b></span><br>Your pay has increased by $0.02. Your bonus pay is now $0.64.</p>\n            ","response":0,"trial_type":"html-button-response","trial_index":42,"time_elapsed":398225,"internal_node_id":"0.0-4.0-1.15","subject_id":"60ffe904432e387cabb282b3","study_id":"6197b3f67c2b5cd3b6d9596a","session_id":"6197b9ece104781dd5d7985c","condition":"full-information","relevant_dimensions":["wings","pattern"],"bee_group":{"antennae":"X","wings":"1","pattern":"S","legs":"X"},"bonus":1.040000000000001},{"rt":4181.5,"stimulus":"bees-with-color/bee-B2SM.svg","response":0,"trial_type":"image-button-response","trial_index":43,"time_elapsed":402410,"internal_node_id":"0.0-4.0-0.16","subject_id":"60ffe904432e387cabb282b3","study_id":"6197b3f67c2b5cd3b6d9596a","session_id":"6197b9ece104781dd5d7985c","condition":"full-information","relevant_dimensions":["wings","pattern"],"bee_group":{"antennae":"X","wings":"1","pattern":"S","legs":"X"},"action":"harvest","summary":"good-harvest","bonus":1.040000000000001},{"rt":1174.2000000476837,"stimulus":"\n                    <p><b>Action: <em>harvest</em></b></p>\n                    <p>This is the bee that you just saw.</p>\n                    <img src=\"bees-with-color/bee-B2SM.svg\" width=\"200\">\n                    <p><span class=\"greenText\"><b>Successful harvest!</b></span><br>Your pay has increased by $0.02. Your bonus pay is now $0.66.</p>\n            ","response":0,"trial_type":"html-button-response","trial_index":44,"time_elapsed":403587,"internal_node_id":"0.0-4.0-1.16","subject_id":"60ffe904432e387cabb282b3","study_id":"6197b3f67c2b5cd3b6d9596a","session_id":"6197b9ece104781dd5d7985c","condition":"full-information","relevant_dimensions":["wings","pattern"],"bee_group":{"antennae":"X","wings":"1","pattern":"S","legs":"X"},"bonus":1.040000000000001},{"rt":16749.10000014305,"stimulus":"bees-with-color/bee-B1DM.svg","response":1,"trial_type":"image-button-response","trial_index":45,"time_elapsed":420340,"internal_node_id":"0.0-4.0-0.17","subject_id":"60ffe904432e387cabb282b3","study_id":"6197b3f67c2b5cd3b6d9596a","session_id":"6197b9ece104781dd5d7985c","condition":"full-information","relevant_dimensions":["wings","pattern"],"bee_group":{"antennae":"X","wings":"1","pattern":"S","legs":"X"},"action":"avoid","summary":"bad-avoid","bonus":1.040000000000001},{"rt":2007.8999998569489,"stimulus":"\n                    <p><b>Action: <em>avoid</em></b></p>\n                    <p>This is the bee that you just saw.</p>\n                    <img src=\"bees-with-color/bee-B1DM.svg\" width=\"200\">\n                    <p><span class=\"redText\">Bad choice,</span> the bee was friendly.<br>Your bonus pay is unchanged, and remains at $0.66.</p>\n            ","response":0,"trial_type":"html-button-response","trial_index":46,"time_elapsed":422351,"internal_node_id":"0.0-4.0-1.17","subject_id":"60ffe904432e387cabb282b3","study_id":"6197b3f67c2b5cd3b6d9596a","session_id":"6197b9ece104781dd5d7985c","condition":"full-information","relevant_dimensions":["wings","pattern"],"bee_group":{"antennae":"X","wings":"1","pattern":"S","legs":"X"},"bonus":1.040000000000001},{"rt":1775.7000000476837,"stimulus":"bees-with-color/bee-B1SM.svg","response":0,"trial_type":"image-button-response","trial_index":47,"time_elapsed":424132,"internal_node_id":"0.0-4.0-0.18","subject_id":"60ffe904432e387cabb282b3","study_id":"6197b3f67c2b5cd3b6d9596a","session_id":"6197b9ece104781dd5d7985c","condition":"full-information","relevant_dimensions":["wings","pattern"],"bee_group":{"antennae":"X","wings":"1","pattern":"S","legs":"X"},"action":"harvest","summary":"bad-harvest","bonus":1.040000000000001},{"rt":1544.8999998569489,"stimulus":"\n                    <p><b>Action: <em>harvest</em></b></p>\n                    <p>This is the bee that you just saw.</p>\n                    <img src=\"bees-with-color/bee-B1SM.svg\" width=\"200\">\n                    <p><span class=\"redText\">Bad choice, the bee was angry.</span><br><b>You have been stung!</b><br>Your pay has been decreased by $0.10. Your bonus pay is now $0.56.</p>\n            ","response":0,"trial_type":"html-button-response","trial_index":48,"time_elapsed":425681,"internal_node_id":"0.0-4.0-1.18","subject_id":"60ffe904432e387cabb282b3","study_id":"6197b3f67c2b5cd3b6d9596a","session_id":"6197b9ece104781dd5d7985c","condition":"full-information","relevant_dimensions":["wings","pattern"],"bee_group":{"antennae":"X","wings":"1","pattern":"S","legs":"X"},"bonus":1.040000000000001},{"rt":1500.5999999046326,"stimulus":"bees-with-color/bee-B2DF.svg","response":1,"trial_type":"image-button-response","trial_index":49,"time_elapsed":427186,"internal_node_id":"0.0-4.0-0.19","subject_id":"60ffe904432e387cabb282b3","study_id":"6197b3f67c2b5cd3b6d9596a","session_id":"6197b9ece104781dd5d7985c","condition":"full-information","relevant_dimensions":["wings","pattern"],"bee_group":{"antennae":"X","wings":"1","pattern":"S","legs":"X"},"action":"avoid","summary":"bad-avoid","bonus":1.040000000000001},{"rt":1331.7000000476837,"stimulus":"\n                    <p><b>Action: <em>avoid</em></b></p>\n                    <p>This is the bee that you just saw.</p>\n                    <img src=\"bees-with-color/bee-B2DF.svg\" width=\"200\">\n                    <p><span class=\"redText\">Bad choice,</span> the bee was friendly.<br>Your bonus pay is unchanged, and remains at $0.56.</p>\n            ","response":0,"trial_type":"html-button-response","trial_index":50,"time_elapsed":428521,"internal_node_id":"0.0-4.0-1.19","subject_id":"60ffe904432e387cabb282b3","study_id":"6197b3f67c2b5cd3b6d9596a","session_id":"6197b9ece104781dd5d7985c","condition":"full-information","relevant_dimensions":["wings","pattern"],"bee_group":{"antennae":"X","wings":"1","pattern":"S","legs":"X"},"bonus":1.040000000000001},{"rt":2450.5999999046326,"stimulus":"bees-with-color/bee-A1DM.svg","response":0,"trial_type":"image-button-response","trial_index":51,"time_elapsed":430976,"internal_node_id":"0.0-4.0-0.20","subject_id":"60ffe904432e387cabb282b3","study_id":"6197b3f67c2b5cd3b6d9596a","session_id":"6197b9ece104781dd5d7985c","condition":"full-information","relevant_dimensions":["wings","pattern"],"bee_group":{"antennae":"X","wings":"1","pattern":"S","legs":"X"},"action":"harvest","summary":"good-harvest","bonus":1.040000000000001},{"rt":1012.4000000953674,"stimulus":"\n                    <p><b>Action: <em>harvest</em></b></p>\n                    <p>This is the bee that you just saw.</p>\n                    <img src=\"bees-with-color/bee-A1DM.svg\" width=\"200\">\n                    <p><span class=\"greenText\"><b>Successful harvest!</b></span><br>Your pay has increased by $0.02. Your bonus pay is now $0.58.</p>\n            ","response":0,"trial_type":"html-button-response","trial_index":52,"time_elapsed":431990,"internal_node_id":"0.0-4.0-1.20","subject_id":"60ffe904432e387cabb282b3","study_id":"6197b3f67c2b5cd3b6d9596a","session_id":"6197b9ece104781dd5d7985c","condition":"full-information","relevant_dimensions":["wings","pattern"],"bee_group":{"antennae":"X","wings":"1","pattern":"S","legs":"X"},"bonus":1.040000000000001},{"rt":15161.299999952316,"stimulus":"bees-with-color/bee-A1DF.svg","response":0,"trial_type":"image-button-response","trial_index":53,"time_elapsed":447154,"internal_node_id":"0.0-4.0-0.21","subject_id":"60ffe904432e387cabb282b3","study_id":"6197b3f67c2b5cd3b6d9596a","session_id":"6197b9ece104781dd5d7985c","condition":"full-information","relevant_dimensions":["wings","pattern"],"bee_group":{"antennae":"X","wings":"1","pattern":"S","legs":"X"},"action":"harvest","summary":"good-harvest","bonus":1.040000000000001},{"rt":1081.7999999523163,"stimulus":"\n                    <p><b>Action: <em>harvest</em></b></p>\n                    <p>This is the bee that you just saw.</p>\n                    <img src=\"bees-with-color/bee-A1DF.svg\" width=\"200\">\n                    <p><span class=\"greenText\"><b>Successful harvest!</b></span><br>Your pay has increased by $0.02. Your bonus pay is now $0.60.</p>\n            ","response":0,"trial_type":"html-button-response","trial_index":54,"time_elapsed":448241,"internal_node_id":"0.0-4.0-1.21","subject_id":"60ffe904432e387cabb282b3","study_id":"6197b3f67c2b5cd3b6d9596a","session_id":"6197b9ece104781dd5d7985c","condition":"full-information","relevant_dimensions":["wings","pattern"],"bee_group":{"antennae":"X","wings":"1","pattern":"S","legs":"X"},"bonus":1.040000000000001},{"rt":19778.299999952316,"stimulus":"bees-with-color/bee-A1SM.svg","response":1,"trial_type":"image-button-response","trial_index":55,"time_elapsed":468024,"internal_node_id":"0.0-4.0-0.22","subject_id":"60ffe904432e387cabb282b3","study_id":"6197b3f67c2b5cd3b6d9596a","session_id":"6197b9ece104781dd5d7985c","condition":"full-information","relevant_dimensions":["wings","pattern"],"bee_group":{"antennae":"X","wings":"1","pattern":"S","legs":"X"},"action":"avoid","summary":"good-avoid","bonus":1.040000000000001},{"rt":1403.6000001430511,"stimulus":"\n                    <p><b>Action: <em>avoid</em></b></p>\n                    <p>This is the bee that you just saw.</p>\n                    <img src=\"bees-with-color/bee-A1SM.svg\" width=\"200\">\n                    <p><span class=\"greenText\">Good choice!</span>  This bee would have stung you.<br>Your bonus pay is unchanged, and remains at $0.60.</p>\n            ","response":0,"trial_type":"html-button-response","trial_index":56,"time_elapsed":469430,"internal_node_id":"0.0-4.0-1.22","subject_id":"60ffe904432e387cabb282b3","study_id":"6197b3f67c2b5cd3b6d9596a","session_id":"6197b9ece104781dd5d7985c","condition":"full-information","relevant_dimensions":["wings","pattern"],"bee_group":{"antennae":"X","wings":"1","pattern":"S","legs":"X"},"bonus":1.040000000000001},{"rt":5162.900000095367,"stimulus":"bees-with-color/bee-B2DM.svg","response":0,"trial_type":"image-button-response","trial_index":57,"time_elapsed":474598,"internal_node_id":"0.0-4.0-0.23","subject_id":"60ffe904432e387cabb282b3","study_id":"6197b3f67c2b5cd3b6d9596a","session_id":"6197b9ece104781dd5d7985c","condition":"full-information","relevant_dimensions":["wings","pattern"],"bee_group":{"antennae":"X","wings":"1","pattern":"S","legs":"X"},"action":"harvest","summary":"good-harvest","bonus":1.040000000000001},{"rt":1016.7999999523163,"stimulus":"\n                    <p><b>Action: <em>harvest</em></b></p>\n                    <p>This is the bee that you just saw.</p>\n                    <img src=\"bees-with-color/bee-B2DM.svg\" width=\"200\">\n                    <p><span class=\"greenText\"><b>Successful harvest!</b></span><br>Your pay has increased by $0.02. Your bonus pay is now $0.62.</p>\n            ","response":0,"trial_type":"html-button-response","trial_index":58,"time_elapsed":475620,"internal_node_id":"0.0-4.0-1.23","subject_id":"60ffe904432e387cabb282b3","study_id":"6197b3f67c2b5cd3b6d9596a","session_id":"6197b9ece104781dd5d7985c","condition":"full-information","relevant_dimensions":["wings","pattern"],"bee_group":{"antennae":"X","wings":"1","pattern":"S","legs":"X"},"bonus":1.040000000000001},{"rt":1774.7000000476837,"stimulus":"bees-with-color/bee-B2SF.svg","response":1,"trial_type":"image-button-response","trial_index":59,"time_elapsed":477400,"internal_node_id":"0.0-4.0-0.24","subject_id":"60ffe904432e387cabb282b3","study_id":"6197b3f67c2b5cd3b6d9596a","session_id":"6197b9ece104781dd5d7985c","condition":"full-information","relevant_dimensions":["wings","pattern"],"bee_group":{"antennae":"X","wings":"1","pattern":"S","legs":"X"},"action":"avoid","summary":"bad-avoid","bonus":1.040000000000001},{"rt":1208.7000000476837,"stimulus":"\n                    <p><b>Action: <em>avoid</em></b></p>\n                    <p>This is the bee that you just saw.</p>\n                    <img src=\"bees-with-color/bee-B2SF.svg\" width=\"200\">\n                    <p><span class=\"redText\">Bad choice,</span> the bee was friendly.<br>Your bonus pay is unchanged, and remains at $0.62.</p>\n            ","response":0,"trial_type":"html-button-response","trial_index":60,"time_elapsed":478614,"internal_node_id":"0.0-4.0-1.24","subject_id":"60ffe904432e387cabb282b3","study_id":"6197b3f67c2b5cd3b6d9596a","session_id":"6197b9ece104781dd5d7985c","condition":"full-information","relevant_dimensions":["wings","pattern"],"bee_group":{"antennae":"X","wings":"1","pattern":"S","legs":"X"},"bonus":1.040000000000001},{"rt":1578.0999999046326,"stimulus":"bees-with-color/bee-A1SF.svg","response":1,"trial_type":"image-button-response","trial_index":61,"time_elapsed":480195,"internal_node_id":"0.0-4.0-0.25","subject_id":"60ffe904432e387cabb282b3","study_id":"6197b3f67c2b5cd3b6d9596a","session_id":"6197b9ece104781dd5d7985c","condition":"full-information","relevant_dimensions":["wings","pattern"],"bee_group":{"antennae":"X","wings":"1","pattern":"S","legs":"X"},"action":"avoid","summary":"good-avoid","bonus":1.040000000000001},{"rt":877.4000000953674,"stimulus":"\n                    <p><b>Action: <em>avoid</em></b></p>\n                    <p>This is the bee that you just saw.</p>\n                    <img src=\"bees-with-color/bee-A1SF.svg\" width=\"200\">\n                    <p><span class=\"greenText\">Good choice!</span>  This bee would have stung you.<br>Your bonus pay is unchanged, and remains at $0.62.</p>\n            ","response":0,"trial_type":"html-button-response","trial_index":62,"time_elapsed":481077,"internal_node_id":"0.0-4.0-1.25","subject_id":"60ffe904432e387cabb282b3","study_id":"6197b3f67c2b5cd3b6d9596a","session_id":"6197b9ece104781dd5d7985c","condition":"full-information","relevant_dimensions":["wings","pattern"],"bee_group":{"antennae":"X","wings":"1","pattern":"S","legs":"X"},"bonus":1.040000000000001},{"rt":1511.7000000476837,"stimulus":"bees-with-color/bee-B1SF.svg","response":1,"trial_type":"image-button-response","trial_index":63,"time_elapsed":482592,"internal_node_id":"0.0-4.0-0.26","subject_id":"60ffe904432e387cabb282b3","study_id":"6197b3f67c2b5cd3b6d9596a","session_id":"6197b9ece104781dd5d7985c","condition":"full-information","relevant_dimensions":["wings","pattern"],"bee_group":{"antennae":"X","wings":"1","pattern":"S","legs":"X"},"action":"avoid","summary":"good-avoid","bonus":1.040000000000001},{"rt":998.3999998569489,"stimulus":"\n                    <p><b>Action: <em>avoid</em></b></p>\n                    <p>This is the bee that you just saw.</p>\n                    <img src=\"bees-with-color/bee-B1SF.svg\" width=\"200\">\n                    <p><span class=\"greenText\">Good choice!</span>  This bee would have stung you.<br>Your bonus pay is unchanged, and remains at $0.62.</p>\n            ","response":0,"trial_type":"html-button-response","trial_index":64,"time_elapsed":483595,"internal_node_id":"0.0-4.0-1.26","subject_id":"60ffe904432e387cabb282b3","study_id":"6197b3f67c2b5cd3b6d9596a","session_id":"6197b9ece104781dd5d7985c","condition":"full-information","relevant_dimensions":["wings","pattern"],"bee_group":{"antennae":"X","wings":"1","pattern":"S","legs":"X"},"bonus":1.040000000000001},{"rt":1527.4000000953674,"stimulus":"bees-with-color/bee-A2SM.svg","response":0,"trial_type":"image-button-response","trial_index":65,"time_elapsed":485127,"internal_node_id":"0.0-4.0-0.27","subject_id":"60ffe904432e387cabb282b3","study_id":"6197b3f67c2b5cd3b6d9596a","session_id":"6197b9ece104781dd5d7985c","condition":"full-information","relevant_dimensions":["wings","pattern"],"bee_group":{"antennae":"X","wings":"1","pattern":"S","legs":"X"},"action":"harvest","summary":"good-harvest","bonus":1.040000000000001},{"rt":966.1000001430511,"stimulus":"\n                    <p><b>Action: <em>harvest</em></b></p>\n                    <p>This is the bee that you just saw.</p>\n                    <img src=\"bees-with-color/bee-A2SM.svg\" width=\"200\">\n                    <p><span class=\"greenText\"><b>Successful harvest!</b></span><br>Your pay has increased by $0.02. Your bonus pay is now $0.64.</p>\n            ","response":0,"trial_type":"html-button-response","trial_index":66,"time_elapsed":486096,"internal_node_id":"0.0-4.0-1.27","subject_id":"60ffe904432e387cabb282b3","study_id":"6197b3f67c2b5cd3b6d9596a","session_id":"6197b9ece104781dd5d7985c","condition":"full-information","relevant_dimensions":["wings","pattern"],"bee_group":{"antennae":"X","wings":"1","pattern":"S","legs":"X"},"bonus":1.040000000000001},{"rt":2922.399999856949,"stimulus":"bees-with-color/bee-A2DM.svg","response":1,"trial_type":"image-button-response","trial_index":67,"time_elapsed":489023,"internal_node_id":"0.0-4.0-0.28","subject_id":"60ffe904432e387cabb282b3","study_id":"6197b3f67c2b5cd3b6d9596a","session_id":"6197b9ece104781dd5d7985c","condition":"full-information","relevant_dimensions":["wings","pattern"],"bee_group":{"antennae":"X","wings":"1","pattern":"S","legs":"X"},"action":"avoid","summary":"bad-avoid","bonus":1.040000000000001},{"rt":1065.8999998569489,"stimulus":"\n                    <p><b>Action: <em>avoid</em></b></p>\n                    <p>This is the bee that you just saw.</p>\n                    <img src=\"bees-with-color/bee-A2DM.svg\" width=\"200\">\n                    <p><span class=\"redText\">Bad choice,</span> the bee was friendly.<br>Your bonus pay is unchanged, and remains at $0.64.</p>\n            ","response":0,"trial_type":"html-button-response","trial_index":68,"time_elapsed":490094,"internal_node_id":"0.0-4.0-1.28","subject_id":"60ffe904432e387cabb282b3","study_id":"6197b3f67c2b5cd3b6d9596a","session_id":"6197b9ece104781dd5d7985c","condition":"full-information","relevant_dimensions":["wings","pattern"],"bee_group":{"antennae":"X","wings":"1","pattern":"S","legs":"X"},"bonus":1.040000000000001},{"rt":10928.700000047684,"stimulus":"bees-with-color/bee-A2SF.svg","response":0,"trial_type":"image-button-response","trial_index":69,"time_elapsed":501030,"internal_node_id":"0.0-4.0-0.29","subject_id":"60ffe904432e387cabb282b3","study_id":"6197b3f67c2b5cd3b6d9596a","session_id":"6197b9ece104781dd5d7985c","condition":"full-information","relevant_dimensions":["wings","pattern"],"bee_group":{"antennae":"X","wings":"1","pattern":"S","legs":"X"},"action":"harvest","summary":"good-harvest","bonus":1.040000000000001},{"rt":1221.8999998569489,"stimulus":"\n                    <p><b>Action: <em>harvest</em></b></p>\n                    <p>This is the bee that you just saw.</p>\n                    <img src=\"bees-with-color/bee-A2SF.svg\" width=\"200\">\n                    <p><span class=\"greenText\"><b>Successful harvest!</b></span><br>Your pay has increased by $0.02. Your bonus pay is now $0.66.</p>\n            ","response":0,"trial_type":"html-button-response","trial_index":70,"time_elapsed":502256,"internal_node_id":"0.0-4.0-1.29","subject_id":"60ffe904432e387cabb282b3","study_id":"6197b3f67c2b5cd3b6d9596a","session_id":"6197b9ece104781dd5d7985c","condition":"full-information","relevant_dimensions":["wings","pattern"],"bee_group":{"antennae":"X","wings":"1","pattern":"S","legs":"X"},"bonus":1.040000000000001},{"rt":4571.599999904633,"stimulus":"bees-with-color/bee-A2DF.svg","response":0,"trial_type":"image-button-response","trial_index":71,"time_elapsed":506831,"internal_node_id":"0.0-4.0-0.30","subject_id":"60ffe904432e387cabb282b3","study_id":"6197b3f67c2b5cd3b6d9596a","session_id":"6197b9ece104781dd5d7985c","condition":"full-information","relevant_dimensions":["wings","pattern"],"bee_group":{"antennae":"X","wings":"1","pattern":"S","legs":"X"},"action":"harvest","summary":"good-harvest","bonus":1.040000000000001},{"rt":1411,"stimulus":"\n                    <p><b>Action: <em>harvest</em></b></p>\n                    <p>This is the bee that you just saw.</p>\n                    <img src=\"bees-with-color/bee-A2DF.svg\" width=\"200\">\n                    <p><span class=\"greenText\"><b>Successful harvest!</b></span><br>Your pay has increased by $0.02. Your bonus pay is now $0.68.</p>\n            ","response":0,"trial_type":"html-button-response","trial_index":72,"time_elapsed":508245,"internal_node_id":"0.0-4.0-1.30","subject_id":"60ffe904432e387cabb282b3","study_id":"6197b3f67c2b5cd3b6d9596a","session_id":"6197b9ece104781dd5d7985c","condition":"full-information","relevant_dimensions":["wings","pattern"],"bee_group":{"antennae":"X","wings":"1","pattern":"S","legs":"X"},"bonus":1.040000000000001},{"rt":1387.5,"stimulus":"bees-with-color/bee-B1DF.svg","response":1,"trial_type":"image-button-response","trial_index":73,"time_elapsed":509634,"internal_node_id":"0.0-4.0-0.31","subject_id":"60ffe904432e387cabb282b3","study_id":"6197b3f67c2b5cd3b6d9596a","session_id":"6197b9ece104781dd5d7985c","condition":"full-information","relevant_dimensions":["wings","pattern"],"bee_group":{"antennae":"X","wings":"1","pattern":"S","legs":"X"},"action":"avoid","summary":"bad-avoid","bonus":1.040000000000001},{"rt":1047.2000000476837,"stimulus":"\n                    <p><b>Action: <em>avoid</em></b></p>\n                    <p>This is the bee that you just saw.</p>\n                    <img src=\"bees-with-color/bee-B1DF.svg\" width=\"200\">\n                    <p><span class=\"redText\">Bad choice,</span> the bee was friendly.<br>Your bonus pay is unchanged, and remains at $0.68.</p>\n            ","response":0,"trial_type":"html-button-response","trial_index":74,"time_elapsed":510683,"internal_node_id":"0.0-4.0-1.31","subject_id":"60ffe904432e387cabb282b3","study_id":"6197b3f67c2b5cd3b6d9596a","session_id":"6197b9ece104781dd5d7985c","condition":"full-information","relevant_dimensions":["wings","pattern"],"bee_group":{"antennae":"X","wings":"1","pattern":"S","legs":"X"},"bonus":1.040000000000001},{"rt":1674.5,"stimulus":"bees-with-color/bee-A1SM.svg","response":0,"trial_type":"image-button-response","trial_index":75,"time_elapsed":512363,"internal_node_id":"0.0-4.0-0.32","subject_id":"60ffe904432e387cabb282b3","study_id":"6197b3f67c2b5cd3b6d9596a","session_id":"6197b9ece104781dd5d7985c","condition":"full-information","relevant_dimensions":["wings","pattern"],"bee_group":{"antennae":"X","wings":"1","pattern":"S","legs":"X"},"action":"harvest","summary":"bad-harvest","bonus":1.040000000000001},{"rt":1001.2000000476837,"stimulus":"\n                    <p><b>Action: <em>harvest</em></b></p>\n                    <p>This is the bee that you just saw.</p>\n                    <img src=\"bees-with-color/bee-A1SM.svg\" width=\"200\">\n                    <p><span class=\"redText\">Bad choice, the bee was angry.</span><br><b>You have been stung!</b><br>Your pay has been decreased by $0.10. Your bonus pay is now $0.58.</p>\n            ","response":0,"trial_type":"html-button-response","trial_index":76,"time_elapsed":513367,"internal_node_id":"0.0-4.0-1.32","subject_id":"60ffe904432e387cabb282b3","study_id":"6197b3f67c2b5cd3b6d9596a","session_id":"6197b9ece104781dd5d7985c","condition":"full-information","relevant_dimensions":["wings","pattern"],"bee_group":{"antennae":"X","wings":"1","pattern":"S","legs":"X"},"bonus":1.040000000000001},{"rt":1751.4000000953674,"stimulus":"bees-with-color/bee-A2DF.svg","response":0,"trial_type":"image-button-response","trial_index":77,"time_elapsed":515121,"internal_node_id":"0.0-4.0-0.33","subject_id":"60ffe904432e387cabb282b3","study_id":"6197b3f67c2b5cd3b6d9596a","session_id":"6197b9ece104781dd5d7985c","condition":"full-information","relevant_dimensions":["wings","pattern"],"bee_group":{"antennae":"X","wings":"1","pattern":"S","legs":"X"},"action":"harvest","summary":"good-harvest","bonus":1.040000000000001},{"rt":945.7000000476837,"stimulus":"\n                    <p><b>Action: <em>harvest</em></b></p>\n                    <p>This is the bee that you just saw.</p>\n                    <img src=\"bees-with-color/bee-A2DF.svg\" width=\"200\">\n                    <p><span class=\"greenText\"><b>Successful harvest!</b></span><br>Your pay has increased by $0.02. Your bonus pay is now $0.60.</p>\n            ","response":0,"trial_type":"html-button-response","trial_index":78,"time_elapsed":516070,"internal_node_id":"0.0-4.0-1.33","subject_id":"60ffe904432e387cabb282b3","study_id":"6197b3f67c2b5cd3b6d9596a","session_id":"6197b9ece104781dd5d7985c","condition":"full-information","relevant_dimensions":["wings","pattern"],"bee_group":{"antennae":"X","wings":"1","pattern":"S","legs":"X"},"bonus":1.040000000000001},{"rt":1615.7999999523163,"stimulus":"bees-with-color/bee-B1SM.svg","response":1,"trial_type":"image-button-response","trial_index":79,"time_elapsed":517689,"internal_node_id":"0.0-4.0-0.34","subject_id":"60ffe904432e387cabb282b3","study_id":"6197b3f67c2b5cd3b6d9596a","session_id":"6197b9ece104781dd5d7985c","condition":"full-information","relevant_dimensions":["wings","pattern"],"bee_group":{"antennae":"X","wings":"1","pattern":"S","legs":"X"},"action":"avoid","summary":"good-avoid","bonus":1.040000000000001},{"rt":1072,"stimulus":"\n                    <p><b>Action: <em>avoid</em></b></p>\n                    <p>This is the bee that you just saw.</p>\n                    <img src=\"bees-with-color/bee-B1SM.svg\" width=\"200\">\n                    <p><span class=\"greenText\">Good choice!</span>  This bee would have stung you.<br>Your bonus pay is unchanged, and remains at $0.60.</p>\n            ","response":0,"trial_type":"html-button-response","trial_index":80,"time_elapsed":518764,"internal_node_id":"0.0-4.0-1.34","subject_id":"60ffe904432e387cabb282b3","study_id":"6197b3f67c2b5cd3b6d9596a","session_id":"6197b9ece104781dd5d7985c","condition":"full-information","relevant_dimensions":["wings","pattern"],"bee_group":{"antennae":"X","wings":"1","pattern":"S","legs":"X"},"bonus":1.040000000000001},{"rt":4349.400000095367,"stimulus":"bees-with-color/bee-A2SF.svg","response":0,"trial_type":"image-button-response","trial_index":81,"time_elapsed":523116,"internal_node_id":"0.0-4.0-0.35","subject_id":"60ffe904432e387cabb282b3","study_id":"6197b3f67c2b5cd3b6d9596a","session_id":"6197b9ece104781dd5d7985c","condition":"full-information","relevant_dimensions":["wings","pattern"],"bee_group":{"antennae":"X","wings":"1","pattern":"S","legs":"X"},"action":"harvest","summary":"good-harvest","bonus":1.040000000000001},{"rt":966.7000000476837,"stimulus":"\n                    <p><b>Action: <em>harvest</em></b></p>\n                    <p>This is the bee that you just saw.</p>\n                    <img src=\"bees-with-color/bee-A2SF.svg\" width=\"200\">\n                    <p><span class=\"greenText\"><b>Successful harvest!</b></span><br>Your pay has increased by $0.02. Your bonus pay is now $0.62.</p>\n            ","response":0,"trial_type":"html-button-response","trial_index":82,"time_elapsed":524084,"internal_node_id":"0.0-4.0-1.35","subject_id":"60ffe904432e387cabb282b3","study_id":"6197b3f67c2b5cd3b6d9596a","session_id":"6197b9ece104781dd5d7985c","condition":"full-information","relevant_dimensions":["wings","pattern"],"bee_group":{"antennae":"X","wings":"1","pattern":"S","legs":"X"},"bonus":1.040000000000001},{"rt":1502.5999999046326,"stimulus":"bees-with-color/bee-A2SM.svg","response":0,"trial_type":"image-button-response","trial_index":83,"time_elapsed":525588,"internal_node_id":"0.0-4.0-0.36","subject_id":"60ffe904432e387cabb282b3","study_id":"6197b3f67c2b5cd3b6d9596a","session_id":"6197b9ece104781dd5d7985c","condition":"full-information","relevant_dimensions":["wings","pattern"],"bee_group":{"antennae":"X","wings":"1","pattern":"S","legs":"X"},"action":"harvest","summary":"good-harvest","bonus":1.040000000000001},{"rt":912,"stimulus":"\n                    <p><b>Action: <em>harvest</em></b></p>\n                    <p>This is the bee that you just saw.</p>\n                    <img src=\"bees-with-color/bee-A2SM.svg\" width=\"200\">\n                    <p><span class=\"greenText\"><b>Successful harvest!</b></span><br>Your pay has increased by $0.02. Your bonus pay is now $0.64.</p>\n            ","response":0,"trial_type":"html-button-response","trial_index":84,"time_elapsed":526502,"internal_node_id":"0.0-4.0-1.36","subject_id":"60ffe904432e387cabb282b3","study_id":"6197b3f67c2b5cd3b6d9596a","session_id":"6197b9ece104781dd5d7985c","condition":"full-information","relevant_dimensions":["wings","pattern"],"bee_group":{"antennae":"X","wings":"1","pattern":"S","legs":"X"},"bonus":1.040000000000001},{"rt":1172.2999999523163,"stimulus":"bees-with-color/bee-B2SF.svg","response":1,"trial_type":"image-button-response","trial_index":85,"time_elapsed":527680,"internal_node_id":"0.0-4.0-0.37","subject_id":"60ffe904432e387cabb282b3","study_id":"6197b3f67c2b5cd3b6d9596a","session_id":"6197b9ece104781dd5d7985c","condition":"full-information","relevant_dimensions":["wings","pattern"],"bee_group":{"antennae":"X","wings":"1","pattern":"S","legs":"X"},"action":"avoid","summary":"bad-avoid","bonus":1.040000000000001},{"rt":840.7000000476837,"stimulus":"\n                    <p><b>Action: <em>avoid</em></b></p>\n                    <p>This is the bee that you just saw.</p>\n                    <img src=\"bees-with-color/bee-B2SF.svg\" width=\"200\">\n                    <p><span class=\"redText\">Bad choice,</span> the bee was friendly.<br>Your bonus pay is unchanged, and remains at $0.64.</p>\n            ","response":0,"trial_type":"html-button-response","trial_index":86,"time_elapsed":528524,"internal_node_id":"0.0-4.0-1.37","subject_id":"60ffe904432e387cabb282b3","study_id":"6197b3f67c2b5cd3b6d9596a","session_id":"6197b9ece104781dd5d7985c","condition":"full-information","relevant_dimensions":["wings","pattern"],"bee_group":{"antennae":"X","wings":"1","pattern":"S","legs":"X"},"bonus":1.040000000000001},{"rt":1836.6999998092651,"stimulus":"bees-with-color/bee-A2DM.svg","response":0,"trial_type":"image-button-response","trial_index":87,"time_elapsed":530365,"internal_node_id":"0.0-4.0-0.38","subject_id":"60ffe904432e387cabb282b3","study_id":"6197b3f67c2b5cd3b6d9596a","session_id":"6197b9ece104781dd5d7985c","condition":"full-information","relevant_dimensions":["wings","pattern"],"bee_group":{"antennae":"X","wings":"1","pattern":"S","legs":"X"},"action":"harvest","summary":"good-harvest","bonus":1.040000000000001},{"rt":811.2000000476837,"stimulus":"\n                    <p><b>Action: <em>harvest</em></b></p>\n                    <p>This is the bee that you just saw.</p>\n                    <img src=\"bees-with-color/bee-A2DM.svg\" width=\"200\">\n                    <p><span class=\"greenText\"><b>Successful harvest!</b></span><br>Your pay has increased by $0.02. Your bonus pay is now $0.66.</p>\n            ","response":0,"trial_type":"html-button-response","trial_index":88,"time_elapsed":531181,"internal_node_id":"0.0-4.0-1.38","subject_id":"60ffe904432e387cabb282b3","study_id":"6197b3f67c2b5cd3b6d9596a","session_id":"6197b9ece104781dd5d7985c","condition":"full-information","relevant_dimensions":["wings","pattern"],"bee_group":{"antennae":"X","wings":"1","pattern":"S","legs":"X"},"bonus":1.040000000000001},{"rt":3101.5,"stimulus":"bees-with-color/bee-B2DF.svg","response":0,"trial_type":"image-button-response","trial_index":89,"time_elapsed":534286,"internal_node_id":"0.0-4.0-0.39","subject_id":"60ffe904432e387cabb282b3","study_id":"6197b3f67c2b5cd3b6d9596a","session_id":"6197b9ece104781dd5d7985c","condition":"full-information","relevant_dimensions":["wings","pattern"],"bee_group":{"antennae":"X","wings":"1","pattern":"S","legs":"X"},"action":"harvest","summary":"good-harvest","bonus":1.040000000000001},{"rt":867.5,"stimulus":"\n                    <p><b>Action: <em>harvest</em></b></p>\n                    <p>This is the bee that you just saw.</p>\n                    <img src=\"bees-with-color/bee-B2DF.svg\" width=\"200\">\n                    <p><span class=\"greenText\"><b>Successful harvest!</b></span><br>Your pay has increased by $0.02. Your bonus pay is now $0.68.</p>\n            ","response":0,"trial_type":"html-button-response","trial_index":90,"time_elapsed":535157,"internal_node_id":"0.0-4.0-1.39","subject_id":"60ffe904432e387cabb282b3","study_id":"6197b3f67c2b5cd3b6d9596a","session_id":"6197b9ece104781dd5d7985c","condition":"full-information","relevant_dimensions":["wings","pattern"],"bee_group":{"antennae":"X","wings":"1","pattern":"S","legs":"X"},"bonus":1.040000000000001},{"rt":1364.7000000476837,"stimulus":"bees-with-color/bee-B2DM.svg","response":0,"trial_type":"image-button-response","trial_index":91,"time_elapsed":536526,"internal_node_id":"0.0-4.0-0.40","subject_id":"60ffe904432e387cabb282b3","study_id":"6197b3f67c2b5cd3b6d9596a","session_id":"6197b9ece104781dd5d7985c","condition":"full-information","relevant_dimensions":["wings","pattern"],"bee_group":{"antennae":"X","wings":"1","pattern":"S","legs":"X"},"action":"harvest","summary":"good-harvest","bonus":1.040000000000001},{"rt":1386.2999999523163,"stimulus":"\n                    <p><b>Action: <em>harvest</em></b></p>\n                    <p>This is the bee that you just saw.</p>\n                    <img src=\"bees-with-color/bee-B2DM.svg\" width=\"200\">\n                    <p><span class=\"greenText\"><b>Successful harvest!</b></span><br>Your pay has increased by $0.02. Your bonus pay is now $0.70.</p>\n            ","response":0,"trial_type":"html-button-response","trial_index":92,"time_elapsed":537915,"internal_node_id":"0.0-4.0-1.40","subject_id":"60ffe904432e387cabb282b3","study_id":"6197b3f67c2b5cd3b6d9596a","session_id":"6197b9ece104781dd5d7985c","condition":"full-information","relevant_dimensions":["wings","pattern"],"bee_group":{"antennae":"X","wings":"1","pattern":"S","legs":"X"},"bonus":1.040000000000001},{"rt":1511.3999998569489,"stimulus":"bees-with-color/bee-B2SM.svg","response":0,"trial_type":"image-button-response","trial_index":93,"time_elapsed":539430,"internal_node_id":"0.0-4.0-0.41","subject_id":"60ffe904432e387cabb282b3","study_id":"6197b3f67c2b5cd3b6d9596a","session_id":"6197b9ece104781dd5d7985c","condition":"full-information","relevant_dimensions":["wings","pattern"],"bee_group":{"antennae":"X","wings":"1","pattern":"S","legs":"X"},"action":"harvest","summary":"good-harvest","bonus":1.040000000000001},{"rt":722.2999999523163,"stimulus":"\n                    <p><b>Action: <em>harvest</em></b></p>\n                    <p>This is the bee that you just saw.</p>\n                    <img src=\"bees-with-color/bee-B2SM.svg\" width=\"200\">\n                    <p><span class=\"greenText\"><b>Successful harvest!</b></span><br>Your pay has increased by $0.02. Your bonus pay is now $0.72.</p>\n            ","response":0,"trial_type":"html-button-response","trial_index":94,"time_elapsed":540156,"internal_node_id":"0.0-4.0-1.41","subject_id":"60ffe904432e387cabb282b3","study_id":"6197b3f67c2b5cd3b6d9596a","session_id":"6197b9ece104781dd5d7985c","condition":"full-information","relevant_dimensions":["wings","pattern"],"bee_group":{"antennae":"X","wings":"1","pattern":"S","legs":"X"},"bonus":1.040000000000001},{"rt":1026.5999999046326,"stimulus":"bees-with-color/bee-A1SF.svg","response":1,"trial_type":"image-button-response","trial_index":95,"time_elapsed":541186,"internal_node_id":"0.0-4.0-0.42","subject_id":"60ffe904432e387cabb282b3","study_id":"6197b3f67c2b5cd3b6d9596a","session_id":"6197b9ece104781dd5d7985c","condition":"full-information","relevant_dimensions":["wings","pattern"],"bee_group":{"antennae":"X","wings":"1","pattern":"S","legs":"X"},"action":"avoid","summary":"good-avoid","bonus":1.040000000000001},{"rt":763.3999998569489,"stimulus":"\n                    <p><b>Action: <em>avoid</em></b></p>\n                    <p>This is the bee that you just saw.</p>\n                    <img src=\"bees-with-color/bee-A1SF.svg\" width=\"200\">\n                    <p><span class=\"greenText\">Good choice!</span>  This bee would have stung you.<br>Your bonus pay is unchanged, and remains at $0.72.</p>\n            ","response":0,"trial_type":"html-button-response","trial_index":96,"time_elapsed":541954,"internal_node_id":"0.0-4.0-1.42","subject_id":"60ffe904432e387cabb282b3","study_id":"6197b3f67c2b5cd3b6d9596a","session_id":"6197b9ece104781dd5d7985c","condition":"full-information","relevant_dimensions":["wings","pattern"],"bee_group":{"antennae":"X","wings":"1","pattern":"S","legs":"X"},"bonus":1.040000000000001},{"rt":1343.1000001430511,"stimulus":"bees-with-color/bee-B1DF.svg","response":1,"trial_type":"image-button-response","trial_index":97,"time_elapsed":543301,"internal_node_id":"0.0-4.0-0.43","subject_id":"60ffe904432e387cabb282b3","study_id":"6197b3f67c2b5cd3b6d9596a","session_id":"6197b9ece104781dd5d7985c","condition":"full-information","relevant_dimensions":["wings","pattern"],"bee_group":{"antennae":"X","wings":"1","pattern":"S","legs":"X"},"action":"avoid","summary":"bad-avoid","bonus":1.040000000000001},{"rt":686.0999999046326,"stimulus":"\n                    <p><b>Action: <em>avoid</em></b></p>\n                    <p>This is the bee that you just saw.</p>\n                    <img src=\"bees-with-color/bee-B1DF.svg\" width=\"200\">\n                    <p><span class=\"redText\">Bad choice,</span> the bee was friendly.<br>Your bonus pay is unchanged, and remains at $0.72.</p>\n            ","response":0,"trial_type":"html-button-response","trial_index":98,"time_elapsed":543991,"internal_node_id":"0.0-4.0-1.43","subject_id":"60ffe904432e387cabb282b3","study_id":"6197b3f67c2b5cd3b6d9596a","session_id":"6197b9ece104781dd5d7985c","condition":"full-information","relevant_dimensions":["wings","pattern"],"bee_group":{"antennae":"X","wings":"1","pattern":"S","legs":"X"},"bonus":1.040000000000001},{"rt":1399.5999999046326,"stimulus":"bees-with-color/bee-A1DM.svg","response":1,"trial_type":"image-button-response","trial_index":99,"time_elapsed":545395,"internal_node_id":"0.0-4.0-0.44","subject_id":"60ffe904432e387cabb282b3","study_id":"6197b3f67c2b5cd3b6d9596a","session_id":"6197b9ece104781dd5d7985c","condition":"full-information","relevant_dimensions":["wings","pattern"],"bee_group":{"antennae":"X","wings":"1","pattern":"S","legs":"X"},"action":"avoid","summary":"bad-avoid","bonus":1.040000000000001},{"rt":1572.5999999046326,"stimulus":"\n                    <p><b>Action: <em>avoid</em></b></p>\n                    <p>This is the bee that you just saw.</p>\n                    <img src=\"bees-with-color/bee-A1DM.svg\" width=\"200\">\n                    <p><span class=\"redText\">Bad choice,</span> the bee was friendly.<br>Your bonus pay is unchanged, and remains at $0.72.</p>\n            ","response":0,"trial_type":"html-button-response","trial_index":100,"time_elapsed":546971,"internal_node_id":"0.0-4.0-1.44","subject_id":"60ffe904432e387cabb282b3","study_id":"6197b3f67c2b5cd3b6d9596a","session_id":"6197b9ece104781dd5d7985c","condition":"full-information","relevant_dimensions":["wings","pattern"],"bee_group":{"antennae":"X","wings":"1","pattern":"S","legs":"X"},"bonus":1.040000000000001},{"rt":1201.4000000953674,"stimulus":"bees-with-color/bee-B1DM.svg","response":0,"trial_type":"image-button-response","trial_index":101,"time_elapsed":548176,"internal_node_id":"0.0-4.0-0.45","subject_id":"60ffe904432e387cabb282b3","study_id":"6197b3f67c2b5cd3b6d9596a","session_id":"6197b9ece104781dd5d7985c","condition":"full-information","relevant_dimensions":["wings","pattern"],"bee_group":{"antennae":"X","wings":"1","pattern":"S","legs":"X"},"action":"harvest","summary":"good-harvest","bonus":1.040000000000001},{"rt":708.2999999523163,"stimulus":"\n                    <p><b>Action: <em>harvest</em></b></p>\n                    <p>This is the bee that you just saw.</p>\n                    <img src=\"bees-with-color/bee-B1DM.svg\" width=\"200\">\n                    <p><span class=\"greenText\"><b>Successful harvest!</b></span><br>Your pay has increased by $0.02. Your bonus pay is now $0.74.</p>\n            ","response":0,"trial_type":"html-button-response","trial_index":102,"time_elapsed":548889,"internal_node_id":"0.0-4.0-1.45","subject_id":"60ffe904432e387cabb282b3","study_id":"6197b3f67c2b5cd3b6d9596a","session_id":"6197b9ece104781dd5d7985c","condition":"full-information","relevant_dimensions":["wings","pattern"],"bee_group":{"antennae":"X","wings":"1","pattern":"S","legs":"X"},"bonus":1.040000000000001},{"rt":1531.1000001430511,"stimulus":"bees-with-color/bee-A1DF.svg","response":0,"trial_type":"image-button-response","trial_index":103,"time_elapsed":550423,"internal_node_id":"0.0-4.0-0.46","subject_id":"60ffe904432e387cabb282b3","study_id":"6197b3f67c2b5cd3b6d9596a","session_id":"6197b9ece104781dd5d7985c","condition":"full-information","relevant_dimensions":["wings","pattern"],"bee_group":{"antennae":"X","wings":"1","pattern":"S","legs":"X"},"action":"harvest","summary":"good-harvest","bonus":1.040000000000001},{"rt":1053.5,"stimulus":"\n                    <p><b>Action: <em>harvest</em></b></p>\n                    <p>This is the bee that you just saw.</p>\n                    <img src=\"bees-with-color/bee-A1DF.svg\" width=\"200\">\n                    <p><span class=\"greenText\"><b>Successful harvest!</b></span><br>Your pay has increased by $0.02. Your bonus pay is now $0.76.</p>\n            ","response":0,"trial_type":"html-button-response","trial_index":104,"time_elapsed":551481,"internal_node_id":"0.0-4.0-1.46","subject_id":"60ffe904432e387cabb282b3","study_id":"6197b3f67c2b5cd3b6d9596a","session_id":"6197b9ece104781dd5d7985c","condition":"full-information","relevant_dimensions":["wings","pattern"],"bee_group":{"antennae":"X","wings":"1","pattern":"S","legs":"X"},"bonus":1.040000000000001},{"rt":1345.7000000476837,"stimulus":"bees-with-color/bee-B1SF.svg","response":1,"trial_type":"image-button-response","trial_index":105,"time_elapsed":552830,"internal_node_id":"0.0-4.0-0.47","subject_id":"60ffe904432e387cabb282b3","study_id":"6197b3f67c2b5cd3b6d9596a","session_id":"6197b9ece104781dd5d7985c","condition":"full-information","relevant_dimensions":["wings","pattern"],"bee_group":{"antennae":"X","wings":"1","pattern":"S","legs":"X"},"action":"avoid","summary":"good-avoid","bonus":1.040000000000001},{"rt":832.2999999523163,"stimulus":"\n                    <p><b>Action: <em>avoid</em></b></p>\n                    <p>This is the bee that you just saw.</p>\n                    <img src=\"bees-with-color/bee-B1SF.svg\" width=\"200\">\n                    <p><span class=\"greenText\">Good choice!</span>  This bee would have stung you.<br>Your bonus pay is unchanged, and remains at $0.76.</p>\n            ","response":0,"trial_type":"html-button-response","trial_index":106,"time_elapsed":553667,"internal_node_id":"0.0-4.0-1.47","subject_id":"60ffe904432e387cabb282b3","study_id":"6197b3f67c2b5cd3b6d9596a","session_id":"6197b9ece104781dd5d7985c","condition":"full-information","relevant_dimensions":["wings","pattern"],"bee_group":{"antennae":"X","wings":"1","pattern":"S","legs":"X"},"bonus":1.040000000000001},{"rt":1270.5,"stimulus":"bees-with-color/bee-B2SM.svg","response":0,"trial_type":"image-button-response","trial_index":107,"time_elapsed":554942,"internal_node_id":"0.0-4.0-0.48","subject_id":"60ffe904432e387cabb282b3","study_id":"6197b3f67c2b5cd3b6d9596a","session_id":"6197b9ece104781dd5d7985c","condition":"full-information","relevant_dimensions":["wings","pattern"],"bee_group":{"antennae":"X","wings":"1","pattern":"S","legs":"X"},"action":"harvest","summary":"good-harvest","bonus":1.040000000000001},{"rt":839.3000001907349,"stimulus":"\n                    <p><b>Action: <em>harvest</em></b></p>\n                    <p>This is the bee that you just saw.</p>\n                    <img src=\"bees-with-color/bee-B2SM.svg\" width=\"200\">\n                    <p><span class=\"greenText\"><b>Successful harvest!</b></span><br>Your pay has increased by $0.02. Your bonus pay is now $0.78.</p>\n            ","response":0,"trial_type":"html-button-response","trial_index":108,"time_elapsed":555785,"internal_node_id":"0.0-4.0-1.48","subject_id":"60ffe904432e387cabb282b3","study_id":"6197b3f67c2b5cd3b6d9596a","session_id":"6197b9ece104781dd5d7985c","condition":"full-information","relevant_dimensions":["wings","pattern"],"bee_group":{"antennae":"X","wings":"1","pattern":"S","legs":"X"},"bonus":1.040000000000001},{"rt":4004,"stimulus":"bees-with-color/bee-B1SM.svg","response":0,"trial_type":"image-button-response","trial_index":109,"time_elapsed":559791,"internal_node_id":"0.0-4.0-0.49","subject_id":"60ffe904432e387cabb282b3","study_id":"6197b3f67c2b5cd3b6d9596a","session_id":"6197b9ece104781dd5d7985c","condition":"full-information","relevant_dimensions":["wings","pattern"],"bee_group":{"antennae":"X","wings":"1","pattern":"S","legs":"X"},"action":"harvest","summary":"bad-harvest","bonus":1.040000000000001},{"rt":1209.2000000476837,"stimulus":"\n                    <p><b>Action: <em>harvest</em></b></p>\n                    <p>This is the bee that you just saw.</p>\n                    <img src=\"bees-with-color/bee-B1SM.svg\" width=\"200\">\n                    <p><span class=\"redText\">Bad choice, the bee was angry.</span><br><b>You have been stung!</b><br>Your pay has been decreased by $0.10. Your bonus pay is now $0.68.</p>\n            ","response":0,"trial_type":"html-button-response","trial_index":110,"time_elapsed":561004,"internal_node_id":"0.0-4.0-1.49","subject_id":"60ffe904432e387cabb282b3","study_id":"6197b3f67c2b5cd3b6d9596a","session_id":"6197b9ece104781dd5d7985c","condition":"full-information","relevant_dimensions":["wings","pattern"],"bee_group":{"antennae":"X","wings":"1","pattern":"S","legs":"X"},"bonus":1.040000000000001},{"rt":1506.3999998569489,"stimulus":"bees-with-color/bee-B2SF.svg","response":0,"trial_type":"image-button-response","trial_index":111,"time_elapsed":562514,"internal_node_id":"0.0-4.0-0.50","subject_id":"60ffe904432e387cabb282b3","study_id":"6197b3f67c2b5cd3b6d9596a","session_id":"6197b9ece104781dd5d7985c","condition":"full-information","relevant_dimensions":["wings","pattern"],"bee_group":{"antennae":"X","wings":"1","pattern":"S","legs":"X"},"action":"harvest","summary":"good-harvest","bonus":1.040000000000001},{"rt":708.2000000476837,"stimulus":"\n                    <p><b>Action: <em>harvest</em></b></p>\n                    <p>This is the bee that you just saw.</p>\n                    <img src=\"bees-with-color/bee-B2SF.svg\" width=\"200\">\n                    <p><span class=\"greenText\"><b>Successful harvest!</b></span><br>Your pay has increased by $0.02. Your bonus pay is now $0.70.</p>\n            ","response":0,"trial_type":"html-button-response","trial_index":112,"time_elapsed":563226,"internal_node_id":"0.0-4.0-1.50","subject_id":"60ffe904432e387cabb282b3","study_id":"6197b3f67c2b5cd3b6d9596a","session_id":"6197b9ece104781dd5d7985c","condition":"full-information","relevant_dimensions":["wings","pattern"],"bee_group":{"antennae":"X","wings":"1","pattern":"S","legs":"X"},"bonus":1.040000000000001},{"rt":1033.6000001430511,"stimulus":"bees-with-color/bee-A1DM.svg","response":1,"trial_type":"image-button-response","trial_index":113,"time_elapsed":564262,"internal_node_id":"0.0-4.0-0.51","subject_id":"60ffe904432e387cabb282b3","study_id":"6197b3f67c2b5cd3b6d9596a","session_id":"6197b9ece104781dd5d7985c","condition":"full-information","relevant_dimensions":["wings","pattern"],"bee_group":{"antennae":"X","wings":"1","pattern":"S","legs":"X"},"action":"avoid","summary":"bad-avoid","bonus":1.040000000000001},{"rt":942.2999999523163,"stimulus":"\n                    <p><b>Action: <em>avoid</em></b></p>\n                    <p>This is the bee that you just saw.</p>\n                    <img src=\"bees-with-color/bee-A1DM.svg\" width=\"200\">\n                    <p><span class=\"redText\">Bad choice,</span> the bee was friendly.<br>Your bonus pay is unchanged, and remains at $0.70.</p>\n            ","response":0,"trial_type":"html-button-response","trial_index":114,"time_elapsed":565208,"internal_node_id":"0.0-4.0-1.51","subject_id":"60ffe904432e387cabb282b3","study_id":"6197b3f67c2b5cd3b6d9596a","session_id":"6197b9ece104781dd5d7985c","condition":"full-information","relevant_dimensions":["wings","pattern"],"bee_group":{"antennae":"X","wings":"1","pattern":"S","legs":"X"},"bonus":1.040000000000001},{"rt":4191.900000095367,"stimulus":"bees-with-color/bee-B1DF.svg","response":1,"trial_type":"image-button-response","trial_index":115,"time_elapsed":569403,"internal_node_id":"0.0-4.0-0.52","subject_id":"60ffe904432e387cabb282b3","study_id":"6197b3f67c2b5cd3b6d9596a","session_id":"6197b9ece104781dd5d7985c","condition":"full-information","relevant_dimensions":["wings","pattern"],"bee_group":{"antennae":"X","wings":"1","pattern":"S","legs":"X"},"action":"avoid","summary":"bad-avoid","bonus":1.040000000000001},{"rt":2046.7000000476837,"stimulus":"\n                    <p><b>Action: <em>avoid</em></b></p>\n                    <p>This is the bee that you just saw.</p>\n                    <img src=\"bees-with-color/bee-B1DF.svg\" width=\"200\">\n                    <p><span class=\"redText\">Bad choice,</span> the bee was friendly.<br>Your bonus pay is unchanged, and remains at $0.70.</p>\n            ","response":0,"trial_type":"html-button-response","trial_index":116,"time_elapsed":571453,"internal_node_id":"0.0-4.0-1.52","subject_id":"60ffe904432e387cabb282b3","study_id":"6197b3f67c2b5cd3b6d9596a","session_id":"6197b9ece104781dd5d7985c","condition":"full-information","relevant_dimensions":["wings","pattern"],"bee_group":{"antennae":"X","wings":"1","pattern":"S","legs":"X"},"bonus":1.040000000000001},{"rt":1260.4000000953674,"stimulus":"bees-with-color/bee-B1SF.svg","response":1,"trial_type":"image-button-response","trial_index":117,"time_elapsed":572717,"internal_node_id":"0.0-4.0-0.53","subject_id":"60ffe904432e387cabb282b3","study_id":"6197b3f67c2b5cd3b6d9596a","session_id":"6197b9ece104781dd5d7985c","condition":"full-information","relevant_dimensions":["wings","pattern"],"bee_group":{"antennae":"X","wings":"1","pattern":"S","legs":"X"},"action":"avoid","summary":"good-avoid","bonus":1.040000000000001},{"rt":902.1000001430511,"stimulus":"\n                    <p><b>Action: <em>avoid</em></b></p>\n                    <p>This is the bee that you just saw.</p>\n                    <img src=\"bees-with-color/bee-B1SF.svg\" width=\"200\">\n                    <p><span class=\"greenText\">Good choice!</span>  This bee would have stung you.<br>Your bonus pay is unchanged, and remains at $0.70.</p>\n            ","response":0,"trial_type":"html-button-response","trial_index":118,"time_elapsed":573621,"internal_node_id":"0.0-4.0-1.53","subject_id":"60ffe904432e387cabb282b3","study_id":"6197b3f67c2b5cd3b6d9596a","session_id":"6197b9ece104781dd5d7985c","condition":"full-information","relevant_dimensions":["wings","pattern"],"bee_group":{"antennae":"X","wings":"1","pattern":"S","legs":"X"},"bonus":1.040000000000001},{"rt":4228.900000095367,"stimulus":"bees-with-color/bee-A2SF.svg","response":0,"trial_type":"image-button-response","trial_index":119,"time_elapsed":577853,"internal_node_id":"0.0-4.0-0.54","subject_id":"60ffe904432e387cabb282b3","study_id":"6197b3f67c2b5cd3b6d9596a","session_id":"6197b9ece104781dd5d7985c","condition":"full-information","relevant_dimensions":["wings","pattern"],"bee_group":{"antennae":"X","wings":"1","pattern":"S","legs":"X"},"action":"harvest","summary":"good-harvest","bonus":1.040000000000001},{"rt":861.4000000953674,"stimulus":"\n                    <p><b>Action: <em>harvest</em></b></p>\n                    <p>This is the bee that you just saw.</p>\n                    <img src=\"bees-with-color/bee-A2SF.svg\" width=\"200\">\n                    <p><span class=\"greenText\"><b>Successful harvest!</b></span><br>Your pay has increased by $0.02. Your bonus pay is now $0.72.</p>\n            ","response":0,"trial_type":"html-button-response","trial_index":120,"time_elapsed":578719,"internal_node_id":"0.0-4.0-1.54","subject_id":"60ffe904432e387cabb282b3","study_id":"6197b3f67c2b5cd3b6d9596a","session_id":"6197b9ece104781dd5d7985c","condition":"full-information","relevant_dimensions":["wings","pattern"],"bee_group":{"antennae":"X","wings":"1","pattern":"S","legs":"X"},"bonus":1.040000000000001},{"rt":4992.700000047684,"stimulus":"bees-with-color/bee-B2DM.svg","response":0,"trial_type":"image-button-response","trial_index":121,"time_elapsed":583715,"internal_node_id":"0.0-4.0-0.55","subject_id":"60ffe904432e387cabb282b3","study_id":"6197b3f67c2b5cd3b6d9596a","session_id":"6197b9ece104781dd5d7985c","condition":"full-information","relevant_dimensions":["wings","pattern"],"bee_group":{"antennae":"X","wings":"1","pattern":"S","legs":"X"},"action":"harvest","summary":"good-harvest","bonus":1.040000000000001},{"rt":813.2000000476837,"stimulus":"\n                    <p><b>Action: <em>harvest</em></b></p>\n                    <p>This is the bee that you just saw.</p>\n                    <img src=\"bees-with-color/bee-B2DM.svg\" width=\"200\">\n                    <p><span class=\"greenText\"><b>Successful harvest!</b></span><br>Your pay has increased by $0.02. Your bonus pay is now $0.74.</p>\n            ","response":0,"trial_type":"html-button-response","trial_index":122,"time_elapsed":584531,"internal_node_id":"0.0-4.0-1.55","subject_id":"60ffe904432e387cabb282b3","study_id":"6197b3f67c2b5cd3b6d9596a","session_id":"6197b9ece104781dd5d7985c","condition":"full-information","relevant_dimensions":["wings","pattern"],"bee_group":{"antennae":"X","wings":"1","pattern":"S","legs":"X"},"bonus":1.040000000000001},{"rt":17432.299999952316,"stimulus":"bees-with-color/bee-A1SM.svg","response":1,"trial_type":"image-button-response","trial_index":123,"time_elapsed":601969,"internal_node_id":"0.0-4.0-0.56","subject_id":"60ffe904432e387cabb282b3","study_id":"6197b3f67c2b5cd3b6d9596a","session_id":"6197b9ece104781dd5d7985c","condition":"full-information","relevant_dimensions":["wings","pattern"],"bee_group":{"antennae":"X","wings":"1","pattern":"S","legs":"X"},"action":"avoid","summary":"good-avoid","bonus":1.040000000000001},{"rt":2073.7000000476837,"stimulus":"\n                    <p><b>Action: <em>avoid</em></b></p>\n                    <p>This is the bee that you just saw.</p>\n                    <img src=\"bees-with-color/bee-A1SM.svg\" width=\"200\">\n                    <p><span class=\"greenText\">Good choice!</span>  This bee would have stung you.<br>Your bonus pay is unchanged, and remains at $0.74.</p>\n            ","response":0,"trial_type":"html-button-response","trial_index":124,"time_elapsed":604046,"internal_node_id":"0.0-4.0-1.56","subject_id":"60ffe904432e387cabb282b3","study_id":"6197b3f67c2b5cd3b6d9596a","session_id":"6197b9ece104781dd5d7985c","condition":"full-information","relevant_dimensions":["wings","pattern"],"bee_group":{"antennae":"X","wings":"1","pattern":"S","legs":"X"},"bonus":1.040000000000001},{"rt":1487.1999998092651,"stimulus":"bees-with-color/bee-A1DF.svg","response":0,"trial_type":"image-button-response","trial_index":125,"time_elapsed":605535,"internal_node_id":"0.0-4.0-0.57","subject_id":"60ffe904432e387cabb282b3","study_id":"6197b3f67c2b5cd3b6d9596a","session_id":"6197b9ece104781dd5d7985c","condition":"full-information","relevant_dimensions":["wings","pattern"],"bee_group":{"antennae":"X","wings":"1","pattern":"S","legs":"X"},"action":"harvest","summary":"good-harvest","bonus":1.040000000000001},{"rt":1411.2000000476837,"stimulus":"\n                    <p><b>Action: <em>harvest</em></b></p>\n                    <p>This is the bee that you just saw.</p>\n                    <img src=\"bees-with-color/bee-A1DF.svg\" width=\"200\">\n                    <p><span class=\"greenText\"><b>Successful harvest!</b></span><br>Your pay has increased by $0.02. Your bonus pay is now $0.76.</p>\n            ","response":0,"trial_type":"html-button-response","trial_index":126,"time_elapsed":606948,"internal_node_id":"0.0-4.0-1.57","subject_id":"60ffe904432e387cabb282b3","study_id":"6197b3f67c2b5cd3b6d9596a","session_id":"6197b9ece104781dd5d7985c","condition":"full-information","relevant_dimensions":["wings","pattern"],"bee_group":{"antennae":"X","wings":"1","pattern":"S","legs":"X"},"bonus":1.040000000000001},{"rt":6461.299999952316,"stimulus":"bees-with-color/bee-A2SM.svg","response":0,"trial_type":"image-button-response","trial_index":127,"time_elapsed":613413,"internal_node_id":"0.0-4.0-0.58","subject_id":"60ffe904432e387cabb282b3","study_id":"6197b3f67c2b5cd3b6d9596a","session_id":"6197b9ece104781dd5d7985c","condition":"full-information","relevant_dimensions":["wings","pattern"],"bee_group":{"antennae":"X","wings":"1","pattern":"S","legs":"X"},"action":"harvest","summary":"good-harvest","bonus":1.040000000000001},{"rt":1332.5,"stimulus":"\n                    <p><b>Action: <em>harvest</em></b></p>\n                    <p>This is the bee that you just saw.</p>\n                    <img src=\"bees-with-color/bee-A2SM.svg\" width=\"200\">\n                    <p><span class=\"greenText\"><b>Successful harvest!</b></span><br>Your pay has increased by $0.02. Your bonus pay is now $0.78.</p>\n            ","response":0,"trial_type":"html-button-response","trial_index":128,"time_elapsed":614748,"internal_node_id":"0.0-4.0-1.58","subject_id":"60ffe904432e387cabb282b3","study_id":"6197b3f67c2b5cd3b6d9596a","session_id":"6197b9ece104781dd5d7985c","condition":"full-information","relevant_dimensions":["wings","pattern"],"bee_group":{"antennae":"X","wings":"1","pattern":"S","legs":"X"},"bonus":1.040000000000001},{"rt":1898.9000000953674,"stimulus":"bees-with-color/bee-A2DM.svg","response":0,"trial_type":"image-button-response","trial_index":129,"time_elapsed":616652,"internal_node_id":"0.0-4.0-0.59","subject_id":"60ffe904432e387cabb282b3","study_id":"6197b3f67c2b5cd3b6d9596a","session_id":"6197b9ece104781dd5d7985c","condition":"full-information","relevant_dimensions":["wings","pattern"],"bee_group":{"antennae":"X","wings":"1","pattern":"S","legs":"X"},"action":"harvest","summary":"good-harvest","bonus":1.040000000000001},{"rt":894.9000000953674,"stimulus":"\n                    <p><b>Action: <em>harvest</em></b></p>\n                    <p>This is the bee that you just saw.</p>\n                    <img src=\"bees-with-color/bee-A2DM.svg\" width=\"200\">\n                    <p><span class=\"greenText\"><b>Successful harvest!</b></span><br>Your pay has increased by $0.02. Your bonus pay is now $0.80.</p>\n            ","response":0,"trial_type":"html-button-response","trial_index":130,"time_elapsed":617551,"internal_node_id":"0.0-4.0-1.59","subject_id":"60ffe904432e387cabb282b3","study_id":"6197b3f67c2b5cd3b6d9596a","session_id":"6197b9ece104781dd5d7985c","condition":"full-information","relevant_dimensions":["wings","pattern"],"bee_group":{"antennae":"X","wings":"1","pattern":"S","legs":"X"},"bonus":1.040000000000001},{"rt":8170,"stimulus":"bees-with-color/bee-B2DF.svg","response":0,"trial_type":"image-button-response","trial_index":131,"time_elapsed":625724,"internal_node_id":"0.0-4.0-0.60","subject_id":"60ffe904432e387cabb282b3","study_id":"6197b3f67c2b5cd3b6d9596a","session_id":"6197b9ece104781dd5d7985c","condition":"full-information","relevant_dimensions":["wings","pattern"],"bee_group":{"antennae":"X","wings":"1","pattern":"S","legs":"X"},"action":"harvest","summary":"good-harvest","bonus":1.040000000000001},{"rt":925.7000000476837,"stimulus":"\n                    <p><b>Action: <em>harvest</em></b></p>\n                    <p>This is the bee that you just saw.</p>\n                    <img src=\"bees-with-color/bee-B2DF.svg\" width=\"200\">\n                    <p><span class=\"greenText\"><b>Successful harvest!</b></span><br>Your pay has increased by $0.02. Your bonus pay is now $0.82.</p>\n            ","response":0,"trial_type":"html-button-response","trial_index":132,"time_elapsed":626652,"internal_node_id":"0.0-4.0-1.60","subject_id":"60ffe904432e387cabb282b3","study_id":"6197b3f67c2b5cd3b6d9596a","session_id":"6197b9ece104781dd5d7985c","condition":"full-information","relevant_dimensions":["wings","pattern"],"bee_group":{"antennae":"X","wings":"1","pattern":"S","legs":"X"},"bonus":1.040000000000001},{"rt":1342.2999999523163,"stimulus":"bees-with-color/bee-A1SF.svg","response":1,"trial_type":"image-button-response","trial_index":133,"time_elapsed":628001,"internal_node_id":"0.0-4.0-0.61","subject_id":"60ffe904432e387cabb282b3","study_id":"6197b3f67c2b5cd3b6d9596a","session_id":"6197b9ece104781dd5d7985c","condition":"full-information","relevant_dimensions":["wings","pattern"],"bee_group":{"antennae":"X","wings":"1","pattern":"S","legs":"X"},"action":"avoid","summary":"good-avoid","bonus":1.040000000000001},{"rt":2978,"stimulus":"\n                    <p><b>Action: <em>avoid</em></b></p>\n                    <p>This is the bee that you just saw.</p>\n                    <img src=\"bees-with-color/bee-A1SF.svg\" width=\"200\">\n                    <p><span class=\"greenText\">Good choice!</span>  This bee would have stung you.<br>Your bonus pay is unchanged, and remains at $0.82.</p>\n            ","response":0,"trial_type":"html-button-response","trial_index":134,"time_elapsed":630983,"internal_node_id":"0.0-4.0-1.61","subject_id":"60ffe904432e387cabb282b3","study_id":"6197b3f67c2b5cd3b6d9596a","session_id":"6197b9ece104781dd5d7985c","condition":"full-information","relevant_dimensions":["wings","pattern"],"bee_group":{"antennae":"X","wings":"1","pattern":"S","legs":"X"},"bonus":1.040000000000001},{"rt":1735.4000000953674,"stimulus":"bees-with-color/bee-B1DM.svg","response":0,"trial_type":"image-button-response","trial_index":135,"time_elapsed":632723,"internal_node_id":"0.0-4.0-0.62","subject_id":"60ffe904432e387cabb282b3","study_id":"6197b3f67c2b5cd3b6d9596a","session_id":"6197b9ece104781dd5d7985c","condition":"full-information","relevant_dimensions":["wings","pattern"],"bee_group":{"antennae":"X","wings":"1","pattern":"S","legs":"X"},"action":"harvest","summary":"good-harvest","bonus":1.040000000000001},{"rt":1108.3000001907349,"stimulus":"\n                    <p><b>Action: <em>harvest</em></b></p>\n                    <p>This is the bee that you just saw.</p>\n                    <img src=\"bees-with-color/bee-B1DM.svg\" width=\"200\">\n                    <p><span class=\"greenText\"><b>Successful harvest!</b></span><br>Your pay has increased by $0.02. Your bonus pay is now $0.84.</p>\n            ","response":0,"trial_type":"html-button-response","trial_index":136,"time_elapsed":633836,"internal_node_id":"0.0-4.0-1.62","subject_id":"60ffe904432e387cabb282b3","study_id":"6197b3f67c2b5cd3b6d9596a","session_id":"6197b9ece104781dd5d7985c","condition":"full-information","relevant_dimensions":["wings","pattern"],"bee_group":{"antennae":"X","wings":"1","pattern":"S","legs":"X"},"bonus":1.040000000000001},{"rt":1287.4000000953674,"stimulus":"bees-with-color/bee-A2DF.svg","response":0,"trial_type":"image-button-response","trial_index":137,"time_elapsed":635128,"internal_node_id":"0.0-4.0-0.63","subject_id":"60ffe904432e387cabb282b3","study_id":"6197b3f67c2b5cd3b6d9596a","session_id":"6197b9ece104781dd5d7985c","condition":"full-information","relevant_dimensions":["wings","pattern"],"bee_group":{"antennae":"X","wings":"1","pattern":"S","legs":"X"},"action":"harvest","summary":"good-harvest","bonus":1.040000000000001},{"rt":892.7000000476837,"stimulus":"\n                    <p><b>Action: <em>harvest</em></b></p>\n                    <p>This is the bee that you just saw.</p>\n                    <img src=\"bees-with-color/bee-A2DF.svg\" width=\"200\">\n                    <p><span class=\"greenText\"><b>Successful harvest!</b></span><br>Your pay has increased by $0.02. Your bonus pay is now $0.86.</p>\n            ","response":0,"trial_type":"html-button-response","trial_index":138,"time_elapsed":636025,"internal_node_id":"0.0-4.0-1.63","subject_id":"60ffe904432e387cabb282b3","study_id":"6197b3f67c2b5cd3b6d9596a","session_id":"6197b9ece104781dd5d7985c","condition":"full-information","relevant_dimensions":["wings","pattern"],"bee_group":{"antennae":"X","wings":"1","pattern":"S","legs":"X"},"bonus":1.040000000000001},{"rt":5708.900000095367,"stimulus":"You have completed the first part of this experiment.<br><br>You will now begin a shorter second part, in which you will receive no feedback.<br>The same rules regarding bonus pay apply.<br><br>Press any key to begin.","response":" ","trial_type":"html-keyboard-response","trial_index":139,"time_elapsed":641737,"internal_node_id":"0.0-5.0","subject_id":"60ffe904432e387cabb282b3","study_id":"6197b3f67c2b5cd3b6d9596a","session_id":"6197b9ece104781dd5d7985c","condition":"full-information","relevant_dimensions":["wings","pattern"],"bee_group":{"antennae":"X","wings":"1","pattern":"S","legs":"X"},"bonus":1.040000000000001},{"rt":4925.799999952316,"stimulus":"bees-with-color/bee-A1DF.svg","response":1,"trial_type":"image-button-response","trial_index":140,"time_elapsed":646675,"internal_node_id":"0.0-6.0-0.0","subject_id":"60ffe904432e387cabb282b3","study_id":"6197b3f67c2b5cd3b6d9596a","session_id":"6197b9ece104781dd5d7985c","condition":"full-information","relevant_dimensions":["wings","pattern"],"bee_group":{"antennae":"X","wings":"1","pattern":"S","legs":"X"},"bonus":1.040000000000001},{"rt":4763.299999952316,"stimulus":"bees-with-color/bee-B1DM.svg","response":0,"trial_type":"image-button-response","trial_index":141,"time_elapsed":651445,"internal_node_id":"0.0-6.0-0.1","subject_id":"60ffe904432e387cabb282b3","study_id":"6197b3f67c2b5cd3b6d9596a","session_id":"6197b9ece104781dd5d7985c","condition":"full-information","relevant_dimensions":["wings","pattern"],"bee_group":{"antennae":"X","wings":"1","pattern":"S","legs":"X"},"bonus":1.040000000000001},{"rt":7093.700000047684,"stimulus":"bees-with-color/bee-B2SF.svg","response":0,"trial_type":"image-button-response","trial_index":142,"time_elapsed":658545,"internal_node_id":"0.0-6.0-0.2","subject_id":"60ffe904432e387cabb282b3","study_id":"6197b3f67c2b5cd3b6d9596a","session_id":"6197b9ece104781dd5d7985c","condition":"full-information","relevant_dimensions":["wings","pattern"],"bee_group":{"antennae":"X","wings":"1","pattern":"S","legs":"X"},"bonus":1.040000000000001},{"rt":1693.3000001907349,"stimulus":"bees-with-color/bee-B2DF.svg","response":0,"trial_type":"image-button-response","trial_index":143,"time_elapsed":660246,"internal_node_id":"0.0-6.0-0.3","subject_id":"60ffe904432e387cabb282b3","study_id":"6197b3f67c2b5cd3b6d9596a","session_id":"6197b9ece104781dd5d7985c","condition":"full-information","relevant_dimensions":["wings","pattern"],"bee_group":{"antennae":"X","wings":"1","pattern":"S","legs":"X"},"bonus":1.040000000000001},{"rt":6528.799999952316,"stimulus":"bees-with-color/bee-A2DM.svg","response":0,"trial_type":"image-button-response","trial_index":144,"time_elapsed":666780,"internal_node_id":"0.0-6.0-0.4","subject_id":"60ffe904432e387cabb282b3","study_id":"6197b3f67c2b5cd3b6d9596a","session_id":"6197b9ece104781dd5d7985c","condition":"full-information","relevant_dimensions":["wings","pattern"],"bee_group":{"antennae":"X","wings":"1","pattern":"S","legs":"X"},"bonus":1.040000000000001},{"rt":865.2999999523163,"stimulus":"bees-with-color/bee-A1SF.svg","response":1,"trial_type":"image-button-response","trial_index":145,"time_elapsed":667651,"internal_node_id":"0.0-6.0-0.5","subject_id":"60ffe904432e387cabb282b3","study_id":"6197b3f67c2b5cd3b6d9596a","session_id":"6197b9ece104781dd5d7985c","condition":"full-information","relevant_dimensions":["wings","pattern"],"bee_group":{"antennae":"X","wings":"1","pattern":"S","legs":"X"},"bonus":1.040000000000001},{"rt":767.2000000476837,"stimulus":"bees-with-color/bee-A2SM.svg","response":0,"trial_type":"image-button-response","trial_index":146,"time_elapsed":668420,"internal_node_id":"0.0-6.0-0.6","subject_id":"60ffe904432e387cabb282b3","study_id":"6197b3f67c2b5cd3b6d9596a","session_id":"6197b9ece104781dd5d7985c","condition":"full-information","relevant_dimensions":["wings","pattern"],"bee_group":{"antennae":"X","wings":"1","pattern":"S","legs":"X"},"bonus":1.040000000000001},{"rt":1234,"stimulus":"bees-with-color/bee-A1SM.svg","response":0,"trial_type":"image-button-response","trial_index":147,"time_elapsed":669658,"internal_node_id":"0.0-6.0-0.7","subject_id":"60ffe904432e387cabb282b3","study_id":"6197b3f67c2b5cd3b6d9596a","session_id":"6197b9ece104781dd5d7985c","condition":"full-information","relevant_dimensions":["wings","pattern"],"bee_group":{"antennae":"X","wings":"1","pattern":"S","legs":"X"},"bonus":1.040000000000001},{"rt":912.4000000953674,"stimulus":"bees-with-color/bee-B1SM.svg","response":1,"trial_type":"image-button-response","trial_index":148,"time_elapsed":670577,"internal_node_id":"0.0-6.0-0.8","subject_id":"60ffe904432e387cabb282b3","study_id":"6197b3f67c2b5cd3b6d9596a","session_id":"6197b9ece104781dd5d7985c","condition":"full-information","relevant_dimensions":["wings","pattern"],"bee_group":{"antennae":"X","wings":"1","pattern":"S","legs":"X"},"bonus":1.040000000000001},{"rt":1482.6000001430511,"stimulus":"bees-with-color/bee-B2DM.svg","response":1,"trial_type":"image-button-response","trial_index":149,"time_elapsed":672064,"internal_node_id":"0.0-6.0-0.9","subject_id":"60ffe904432e387cabb282b3","study_id":"6197b3f67c2b5cd3b6d9596a","session_id":"6197b9ece104781dd5d7985c","condition":"full-information","relevant_dimensions":["wings","pattern"],"bee_group":{"antennae":"X","wings":"1","pattern":"S","legs":"X"},"bonus":1.040000000000001},{"rt":2793.399999856949,"stimulus":"bees-with-color/bee-A2DF.svg","response":1,"trial_type":"image-button-response","trial_index":150,"time_elapsed":674863,"internal_node_id":"0.0-6.0-0.10","subject_id":"60ffe904432e387cabb282b3","study_id":"6197b3f67c2b5cd3b6d9596a","session_id":"6197b9ece104781dd5d7985c","condition":"full-information","relevant_dimensions":["wings","pattern"],"bee_group":{"antennae":"X","wings":"1","pattern":"S","legs":"X"},"bonus":1.040000000000001},{"rt":1215.6000001430511,"stimulus":"bees-with-color/bee-B1SF.svg","response":1,"trial_type":"image-button-response","trial_index":151,"time_elapsed":676084,"internal_node_id":"0.0-6.0-0.11","subject_id":"60ffe904432e387cabb282b3","study_id":"6197b3f67c2b5cd3b6d9596a","session_id":"6197b9ece104781dd5d7985c","condition":"full-information","relevant_dimensions":["wings","pattern"],"bee_group":{"antennae":"X","wings":"1","pattern":"S","legs":"X"},"bonus":1.040000000000001},{"rt":1079,"stimulus":"bees-with-color/bee-B2SM.svg","response":1,"trial_type":"image-button-response","trial_index":152,"time_elapsed":677170,"internal_node_id":"0.0-6.0-0.12","subject_id":"60ffe904432e387cabb282b3","study_id":"6197b3f67c2b5cd3b6d9596a","session_id":"6197b9ece104781dd5d7985c","condition":"full-information","relevant_dimensions":["wings","pattern"],"bee_group":{"antennae":"X","wings":"1","pattern":"S","legs":"X"},"bonus":1.040000000000001},{"rt":713.2000000476837,"stimulus":"bees-with-color/bee-A2SF.svg","response":0,"trial_type":"image-button-response","trial_index":153,"time_elapsed":677888,"internal_node_id":"0.0-6.0-0.13","subject_id":"60ffe904432e387cabb282b3","study_id":"6197b3f67c2b5cd3b6d9596a","session_id":"6197b9ece104781dd5d7985c","condition":"full-information","relevant_dimensions":["wings","pattern"],"bee_group":{"antennae":"X","wings":"1","pattern":"S","legs":"X"},"bonus":1.040000000000001},{"rt":1004.4000000953674,"stimulus":"bees-with-color/bee-A1DM.svg","response":0,"trial_type":"image-button-response","trial_index":154,"time_elapsed":678898,"internal_node_id":"0.0-6.0-0.14","subject_id":"60ffe904432e387cabb282b3","study_id":"6197b3f67c2b5cd3b6d9596a","session_id":"6197b9ece104781dd5d7985c","condition":"full-information","relevant_dimensions":["wings","pattern"],"bee_group":{"antennae":"X","wings":"1","pattern":"S","legs":"X"},"bonus":1.040000000000001},{"rt":776.3999998569489,"stimulus":"bees-with-color/bee-B1DF.svg","response":1,"trial_type":"image-button-response","trial_index":155,"time_elapsed":679679,"internal_node_id":"0.0-6.0-0.15","subject_id":"60ffe904432e387cabb282b3","study_id":"6197b3f67c2b5cd3b6d9596a","session_id":"6197b9ece104781dd5d7985c","condition":"full-information","relevant_dimensions":["wings","pattern"],"bee_group":{"antennae":"X","wings":"1","pattern":"S","legs":"X"},"bonu