[{"success":true,"trial_type":"fullscreen","trial_index":0,"time_elapsed":4954,"internal_node_id":"0.0-0.0","subject_id":"616e17e39be6eea6a322fcb7","study_id":"6197b3f67c2b5cd3b6d9596a","session_id":"619be32149943bac4f21143d","condition":"contingent","relevant_dimensions":["pattern","legs"],"bee_group":{"antennae":"X","wings":"X","pattern":"S","legs":"M"},"bonus":1.0400000000000007},{"success":true,"timeout":false,"failed_images":[],"failed_audio":[],"failed_video":[],"trial_type":"preload","trial_index":1,"time_elapsed":6381,"internal_node_id":"0.0-1.0","subject_id":"616e17e39be6eea6a322fcb7","study_id":"6197b3f67c2b5cd3b6d9596a","session_id":"619be32149943bac4f21143d","condition":"contingent","relevant_dimensions":["pattern","legs"],"bee_group":{"antennae":"X","wings":"X","pattern":"S","legs":"M"},"bonus":1.0400000000000007},{"rt":1639,"stimulus":"Welcome! Press any key to begin.","response":" ","trial_type":"html-keyboard-response","trial_index":2,"time_elapsed":8021,"internal_node_id":"0.0-2.0","subject_id":"616e17e39be6eea6a322fcb7","study_id":"6197b3f67c2b5cd3b6d9596a","session_id":"619be32149943bac4f21143d","condition":"contingent","relevant_dimensions":["pattern","legs"],"bee_group":{"antennae":"X","wings":"X","pattern":"S","legs":"M"},"bonus":1.0400000000000007},{"view_history":[{"page_index":0,"viewing_time":3681.100000023842},{"page_index":1,"viewing_time":10254.299999952316},{"page_index":2,"viewing_time":9689.600000023842},{"page_index":3,"viewing_time":13680.5},{"page_index":4,"viewing_time":4773.399999976158},{"page_index":5,"viewing_time":8577.100000023842},{"page_index":6,"viewing_time":10534.100000023842},{"page_index":7,"viewing_time":7358.599999964237},{"page_index":8,"viewing_time":3445.900000035763},{"page_index":9,"viewing_time":6906},{"page_index":10,"viewing_time":18306.19999998808},{"page_index":11,"viewing_time":36472.19999998808},{"page_index":12,"viewing_time":8854.199999988079},{"page_index":13,"viewing_time":1416.300000011921},{"page_index":14,"viewing_time":2570}],"rt":146519.89999997616,"trial_type":"instructions","trial_index":3,"time_elapsed":154543,"internal_node_id":"0.0-3.0-0.0","subject_id":"616e17e39be6eea6a322fcb7","study_id":"6197b3f67c2b5cd3b6d9596a","session_id":"619be32149943bac4f21143d","condition":"contingent","relevant_dimensions":["pattern","legs"],"bee_group":{"antennae":"X","wings":"X","pattern":"S","legs":"M"},"bonus":1.0400000000000007},{"rt":10906.199999988079,"response":{"Q0":["Two or six legs","Stripes or spots on body","Single or double wings","Antennae or no antennae"]},"question_order":[0],"trial_type":"survey-multi-select","trial_index":4,"time_elapsed":165452,"internal_node_id":"0.0-3.0-1.0","subject_id":"616e17e39be6eea6a322fcb7","study_id":"6197b3f67c2b5cd3b6d9596a","session_id":"619be32149943bac4f21143d","condition":"contingent","relevant_dimensions":["pattern","legs"],"bee_group":{"antennae":"X","wings":"X","pattern":"S","legs":"M"},"correct":true,"bonus":1.0400000000000007},{"rt":21033,"response":{"Q1":"No.","Q2":"Based on the four features of the bee.","Q3":"You do not learn if it was friendly or dangerous, and do not alter your bonus."},"question_order":[0,1,2],"trial_type":"survey-multi-choice","trial_index":5,"time_elapsed":186487,"internal_node_id":"0.0-3.0-2.0","subject_id":"616e17e39be6eea6a322fcb7","study_id":"6197b3f67c2b5cd3b6d9596a","session_id":"619be32149943bac4f21143d","condition":"contingent","relevant_dimensions":["pattern","legs"],"bee_group":{"antennae":"X","wings":"X","pattern":"S","legs":"M"},"correct":true,"bonus":1.0400000000000007},{"rt":21367.400000035763,"stimulus":"<p>Congrats, you got everything right<br>When you're ready, click the button below to continue to the experiment.</p>","response":0,"trial_type":"html-button-response","trial_index":6,"time_elapsed":207856,"internal_node_id":"0.0-3.0-3.0","subject_id":"616e17e39be6eea6a322fcb7","study_id":"6197b3f67c2b5cd3b6d9596a","session_id":"619be32149943bac4f21143d","condition":"contingent","relevant_dimensions":["pattern","legs"],"bee_group":{"antennae":"X","wings":"X","pattern":"S","legs":"M"},"bonus":1.0400000000000007},{"rt":9131.199999988079,"stimulus":"bees-with-color/bee-B1DM.svg","response":0,"trial_type":"image-button-response","trial_index":7,"time_elapsed":216989,"internal_node_id":"0.0-4.0-0.0","subject_id":"616e17e39be6eea6a322fcb7","study_id":"6197b3f67c2b5cd3b6d9596a","session_id":"619be32149943bac4f21143d","condition":"contingent","relevant_dimensions":["pattern","legs"],"bee_group":{"antennae":"X","wings":"X","pattern":"S","legs":"M"},"action":"harvest","summary":"good-harvest","bonus":1.0400000000000007},{"rt":7097,"stimulus":"\n                    <p><b>Action: <em>harvest</em></b></p>\n                    <p>This is the bee that you just saw.</p>\n                    <img src=\"bees-with-color/bee-B1DM.svg\" width=\"200\">\n                    <p><span class=\"greenText\"><b>Successful harvest!</b></span><br>Your pay has increased by $0.02. Your bonus pay is now $0.56.</p>\n            ","response":0,"trial_type":"html-button-response","trial_index":8,"time_elapsed":224088,"internal_node_id":"0.0-4.0-1.0","subject_id":"616e17e39be6eea6a322fcb7","study_id":"6197b3f67c2b5cd3b6d9596a","session_id":"619be32149943bac4f21143d","condition":"contingent","relevant_dimensions":["pattern","legs"],"bee_group":{"antennae":"X","wings":"X","pattern":"S","legs":"M"},"bonus":1.0400000000000007},{"rt":3382.100000023842,"stimulus":"bees-with-color/bee-A2DF.svg","response":1,"trial_type":"image-button-response","trial_index":9,"time_elapsed":227472,"internal_node_id":"0.0-4.0-0.1","subject_id":"616e17e39be6eea6a322fcb7","study_id":"6197b3f67c2b5cd3b6d9596a","session_id":"619be32149943bac4f21143d","condition":"contingent","relevant_dimensions":["pattern","legs"],"bee_group":{"antennae":"X","wings":"X","pattern":"S","legs":"M"},"action":"avoid","summary":"bad-avoid","bonus":1.0400000000000007},{"rt":15903.300000011921,"stimulus":"\n                    <p><b>Action: <em>avoid</em></b></p>\n                    <p>This is the bee that you just saw.</p>\n                    <img src=\"bees-with-color/bee-A2DF.svg\" width=\"200\">\n                    <p><br>Your bonus pay is unchanged, and remains at $0.56.</p>\n            ","response":0,"trial_type":"html-button-response","trial_index":10,"time_elapsed":243377,"internal_node_id":"0.0-4.0-1.1","subject_id":"616e17e39be6eea6a322fcb7","study_id":"6197b3f67c2b5cd3b6d9596a","session_id":"619be32149943bac4f21143d","condition":"contingent","relevant_dimensions":["pattern","legs"],"bee_group":{"antennae":"X","wings":"X","pattern":"S","legs":"M"},"bonus":1.0400000000000007},{"rt":1195.9000000357628,"stimulus":"bees-with-color/bee-B1SM.svg","response":0,"trial_type":"image-button-response","trial_index":11,"time_elapsed":244574,"internal_node_id":"0.0-4.0-0.2","subject_id":"616e17e39be6eea6a322fcb7","study_id":"6197b3f67c2b5cd3b6d9596a","session_id":"619be32149943bac4f21143d","condition":"contingent","relevant_dimensions":["pattern","legs"],"bee_group":{"antennae":"X","wings":"X","pattern":"S","legs":"M"},"action":"harvest","summary":"bad-harvest","bonus":1.0400000000000007},{"rt":23334.399999976158,"stimulus":"\n                    <p><b>Action: <em>harvest</em></b></p>\n                    <p>This is the bee that you just saw.</p>\n                    <img src=\"bees-with-color/bee-B1SM.svg\" width=\"200\">\n                    <p><span class=\"redText\">Bad choice, the bee was angry.</span><br><b>You have been stung!</b><br>Your pay has been decreased by $0.10. Your bonus pay is now $0.46.</p>\n            ","response":0,"trial_type":"html-button-response","trial_index":12,"time_elapsed":267909,"internal_node_id":"0.0-4.0-1.2","subject_id":"616e17e39be6eea6a322fcb7","study_id":"6197b3f67c2b5cd3b6d9596a","session_id":"619be32149943bac4f21143d","condition":"contingent","relevant_dimensions":["pattern","legs"],"bee_group":{"antennae":"X","wings":"X","pattern":"S","legs":"M"},"bonus":1.0400000000000007},{"rt":16198.800000011921,"stimulus":"bees-with-color/bee-A1SF.svg","response":0,"trial_type":"image-button-response","trial_index":13,"time_elapsed":284109,"internal_node_id":"0.0-4.0-0.3","subject_id":"616e17e39be6eea6a322fcb7","study_id":"6197b3f67c2b5cd3b6d9596a","session_id":"619be32149943bac4f21143d","condition":"contingent","relevant_dimensions":["pattern","legs"],"bee_group":{"antennae":"X","wings":"X","pattern":"S","legs":"M"},"action":"harvest","summary":"good-harvest","bonus":1.0400000000000007},{"rt":8397.800000011921,"stimulus":"\n                    <p><b>Action: <em>harvest</em></b></p>\n                    <p>This is the bee that you just saw.</p>\n                    <img src=\"bees-with-color/bee-A1SF.svg\" width=\"200\">\n                    <p><span class=\"greenText\"><b>Successful harvest!</b></span><br>Your pay has increased by $0.02. Your bonus pay is now $0.48.</p>\n            ","response":0,"trial_type":"html-button-response","trial_index":14,"time_elapsed":292508,"internal_node_id":"0.0-4.0-1.3","subject_id":"616e17e39be6eea6a322fcb7","study_id":"6197b3f67c2b5cd3b6d9596a","session_id":"619be32149943bac4f21143d","condition":"contingent","relevant_dimensions":["pattern","legs"],"bee_group":{"antennae":"X","wings":"X","pattern":"S","legs":"M"},"bonus":1.0400000000000007},{"rt":12026.599999964237,"stimulus":"bees-with-color/bee-A1DF.svg","response":0,"trial_type":"image-button-response","trial_index":15,"time_elapsed":304536,"internal_node_id":"0.0-4.0-0.4","subject_id":"616e17e39be6eea6a322fcb7","study_id":"6197b3f67c2b5cd3b6d9596a","session_id":"619be32149943bac4f21143d","condition":"contingent","relevant_dimensions":["pattern","legs"],"bee_group":{"antennae":"X","wings":"X","pattern":"S","legs":"M"},"action":"harvest","summary":"good-harvest","bonus":1.0400000000000007},{"rt":6292.800000011921,"stimulus":"\n                    <p><b>Action: <em>harvest</em></b></p>\n                    <p>This is the bee that you just saw.</p>\n                    <img src=\"bees-with-color/bee-A1DF.svg\" width=\"200\">\n                    <p><span class=\"greenText\"><b>Successful harvest!</b></span><br>Your pay has increased by $0.02. Your bonus pay is now $0.50.</p>\n            ","response":0,"trial_type":"html-button-response","trial_index":16,"time_elapsed":310830,"internal_node_id":"0.0-4.0-1.4","subject_id":"616e17e39be6eea6a322fcb7","study_id":"6197b3f67c2b5cd3b6d9596a","session_id":"619be32149943bac4f21143d","condition":"contingent","relevant_dimensions":["pattern","legs"],"bee_group":{"antennae":"X","wings":"X","pattern":"S","legs":"M"},"bonus":1.0400000000000007},{"rt":24531.80000001192,"stimulus":"bees-with-color/bee-B2SF.svg","response":1,"trial_type":"image-button-response","trial_index":17,"time_elapsed":335363,"internal_node_id":"0.0-4.0-0.5","subject_id":"616e17e39be6eea6a322fcb7","study_id":"6197b3f67c2b5cd3b6d9596a","session_id":"619be32149943bac4f21143d","condition":"contingent","relevant_dimensions":["pattern","legs"],"bee_group":{"antennae":"X","wings":"X","pattern":"S","legs":"M"},"action":"avoid","summary":"bad-avoid","bonus":1.0400000000000007},{"rt":1134.5999999642372,"stimulus":"\n                    <p><b>Action: <em>avoid</em></b></p>\n                    <p>This is the bee that you just saw.</p>\n                    <img src=\"bees-with-color/bee-B2SF.svg\" width=\"200\">\n                    <p><br>Your bonus pay is unchanged, and remains at $0.50.</p>\n            ","response":0,"trial_type":"html-button-response","trial_index":18,"time_elapsed":336499,"internal_node_id":"0.0-4.0-1.5","subject_id":"616e17e39be6eea6a322fcb7","study_id":"6197b3f67c2b5cd3b6d9596a","session_id":"619be32149943bac4f21143d","condition":"contingent","relevant_dimensions":["pattern","legs"],"bee_group":{"antennae":"X","wings":"X","pattern":"S","legs":"M"},"bonus":1.0400000000000007},{"rt":1314,"stimulus":"bees-with-color/bee-A2SM.svg","response":1,"trial_type":"image-button-response","trial_index":19,"time_elapsed":337814,"internal_node_id":"0.0-4.0-0.6","subject_id":"616e17e39be6eea6a322fcb7","study_id":"6197b3f67c2b5cd3b6d9596a","session_id":"619be32149943bac4f21143d","condition":"contingent","relevant_dimensions":["pattern","legs"],"bee_group":{"antennae":"X","wings":"X","pattern":"S","legs":"M"},"action":"avoid","summary":"good-avoid","bonus":1.0400000000000007},{"rt":652.6999999880791,"stimulus":"\n                    <p><b>Action: <em>avoid</em></b></p>\n                    <p>This is the bee that you just saw.</p>\n                    <img src=\"bees-with-color/bee-A2SM.svg\" width=\"200\">\n                    <p><br>Your bonus pay is unchanged, and remains at $0.50.</p>\n            ","response":0,"trial_type":"html-button-response","trial_index":20,"time_elapsed":338468,"internal_node_id":"0.0-4.0-1.6","subject_id":"616e17e39be6eea6a322fcb7","study_id":"6197b3f67c2b5cd3b6d9596a","session_id":"619be32149943bac4f21143d","condition":"contingent","relevant_dimensions":["pattern","legs"],"bee_group":{"antennae":"X","wings":"X","pattern":"S","legs":"M"},"bonus":1.0400000000000007},{"rt":852.6000000238419,"stimulus":"bees-with-color/bee-A1DM.svg","response":0,"trial_type":"image-button-response","trial_index":21,"time_elapsed":339322,"internal_node_id":"0.0-4.0-0.7","subject_id":"616e17e39be6eea6a322fcb7","study_id":"6197b3f67c2b5cd3b6d9596a","session_id":"619be32149943bac4f21143d","condition":"contingent","relevant_dimensions":["pattern","legs"],"bee_group":{"antennae":"X","wings":"X","pattern":"S","legs":"M"},"action":"harvest","summary":"good-harvest","bonus":1.0400000000000007},{"rt":9303.5,"stimulus":"\n                    <p><b>Action: <em>harvest</em></b></p>\n                    <p>This is the bee that you just saw.</p>\n                    <img src=\"bees-with-color/bee-A1DM.svg\" width=\"200\">\n                    <p><span class=\"greenText\"><b>Successful harvest!</b></span><br>Your pay has increased by $0.02. Your bonus pay is now $0.52.</p>\n            ","response":0,"trial_type":"html-button-response","trial_index":22,"time_elapsed":348626,"internal_node_id":"0.0-4.0-1.7","subject_id":"616e17e39be6eea6a322fcb7","study_id":"6197b3f67c2b5cd3b6d9596a","session_id":"619be32149943bac4f21143d","condition":"contingent","relevant_dimensions":["pattern","legs"],"bee_group":{"antennae":"X","wings":"X","pattern":"S","legs":"M"},"bonus":1.0400000000000007},{"rt":4425.800000011921,"stimulus":"bees-with-color/bee-B1SF.svg","response":0,"trial_type":"image-button-response","trial_index":23,"time_elapsed":353053,"internal_node_id":"0.0-4.0-0.8","subject_id":"616e17e39be6eea6a322fcb7","study_id":"6197b3f67c2b5cd3b6d9596a","session_id":"619be32149943bac4f21143d","condition":"contingent","relevant_dimensions":["pattern","legs"],"bee_group":{"antennae":"X","wings":"X","pattern":"S","legs":"M"},"action":"harvest","summary":"good-harvest","bonus":1.0400000000000007},{"rt":1732.7999999523163,"stimulus":"\n                    <p><b>Action: <em>harvest</em></b></p>\n                    <p>This is the bee that you just saw.</p>\n                    <img src=\"bees-with-color/bee-B1SF.svg\" width=\"200\">\n                    <p><span class=\"greenText\"><b>Successful harvest!</b></span><br>Your pay has increased by $0.02. Your bonus pay is now $0.54.</p>\n            ","response":0,"trial_type":"html-button-response","trial_index":24,"time_elapsed":354787,"internal_node_id":"0.0-4.0-1.8","subject_id":"616e17e39be6eea6a322fcb7","study_id":"6197b3f67c2b5cd3b6d9596a","session_id":"619be32149943bac4f21143d","condition":"contingent","relevant_dimensions":["pattern","legs"],"bee_group":{"antennae":"X","wings":"X","pattern":"S","legs":"M"},"bonus":1.0400000000000007},{"rt":2878,"stimulus":"bees-with-color/bee-A1SM.svg","response":0,"trial_type":"image-button-response","trial_index":25,"time_elapsed":357666,"internal_node_id":"0.0-4.0-0.9","subject_id":"616e17e39be6eea6a322fcb7","study_id":"6197b3f67c2b5cd3b6d9596a","session_id":"619be32149943bac4f21143d","condition":"contingent","relevant_dimensions":["pattern","legs"],"bee_group":{"antennae":"X","wings":"X","pattern":"S","legs":"M"},"action":"harvest","summary":"bad-harvest","bonus":1.0400000000000007},{"rt":20544.899999976158,"stimulus":"\n                    <p><b>Action: <em>harvest</em></b></p>\n                    <p>This is the bee that you just saw.</p>\n                    <img src=\"bees-with-color/bee-A1SM.svg\" width=\"200\">\n                    <p><span class=\"redText\">Bad choice, the bee was angry.</span><br><b>You have been stung!</b><br>Your pay has been decreased by $0.10. Your bonus pay is now $0.44.</p>\n            ","response":0,"trial_type":"html-button-response","trial_index":26,"time_elapsed":378212,"internal_node_id":"0.0-4.0-1.9","subject_id":"616e17e39be6eea6a322fcb7","study_id":"6197b3f67c2b5cd3b6d9596a","session_id":"619be32149943bac4f21143d","condition":"contingent","relevant_dimensions":["pattern","legs"],"bee_group":{"antennae":"X","wings":"X","pattern":"S","legs":"M"},"bonus":1.0400000000000007},{"rt":3244.899999976158,"stimulus":"bees-with-color/bee-B2SM.svg","response":1,"trial_type":"image-button-response","trial_index":27,"time_elapsed":381458,"internal_node_id":"0.0-4.0-0.10","subject_id":"616e17e39be6eea6a322fcb7","study_id":"6197b3f67c2b5cd3b6d9596a","session_id":"619be32149943bac4f21143d","condition":"contingent","relevant_dimensions":["pattern","legs"],"bee_group":{"antennae":"X","wings":"X","pattern":"S","legs":"M"},"action":"avoid","summary":"good-avoid","bonus":1.0400000000000007},{"rt":806.6000000238419,"stimulus":"\n                    <p><b>Action: <em>avoid</em></b></p>\n                    <p>This is the bee that you just saw.</p>\n                    <img src=\"bees-with-color/bee-B2SM.svg\" width=\"200\">\n                    <p><br>Your bonus pay is unchanged, and remains at $0.44.</p>\n            ","response":0,"trial_type":"html-button-response","trial_index":28,"time_elapsed":382266,"internal_node_id":"0.0-4.0-1.10","subject_id":"616e17e39be6eea6a322fcb7","study_id":"6197b3f67c2b5cd3b6d9596a","session_id":"619be32149943bac4f21143d","condition":"contingent","relevant_dimensions":["pattern","legs"],"bee_group":{"antennae":"X","wings":"X","pattern":"S","legs":"M"},"bonus":1.0400000000000007},{"rt":2820.399999976158,"stimulus":"bees-with-color/bee-A2DM.svg","response":0,"trial_type":"image-button-response","trial_index":29,"time_elapsed":385087,"internal_node_id":"0.0-4.0-0.11","subject_id":"616e17e39be6eea6a322fcb7","study_id":"6197b3f67c2b5cd3b6d9596a","session_id":"619be32149943bac4f21143d","condition":"contingent","relevant_dimensions":["pattern","legs"],"bee_group":{"antennae":"X","wings":"X","pattern":"S","legs":"M"},"action":"harvest","summary":"good-harvest","bonus":1.0400000000000007},{"rt":4252.399999976158,"stimulus":"\n                    <p><b>Action: <em>harvest</em></b></p>\n                    <p>This is the bee that you just saw.</p>\n                    <img src=\"bees-with-color/bee-A2DM.svg\" width=\"200\">\n                    <p><span class=\"greenText\"><b>Successful harvest!</b></span><br>Your pay has increased by $0.02. Your bonus pay is now $0.46.</p>\n            ","response":0,"trial_type":"html-button-response","trial_index":30,"time_elapsed":389340,"internal_node_id":"0.0-4.0-1.11","subject_id":"616e17e39be6eea6a322fcb7","study_id":"6197b3f67c2b5cd3b6d9596a","session_id":"619be32149943bac4f21143d","condition":"contingent","relevant_dimensions":["pattern","legs"],"bee_group":{"antennae":"X","wings":"X","pattern":"S","legs":"M"},"bonus":1.0400000000000007},{"rt":3873.699999988079,"stimulus":"bees-with-color/bee-B2DM.svg","response":1,"trial_type":"image-button-response","trial_index":31,"time_elapsed":393215,"internal_node_id":"0.0-4.0-0.12","subject_id":"616e17e39be6eea6a322fcb7","study_id":"6197b3f67c2b5cd3b6d9596a","session_id":"619be32149943bac4f21143d","condition":"contingent","relevant_dimensions":["pattern","legs"],"bee_group":{"antennae":"X","wings":"X","pattern":"S","legs":"M"},"action":"avoid","summary":"bad-avoid","bonus":1.0400000000000007},{"rt":858.8999999761581,"stimulus":"\n                    <p><b>Action: <em>avoid</em></b></p>\n                    <p>This is the bee that you just saw.</p>\n                    <img src=\"bees-with-color/bee-B2DM.svg\" width=\"200\">\n                    <p><br>Your bonus pay is unchanged, and remains at $0.46.</p>\n            ","response":0,"trial_type":"html-button-response","trial_index":32,"time_elapsed":394075,"internal_node_id":"0.0-4.0-1.12","subject_id":"616e17e39be6eea6a322fcb7","study_id":"6197b3f67c2b5cd3b6d9596a","session_id":"619be32149943bac4f21143d","condition":"contingent","relevant_dimensions":["pattern","legs"],"bee_group":{"antennae":"X","wings":"X","pattern":"S","legs":"M"},"bonus":1.0400000000000007},{"rt":20952.399999976158,"stimulus":"bees-with-color/bee-B1DF.svg","response":1,"trial_type":"image-button-response","trial_index":33,"time_elapsed":415029,"internal_node_id":"0.0-4.0-0.13","subject_id":"616e17e39be6eea6a322fcb7","study_id":"6197b3f67c2b5cd3b6d9596a","session_id":"619be32149943bac4f21143d","condition":"contingent","relevant_dimensions":["pattern","legs"],"bee_group":{"antennae":"X","wings":"X","pattern":"S","legs":"M"},"action":"avoid","summary":"bad-avoid","bonus":1.0400000000000007},{"rt":4431.199999988079,"stimulus":"\n                    <p><b>Action: <em>avoid</em></b></p>\n                    <p>This is the bee that you just saw.</p>\n                    <img src=\"bees-with-color/bee-B1DF.svg\" width=\"200\">\n                    <p><br>Your bonus pay is unchanged, and remains at $0.46.</p>\n            ","response":0,"trial_type":"html-button-response","trial_index":34,"time_elapsed":419461,"internal_node_id":"0.0-4.0-1.13","subject_id":"616e17e39be6eea6a322fcb7","study_id":"6197b3f67c2b5cd3b6d9596a","session_id":"619be32149943bac4f21143d","condition":"contingent","relevant_dimensions":["pattern","legs"],"bee_group":{"antennae":"X","wings":"X","pattern":"S","legs":"M"},"bonus":1.0400000000000007},{"rt":9212.199999988079,"stimulus":"bees-with-color/bee-A2SF.svg","response":0,"trial_type":"image-button-response","trial_index":35,"time_elapsed":428674,"internal_node_id":"0.0-4.0-0.14","subject_id":"616e17e39be6eea6a322fcb7","study_id":"6197b3f67c2b5cd3b6d9596a","session_id":"619be32149943bac4f21143d","condition":"contingent","relevant_dimensions":["pattern","legs"],"bee_group":{"antennae":"X","wings":"X","pattern":"S","legs":"M"},"action":"harvest","summary":"good-harvest","bonus":1.0400000000000007},{"rt":4214.5,"stimulus":"\n                    <p><b>Action: <em>harvest</em></b></p>\n                    <p>This is the bee that you just saw.</p>\n                    <img src=\"bees-with-color/bee-A2SF.svg\" width=\"200\">\n                    <p><span class=\"greenText\"><b>Successful harvest!</b></span><br>Your pay has increased by $0.02. Your bonus pay is now $0.48.</p>\n            ","response":0,"trial_type":"html-button-response","trial_index":36,"time_elapsed":432890,"internal_node_id":"0.0-4.0-1.14","subject_id":"616e17e39be6eea6a322fcb7","study_id":"6197b3f67c2b5cd3b6d9596a","session_id":"619be32149943bac4f21143d","condition":"contingent","relevant_dimensions":["pattern","legs"],"bee_group":{"antennae":"X","wings":"X","pattern":"S","legs":"M"},"bonus":1.0400000000000007},{"rt":2072.2000000476837,"stimulus":"bees-with-color/bee-B2DF.svg","response":1,"trial_type":"image-button-response","trial_index":37,"time_elapsed":434963,"internal_node_id":"0.0-4.0-0.15","subject_id":"616e17e39be6eea6a322fcb7","study_id":"6197b3f67c2b5cd3b6d9596a","session_id":"619be32149943bac4f21143d","condition":"contingent","relevant_dimensions":["pattern","legs"],"bee_group":{"antennae":"X","wings":"X","pattern":"S","legs":"M"},"action":"avoid","summary":"bad-avoid","bonus":1.0400000000000007},{"rt":678.8000000119209,"stimulus":"\n                    <p><b>Action: <em>avoid</em></b></p>\n                    <p>This is the bee that you just saw.</p>\n                    <img src=\"bees-with-color/bee-B2DF.svg\" width=\"200\">\n                    <p><br>Your bonus pay is unchanged, and remains at $0.48.</p>\n            ","response":0,"trial_type":"html-button-response","trial_index":38,"time_elapsed":435644,"internal_node_id":"0.0-4.0-1.15","subject_id":"616e17e39be6eea6a322fcb7","study_id":"6197b3f67c2b5cd3b6d9596a","session_id":"619be32149943bac4f21143d","condition":"contingent","relevant_dimensions":["pattern","legs"],"bee_group":{"antennae":"X","wings":"X","pattern":"S","legs":"M"},"bonus":1.0400000000000007},{"rt":5900,"stimulus":"bees-with-color/bee-A2DM.svg","response":0,"trial_type":"image-button-response","trial_index":39,"time_elapsed":441545,"internal_node_id":"0.0-4.0-0.16","subject_id":"616e17e39be6eea6a322fcb7","study_id":"6197b3f67c2b5cd3b6d9596a","session_id":"619be32149943bac4f21143d","condition":"contingent","relevant_dimensions":["pattern","legs"],"bee_group":{"antennae":"X","wings":"X","pattern":"S","legs":"M"},"action":"harvest","summary":"good-harvest","bonus":1.0400000000000007},{"rt":751.3000000119209,"stimulus":"\n                    <p><b>Action: <em>harvest</em></b></p>\n                    <p>This is the bee that you just saw.</p>\n                    <img src=\"bees-with-color/bee-A2DM.svg\" width=\"200\">\n                    <p><span class=\"greenText\"><b>Successful harvest!</b></span><br>Your pay has increased by $0.02. Your bonus pay is now $0.50.</p>\n            ","response":0,"trial_type":"html-button-response","trial_index":40,"time_elapsed":442297,"internal_node_id":"0.0-4.0-1.16","subject_id":"616e17e39be6eea6a322fcb7","study_id":"6197b3f67c2b5cd3b6d9596a","session_id":"619be32149943bac4f21143d","condition":"contingent","relevant_dimensions":["pattern","legs"],"bee_group":{"antennae":"X","wings":"X","pattern":"S","legs":"M"},"bonus":1.0400000000000007},{"rt":7565.100000023842,"stimulus":"bees-with-color/bee-B1DF.svg","response":1,"trial_type":"image-button-response","trial_index":41,"time_elapsed":449864,"internal_node_id":"0.0-4.0-0.17","subject_id":"616e17e39be6eea6a322fcb7","study_id":"6197b3f67c2b5cd3b6d9596a","session_id":"619be32149943bac4f21143d","condition":"contingent","relevant_dimensions":["pattern","legs"],"bee_group":{"antennae":"X","wings":"X","pattern":"S","legs":"M"},"action":"avoid","summary":"bad-avoid","bonus":1.0400000000000007},{"rt":890.8000000119209,"stimulus":"\n                    <p><b>Action: <em>avoid</em></b></p>\n                    <p>This is the bee that you just saw.</p>\n                    <img src=\"bees-with-color/bee-B1DF.svg\" width=\"200\">\n                    <p><br>Your bonus pay is unchanged, and remains at $0.50.</p>\n            ","response":0,"trial_type":"html-button-response","trial_index":42,"time_elapsed":450756,"internal_node_id":"0.0-4.0-1.17","subject_id":"616e17e39be6eea6a322fcb7","study_id":"6197b3f67c2b5cd3b6d9596a","session_id":"619be32149943bac4f21143d","condition":"contingent","relevant_dimensions":["pattern","legs"],"bee_group":{"antennae":"X","wings":"X","pattern":"S","legs":"M"},"bonus":1.0400000000000007},{"rt":7694.399999976158,"stimulus":"bees-with-color/bee-B2DF.svg","response":0,"trial_type":"image-button-response","trial_index":43,"time_elapsed":458451,"internal_node_id":"0.0-4.0-0.18","subject_id":"616e17e39be6eea6a322fcb7","study_id":"6197b3f67c2b5cd3b6d9596a","session_id":"619be32149943bac4f21143d","condition":"contingent","relevant_dimensions":["pattern","legs"],"bee_group":{"antennae":"X","wings":"X","pattern":"S","legs":"M"},"action":"harvest","summary":"good-harvest","bonus":1.0400000000000007},{"rt":3639.7000000476837,"stimulus":"\n                    <p><b>Action: <em>harvest</em></b></p>\n                    <p>This is the bee that you just saw.</p>\n                    <img src=\"bees-with-color/bee-B2DF.svg\" width=\"200\">\n                    <p><span class=\"greenText\"><b>Successful harvest!</b></span><br>Your pay has increased by $0.02. Your bonus pay is now $0.52.</p>\n            ","response":0,"trial_type":"html-button-response","trial_index":44,"time_elapsed":462092,"internal_node_id":"0.0-4.0-1.18","subject_id":"616e17e39be6eea6a322fcb7","study_id":"6197b3f67c2b5cd3b6d9596a","session_id":"619be32149943bac4f21143d","condition":"contingent","relevant_dimensions":["pattern","legs"],"bee_group":{"antennae":"X","wings":"X","pattern":"S","legs":"M"},"bonus":1.0400000000000007},{"rt":10837.100000023842,"stimulus":"bees-with-color/bee-B1SF.svg","response":1,"trial_type":"image-button-response","trial_index":45,"time_elapsed":472931,"internal_node_id":"0.0-4.0-0.19","subject_id":"616e17e39be6eea6a322fcb7","study_id":"6197b3f67c2b5cd3b6d9596a","session_id":"619be32149943bac4f21143d","condition":"contingent","relevant_dimensions":["pattern","legs"],"bee_group":{"antennae":"X","wings":"X","pattern":"S","legs":"M"},"action":"avoid","summary":"bad-avoid","bonus":1.0400000000000007},{"rt":722,"stimulus":"\n                    <p><b>Action: <em>avoid</em></b></p>\n                    <p>This is the bee that you just saw.</p>\n                    <img src=\"bees-with-color/bee-B1SF.svg\" width=\"200\">\n                    <p><br>Your bonus pay is unchanged, and remains at $0.52.</p>\n            ","response":0,"trial_type":"html-button-response","trial_index":46,"time_elapsed":473654,"internal_node_id":"0.0-4.0-1.19","subject_id":"616e17e39be6eea6a322fcb7","study_id":"6197b3f67c2b5cd3b6d9596a","session_id":"619be32149943bac4f21143d","condition":"contingent","relevant_dimensions":["pattern","legs"],"bee_group":{"antennae":"X","wings":"X","pattern":"S","legs":"M"},"bonus":1.0400000000000007},{"rt":4051,"stimulus":"bees-with-color/bee-B1SM.svg","response":1,"trial_type":"image-button-response","trial_index":47,"time_elapsed":477705,"internal_node_id":"0.0-4.0-0.20","subject_id":"616e17e39be6eea6a322fcb7","study_id":"6197b3f67c2b5cd3b6d9596a","session_id":"619be32149943bac4f21143d","condition":"contingent","relevant_dimensions":["pattern","legs"],"bee_group":{"antennae":"X","wings":"X","pattern":"S","legs":"M"},"action":"avoid","summary":"good-avoid","bonus":1.0400000000000007},{"rt":741.2000000476837,"stimulus":"\n                    <p><b>Action: <em>avoid</em></b></p>\n                    <p>This is the bee that you just saw.</p>\n                    <img src=\"bees-with-color/bee-B1SM.svg\" width=\"200\">\n                    <p><br>Your bonus pay is unchanged, and remains at $0.52.</p>\n            ","response":0,"trial_type":"html-button-response","trial_index":48,"time_elapsed":478447,"internal_node_id":"0.0-4.0-1.20","subject_id":"616e17e39be6eea6a322fcb7","study_id":"6197b3f67c2b5cd3b6d9596a","session_id":"619be32149943bac4f21143d","condition":"contingent","relevant_dimensions":["pattern","legs"],"bee_group":{"antennae":"X","wings":"X","pattern":"S","legs":"M"},"bonus":1.0400000000000007},{"rt":8530.600000023842,"stimulus":"bees-with-color/bee-A1DM.svg","response":0,"trial_type":"image-button-response","trial_index":49,"time_elapsed":486979,"internal_node_id":"0.0-4.0-0.21","subject_id":"616e17e39be6eea6a322fcb7","study_id":"6197b3f67c2b5cd3b6d9596a","session_id":"619be32149943bac4f21143d","condition":"contingent","relevant_dimensions":["pattern","legs"],"bee_group":{"antennae":"X","wings":"X","pattern":"S","legs":"M"},"action":"harvest","summary":"good-harvest","bonus":1.0400000000000007},{"rt":932.5,"stimulus":"\n                    <p><b>Action: <em>harvest</em></b></p>\n                    <p>This is the bee that you just saw.</p>\n                    <img src=\"bees-with-color/bee-A1DM.svg\" width=\"200\">\n                    <p><span class=\"greenText\"><b>Successful harvest!</b></span><br>Your pay has increased by $0.02. Your bonus pay is now $0.54.</p>\n            ","response":0,"trial_type":"html-button-response","trial_index":50,"time_elapsed":487913,"internal_node_id":"0.0-4.0-1.21","subject_id":"616e17e39be6eea6a322fcb7","study_id":"6197b3f67c2b5cd3b6d9596a","session_id":"619be32149943bac4f21143d","condition":"contingent","relevant_dimensions":["pattern","legs"],"bee_group":{"antennae":"X","wings":"X","pattern":"S","legs":"M"},"bonus":1.0400000000000007},{"rt":6438.5,"stimulus":"bees-with-color/bee-A2SM.svg","response":1,"trial_type":"image-button-response","trial_index":51,"time_elapsed":494352,"internal_node_id":"0.0-4.0-0.22","subject_id":"616e17e39be6eea6a322fcb7","study_id":"6197b3f67c2b5cd3b6d9596a","session_id":"619be32149943bac4f21143d","condition":"contingent","relevant_dimensions":["pattern","legs"],"bee_group":{"antennae":"X","wings":"X","pattern":"S","legs":"M"},"action":"avoid","summary":"good-avoid","bonus":1.0400000000000007},{"rt":527.7000000476837,"stimulus":"\n                    <p><b>Action: <em>avoid</em></b></p>\n                    <p>This is the bee that you just saw.</p>\n                    <img src=\"bees-with-color/bee-A2SM.svg\" width=\"200\">\n                    <p><br>Your bonus pay is unchanged, and remains at $0.54.</p>\n            ","response":0,"trial_type":"html-button-response","trial_index":52,"time_elapsed":494881,"internal_node_id":"0.0-4.0-1.22","subject_id":"616e17e39be6eea6a322fcb7","study_id":"6197b3f67c2b5cd3b6d9596a","session_id":"619be32149943bac4f21143d","condition":"contingent","relevant_dimensions":["pattern","legs"],"bee_group":{"antennae":"X","wings":"X","pattern":"S","legs":"M"},"bonus":1.0400000000000007},{"rt":8624.5,"stimulus":"bees-with-color/bee-A1SF.svg","response":0,"trial_type":"image-button-response","trial_index":53,"time_elapsed":503507,"internal_node_id":"0.0-4.0-0.23","subject_id":"616e17e39be6eea6a322fcb7","study_id":"6197b3f67c2b5cd3b6d9596a","session_id":"619be32149943bac4f21143d","condition":"contingent","relevant_dimensions":["pattern","legs"],"bee_group":{"antennae":"X","wings":"X","pattern":"S","legs":"M"},"action":"harvest","summary":"good-harvest","bonus":1.0400000000000007},{"rt":915.4000000357628,"stimulus":"\n                    <p><b>Action: <em>harvest</em></b></p>\n                    <p>This is the bee that you just saw.</p>\n                    <img src=\"bees-with-color/bee-A1SF.svg\" width=\"200\">\n                    <p><span class=\"greenText\"><b>Successful harvest!</b></span><br>Your pay has increased by $0.02. Your bonus pay is now $0.56.</p>\n            ","response":0,"trial_type":"html-button-response","trial_index":54,"time_elapsed":504423,"internal_node_id":"0.0-4.0-1.23","subject_id":"616e17e39be6eea6a322fcb7","study_id":"6197b3f67c2b5cd3b6d9596a","session_id":"619be32149943bac4f21143d","condition":"contingent","relevant_dimensions":["pattern","legs"],"bee_group":{"antennae":"X","wings":"X","pattern":"S","legs":"M"},"bonus":1.0400000000000007},{"rt":8492.5,"stimulus":"bees-with-color/bee-B2DM.svg","response":1,"trial_type":"image-button-response","trial_index":55,"time_elapsed":512917,"internal_node_id":"0.0-4.0-0.24","subject_id":"616e17e39be6eea6a322fcb7","study_id":"6197b3f67c2b5cd3b6d9596a","session_id":"619be32149943bac4f21143d","condition":"contingent","relevant_dimensions":["pattern","legs"],"bee_group":{"antennae":"X","wings":"X","pattern":"S","legs":"M"},"action":"avoid","summary":"bad-avoid","bonus":1.0400000000000007},{"rt":539.1999999880791,"stimulus":"\n                    <p><b>Action: <em>avoid</em></b></p>\n                    <p>This is the bee that you just saw.</p>\n                    <img src=\"bees-with-color/bee-B2DM.svg\" width=\"200\">\n                    <p><br>Your bonus pay is unchanged, and remains at $0.56.</p>\n            ","response":0,"trial_type":"html-button-response","trial_index":56,"time_elapsed":513457,"internal_node_id":"0.0-4.0-1.24","subject_id":"616e17e39be6eea6a322fcb7","study_id":"6197b3f67c2b5cd3b6d9596a","session_id":"619be32149943bac4f21143d","condition":"contingent","relevant_dimensions":["pattern","legs"],"bee_group":{"antennae":"X","wings":"X","pattern":"S","legs":"M"},"bonus":1.0400000000000007},{"rt":4455.700000047684,"stimulus":"bees-with-color/bee-B2SM.svg","response":0,"trial_type":"image-button-response","trial_index":57,"time_elapsed":517914,"internal_node_id":"0.0-4.0-0.25","subject_id":"616e17e39be6eea6a322fcb7","study_id":"6197b3f67c2b5cd3b6d9596a","session_id":"619be32149943bac4f21143d","condition":"contingent","relevant_dimensions":["pattern","legs"],"bee_group":{"antennae":"X","wings":"X","pattern":"S","legs":"M"},"action":"harvest","summary":"bad-harvest","bonus":1.0400000000000007},{"rt":852.6999999880791,"stimulus":"\n                    <p><b>Action: <em>harvest</em></b></p>\n                    <p>This is the bee that you just saw.</p>\n                    <img src=\"bees-with-color/bee-B2SM.svg\" width=\"200\">\n                    <p><span class=\"redText\">Bad choice, the bee was angry.</span><br><b>You have been stung!</b><br>Your pay has been decreased by $0.10. Your bonus pay is now $0.46.</p>\n            ","response":0,"trial_type":"html-button-response","trial_index":58,"time_elapsed":518768,"internal_node_id":"0.0-4.0-1.25","subject_id":"616e17e39be6eea6a322fcb7","study_id":"6197b3f67c2b5cd3b6d9596a","session_id":"619be32149943bac4f21143d","condition":"contingent","relevant_dimensions":["pattern","legs"],"bee_group":{"antennae":"X","wings":"X","pattern":"S","legs":"M"},"bonus":1.0400000000000007},{"rt":8310.800000011921,"stimulus":"bees-with-color/bee-A2DF.svg","response":1,"trial_type":"image-button-response","trial_index":59,"time_elapsed":527080,"internal_node_id":"0.0-4.0-0.26","subject_id":"616e17e39be6eea6a322fcb7","study_id":"6197b3f67c2b5cd3b6d9596a","session_id":"619be32149943bac4f21143d","condition":"contingent","relevant_dimensions":["pattern","legs"],"bee_group":{"antennae":"X","wings":"X","pattern":"S","legs":"M"},"action":"avoid","summary":"bad-avoid","bonus":1.0400000000000007},{"rt":748.5,"stimulus":"\n                    <p><b>Action: <em>avoid</em></b></p>\n                    <p>This is the bee that you just saw.</p>\n                    <img src=\"bees-with-color/bee-A2DF.svg\" width=\"200\">\n                    <p><br>Your bonus pay is unchanged, and remains at $0.46.</p>\n            ","response":0,"trial_type":"html-button-response","trial_index":60,"time_elapsed":527829,"internal_node_id":"0.0-4.0-1.26","subject_id":"616e17e39be6eea6a322fcb7","study_id":"6197b3f67c2b5cd3b6d9596a","session_id":"619be32149943bac4f21143d","condition":"contingent","relevant_dimensions":["pattern","legs"],"bee_group":{"antennae":"X","wings":"X","pattern":"S","legs":"M"},"bonus":1.0400000000000007},{"rt":7417.800000011921,"stimulus":"bees-with-color/bee-B1DM.svg","response":0,"trial_type":"image-button-response","trial_index":61,"time_elapsed":535248,"internal_node_id":"0.0-4.0-0.27","subject_id":"616e17e39be6eea6a322fcb7","study_id":"6197b3f67c2b5cd3b6d9596a","session_id":"619be32149943bac4f21143d","condition":"contingent","relevant_dimensions":["pattern","legs"],"bee_group":{"antennae":"X","wings":"X","pattern":"S","legs":"M"},"action":"harvest","summary":"good-harvest","bonus":1.0400000000000007},{"rt":831,"stimulus":"\n                    <p><b>Action: <em>harvest</em></b></p>\n                    <p>This is the bee that you just saw.</p>\n                    <img src=\"bees-with-color/bee-B1DM.svg\" width=\"200\">\n                    <p><span class=\"greenText\"><b>Successful harvest!</b></span><br>Your pay has increased by $0.02. Your bonus pay is now $0.48.</p>\n            ","response":0,"trial_type":"html-button-response","trial_index":62,"time_elapsed":536080,"internal_node_id":"0.0-4.0-1.27","subject_id":"616e17e39be6eea6a322fcb7","study_id":"6197b3f67c2b5cd3b6d9596a","session_id":"619be32149943bac4f21143d","condition":"contingent","relevant_dimensions":["pattern","legs"],"bee_group":{"antennae":"X","wings":"X","pattern":"S","legs":"M"},"bonus":1.0400000000000007},{"rt":5895.900000035763,"stimulus":"bees-with-color/bee-B2SF.svg","response":1,"trial_type":"image-button-response","trial_index":63,"time_elapsed":541977,"internal_node_id":"0.0-4.0-0.28","subject_id":"616e17e39be6eea6a322fcb7","study_id":"6197b3f67c2b5cd3b6d9596a","session_id":"619be32149943bac4f21143d","condition":"contingent","relevant_dimensions":["pattern","legs"],"bee_group":{"antennae":"X","wings":"X","pattern":"S","legs":"M"},"action":"avoid","summary":"bad-avoid","bonus":1.0400000000000007},{"rt":578.5,"stimulus":"\n                    <p><b>Action: <em>avoid</em></b></p>\n                    <p>This is the bee that you just saw.</p>\n                    <img src=\"bees-with-color/bee-B2SF.svg\" width=\"200\">\n                    <p><br>Your bonus pay is unchanged, and remains at $0.48.</p>\n            ","response":0,"trial_type":"html-button-response","trial_index":64,"time_elapsed":542556,"internal_node_id":"0.0-4.0-1.28","subject_id":"616e17e39be6eea6a322fcb7","study_id":"6197b3f67c2b5cd3b6d9596a","session_id":"619be32149943bac4f21143d","condition":"contingent","relevant_dimensions":["pattern","legs"],"bee_group":{"antennae":"X","wings":"X","pattern":"S","legs":"M"},"bonus":1.0400000000000007},{"rt":9670.399999976158,"stimulus":"bees-with-color/bee-A2SF.svg","response":0,"trial_type":"image-button-response","trial_index":65,"time_elapsed":552228,"internal_node_id":"0.0-4.0-0.29","subject_id":"616e17e39be6eea6a322fcb7","study_id":"6197b3f67c2b5cd3b6d9596a","session_id":"619be32149943bac4f21143d","condition":"contingent","relevant_dimensions":["pattern","legs"],"bee_group":{"antennae":"X","wings":"X","pattern":"S","legs":"M"},"action":"harvest","summary":"good-harvest","bonus":1.0400000000000007},{"rt":873.4000000357628,"stimulus":"\n                    <p><b>Action: <em>harvest</em></b></p>\n                    <p>This is the bee that you just saw.</p>\n                    <img src=\"bees-with-color/bee-A2SF.svg\" width=\"200\">\n                    <p><span class=\"greenText\"><b>Successful harvest!</b></span><br>Your pay has increased by $0.02. Your bonus pay is now $0.50.</p>\n            ","response":0,"trial_type":"html-button-response","trial_index":66,"time_elapsed":553103,"internal_node_id":"0.0-4.0-1.29","subject_id":"616e17e39be6eea6a322fcb7","study_id":"6197b3f67c2b5cd3b6d9596a","session_id":"619be32149943bac4f21143d","condition":"contingent","relevant_dimensions":["pattern","legs"],"bee_group":{"antennae":"X","wings":"X","pattern":"S","legs":"M"},"bonus":1.0400000000000007},{"rt":8002,"stimulus":"bees-with-color/bee-A1DF.svg","response":0,"trial_type":"image-button-response","trial_index":67,"time_elapsed":561106,"internal_node_id":"0.0-4.0-0.30","subject_id":"616e17e39be6eea6a322fcb7","study_id":"6197b3f67c2b5cd3b6d9596a","session_id":"619be32149943bac4f21143d","condition":"contingent","relevant_dimensions":["pattern","legs"],"bee_group":{"antennae":"X","wings":"X","pattern":"S","legs":"M"},"action":"harvest","summary":"good-harvest","bonus":1.0400000000000007},{"rt":693.5999999642372,"stimulus":"\n                    <p><b>Action: <em>harvest</em></b></p>\n                    <p>This is the bee that you just saw.</p>\n                    <img src=\"bees-with-color/bee-A1DF.svg\" width=\"200\">\n                    <p><span class=\"greenText\"><b>Successful harvest!</b></span><br>Your pay has increased by $0.02. Your bonus pay is now $0.52.</p>\n            ","response":0,"trial_type":"html-button-response","trial_index":68,"time_elapsed":561801,"internal_node_id":"0.0-4.0-1.30","subject_id":"616e17e39be6eea6a322fcb7","study_id":"6197b3f67c2b5cd3b6d9596a","session_id":"619be32149943bac4f21143d","condition":"contingent","relevant_dimensions":["pattern","legs"],"bee_group":{"antennae":"X","wings":"X","pattern":"S","legs":"M"},"bonus":1.0400000000000007},{"rt":19506.200000047684,"stimulus":"bees-with-color/bee-A1SM.svg","response":1,"trial_type":"image-button-response","trial_index":69,"time_elapsed":581308,"internal_node_id":"0.0-4.0-0.31","subject_id":"616e17e39be6eea6a322fcb7","study_id":"6197b3f67c2b5cd3b6d9596a","session_id":"619be32149943bac4f21143d","condition":"contingent","relevant_dimensions":["pattern","legs"],"bee_group":{"antennae":"X","wings":"X","pattern":"S","legs":"M"},"action":"avoid","summary":"good-avoid","bonus":1.0400000000000007},{"rt":628.6999999880791,"stimulus":"\n                    <p><b>Action: <em>avoid</em></b></p>\n                    <p>This is the bee that you just saw.</p>\n                    <img src=\"bees-with-color/bee-A1SM.svg\" width=\"200\">\n                    <p><br>Your bonus pay is unchanged, and remains at $0.52.</p>\n            ","response":0,"trial_type":"html-button-response","trial_index":70,"time_elapsed":581938,"internal_node_id":"0.0-4.0-1.31","subject_id":"616e17e39be6eea6a322fcb7","study_id":"6197b3f67c2b5cd3b6d9596a","session_id":"619be32149943bac4f21143d","condition":"contingent","relevant_dimensions":["pattern","legs"],"bee_group":{"antennae":"X","wings":"X","pattern":"S","legs":"M"},"bonus":1.0400000000000007},{"rt":8658,"stimulus":"bees-with-color/bee-A1DF.svg","response":0,"trial_type":"image-button-response","trial_index":71,"time_elapsed":590597,"internal_node_id":"0.0-4.0-0.32","subject_id":"616e17e39be6eea6a322fcb7","study_id":"6197b3f67c2b5cd3b6d9596a","session_id":"619be32149943bac4f21143d","condition":"contingent","relevant_dimensions":["pattern","legs"],"bee_group":{"antennae":"X","wings":"X","pattern":"S","legs":"M"},"action":"harvest","summary":"good-harvest","bonus":1.0400000000000007},{"rt":943.1000000238419,"stimulus":"\n                    <p><b>Action: <em>harvest</em></b></p>\n                    <p>This is the bee that you just saw.</p>\n                    <img src=\"bees-with-color/bee-A1DF.svg\" width=\"200\">\n                    <p><span class=\"greenText\"><b>Successful harvest!</b></span><br>Your pay has increased by $0.02. Your bonus pay is now $0.54.</p>\n            ","response":0,"trial_type":"html-button-response","trial_index":72,"time_elapsed":591542,"internal_node_id":"0.0-4.0-1.32","subject_id":"616e17e39be6eea6a322fcb7","study_id":"6197b3f67c2b5cd3b6d9596a","session_id":"619be32149943bac4f21143d","condition":"contingent","relevant_dimensions":["pattern","legs"],"bee_group":{"antennae":"X","wings":"X","pattern":"S","legs":"M"},"bonus":1.0400000000000007},{"rt":10061.299999952316,"stimulus":"bees-with-color/bee-B2DM.svg","response":0,"trial_type":"image-button-response","trial_index":73,"time_elapsed":601604,"internal_node_id":"0.0-4.0-0.33","subject_id":"616e17e39be6eea6a322fcb7","study_id":"6197b3f67c2b5cd3b6d9596a","session_id":"619be32149943bac4f21143d","condition":"contingent","relevant_dimensions":["pattern","legs"],"bee_group":{"antennae":"X","wings":"X","pattern":"S","legs":"M"},"action":"harvest","summary":"good-harvest","bonus":1.0400000000000007},{"rt":830.3000000119209,"stimulus":"\n                    <p><b>Action: <em>harvest</em></b></p>\n                    <p>This is the bee that you just saw.</p>\n                    <img src=\"bees-with-color/bee-B2DM.svg\" width=\"200\">\n                    <p><span class=\"greenText\"><b>Successful harvest!</b></span><br>Your pay has increased by $0.02. Your bonus pay is now $0.56.</p>\n            ","response":0,"trial_type":"html-button-response","trial_index":74,"time_elapsed":602435,"internal_node_id":"0.0-4.0-1.33","subject_id":"616e17e39be6eea6a322fcb7","study_id":"6197b3f67c2b5cd3b6d9596a","session_id":"619be32149943bac4f21143d","condition":"contingent","relevant_dimensions":["pattern","legs"],"bee_group":{"antennae":"X","wings":"X","pattern":"S","legs":"M"},"bonus":1.0400000000000007},{"rt":11236.100000023842,"stimulus":"bees-with-color/bee-B2SF.svg","response":1,"trial_type":"image-button-response","trial_index":75,"time_elapsed":613672,"internal_node_id":"0.0-4.0-0.34","subject_id":"616e17e39be6eea6a322fcb7","study_id":"6197b3f67c2b5cd3b6d9596a","session_id":"619be32149943bac4f21143d","condition":"contingent","relevant_dimensions":["pattern","legs"],"bee_group":{"antennae":"X","wings":"X","pattern":"S","legs":"M"},"action":"avoid","summary":"bad-avoid","bonus":1.0400000000000007},{"rt":961.3999999761581,"stimulus":"\n                    <p><b>Action: <em>avoid</em></b></p>\n                    <p>This is the bee that you just saw.</p>\n                    <img src=\"bees-with-color/bee-B2SF.svg\" width=\"200\">\n                    <p><br>Your bonus pay is unchanged, and remains at $0.56.</p>\n            ","response":0,"trial_type":"html-button-response","trial_index":76,"time_elapsed":614635,"internal_node_id":"0.0-4.0-1.34","subject_id":"616e17e39be6eea6a322fcb7","study_id":"6197b3f67c2b5cd3b6d9596a","session_id":"619be32149943bac4f21143d","condition":"contingent","relevant_dimensions":["pattern","legs"],"bee_group":{"antennae":"X","wings":"X","pattern":"S","legs":"M"},"bonus":1.0400000000000007},{"rt":5569,"stimulus":"bees-with-color/bee-A2DF.svg","response":1,"trial_type":"image-button-response","trial_index":77,"time_elapsed":620205,"internal_node_id":"0.0-4.0-0.35","subject_id":"616e17e39be6eea6a322fcb7","study_id":"6197b3f67c2b5cd3b6d9596a","session_id":"619be32149943bac4f21143d","condition":"contingent","relevant_dimensions":["pattern","legs"],"bee_group":{"antennae":"X","wings":"X","pattern":"S","legs":"M"},"action":"avoid","summary":"bad-avoid","bonus":1.0400000000000007},{"rt":1330.5999999642372,"stimulus":"\n                    <p><b>Action: <em>avoid</em></b></p>\n                    <p>This is the bee that you just saw.</p>\n                    <img src=\"bees-with-color/bee-A2DF.svg\" width=\"200\">\n                    <p><br>Your bonus pay is unchanged, and remains at $0.56.</p>\n            ","response":0,"trial_type":"html-button-response","trial_index":78,"time_elapsed":621537,"internal_node_id":"0.0-4.0-1.35","subject_id":"616e17e39be6eea6a322fcb7","study_id":"6197b3f67c2b5cd3b6d9596a","session_id":"619be32149943bac4f21143d","condition":"contingent","relevant_dimensions":["pattern","legs"],"bee_group":{"antennae":"X","wings":"X","pattern":"S","legs":"M"},"bonus":1.0400000000000007},{"rt":9053.599999964237,"stimulus":"bees-with-color/bee-A2DM.svg","response":0,"trial_type":"image-button-response","trial_index":79,"time_elapsed":630591,"internal_node_id":"0.0-4.0-0.36","subject_id":"616e17e39be6eea6a322fcb7","study_id":"6197b3f67c2b5cd3b6d9596a","session_id":"619be32149943bac4f21143d","condition":"contingent","relevant_dimensions":["pattern","legs"],"bee_group":{"antennae":"X","wings":"X","pattern":"S","legs":"M"},"action":"harvest","summary":"good-harvest","bonus":1.0400000000000007},{"rt":799.7999999523163,"stimulus":"\n                    <p><b>Action: <em>harvest</em></b></p>\n                    <p>This is the bee that you just saw.</p>\n                    <img src=\"bees-with-color/bee-A2DM.svg\" width=\"200\">\n                    <p><span class=\"greenText\"><b>Successful harvest!</b></span><br>Your pay has increased by $0.02. Your bonus pay is now $0.58.</p>\n            ","response":0,"trial_type":"html-button-response","trial_index":80,"time_elapsed":631392,"internal_node_id":"0.0-4.0-1.36","subject_id":"616e17e39be6eea6a322fcb7","study_id":"6197b3f67c2b5cd3b6d9596a","session_id":"619be32149943bac4f21143d","condition":"contingent","relevant_dimensions":["pattern","legs"],"bee_group":{"antennae":"X","wings":"X","pattern":"S","legs":"M"},"bonus":1.0400000000000007},{"rt":19527.900000035763,"stimulus":"bees-with-color/bee-B1DF.svg","response":1,"trial_type":"image-button-response","trial_index":81,"time_elapsed":650921,"internal_node_id":"0.0-4.0-0.37","subject_id":"616e17e39be6eea6a322fcb7","study_id":"6197b3f67c2b5cd3b6d9596a","session_id":"619be32149943bac4f21143d","condition":"contingent","relevant_dimensions":["pattern","legs"],"bee_group":{"antennae":"X","wings":"X","pattern":"S","legs":"M"},"action":"avoid","summary":"bad-avoid","bonus":1.0400000000000007},{"rt":465.89999997615814,"stimulus":"\n                    <p><b>Action: <em>avoid</em></b></p>\n                    <p>This is the bee that you just saw.</p>\n                    <img src=\"bees-with-color/bee-B1DF.svg\" width=\"200\">\n                    <p><br>Your bonus pay is unchanged, and remains at $0.58.</p>\n            ","response":0,"trial_type":"html-button-response","trial_index":82,"time_elapsed":651389,"internal_node_id":"0.0-4.0-1.37","subject_id":"616e17e39be6eea6a322fcb7","study_id":"6197b3f67c2b5cd3b6d9596a","session_id":"619be32149943bac4f21143d","condition":"contingent","relevant_dimensions":["pattern","legs"],"bee_group":{"antennae":"X","wings":"X","pattern":"S","legs":"M"},"bonus":1.0400000000000007},{"rt":8044.099999964237,"stimulus":"bees-with-color/bee-B2SM.svg","response":1,"trial_type":"image-button-response","trial_index":83,"time_elapsed":659434,"internal_node_id":"0.0-4.0-0.38","subject_id":"616e17e39be6eea6a322fcb7","study_id":"6197b3f67c2b5cd3b6d9596a","session_id":"619be32149943bac4f21143d","condition":"contingent","relevant_dimensions":["pattern","legs"],"bee_group":{"antennae":"X","wings":"X","pattern":"S","legs":"M"},"action":"avoid","summary":"good-avoid","bonus":1.0400000000000007},{"rt":466.80000001192093,"stimulus":"\n                    <p><b>Action: <em>avoid</em></b></p>\n                    <p>This is the bee that you just saw.</p>\n                    <img src=\"bees-with-color/bee-B2SM.svg\" width=\"200\">\n                    <p><br>Your bonus pay is unchanged, and remains at $0.58.</p>\n            ","response":0,"trial_type":"html-button-response","trial_index":84,"time_elapsed":659901,"internal_node_id":"0.0-4.0-1.38","subject_id":"616e17e39be6eea6a322fcb7","study_id":"6197b3f67c2b5cd3b6d9596a","session_id":"619be32149943bac4f21143d","condition":"contingent","relevant_dimensions":["pattern","legs"],"bee_group":{"antennae":"X","wings":"X","pattern":"S","legs":"M"},"bonus":1.0400000000000007},{"rt":18909,"stimulus":"bees-with-color/bee-B1SM.svg","response":1,"trial_type":"image-button-response","trial_index":85,"time_elapsed":678812,"internal_node_id":"0.0-4.0-0.39","subject_id":"616e17e39be6eea6a322fcb7","study_id":"6197b3f67c2b5cd3b6d9596a","session_id":"619be32149943bac4f21143d","condition":"contingent","relevant_dimensions":["pattern","legs"],"bee_group":{"antennae":"X","wings":"X","pattern":"S","legs":"M"},"action":"avoid","summary":"good-avoid","bonus":1.0400000000000007},{"rt":501.69999998807907,"stimulus":"\n                    <p><b>Action: <em>avoid</em></b></p>\n                    <p>This is the bee that you just saw.</p>\n                    <img src=\"bees-with-color/bee-B1SM.svg\" width=\"200\">\n                    <p><br>Your bonus pay is unchanged, and remains at $0.58.</p>\n            ","response":0,"trial_type":"html-button-response","trial_index":86,"time_elapsed":679314,"internal_node_id":"0.0-4.0-1.39","subject_id":"616e17e39be6eea6a322fcb7","study_id":"6197b3f67c2b5cd3b6d9596a","session_id":"619be32149943bac4f21143d","condition":"contingent","relevant_dimensions":["pattern","legs"],"bee_group":{"antennae":"X","wings":"X","pattern":"S","legs":"M"},"bonus":1.0400000000000007},{"rt":4560,"stimulus":"bees-with-color/bee-B1DM.svg","response":0,"trial_type":"image-button-response","trial_index":87,"time_elapsed":683875,"internal_node_id":"0.0-4.0-0.40","subject_id":"616e17e39be6eea6a322fcb7","study_id":"6197b3f67c2b5cd3b6d9596a","session_id":"619be32149943bac4f21143d","condition":"contingent","relevant_dimensions":["pattern","legs"],"bee_group":{"antennae":"X","wings":"X","pattern":"S","legs":"M"},"action":"harvest","summary":"good-harvest","bonus":1.0400000000000007},{"rt":542,"stimulus":"\n                    <p><b>Action: <em>harvest</em></b></p>\n                    <p>This is the bee that you just saw.</p>\n                    <img src=\"bees-with-color/bee-B1DM.svg\" width=\"200\">\n                    <p><span class=\"greenText\"><b>Successful harvest!</b></span><br>Your pay has increased by $0.02. Your bonus pay is now $0.60.</p>\n            ","response":0,"trial_type":"html-button-response","trial_index":88,"time_elapsed":684418,"internal_node_id":"0.0-4.0-1.40","subject_id":"616e17e39be6eea6a322fcb7","study_id":"6197b3f67c2b5cd3b6d9596a","session_id":"619be32149943bac4f21143d","condition":"contingent","relevant_dimensions":["pattern","legs"],"bee_group":{"antennae":"X","wings":"X","pattern":"S","legs":"M"},"bonus":1.0400000000000007},{"rt":10899.699999988079,"stimulus":"bees-with-color/bee-A1SM.svg","response":1,"trial_type":"image-button-response","trial_index":89,"time_elapsed":695320,"internal_node_id":"0.0-4.0-0.41","subject_id":"616e17e39be6eea6a322fcb7","study_id":"6197b3f67c2b5cd3b6d9596a","session_id":"619be32149943bac4f21143d","condition":"contingent","relevant_dimensions":["pattern","legs"],"bee_group":{"antennae":"X","wings":"X","pattern":"S","legs":"M"},"action":"avoid","summary":"good-avoid","bonus":1.0400000000000007},{"rt":770.3999999761581,"stimulus":"\n                    <p><b>Action: <em>avoid</em></b></p>\n                    <p>This is the bee that you just saw.</p>\n                    <img src=\"bees-with-color/bee-A1SM.svg\" width=\"200\">\n                    <p><br>Your bonus pay is unchanged, and remains at $0.60.</p>\n            ","response":0,"trial_type":"html-button-response","trial_index":90,"time_elapsed":696091,"internal_node_id":"0.0-4.0-1.41","subject_id":"616e17e39be6eea6a322fcb7","study_id":"6197b3f67c2b5cd3b6d9596a","session_id":"619be32149943bac4f21143d","condition":"contingent","relevant_dimensions":["pattern","legs"],"bee_group":{"antennae":"X","wings":"X","pattern":"S","legs":"M"},"bonus":1.0400000000000007},{"rt":25493.700000047684,"stimulus":"bees-with-color/bee-B1SF.svg","response":1,"trial_type":"image-button-response","trial_index":91,"time_elapsed":721586,"internal_node_id":"0.0-4.0-0.42","subject_id":"616e17e39be6eea6a322fcb7","study_id":"6197b3f67c2b5cd3b6d9596a","session_id":"619be32149943bac4f21143d","condition":"contingent","relevant_dimensions":["pattern","legs"],"bee_group":{"antennae":"X","wings":"X","pattern":"S","legs":"M"},"action":"avoid","summary":"bad-avoid","bonus":1.0400000000000007},{"rt":479.5,"stimulus":"\n                    <p><b>Action: <em>avoid</em></b></p>\n                    <p>This is the bee that you just saw.</p>\n                    <img src=\"bees-with-color/bee-B1SF.svg\" width=\"200\">\n                    <p><br>Your bonus pay is unchanged, and remains at $0.60.</p>\n            ","response":0,"trial_type":"html-button-response","trial_index":92,"time_elapsed":722067,"internal_node_id":"0.0-4.0-1.42","subject_id":"616e17e39be6eea6a322fcb7","study_id":"6197b3f67c2b5cd3b6d9596a","session_id":"619be32149943bac4f21143d","condition":"contingent","relevant_dimensions":["pattern","legs"],"bee_group":{"antennae":"X","wings":"X","pattern":"S","legs":"M"},"bonus":1.0400000000000007},{"rt":4503,"stimulus":"bees-with-color/bee-B2DF.svg","response":0,"trial_type":"image-button-response","trial_index":93,"time_elapsed":726571,"internal_node_id":"0.0-4.0-0.43","subject_id":"616e17e39be6eea6a322fcb7","study_id":"6197b3f67c2b5cd3b6d9596a","session_id":"619be32149943bac4f21143d","condition":"contingent","relevant_dimensions":["pattern","legs"],"bee_group":{"antennae":"X","wings":"X","pattern":"S","legs":"M"},"action":"harvest","summary":"good-harvest","bonus":1.0400000000000007},{"rt":740.5999999642372,"stimulus":"\n                    <p><b>Action: <em>harvest</em></b></p>\n                    <p>This is the bee that you just saw.</p>\n                    <img src=\"bees-with-color/bee-B2DF.svg\" width=\"200\">\n                    <p><span class=\"greenText\"><b>Successful harvest!</b></span><br>Your pay has increased by $0.02. Your bonus pay is now $0.62.</p>\n            ","response":0,"trial_type":"html-button-response","trial_index":94,"time_elapsed":727313,"internal_node_id":"0.0-4.0-1.43","subject_id":"616e17e39be6eea6a322fcb7","study_id":"6197b3f67c2b5cd3b6d9596a","session_id":"619be32149943bac4f21143d","condition":"contingent","relevant_dimensions":["pattern","legs"],"bee_group":{"antennae":"X","wings":"X","pattern":"S","legs":"M"},"bonus":1.0400000000000007},{"rt":8338.5,"stimulus":"bees-with-color/bee-A2SF.svg","response":0,"trial_type":"image-button-response","trial_index":95,"time_elapsed":735653,"internal_node_id":"0.0-4.0-0.44","subject_id":"616e17e39be6eea6a322fcb7","study_id":"6197b3f67c2b5cd3b6d9596a","session_id":"619be32149943bac4f21143d","condition":"contingent","relevant_dimensions":["pattern","legs"],"bee_group":{"antennae":"X","wings":"X","pattern":"S","legs":"M"},"action":"harvest","summary":"good-harvest","bonus":1.0400000000000007},{"rt":790.6000000238419,"stimulus":"\n                    <p><b>Action: <em>harvest</em></b></p>\n                    <p>This is the bee that you just saw.</p>\n                    <img src=\"bees-with-color/bee-A2SF.svg\" width=\"200\">\n                    <p><span class=\"greenText\"><b>Successful harvest!</b></span><br>Your pay has increased by $0.02. Your bonus pay is now $0.64.</p>\n            ","response":0,"trial_type":"html-button-response","trial_index":96,"time_elapsed":736444,"internal_node_id":"0.0-4.0-1.44","subject_id":"616e17e39be6eea6a322fcb7","study_id":"6197b3f67c2b5cd3b6d9596a","session_id":"619be32149943bac4f21143d","condition":"contingent","relevant_dimensions":["pattern","legs"],"bee_group":{"antennae":"X","wings":"X","pattern":"S","legs":"M"},"bonus":1.0400000000000007},{"rt":12538,"stimulus":"bees-with-color/bee-A2SM.svg","response":1,"trial_type":"image-button-response","trial_index":97,"time_elapsed":748984,"internal_node_id":"0.0-4.0-0.45","subject_id":"616e17e39be6eea6a322fcb7","study_id":"6197b3f67c2b5cd3b6d9596a","session_id":"619be32149943bac4f21143d","condition":"contingent","relevant_dimensions":["pattern","legs"],"bee_group":{"antennae":"X","wings":"X","pattern":"S","legs":"M"},"action":"avoid","summary":"good-avoid","bonus":1.0400000000000007},{"rt":608,"stimulus":"\n                    <p><b>Action: <em>avoid</em></b></p>\n                    <p>This is the bee that you just saw.</p>\n                    <img src=\"bees-with-color/bee-A2SM.svg\" width=\"200\">\n                    <p><br>Your bonus pay is unchanged, and remains at $0.64.</p>\n            ","response":0,"trial_type":"html-button-response","trial_index":98,"time_elapsed":749593,"internal_node_id":"0.0-4.0-1.45","subject_id":"616e17e39be6eea6a322fcb7","study_id":"6197b3f67c2b5cd3b6d9596a","session_id":"619be32149943bac4f21143d","condition":"contingent","relevant_dimensions":["pattern","legs"],"bee_group":{"antennae":"X","wings":"X","pattern":"S","legs":"M"},"bonus":1.0400000000000007},{"rt":7174,"stimulus":"bees-with-color/bee-A1SF.svg","response":0,"trial_type":"image-button-response","trial_index":99,"time_elapsed":756768,"internal_node_id":"0.0-4.0-0.46","subject_id":"616e17e39be6eea6a322fcb7","study_id":"6197b3f67c2b5cd3b6d9596a","session_id":"619be32149943bac4f21143d","condition":"contingent","relevant_dimensions":["pattern","legs"],"bee_group":{"antennae":"X","wings":"X","pattern":"S","legs":"M"},"action":"harvest","summary":"good-harvest","bonus":1.0400000000000007},{"rt":726.3999999761581,"stimulus":"\n                    <p><b>Action: <em>harvest</em></b></p>\n                    <p>This is the bee that you just saw.</p>\n                    <img src=\"bees-with-color/bee-A1SF.svg\" width=\"200\">\n                    <p><span class=\"greenText\"><b>Successful harvest!</b></span><br>Your pay has increased by $0.02. Your bonus pay is now $0.66.</p>\n            ","response":0,"trial_type":"html-button-response","trial_index":100,"time_elapsed":757495,"internal_node_id":"0.0-4.0-1.46","subject_id":"616e17e39be6eea6a322fcb7","study_id":"6197b3f67c2b5cd3b6d9596a","session_id":"619be32149943bac4f21143d","condition":"contingent","relevant_dimensions":["pattern","legs"],"bee_group":{"antennae":"X","wings":"X","pattern":"S","legs":"M"},"bonus":1.0400000000000007},{"rt":4849.900000035763,"stimulus":"bees-with-color/bee-A1DM.svg","response":0,"trial_type":"image-button-response","trial_index":101,"time_elapsed":762346,"internal_node_id":"0.0-4.0-0.47","subject_id":"616e17e39be6eea6a322fcb7","study_id":"6197b3f67c2b5cd3b6d9596a","session_id":"619be32149943bac4f21143d","condition":"contingent","relevant_dimensions":["pattern","legs"],"bee_group":{"antennae":"X","wings":"X","pattern":"S","legs":"M"},"action":"harvest","summary":"good-harvest","bonus":1.0400000000000007},{"rt":668.6999999880791,"stimulus":"\n                    <p><b>Action: <em>harvest</em></b></p>\n                    <p>This is the bee that you just saw.</p>\n                    <img src=\"bees-with-color/bee-A1DM.svg\" width=\"200\">\n                    <p><span class=\"greenText\"><b>Successful harvest!</b></span><br>Your pay has increased by $0.02. Your bonus pay is now $0.68.</p>\n            ","response":0,"trial_type":"html-button-response","trial_index":102,"time_elapsed":763016,"internal_node_id":"0.0-4.0-1.47","subject_id":"616e17e39be6eea6a322fcb7","study_id":"6197b3f67c2b5cd3b6d9596a","session_id":"619be32149943bac4f21143d","condition":"contingent","relevant_dimensions":["pattern","legs"],"bee_group":{"antennae":"X","wings":"X","pattern":"S","legs":"M"},"bonus":1.0400000000000007},{"rt":12232,"stimulus":"bees-with-color/bee-A2SM.svg","response":1,"trial_type":"image-button-response","trial_index":103,"time_elapsed":775249,"internal_node_id":"0.0-4.0-0.48","subject_id":"616e17e39be6eea6a322fcb7","study_id":"6197b3f67c2b5cd3b6d9596a","session_id":"619be32149943bac4f21143d","condition":"contingent","relevant_dimensions":["pattern","legs"],"bee_group":{"antennae":"X","wings":"X","pattern":"S","legs":"M"},"action":"avoid","summary":"good-avoid","bonus":1.0400000000000007},{"rt":924.8999999761581,"stimulus":"\n                    <p><b>Action: <em>avoid</em></b></p>\n                    <p>This is the bee that you just saw.</p>\n                    <img src=\"bees-with-color/bee-A2SM.svg\" width=\"200\">\n                    <p><br>Your bonus pay is unchanged, and remains at $0.68.</p>\n            ","response":0,"trial_type":"html-button-response","trial_index":104,"time_elapsed":776175,"internal_node_id":"0.0-4.0-1.48","subject_id":"616e17e39be6eea6a322fcb7","study_id":"6197b3f67c2b5cd3b6d9596a","session_id":"619be32149943bac4f21143d","condition":"contingent","relevant_dimensions":["pattern","legs"],"bee_group":{"antennae":"X","wings":"X","pattern":"S","legs":"M"},"bonus":1.0400000000000007},{"rt":13894.800000011921,"stimulus":"bees-with-color/bee-B2DF.svg","response":0,"trial_type":"image-button-response","trial_index":105,"time_elapsed":790071,"internal_node_id":"0.0-4.0-0.49","subject_id":"616e17e39be6eea6a322fcb7","study_id":"6197b3f67c2b5cd3b6d9596a","session_id":"619be32149943bac4f21143d","condition":"contingent","relevant_dimensions":["pattern","legs"],"bee_group":{"antennae":"X","wings":"X","pattern":"S","legs":"M"},"action":"harvest","summary":"good-harvest","bonus":1.0400000000000007},{"rt":755.3000000119209,"stimulus":"\n                    <p><b>Action: <em>harvest</em></b></p>\n                    <p>This is the bee that you just saw.</p>\n                    <img src=\"bees-with-color/bee-B2DF.svg\" width=\"200\">\n                    <p><span class=\"greenText\"><b>Successful harvest!</b></span><br>Your pay has increased by $0.02. Your bonus pay is now $0.70.</p>\n            ","response":0,"trial_type":"html-button-response","trial_index":106,"time_elapsed":790827,"internal_node_id":"0.0-4.0-1.49","subject_id":"616e17e39be6eea6a322fcb7","study_id":"6197b3f67c2b5cd3b6d9596a","session_id":"619be32149943bac4f21143d","condition":"contingent","relevant_dimensions":["pattern","legs"],"bee_group":{"antennae":"X","wings":"X","pattern":"S","legs":"M"},"bonus":1.0400000000000007},{"rt":12949.600000023842,"stimulus":"bees-with-color/bee-B2DM.svg","response":1,"trial_type":"image-button-response","trial_index":107,"time_elapsed":803778,"internal_node_id":"0.0-4.0-0.50","subject_id":"616e17e39be6eea6a322fcb7","study_id":"6197b3f67c2b5cd3b6d9596a","session_id":"619be32149943bac4f21143d","condition":"contingent","relevant_dimensions":["pattern","legs"],"bee_group":{"antennae":"X","wings":"X","pattern":"S","legs":"M"},"action":"avoid","summary":"bad-avoid","bonus":1.0400000000000007},{"rt":557.5,"stimulus":"\n                    <p><b>Action: <em>avoid</em></b></p>\n                    <p>This is the bee that you just saw.</p>\n                    <img src=\"bees-with-color/bee-B2DM.svg\" width=\"200\">\n                    <p><br>Your bonus pay is unchanged, and remains at $0.70.</p>\n            ","response":0,"trial_type":"html-button-response","trial_index":108,"time_elapsed":804336,"internal_node_id":"0.0-4.0-1.50","subject_id":"616e17e39be6eea6a322fcb7","study_id":"6197b3f67c2b5cd3b6d9596a","session_id":"619be32149943bac4f21143d","condition":"contingent","relevant_dimensions":["pattern","legs"],"bee_group":{"antennae":"X","wings":"X","pattern":"S","legs":"M"},"bonus":1.0400000000000007},{"rt":7760.5,"stimulus":"bees-with-color/bee-A2SF.svg","response":0,"trial_type":"image-button-response","trial_index":109,"time_elapsed":812098,"internal_node_id":"0.0-4.0-0.51","subject_id":"616e17e39be6eea6a322fcb7","study_id":"6197b3f67c2b5cd3b6d9596a","session_id":"619be32149943bac4f21143d","condition":"contingent","relevant_dimensions":["pattern","legs"],"bee_group":{"antennae":"X","wings":"X","pattern":"S","legs":"M"},"action":"harvest","summary":"good-harvest","bonus":1.0400000000000007},{"rt":754.5,"stimulus":"\n                    <p><b>Action: <em>harvest</em></b></p>\n                    <p>This is the bee that you just saw.</p>\n                    <img src=\"bees-with-color/bee-A2SF.svg\" width=\"200\">\n                    <p><span class=\"greenText\"><b>Successful harvest!</b></span><br>Your pay has increased by $0.02. Your bonus pay is now $0.72.</p>\n            ","response":0,"trial_type":"html-button-response","trial_index":110,"time_elapsed":812853,"internal_node_id":"0.0-4.0-1.51","subject_id":"616e17e39be6eea6a322fcb7","study_id":"6197b3f67c2b5cd3b6d9596a","session_id":"619be32149943bac4f21143d","condition":"contingent","relevant_dimensions":["pattern","legs"],"bee_group":{"antennae":"X","wings":"X","pattern":"S","legs":"M"},"bonus":1.0400000000000007},{"rt":12706.100000023842,"stimulus":"bees-with-color/bee-B2SF.svg","response":1,"trial_type":"image-button-response","trial_index":111,"time_elapsed":825561,"internal_node_id":"0.0-4.0-0.52","subject_id":"616e17e39be6eea6a322fcb7","study_id":"6197b3f67c2b5cd3b6d9596a","session_id":"619be32149943bac4f21143d","condition":"contingent","relevant_dimensions":["pattern","legs"],"bee_group":{"antennae":"X","wings":"X","pattern":"S","legs":"M"},"action":"avoid","summary":"bad-avoid","bonus":1.0400000000000007},{"rt":557.1000000238419,"stimulus":"\n                    <p><b>Action: <em>avoid</em></b></p>\n                    <p>This is the bee that you just saw.</p>\n                    <img src=\"bees-with-color/bee-B2SF.svg\" width=\"200\">\n                    <p><br>Your bonus pay is unchanged, and remains at $0.72.</p>\n            ","response":0,"trial_type":"html-button-response","trial_index":112,"time_elapsed":826119,"internal_node_id":"0.0-4.0-1.52","subject_id":"616e17e39be6eea6a322fcb7","study_id":"6197b3f67c2b5cd3b6d9596a","session_id":"619be32149943bac4f21143d","condition":"contingent","relevant_dimensions":["pattern","legs"],"bee_group":{"antennae":"X","wings":"X","pattern":"S","legs":"M"},"bonus":1.0400000000000007},{"rt":8345.799999952316,"stimulus":"bees-with-color/bee-B2SM.svg","response":1,"trial_type":"image-button-response","trial_index":113,"time_elapsed":834466,"internal_node_id":"0.0-4.0-0.53","subject_id":"616e17e39be6eea6a322fcb7","study_id":"6197b3f67c2b5cd3b6d9596a","session_id":"619be32149943bac4f21143d","condition":"contingent","relevant_dimensions":["pattern","legs"],"bee_group":{"antennae":"X","wings":"X","pattern":"S","legs":"M"},"action":"avoid","summary":"good-avoid","bonus":1.0400000000000007},{"rt":468.10000002384186,"stimulus":"\n                    <p><b>Action: <em>avoid</em></b></p>\n                    <p>This is the bee that you just saw.</p>\n                    <img src=\"bees-with-color/bee-B2SM.svg\" width=\"200\">\n                    <p><br>Your bonus pay is unchanged, and remains at $0.72.</p>\n            ","response":0,"trial_type":"html-button-response","trial_index":114,"time_elapsed":834935,"internal_node_id":"0.0-4.0-1.53","subject_id":"616e17e39be6eea6a322fcb7","study_id":"6197b3f67c2b5cd3b6d9596a","session_id":"619be32149943bac4f21143d","condition":"contingent","relevant_dimensions":["pattern","legs"],"bee_group":{"antennae":"X","wings":"X","pattern":"S","legs":"M"},"bonus":1.0400000000000007},{"rt":6868.5,"stimulus":"bees-with-color/bee-A1DF.svg","response":0,"trial_type":"image-button-response","trial_index":115,"time_elapsed":841805,"internal_node_id":"0.0-4.0-0.54","subject_id":"616e17e39be6eea6a322fcb7","study_id":"6197b3f67c2b5cd3b6d9596a","session_id":"619be32149943bac4f21143d","condition":"contingent","relevant_dimensions":["pattern","legs"],"bee_group":{"antennae":"X","wings":"X","pattern":"S","legs":"M"},"action":"harvest","summary":"good-harvest","bonus":1.0400000000000007},{"rt":689.4000000357628,"stimulus":"\n                    <p><b>Action: <em>harvest</em></b></p>\n                    <p>This is the bee that you just saw.</p>\n                    <img src=\"bees-with-color/bee-A1DF.svg\" width=\"200\">\n                    <p><span class=\"greenText\"><b>Successful harvest!</b></span><br>Your pay has increased by $0.02. Your bonus pay is now $0.74.</p>\n            ","response":0,"trial_type":"html-button-response","trial_index":116,"time_elapsed":842495,"internal_node_id":"0.0-4.0-1.54","subject_id":"616e17e39be6eea6a322fcb7","study_id":"6197b3f67c2b5cd3b6d9596a","session_id":"619be32149943bac4f21143d","condition":"contingent","relevant_dimensions":["pattern","legs"],"bee_group":{"antennae":"X","wings":"X","pattern":"S","legs":"M"},"bonus":1.0400000000000007},{"rt":11405.199999988079,"stimulus":"bees-with-color/bee-A1DM.svg","response":0,"trial_type":"image-button-response","trial_index":117,"time_elapsed":853901,"internal_node_id":"0.0-4.0-0.55","subject_id":"616e17e39be6eea6a322fcb7","study_id":"6197b3f67c2b5cd3b6d9596a","session_id":"619be32149943bac4f21143d","condition":"contingent","relevant_dimensions":["pattern","legs"],"bee_group":{"antennae":"X","wings":"X","pattern":"S","legs":"M"},"action":"harvest","summary":"good-harvest","bonus":1.0400000000000007},{"rt":509.89999997615814,"stimulus":"\n                    <p><b>Action: <em>harvest</em></b></p>\n                    <p>This is the bee that you just saw.</p>\n                    <img src=\"bees-with-color/bee-A1DM.svg\" width=\"200\">\n                    <p><span class=\"greenText\"><b>Successful harvest!</b></span><br>Your pay has increased by $0.02. Your bonus pay is now $0.76.</p>\n            ","response":0,"trial_type":"html-button-response","trial_index":118,"time_elapsed":854412,"internal_node_id":"0.0-4.0-1.55","subject_id":"616e17e39be6eea6a322fcb7","study_id":"6197b3f67c2b5cd3b6d9596a","session_id":"619be32149943bac4f21143d","condition":"contingent","relevant_dimensions":["pattern","legs"],"bee_group":{"antennae":"X","wings":"X","pattern":"S","legs":"M"},"bonus":1.0400000000000007},{"rt":6193.599999964237,"stimulus":"bees-with-color/bee-B1DM.svg","response":0,"trial_type":"image-button-response","trial_index":119,"time_elapsed":860607,"internal_node_id":"0.0-4.0-0.56","subject_id":"616e17e39be6eea6a322fcb7","study_id":"6197b3f67c2b5cd3b6d9596a","session_id":"619be32149943bac4f21143d","condition":"contingent","relevant_dimensions":["pattern","legs"],"bee_group":{"antennae":"X","wings":"X","pattern":"S","legs":"M"},"action":"harvest","summary":"good-harvest","bonus":1.0400000000000007},{"rt":980.3000000119209,"stimulus":"\n                    <p><b>Action: <em>harvest</em></b></p>\n                    <p>This is the bee that you just saw.</p>\n                    <img src=\"bees-with-color/bee-B1DM.svg\" width=\"200\">\n                    <p><span class=\"greenText\"><b>Successful harvest!</b></span><br>Your pay has increased by $0.02. Your bonus pay is now $0.78.</p>\n            ","response":0,"trial_type":"html-button-response","trial_index":120,"time_elapsed":861589,"internal_node_id":"0.0-4.0-1.56","subject_id":"616e17e39be6eea6a322fcb7","study_id":"6197b3f67c2b5cd3b6d9596a","session_id":"619be32149943bac4f21143d","condition":"contingent","relevant_dimensions":["pattern","legs"],"bee_group":{"antennae":"X","wings":"X","pattern":"S","legs":"M"},"bonus":1.0400000000000007},{"rt":8542.699999988079,"stimulus":"bees-with-color/bee-A1SM.svg","response":1,"trial_type":"image-button-response","trial_index":121,"time_elapsed":870133,"internal_node_id":"0.0-4.0-0.57","subject_id":"616e17e39be6eea6a322fcb7","study_id":"6197b3f67c2b5cd3b6d9596a","session_id":"619be32149943bac4f21143d","condition":"contingent","relevant_dimensions":["pattern","legs"],"bee_group":{"antennae":"X","wings":"X","pattern":"S","legs":"M"},"action":"avoid","summary":"good-avoid","bonus":1.0400000000000007},{"rt":748.9000000357628,"stimulus":"\n                    <p><b>Action: <em>avoid</em></b></p>\n                    <p>This is the bee that you just saw.</p>\n                    <img src=\"bees-with-color/bee-A1SM.svg\" width=\"200\">\n                    <p><br>Your bonus pay is unchanged, and remains at $0.78.</p>\n            ","response":0,"trial_type":"html-button-response","trial_index":122,"time_elapsed":870882,"internal_node_id":"0.0-4.0-1.57","subject_id":"616e17e39be6eea6a322fcb7","study_id":"6197b3f67c2b5cd3b6d9596a","session_id":"619be32149943bac4f21143d","condition":"contingent","relevant_dimensions":["pattern","legs"],"bee_group":{"antennae":"X","wings":"X","pattern":"S","legs":"M"},"bonus":1.0400000000000007},{"rt":5880.199999988079,"stimulus":"bees-with-color/bee-A2DF.svg","response":1,"trial_type":"image-button-response","trial_index":123,"time_elapsed":876763,"internal_node_id":"0.0-4.0-0.58","subject_id":"616e17e39be6eea6a322fcb7","study_id":"6197b3f67c2b5cd3b6d9596a","session_id":"619be32149943bac4f21143d","condition":"contingent","relevant_dimensions":["pattern","legs"],"bee_group":{"antennae":"X","wings":"X","pattern":"S","legs":"M"},"action":"avoid","summary":"bad-avoid","bonus":1.0400000000000007},{"rt":932.3000000119209,"stimulus":"\n                    <p><b>Action: <em>avoid</em></b></p>\n                    <p>This is the bee that you just saw.</p>\n                    <img src=\"bees-with-color/bee-A2DF.svg\" width=\"200\">\n                    <p><br>Your bonus pay is unchanged, and remains at $0.78.</p>\n            ","response":0,"trial_type":"html-button-response","trial_index":124,"time_elapsed":877697,"internal_node_id":"0.0-4.0-1.58","subject_id":"616e17e39be6eea6a322fcb7","study_id":"6197b3f67c2b5cd3b6d9596a","session_id":"619be32149943bac4f21143d","condition":"contingent","relevant_dimensions":["pattern","legs"],"bee_group":{"antennae":"X","wings":"X","pattern":"S","legs":"M"},"bonus":1.0400000000000007},{"rt":13664.399999976158,"stimulus":"bees-with-color/bee-B1SF.svg","response":1,"trial_type":"image-button-response","trial_index":125,"time_elapsed":891362,"internal_node_id":"0.0-4.0-0.59","subject_id":"616e17e39be6eea6a322fcb7","study_id":"6197b3f67c2b5cd3b6d9596a","session_id":"619be32149943bac4f21143d","condition":"contingent","relevant_dimensions":["pattern","legs"],"bee_group":{"antennae":"X","wings":"X","pattern":"S","legs":"M"},"action":"avoid","summary":"bad-avoid","bonus":1.0400000000000007},{"rt":454.80000001192093,"stimulus":"\n                    <p><b>Action: <em>avoid</em></b></p>\n                    <p>This is the bee that you just saw.</p>\n                    <img src=\"bees-with-color/bee-B1SF.svg\" width=\"200\">\n                    <p><br>Your bonus pay is unchanged, and remains at $0.78.</p>\n            ","response":0,"trial_type":"html-button-response","trial_index":126,"time_elapsed":891818,"internal_node_id":"0.0-4.0-1.59","subject_id":"616e17e39be6eea6a322fcb7","study_id":"6197b3f67c2b5cd3b6d9596a","session_id":"619be32149943bac4f21143d","condition":"contingent","relevant_dimensions":["pattern","legs"],"bee_group":{"antennae":"X","wings":"X","pattern":"S","legs":"M"},"bonus":1.0400000000000007},{"rt":5545.599999964237,"stimulus":"bees-with-color/bee-B1SM.svg","response":1,"trial_type":"image-button-response","trial_index":127,"time_elapsed":897365,"internal_node_id":"0.0-4.0-0.60","subject_id":"616e17e39be6eea6a322fcb7","study_id":"6197b3f67c2b5cd3b6d9596a","session_id":"619be32149943bac4f21143d","condition":"contingent","relevant_dimensions":["pattern","legs"],"bee_group":{"antennae":"X","wings":"X","pattern":"S","legs":"M"},"action":"avoid","summary":"good-avoid","bonus":1.0400000000000007},{"rt":930.4000000357628,"stimulus":"\n                    <p><b>Action: <em>avoid</em></b></p>\n                    <p>This is the bee that you just saw.</p>\n                    <img src=\"bees-with-color/bee-B1SM.svg\" width=\"200\">\n                    <p><br>Your bonus pay is unchanged, and remains at $0.78.</p>\n            ","response":0,"trial_type":"html-button-response","trial_index":128,"time_elapsed":898296,"internal_node_id":"0.0-4.0-1.60","subject_id":"616e17e39be6eea6a322fcb7","study_id":"6197b3f67c2b5cd3b6d9596a","session_id":"619be32149943bac4f21143d","condition":"contingent","relevant_dimensions":["pattern","legs"],"bee_group":{"antennae":"X","wings":"X","pattern":"S","legs":"M"},"bonus":1.0400000000000007},{"rt":8897.800000011921,"stimulus":"bees-with-color/bee-A1SF.svg","response":0,"trial_type":"image-button-response","trial_index":129,"time_elapsed":907195,"internal_node_id":"0.0-4.0-0.61","subject_id":"616e17e39be6eea6a322fcb7","study_id":"6197b3f67c2b5cd3b6d9596a","session_id":"619be32149943bac4f21143d","condition":"contingent","relevant_dimensions":["pattern","legs"],"bee_group":{"antennae":"X","wings":"X","pattern":"S","legs":"M"},"action":"harvest","summary":"good-harvest","bonus":1.0400000000000007},{"rt":626.8999999761581,"stimulus":"\n                    <p><b>Action: <em>harvest</em></b></p>\n                    <p>This is the bee that you just saw.</p>\n                    <img src=\"bees-with-color/bee-A1SF.svg\" width=\"200\">\n                    <p><span class=\"greenText\"><b>Successful harvest!</b></span><br>Your pay has increased by $0.02. Your bonus pay is now $0.80.</p>\n            ","response":0,"trial_type":"html-button-response","trial_index":130,"time_elapsed":907823,"internal_node_id":"0.0-4.0-1.61","subject_id":"616e17e39be6eea6a322fcb7","study_id":"6197b3f67c2b5cd3b6d9596a","session_id":"619be32149943bac4f21143d","condition":"contingent","relevant_dimensions":["pattern","legs"],"bee_group":{"antennae":"X","wings":"X","pattern":"S","legs":"M"},"bonus":1.0400000000000007},{"rt":21993.5,"stimulus":"bees-with-color/bee-B1DF.svg","response":1,"trial_type":"image-button-response","trial_index":131,"time_elapsed":929818,"internal_node_id":"0.0-4.0-0.62","subject_id":"616e17e39be6eea6a322fcb7","study_id":"6197b3f67c2b5cd3b6d9596a","session_id":"619be32149943bac4f21143d","condition":"contingent","relevant_dimensions":["pattern","legs"],"bee_group":{"antennae":"X","wings":"X","pattern":"S","legs":"M"},"action":"avoid","summary":"bad-avoid","bonus":1.0400000000000007},{"rt":543.5,"stimulus":"\n                    <p><b>Action: <em>avoid</em></b></p>\n                    <p>This is the bee that you just saw.</p>\n                    <img src=\"bees-with-color/bee-B1DF.svg\" width=\"200\">\n                    <p><br>Your bonus pay is unchanged, and remains at $0.80.</p>\n            ","response":0,"trial_type":"html-button-response","trial_index":132,"time_elapsed":930362,"internal_node_id":"0.0-4.0-1.62","subject_id":"616e17e39be6eea6a322fcb7","study_id":"6197b3f67c2b5cd3b6d9596a","session_id":"619be32149943bac4f21143d","condition":"contingent","relevant_dimensions":["pattern","legs"],"bee_group":{"antennae":"X","wings":"X","pattern":"S","legs":"M"},"bonus":1.0400000000000007},{"rt":5315.700000047684,"stimulus":"bees-with-color/bee-A2DM.svg","response":0,"trial_type":"image-button-response","trial_index":133,"time_elapsed":935679,"internal_node_id":"0.0-4.0-0.63","subject_id":"616e17e39be6eea6a322fcb7","study_id":"6197b3f67c2b5cd3b6d9596a","session_id":"619be32149943bac4f21143d","condition":"contingent","relevant_dimensions":["pattern","legs"],"bee_group":{"antennae":"X","wings":"X","pattern":"S","legs":"M"},"action":"harvest","summary":"good-harvest","bonus":1.0400000000000007},{"rt":579.2999999523163,"stimulus":"\n                    <p><b>Action: <em>harvest</em></b></p>\n                    <p>This is the bee that you just saw.</p>\n                    <img src=\"bees-with-color/bee-A2DM.svg\" width=\"200\">\n                    <p><span class=\"greenText\"><b>Successful harvest!</b></span><br>Your pay has increased by $0.02. Your bonus pay is now $0.82.</p>\n            ","response":0,"trial_type":"html-button-response","trial_index":134,"time_elapsed":936260,"internal_node_id":"0.0-4.0-1.63","subject_id":"616e17e39be6eea6a322fcb7","study_id":"6197b3f67c2b5cd3b6d9596a","session_id":"619be32149943bac4f21143d","condition":"contingent","relevant_dimensions":["pattern","legs"],"bee_group":{"antennae":"X","wings":"X","pattern":"S","legs":"M"},"bonus":1.0400000000000007},{"rt":10225,"stimulus":"You have completed the first part of this experiment.<br><br>You will now begin a shorter second part, in which you will receive no feedback.<br>The same rules regarding bonus pay apply.<br><br>Press any key to begin.","response":" ","trial_type":"html-keyboard-response","trial_index":135,"time_elapsed":946486,"internal_node_id":"0.0-5.0","subject_id":"616e17e39be6eea6a322fcb7","study_id":"6197b3f67c2b5cd3b6d9596a","session_id":"619be32149943bac4f21143d","condition":"contingent","relevant_dimensions":["pattern","legs"],"bee_group":{"antennae":"X","wings":"X","pattern":"S","legs":"M"},"bonus":1.0400000000000007},{"rt":3932.399999976158,"stimulus":"bees-with-color/bee-A2DM.svg","response":0,"trial_type":"image-button-response","trial_index":136,"time_elapsed":950426,"internal_node_id":"0.0-6.0-0.0","subject_id":"616e17e39be6eea6a322fcb7","study_id":"6197b3f67c2b5cd3b6d9596a","session_id":"619be32149943bac4f21143d","condition":"contingent","relevant_dimensions":["pattern","legs"],"bee_group":{"antennae":"X","wings":"X","pattern":"S","legs":"M"},"bonus":1.0400000000000007},{"rt":19665.299999952316,"stimulus":"bees-with-color/bee-B2DM.svg","response":0,"trial_type":"image-button-response","trial_index":137,"time_elapsed":970093,"internal_node_id":"0.0-6.0-0.1","subject_id":"616e17e39be6eea6a322fcb7","study_id":"6197b3f67c2b5cd3b6d9596a","session_id":"619be32149943bac4f21143d","condition":"contingent","relevant_dimensions":["pattern","legs"],"bee_group":{"antennae":"X","wings":"X","pattern":"S","legs":"M"},"bonus":1.0400000000000007},{"rt":12089.199999988079,"stimulus":"bees-with-color/bee-B2SF.svg","response":1,"trial_type":"image-button-response","trial_index":138,"time_elapsed":982184,"internal_node_id":"0.0-6.0-0.2","subject_id":"616e17e39be6eea6a322fcb7","study_id":"6197b3f67c2b5cd3b6d9596a","session_id":"619be32149943bac4f21143d","condition":"contingent","relevant_dimensions":["pattern","legs"],"bee_group":{"antennae":"X","wings":"X","pattern":"S","legs":"M"},"bonus":1.0400000000000007},{"rt":5389,"stimulus":"bees-with-color/bee-A1SF.svg","response":0,"trial_type":"image-button-response","trial_index":139,"time_elapsed":987574,"internal_node_id":"0.0-6.0-0.3","subject_id":"616e17e39be6eea6a322fcb7","study_id":"6197b3f67c2b5cd3b6d9596a","session_id":"619be32149943bac4f21143d","condition":"contingent","relevant_dimensions":["pattern","legs"],"bee_group":{"antennae":"X","wings":"X","pattern":"S","legs":"M"},"bonus":1.0400000000000007},{"rt":5361.099999964237,"stimulus":"bees-with-color/bee-B1DF.svg","response":0,"trial_type":"image-button-response","trial_index":140,"time_elapsed":992937,"internal_node_id":"0.0-6.0-0.4","subject_id":"616e17e39be6eea6a322fcb7","study_id":"6197b3f67c2b5cd3b6d9596a","session_id":"619be32149943bac4f21143d","condition":"contingent","relevant_dimensions":["pattern","legs"],"bee_group":{"antennae":"X","wings":"X","pattern":"S","legs":"M"},"bonus":1.0400000000000007},{"rt":9554.400000035763,"stimulus":"bees-with-color/bee-B1SM.svg","response":1,"trial_type":"image-button-response","trial_index":141,"time_elapsed":1002493,"internal_node_id":"0.0-6.0-0.5","subject_id":"616e17e39be6eea6a322fcb7","study_id":"6197b3f67c2b5cd3b6d9596a","session_id":"619be32149943bac4f21143d","condition":"contingent","relevant_dimensions":["pattern","legs"],"bee_group":{"antennae":"X","wings":"X","pattern":"S","legs":"M"},"bonus":1.0400000000000007},{"rt":5468.600000023842,"stimulus":"bees-with-color/bee-A2SF.svg","response":0,"trial_type":"image-button-response","trial_index":142,"time_elapsed":1007964,"internal_node_id":"0.0-6.0-0.6","subject_id":"616e17e39be6eea6a322fcb7","study_id":"6197b3f67c2b5cd3b6d9596a","session_id":"619be32149943bac4f21143d","condition":"contingent","relevant_dimensions":["pattern","legs"],"bee_group":{"antennae":"X","wings":"X","pattern":"S","legs":"M"},"bonus":1.0400000000000007},{"rt":5436.400000035763,"stimulus":"bees-with-color/bee-A1SM.svg","response":1,"trial_type":"image-button-response","trial_index":143,"time_elapsed":1013402,"internal_node_id":"0.0-6.0-0.7","subject_id":"616e17e39be6eea6a322fcb7","study_id":"6197b3f67c2b5cd3b6d9596a","session_id":"619be32149943bac4f21143d","condition":"contingent","relevant_dimensions":["pattern","legs"],"bee_group":{"antennae":"X","wings":"X","pattern":"S","legs":"M"},"bonus":1.0400000000000007},{"rt":2650.5,"stimulus":"bees-with-color/bee-A1DF.svg","response":0,"trial_type":"image-button-response","trial_index":144,"time_elapsed":1016054,"internal_node_id":"0.0-6.0-0.8","subject_id":"616e17e39be6eea6a322fcb7","study_id":"6197b3f67c2b5cd3b6d9596a","session_id":"619be32149943bac4f21143d","condition":"contingent","relevant_dimensions":["pattern","legs"],"bee_group":{"antennae":"X","wings":"X","pattern":"S","legs":"M"},"bonus":1.0400000000000007},{"rt":7779,"stimulus":"bees-with-color/bee-A2DF.svg","response":1,"trial_type":"image-button-response","trial_index":145,"time_elapsed":1023834,"internal_node_id":"0.0-6.0-0.9","subject_id":"616e17e39be6eea6a322fcb7","study_id":"6197b3f67c2b5cd3b6d9596a","session_id":"619be32149943bac4f21143d","condition":"contingent","relevant_dimensions":["pattern","legs"],"bee_group":{"antennae":"X","wings":"X","pattern":"S","legs":"M"},"bonus":1.0400000000000007},{"rt":2536.199999988079,"stimulus":"bees-with-color/bee-B1SF.svg","response":0,"trial_type":"image-button-response","trial_index":146,"time_elapsed":1026373,"internal_node_id":"0.0-6.0-0.10","subject_id":"616e17e39be6eea6a322fcb7","study_id":"6197b3f67c2b5cd3b6d9596a","session_id":"619be32149943bac4f21143d","condition":"contingent","relevant_dimensions":["pattern","legs"],"bee_group":{"antennae":"X","wings":"X","pattern":"S","legs":"M"},"bonus":1.0400000000000007},{"rt":6738.200000047684,"stimulus":"bees-with-color/bee-A1DM.svg","response":0,"trial_type":"image-button-response","trial_index":147,"time_elapsed":1033113,"internal_node_id":"0.0-6.0-0.11","subject_id":"616e17e39be6eea6a322fcb7","study_id":"6197b3f67c2b5cd3b6d9596a","session_id":"619be32149943bac4f21143d","condition":"contingent","relevant_dimensions":["pattern","legs"],"bee_group":{"antennae":"X","wings":"X","pattern":"S","legs":"M"},"bonus":1.0400000000000007},{"rt":5861.699999988079,"stimulus":"bees-with-color/bee-B1DM.svg","response":0,"trial_type":"image-button-response","trial_index":148,"time_elapsed":1038977,"internal_node_id":"0.0-6.0-0.12","subject_id":"616e17e39be6eea6a322fcb7","study_id":"6197b3f67c2b5cd3b6d9596a","session_id":"619be32149943bac4f21143d","condition":"contingent","relevant_dimensions":["pattern","legs"],"bee_group":{"antennae":"X","wings":"X","pattern":"S","legs":"M"},"bonus":1.0400000000000007},{"rt":11234.099999964237,"stimulus":"bees-with-color/bee-B2SM.svg","response":1,"trial_type":"image-button-response","trial_index":149,"time_elapsed":1050212,"internal_node_id":"0.0-6.0-0.13","subject_id":"616e17e39be6eea6a322fcb7","study_id":"6197b3f67c2b5cd3b6d9596a","session_id":"619be32149943bac4f21143d","condition":"contingent","relevant_dimensions":["pattern","legs"],"bee_group":{"antennae":"X","wings":"X","pattern":"S","legs":"M"},"bonus":1.0400000000000007},{"rt":2958.2999999523163,"stimulus":"bees-with-color/bee-B2DF.svg","response":0,"trial_type":"image-button-response","trial_index":150,"time_elapsed":1053172,"internal_node_id":"0.0-6.0-0.14","subject_id":"616e17e39be6eea6a322fcb7","study_id":"6197b3f67c2b5cd3b6d9596a","session_id":"619be32149943bac4f21143d","condition":"contingent","relevant_dimensions":["pattern","legs"],"bee_group":{"antennae":"X","wings":"X","pattern":"S","legs":"M"},"bonus":1.0400000000000007},{"rt":4563.199999988079,"stimulus":"bees-with-color/bee-A2SM.svg","response":0,"trial_type":"image-button-response","trial_index":151,"time_elapsed":1057737,"internal_node_id":"0.0-6.0-0.15","subject_id":"616e17e39be6eea6a322fcb7","study_id":"6197b3f67c2b5cd3b6d9596a","session_id":"619be32149943bac4f21143d","condition":"contingent","relevant_dimensions":["pattern","legs"],"bee_group":{"antennae":"X","wings":"X","pattern":"S","legs":"M"},"bonus":1.0400000000000007},{"rt":11817.200000047684,"stimulus":"bees-with-color/bee-B1SF.svg","response":1,"trial_type":"image-button-response","trial_index":152,"time_elapsed":1069555,"internal_node_id":"0.0-6.0-0.16","subject_id":"616e17e39be6eea6a322fcb7","study_id":"6197b3f67c2b5cd3b6d9596a","session_id":"619be32149943bac4f21143d","condition":"contingent","relevant_dimensions":["pattern","legs"],"bee_group":{"antennae":"X","wings":"X","pattern":"S","legs":"M"},"bonus":1.0400000000000007},{"rt":8012,"stimulus":"bees-with-color/bee-B1DM.svg","response":0,"trial_type":"image-button-response","trial_index":153,"time_elapsed":1077569,"internal_node_id":"0.0-6.0-0.17","subject_id":"616e17e39be6eea6a322fcb7","study_id":"6197b3f67c2b5cd3b6d9596a","session_id":"619be32149943bac4f21143d","condition":"contingent","relevant_dimensions":["pattern","legs"],"bee_group":{"antennae":"X","wings":"X","pattern":"S","legs":"M"},"bonus":1.0400000000000007},{"rt":6311.800000011921,"stimulus":"bees-with-color/bee-A1SM.svg","response":1,"trial_type":"image-button-response","trial_index":154,"time_elapsed":1083883,"internal_node_id":"0.0-6.0-0.18","subject_id":"616e17e39be6eea6a322fcb7","study_id":"6197b3f67c2b5cd3b6d9596a","session_id":"619be32149943bac4f21143d","condition":"contingent","relevant_dimensions":["pattern","legs"],"bee_group":{"antennae":"X","wings":"X","pattern":"S","legs":"M"},"bonus":1.0400000000000007},{"rt":4744.5,"stimulus":"bees-with-color/bee-B2DF.svg","response":0,"trial_type":"image-button-response","trial_index":155,"time_elapsed":1088629,"internal_node_id":"0.0-6.0-0.19","subject_id":"616e17e39be6eea6a322fcb7","study_id":"6197b3f67c2b5cd3b6d9596a","session_id":"619be32149943bac4f21143d","condition":"contingent","relevant_dimensions":["pattern","legs"],"bee_group":{"antennae":"X","wings":"X","pattern":"S","legs":"M"},"bonus":1.0400000000000007},{"rt":5992.899999976158,"stimulus":"bees-with-color/bee-B2SF.svg","response":1,"trial_type":"image-button-response","trial_index":156,"time_elapsed":1094623,"internal_node_id":"0.0-6.0-0.20","subject_id":"616e17e39be6eea6a322fcb7","study_id":"6197b3f67c2b5cd3b6d9596a","session_id":"619be32149943bac4f21143d","condition":"contingent","relevant_dimensions":["pattern","legs"],"bee_group":{"antennae":"X","wings":"X","pattern":"S","legs":"M"},"bonus":1.0400000000000007},{"rt":3200.5,"stimulus":"bees-with-color/bee-B2SM.svg","response":1,"trial_type":"image-button-response","trial_index":157,"time_elapsed":1097825,"internal_node_id":"0.0-6.0-0.21","subject_id":"616e17e39be6eea6a322fcb7","study_id":"6197b3f67c2b5cd3b6d9596a","session_id":"619be32149943bac4f21143d","condition":"contingent","relevant_dimensions":["pattern","legs"],"bee_group":{"antennae":"X","wings":"X","pattern":"S","legs":"M"},"bonus":1.0400000000000007},{"rt":9733.900000035763,"stimulus":"bees-with-color/bee-A1SF.svg","response":0,"trial_type":"image-button-response","trial_index":158,"time_elapsed":1107560,"internal_node_id":"0.0-6.0-0.22","subject_id":"616e17e39be6eea6a322fcb7","study_id":"6197b3f67c2b5cd3b6d9596a","session_id":"619be32149943bac4f21143d","condition":"contingent","relevant_dimensions":["pattern","legs"],"bee_group":{"antennae":"X","wings":"X","pattern":"S","legs":"M"},"bonus":1.0400000000000007},{"rt":5628.100000023842,"stimulus":"bees-with-color/bee-A2DF.svg","response":1,"trial_type":"image-button-response","trial_index":159,"time_elapsed":1113190,"internal_node_id":"0.0-6.0-0.23","subject_id":"616e17e39be6eea6a322fcb7","study_id":"6197b3f67c2b5cd3b6d9596a","session_id":"619be32149943bac4f21143d","condition":"contingent","relevant_dimensions":["pattern","legs"],"bee_group":{"antennae":"X","wings":"X","pattern":"S","legs":"M"},"bonus":1.0400000000000007},{"rt":10523.800000011921,"stimulus":"bees-with-color/bee-B2DM.svg","response":1,"trial_type":"image-button-response","trial_index":160,"time_elapsed":1123715,"internal_node_id":"0.0-6.0-0.24","subject_id":"616e17e39be6eea6a322fcb7","study_id":"6197b3f67c2b5cd3b6d9596a","session_id":"619be32149943bac4f21143d","condition":"contingent","relevant_dimensions":["pattern","legs"],"bee_group":{"antennae":"X","wings":"X","pattern":"S","legs":"M"},"bonus":1.0400000000000007},{"rt":5238.100000023842,"stimulus":"bees-with-color/bee-A2SF.svg","response":0,"trial_type":"image-button-response","trial_index":161,"time_elapsed":1128955,"internal_node_id":"0.0-6.0-0.25","subject_id":"616e17e39be6eea6a322fcb7","study_id":"6197b3f67c2b5cd3b6d9596a","session_id":"619be32149943bac4f21143d","condition":"contingent","relevant_dimensions":["pattern","legs"],"bee_group":{"antennae":"X","wings":"X","pattern":"S","legs":"M"},"bonus":1.0400000000000007},{"rt":4691.100000023842,"stimulus":"bees-with-color/bee-B1DF.svg","response":0,"trial_type":"image-button-response","trial_index":162,"time_elapsed":1133647,"internal_node_id":"0.0-6.0-0.26","subject_id":"616e17e39be6eea6a322fcb7","study_id":"6197b3f67c2b5cd3b6d9596a","session_id":"619be32149943bac4f21143d","condition":"contingent","relevant_dimensions":["pattern","legs"],"bee_group":{"antennae":"X","wings":"X","pattern":"S","legs":"M"},"bonus":1.0400000000000007},{"rt":4375.800000011921,"stimulus":"bees-with-color/bee-A2DM.svg","response":1,"trial_type":"image-button-response","trial_index":163,"time_elapsed":1138025,"internal_node_id":"0.0-6.0-0.27","subject_id":"616e17e39be6eea6a322fcb7","study_id":"6197b3f67c2b5cd3b6d9596a","session_id":"619be32149943bac4f21143d","condition":"contingent","relevant_dimensions":["pattern","legs"],"bee_group":{"antennae":"X","wings":"X","pattern":"S","legs":"M"},"bonus":1.0400000000000007},{"rt":4003.699999988079,"stimulus":"bees-with-color/bee-A1DM.svg","response":0,"trial_type":"image-button-response","trial_index":164,"time_elapsed":1142030,"internal_node_id":"0.0-6.0-0.28","subject_id":"616e17e39be6eea6a322fcb7","study_id":"6197b3f67c2b5cd3b6d9596a","session_id":"619be32149943bac4f21143d","condition":"contingent","relevant_dimensions":["pattern","legs"],"bee_group":{"antennae":"X","wings":"X","pattern":"S","legs":"M"},"bonus":1.0400000000000007},{"rt":2877.800000011921,"stimulus":"bees-with-color/bee-A1DF.svg","response":1,"trial_type":"image-button-response","trial_in