[{"success":true,"trial_type":"fullscreen","trial_index":0,"time_elapsed":7067,"internal_node_id":"0.0-0.0","subject_id":"6167efaf1a027420f7e6a651","study_id":"6197b3f67c2b5cd3b6d9596a","session_id":"619beeedff2e2801510086b4","condition":"full-information","relevant_dimensions":["wings","pattern"],"bee_group":{"antennae":"X","wings":"1","pattern":"S","legs":"X"},"bonus":0.9800000000000011},{"success":true,"timeout":false,"failed_images":[],"failed_audio":[],"failed_video":[],"trial_type":"preload","trial_index":1,"time_elapsed":13002,"internal_node_id":"0.0-1.0","subject_id":"6167efaf1a027420f7e6a651","study_id":"6197b3f67c2b5cd3b6d9596a","session_id":"619beeedff2e2801510086b4","condition":"full-information","relevant_dimensions":["wings","pattern"],"bee_group":{"antennae":"X","wings":"1","pattern":"S","legs":"X"},"bonus":0.9800000000000011},{"rt":2653.89999999851,"stimulus":"Welcome! Press any key to begin.","response":"n","trial_type":"html-keyboard-response","trial_index":2,"time_elapsed":15662,"internal_node_id":"0.0-2.0","subject_id":"6167efaf1a027420f7e6a651","study_id":"6197b3f67c2b5cd3b6d9596a","session_id":"619beeedff2e2801510086b4","condition":"full-information","relevant_dimensions":["wings","pattern"],"bee_group":{"antennae":"X","wings":"1","pattern":"S","legs":"X"},"bonus":0.9800000000000011},{"view_history":[{"page_index":0,"viewing_time":4043.3000000044703},{"page_index":1,"viewing_time":17812.39999999851},{"page_index":2,"viewing_time":39607.89999999851},{"page_index":3,"viewing_time":22524.39999999851},{"page_index":4,"viewing_time":11461.30000000447},{"page_index":5,"viewing_time":11243.19999999553},{"page_index":6,"viewing_time":16004.5},{"page_index":7,"viewing_time":10153.5},{"page_index":8,"viewing_time":9121.5},{"page_index":9,"viewing_time":6624.10000000149},{"page_index":10,"viewing_time":2823.2000000029802},{"page_index":11,"viewing_time":7268.19999999553},{"page_index":12,"viewing_time":8748.39999999851},{"page_index":13,"viewing_time":1963.7000000029802},{"page_index":14,"viewing_time":2659.2999999970198}],"rt":172060.8999999985,"trial_type":"instructions","trial_index":3,"time_elapsed":187727,"internal_node_id":"0.0-3.0-0.0","subject_id":"6167efaf1a027420f7e6a651","study_id":"6197b3f67c2b5cd3b6d9596a","session_id":"619beeedff2e2801510086b4","condition":"full-information","relevant_dimensions":["wings","pattern"],"bee_group":{"antennae":"X","wings":"1","pattern":"S","legs":"X"},"bonus":0.9800000000000011},{"rt":17886.70000000298,"response":{"Q0":["Two or six legs","Stripes or spots on body","Single or double wings","Antennae or no antennae"]},"question_order":[0],"trial_type":"survey-multi-select","trial_index":4,"time_elapsed":205651,"internal_node_id":"0.0-3.0-1.0","subject_id":"6167efaf1a027420f7e6a651","study_id":"6197b3f67c2b5cd3b6d9596a","session_id":"619beeedff2e2801510086b4","condition":"full-information","relevant_dimensions":["wings","pattern"],"bee_group":{"antennae":"X","wings":"1","pattern":"S","legs":"X"},"correct":true,"bonus":0.9800000000000011},{"rt":30844.89999999851,"response":{"Q1":"No.","Q2":"Based on the four features of the bee.","Q3":"You do not learn if it was friendly or dangerous, and do not alter your bonus."},"question_order":[0,1,2],"trial_type":"survey-multi-choice","trial_index":5,"time_elapsed":236519,"internal_node_id":"0.0-3.0-2.0","subject_id":"6167efaf1a027420f7e6a651","study_id":"6197b3f67c2b5cd3b6d9596a","session_id":"619beeedff2e2801510086b4","condition":"full-information","relevant_dimensions":["wings","pattern"],"bee_group":{"antennae":"X","wings":"1","pattern":"S","legs":"X"},"correct":false,"bonus":0.9800000000000011},{"rt":8592.20000000298,"stimulus":"<p>You did not answer all comprehension questions correctly.<br>Press <b>continue</b> to review the instructions again.</p>","response":0,"trial_type":"html-button-response","trial_index":6,"time_elapsed":245135,"internal_node_id":"0.0-3.0-3.0","subject_id":"6167efaf1a027420f7e6a651","study_id":"6197b3f67c2b5cd3b6d9596a","session_id":"619beeedff2e2801510086b4","condition":"full-information","relevant_dimensions":["wings","pattern"],"bee_group":{"antennae":"X","wings":"1","pattern":"S","legs":"X"},"bonus":0.9800000000000011},{"view_history":[{"page_index":0,"viewing_time":2151.60000000149},{"page_index":1,"viewing_time":12973.29999999702},{"page_index":2,"viewing_time":12139.20000000298},{"page_index":3,"viewing_time":13482.10000000149},{"page_index":4,"viewing_time":5627.79999999702},{"page_index":5,"viewing_time":10342.60000000149},{"page_index":6,"viewing_time":3997.60000000149},{"page_index":7,"viewing_time":2480.2999999970198},{"page_index":8,"viewing_time":3254.8000000044703},{"page_index":9,"viewing_time":1788.8999999985099},{"page_index":10,"viewing_time":1134.1000000014901},{"page_index":11,"viewing_time":5319.5},{"page_index":12,"viewing_time":3309.6999999955297},{"page_index":13,"viewing_time":1100.2000000029802},{"page_index":14,"viewing_time":1221.3999999985099}],"rt":80325,"trial_type":"instructions","trial_index":7,"time_elapsed":325475,"internal_node_id":"0.0-3.0-4.0-0.0","subject_id":"6167efaf1a027420f7e6a651","study_id":"6197b3f67c2b5cd3b6d9596a","session_id":"619beeedff2e2801510086b4","condition":"full-information","relevant_dimensions":["wings","pattern"],"bee_group":{"antennae":"X","wings":"1","pattern":"S","legs":"X"},"bonus":0.9800000000000011},{"rt":7099.0999999940395,"response":{"Q0":["Two or six legs","Stripes or spots on body","Single or double wings","Antennae or no antennae"]},"question_order":[0],"trial_type":"survey-multi-select","trial_index":8,"time_elapsed":332604,"internal_node_id":"0.0-3.0-4.0-1.0","subject_id":"6167efaf1a027420f7e6a651","study_id":"6197b3f67c2b5cd3b6d9596a","session_id":"619beeedff2e2801510086b4","condition":"full-information","relevant_dimensions":["wings","pattern"],"bee_group":{"antennae":"X","wings":"1","pattern":"S","legs":"X"},"correct":true,"bonus":0.9800000000000011},{"rt":16592.80000000447,"response":{"Q1":"No.","Q2":"Based on the four features of the bee.","Q3":"You learn if it was friendly or dangerous, but do not alter your bonus."},"question_order":[0,1,2],"trial_type":"survey-multi-choice","trial_index":9,"time_elapsed":349219,"internal_node_id":"0.0-3.0-4.0-2.0","subject_id":"6167efaf1a027420f7e6a651","study_id":"6197b3f67c2b5cd3b6d9596a","session_id":"619beeedff2e2801510086b4","condition":"full-information","relevant_dimensions":["wings","pattern"],"bee_group":{"antennae":"X","wings":"1","pattern":"S","legs":"X"},"correct":true,"bonus":0.9800000000000011},{"rt":2765.5,"stimulus":"<p>Congrats, you got everything right<br>When you're ready, click the button below to continue to the experiment.</p>","response":0,"trial_type":"html-button-response","trial_index":10,"time_elapsed":352002,"internal_node_id":"0.0-3.0-4.0-3.0","subject_id":"6167efaf1a027420f7e6a651","study_id":"6197b3f67c2b5cd3b6d9596a","session_id":"619beeedff2e2801510086b4","condition":"full-information","relevant_dimensions":["wings","pattern"],"bee_group":{"antennae":"X","wings":"1","pattern":"S","legs":"X"},"bonus":0.9800000000000011},{"rt":3533.2999999970198,"stimulus":"bees-with-color/bee-B2SF.svg","response":0,"trial_type":"image-button-response","trial_index":11,"time_elapsed":355567,"internal_node_id":"0.0-4.0-0.0","subject_id":"6167efaf1a027420f7e6a651","study_id":"6197b3f67c2b5cd3b6d9596a","session_id":"619beeedff2e2801510086b4","condition":"full-information","relevant_dimensions":["wings","pattern"],"bee_group":{"antennae":"X","wings":"1","pattern":"S","legs":"X"},"action":"harvest","summary":"good-harvest","bonus":0.9800000000000011},{"rt":3687.3000000044703,"stimulus":"\n                    <p><b>Action: <em>harvest</em></b></p>\n                    <p>This is the bee that you just saw.</p>\n                    <img src=\"bees-with-color/bee-B2SF.svg\" width=\"200\">\n                    <p><span class=\"greenText\"><b>Successful harvest!</b></span><br>Your pay has increased by $0.02. Your bonus pay is now $0.56.</p>\n            ","response":0,"trial_type":"html-button-response","trial_index":12,"time_elapsed":359308,"internal_node_id":"0.0-4.0-1.0","subject_id":"6167efaf1a027420f7e6a651","study_id":"6197b3f67c2b5cd3b6d9596a","session_id":"619beeedff2e2801510086b4","condition":"full-information","relevant_dimensions":["wings","pattern"],"bee_group":{"antennae":"X","wings":"1","pattern":"S","legs":"X"},"bonus":0.9800000000000011},{"rt":2111.7000000029802,"stimulus":"bees-with-color/bee-A2SF.svg","response":1,"trial_type":"image-button-response","trial_index":13,"time_elapsed":361438,"internal_node_id":"0.0-4.0-0.1","subject_id":"6167efaf1a027420f7e6a651","study_id":"6197b3f67c2b5cd3b6d9596a","session_id":"619beeedff2e2801510086b4","condition":"full-information","relevant_dimensions":["wings","pattern"],"bee_group":{"antennae":"X","wings":"1","pattern":"S","legs":"X"},"action":"avoid","summary":"bad-avoid","bonus":0.9800000000000011},{"rt":2777.10000000149,"stimulus":"\n                    <p><b>Action: <em>avoid</em></b></p>\n                    <p>This is the bee that you just saw.</p>\n                    <img src=\"bees-with-color/bee-A2SF.svg\" width=\"200\">\n                    <p><span class=\"redText\">Bad choice,</span> the bee was friendly.<br>Your bonus pay is unchanged, and remains at $0.56.</p>\n            ","response":0,"trial_type":"html-button-response","trial_index":14,"time_elapsed":364231,"internal_node_id":"0.0-4.0-1.1","subject_id":"6167efaf1a027420f7e6a651","study_id":"6197b3f67c2b5cd3b6d9596a","session_id":"619beeedff2e2801510086b4","condition":"full-information","relevant_dimensions":["wings","pattern"],"bee_group":{"antennae":"X","wings":"1","pattern":"S","legs":"X"},"bonus":0.9800000000000011},{"rt":2689.60000000149,"stimulus":"bees-with-color/bee-B1SM.svg","response":0,"trial_type":"image-button-response","trial_index":15,"time_elapsed":366935,"internal_node_id":"0.0-4.0-0.2","subject_id":"6167efaf1a027420f7e6a651","study_id":"6197b3f67c2b5cd3b6d9596a","session_id":"619beeedff2e2801510086b4","condition":"full-information","relevant_dimensions":["wings","pattern"],"bee_group":{"antennae":"X","wings":"1","pattern":"S","legs":"X"},"action":"harvest","summary":"bad-harvest","bonus":0.9800000000000011},{"rt":3011.2999999970198,"stimulus":"\n                    <p><b>Action: <em>harvest</em></b></p>\n                    <p>This is the bee that you just saw.</p>\n                    <img src=\"bees-with-color/bee-B1SM.svg\" width=\"200\">\n                    <p><span class=\"redText\">Bad choice, the bee was angry.</span><br><b>You have been stung!</b><br>Your pay has been decreased by $0.10. Your bonus pay is now $0.46.</p>\n            ","response":0,"trial_type":"html-button-response","trial_index":16,"time_elapsed":369953,"internal_node_id":"0.0-4.0-1.2","subject_id":"6167efaf1a027420f7e6a651","study_id":"6197b3f67c2b5cd3b6d9596a","session_id":"619beeedff2e2801510086b4","condition":"full-information","relevant_dimensions":["wings","pattern"],"bee_group":{"antennae":"X","wings":"1","pattern":"S","legs":"X"},"bonus":0.9800000000000011},{"rt":1637.2000000029802,"stimulus":"bees-with-color/bee-A1SM.svg","response":1,"trial_type":"image-button-response","trial_index":17,"time_elapsed":371597,"internal_node_id":"0.0-4.0-0.3","subject_id":"6167efaf1a027420f7e6a651","study_id":"6197b3f67c2b5cd3b6d9596a","session_id":"619beeedff2e2801510086b4","condition":"full-information","relevant_dimensions":["wings","pattern"],"bee_group":{"antennae":"X","wings":"1","pattern":"S","legs":"X"},"action":"avoid","summary":"good-avoid","bonus":0.9800000000000011},{"rt":5081.20000000298,"stimulus":"\n                    <p><b>Action: <em>avoid</em></b></p>\n                    <p>This is the bee that you just saw.</p>\n                    <img src=\"bees-with-color/bee-A1SM.svg\" width=\"200\">\n                    <p><span class=\"greenText\">Good choice!</span>  This bee would have stung you.<br>Your bonus pay is unchanged, and remains at $0.46.</p>\n            ","response":0,"trial_type":"html-button-response","trial_index":18,"time_elapsed":376691,"internal_node_id":"0.0-4.0-1.3","subject_id":"6167efaf1a027420f7e6a651","study_id":"6197b3f67c2b5cd3b6d9596a","session_id":"619beeedff2e2801510086b4","condition":"full-information","relevant_dimensions":["wings","pattern"],"bee_group":{"antennae":"X","wings":"1","pattern":"S","legs":"X"},"bonus":0.9800000000000011},{"rt":1851.8999999985099,"stimulus":"bees-with-color/bee-A1DM.svg","response":1,"trial_type":"image-button-response","trial_index":19,"time_elapsed":378553,"internal_node_id":"0.0-4.0-0.4","subject_id":"6167efaf1a027420f7e6a651","study_id":"6197b3f67c2b5cd3b6d9596a","session_id":"619beeedff2e2801510086b4","condition":"full-information","relevant_dimensions":["wings","pattern"],"bee_group":{"antennae":"X","wings":"1","pattern":"S","legs":"X"},"action":"avoid","summary":"bad-avoid","bonus":0.9800000000000011},{"rt":2184.5,"stimulus":"\n                    <p><b>Action: <em>avoid</em></b></p>\n                    <p>This is the bee that you just saw.</p>\n                    <img src=\"bees-with-color/bee-A1DM.svg\" width=\"200\">\n                    <p><span class=\"redText\">Bad choice,</span> the bee was friendly.<br>Your bonus pay is unchanged, and remains at $0.46.</p>\n            ","response":0,"trial_type":"html-button-response","trial_index":20,"time_elapsed":380756,"internal_node_id":"0.0-4.0-1.4","subject_id":"6167efaf1a027420f7e6a651","study_id":"6197b3f67c2b5cd3b6d9596a","session_id":"619beeedff2e2801510086b4","condition":"full-information","relevant_dimensions":["wings","pattern"],"bee_group":{"antennae":"X","wings":"1","pattern":"S","legs":"X"},"bonus":0.9800000000000011},{"rt":1947.5,"stimulus":"bees-with-color/bee-A2DM.svg","response":1,"trial_type":"image-button-response","trial_index":21,"time_elapsed":382715,"internal_node_id":"0.0-4.0-0.5","subject_id":"6167efaf1a027420f7e6a651","study_id":"6197b3f67c2b5cd3b6d9596a","session_id":"619beeedff2e2801510086b4","condition":"full-information","relevant_dimensions":["wings","pattern"],"bee_group":{"antennae":"X","wings":"1","pattern":"S","legs":"X"},"action":"avoid","summary":"bad-avoid","bonus":0.9800000000000011},{"rt":1298.8999999985099,"stimulus":"\n                    <p><b>Action: <em>avoid</em></b></p>\n                    <p>This is the bee that you just saw.</p>\n                    <img src=\"bees-with-color/bee-A2DM.svg\" width=\"200\">\n                    <p><span class=\"redText\">Bad choice,</span> the bee was friendly.<br>Your bonus pay is unchanged, and remains at $0.46.</p>\n            ","response":0,"trial_type":"html-button-response","trial_index":22,"time_elapsed":384022,"internal_node_id":"0.0-4.0-1.5","subject_id":"6167efaf1a027420f7e6a651","study_id":"6197b3f67c2b5cd3b6d9596a","session_id":"619beeedff2e2801510086b4","condition":"full-information","relevant_dimensions":["wings","pattern"],"bee_group":{"antennae":"X","wings":"1","pattern":"S","legs":"X"},"bonus":0.9800000000000011},{"rt":2027.3000000044703,"stimulus":"bees-with-color/bee-B1DM.svg","response":0,"trial_type":"image-button-response","trial_index":23,"time_elapsed":386054,"internal_node_id":"0.0-4.0-0.6","subject_id":"6167efaf1a027420f7e6a651","study_id":"6197b3f67c2b5cd3b6d9596a","session_id":"619beeedff2e2801510086b4","condition":"full-information","relevant_dimensions":["wings","pattern"],"bee_group":{"antennae":"X","wings":"1","pattern":"S","legs":"X"},"action":"harvest","summary":"good-harvest","bonus":0.9800000000000011},{"rt":1812,"stimulus":"\n                    <p><b>Action: <em>harvest</em></b></p>\n                    <p>This is the bee that you just saw.</p>\n                    <img src=\"bees-with-color/bee-B1DM.svg\" width=\"200\">\n                    <p><span class=\"greenText\"><b>Successful harvest!</b></span><br>Your pay has increased by $0.02. Your bonus pay is now $0.48.</p>\n            ","response":0,"trial_type":"html-button-response","trial_index":24,"time_elapsed":387873,"internal_node_id":"0.0-4.0-1.6","subject_id":"6167efaf1a027420f7e6a651","study_id":"6197b3f67c2b5cd3b6d9596a","session_id":"619beeedff2e2801510086b4","condition":"full-information","relevant_dimensions":["wings","pattern"],"bee_group":{"antennae":"X","wings":"1","pattern":"S","legs":"X"},"bonus":0.9800000000000011},{"rt":1992.7999999970198,"stimulus":"bees-with-color/bee-A2DF.svg","response":0,"trial_type":"image-button-response","trial_index":25,"time_elapsed":389879,"internal_node_id":"0.0-4.0-0.7","subject_id":"6167efaf1a027420f7e6a651","study_id":"6197b3f67c2b5cd3b6d9596a","session_id":"619beeedff2e2801510086b4","condition":"full-information","relevant_dimensions":["wings","pattern"],"bee_group":{"antennae":"X","wings":"1","pattern":"S","legs":"X"},"action":"harvest","summary":"good-harvest","bonus":0.9800000000000011},{"rt":1024.6999999955297,"stimulus":"\n                    <p><b>Action: <em>harvest</em></b></p>\n                    <p>This is the bee that you just saw.</p>\n                    <img src=\"bees-with-color/bee-A2DF.svg\" width=\"200\">\n                    <p><span class=\"greenText\"><b>Successful harvest!</b></span><br>Your pay has increased by $0.02. Your bonus pay is now $0.50.</p>\n            ","response":0,"trial_type":"html-button-response","trial_index":26,"time_elapsed":390916,"internal_node_id":"0.0-4.0-1.7","subject_id":"6167efaf1a027420f7e6a651","study_id":"6197b3f67c2b5cd3b6d9596a","session_id":"619beeedff2e2801510086b4","condition":"full-information","relevant_dimensions":["wings","pattern"],"bee_group":{"antennae":"X","wings":"1","pattern":"S","legs":"X"},"bonus":0.9800000000000011},{"rt":1409.5,"stimulus":"bees-with-color/bee-B1DF.svg","response":1,"trial_type":"image-button-response","trial_index":27,"time_elapsed":392344,"internal_node_id":"0.0-4.0-0.8","subject_id":"6167efaf1a027420f7e6a651","study_id":"6197b3f67c2b5cd3b6d9596a","session_id":"619beeedff2e2801510086b4","condition":"full-information","relevant_dimensions":["wings","pattern"],"bee_group":{"antennae":"X","wings":"1","pattern":"S","legs":"X"},"action":"avoid","summary":"bad-avoid","bonus":0.9800000000000011},{"rt":961.5,"stimulus":"\n                    <p><b>Action: <em>avoid</em></b></p>\n                    <p>This is the bee that you just saw.</p>\n                    <img src=\"bees-with-color/bee-B1DF.svg\" width=\"200\">\n                    <p><span class=\"redText\">Bad choice,</span> the bee was friendly.<br>Your bonus pay is unchanged, and remains at $0.50.</p>\n            ","response":0,"trial_type":"html-button-response","trial_index":28,"time_elapsed":393316,"internal_node_id":"0.0-4.0-1.8","subject_id":"6167efaf1a027420f7e6a651","study_id":"6197b3f67c2b5cd3b6d9596a","session_id":"619beeedff2e2801510086b4","condition":"full-information","relevant_dimensions":["wings","pattern"],"bee_group":{"antennae":"X","wings":"1","pattern":"S","legs":"X"},"bonus":0.9800000000000011},{"rt":1296.1999999955297,"stimulus":"bees-with-color/bee-B1SF.svg","response":1,"trial_type":"image-button-response","trial_index":29,"time_elapsed":394623,"internal_node_id":"0.0-4.0-0.9","subject_id":"6167efaf1a027420f7e6a651","study_id":"6197b3f67c2b5cd3b6d9596a","session_id":"619beeedff2e2801510086b4","condition":"full-information","relevant_dimensions":["wings","pattern"],"bee_group":{"antennae":"X","wings":"1","pattern":"S","legs":"X"},"action":"avoid","summary":"good-avoid","bonus":0.9800000000000011},{"rt":1391.3000000044703,"stimulus":"\n                    <p><b>Action: <em>avoid</em></b></p>\n                    <p>This is the bee that you just saw.</p>\n                    <img src=\"bees-with-color/bee-B1SF.svg\" width=\"200\">\n                    <p><span class=\"greenText\">Good choice!</span>  This bee would have stung you.<br>Your bonus pay is unchanged, and remains at $0.50.</p>\n            ","response":0,"trial_type":"html-button-response","trial_index":30,"time_elapsed":396028,"internal_node_id":"0.0-4.0-1.9","subject_id":"6167efaf1a027420f7e6a651","study_id":"6197b3f67c2b5cd3b6d9596a","session_id":"619beeedff2e2801510086b4","condition":"full-information","relevant_dimensions":["wings","pattern"],"bee_group":{"antennae":"X","wings":"1","pattern":"S","legs":"X"},"bonus":0.9800000000000011},{"rt":1497.7999999970198,"stimulus":"bees-with-color/bee-A1DF.svg","response":0,"trial_type":"image-button-response","trial_index":31,"time_elapsed":397537,"internal_node_id":"0.0-4.0-0.10","subject_id":"6167efaf1a027420f7e6a651","study_id":"6197b3f67c2b5cd3b6d9596a","session_id":"619beeedff2e2801510086b4","condition":"full-information","relevant_dimensions":["wings","pattern"],"bee_group":{"antennae":"X","wings":"1","pattern":"S","legs":"X"},"action":"harvest","summary":"good-harvest","bonus":0.9800000000000011},{"rt":1296,"stimulus":"\n                    <p><b>Action: <em>harvest</em></b></p>\n                    <p>This is the bee that you just saw.</p>\n                    <img src=\"bees-with-color/bee-A1DF.svg\" width=\"200\">\n                    <p><span class=\"greenText\"><b>Successful harvest!</b></span><br>Your pay has increased by $0.02. Your bonus pay is now $0.52.</p>\n            ","response":0,"trial_type":"html-button-response","trial_index":32,"time_elapsed":398847,"internal_node_id":"0.0-4.0-1.10","subject_id":"6167efaf1a027420f7e6a651","study_id":"6197b3f67c2b5cd3b6d9596a","session_id":"619beeedff2e2801510086b4","condition":"full-information","relevant_dimensions":["wings","pattern"],"bee_group":{"antennae":"X","wings":"1","pattern":"S","legs":"X"},"bonus":0.9800000000000011},{"rt":2225.60000000149,"stimulus":"bees-with-color/bee-A2SM.svg","response":0,"trial_type":"image-button-response","trial_index":33,"time_elapsed":401087,"internal_node_id":"0.0-4.0-0.11","subject_id":"6167efaf1a027420f7e6a651","study_id":"6197b3f67c2b5cd3b6d9596a","session_id":"619beeedff2e2801510086b4","condition":"full-information","relevant_dimensions":["wings","pattern"],"bee_group":{"antennae":"X","wings":"1","pattern":"S","legs":"X"},"action":"harvest","summary":"good-harvest","bonus":0.9800000000000011},{"rt":1021.1000000014901,"stimulus":"\n                    <p><b>Action: <em>harvest</em></b></p>\n                    <p>This is the bee that you just saw.</p>\n                    <img src=\"bees-with-color/bee-A2SM.svg\" width=\"200\">\n                    <p><span class=\"greenText\"><b>Successful harvest!</b></span><br>Your pay has increased by $0.02. Your bonus pay is now $0.54.</p>\n            ","response":0,"trial_type":"html-button-response","trial_index":34,"time_elapsed":402122,"internal_node_id":"0.0-4.0-1.11","subject_id":"6167efaf1a027420f7e6a651","study_id":"6197b3f67c2b5cd3b6d9596a","session_id":"619beeedff2e2801510086b4","condition":"full-information","relevant_dimensions":["wings","pattern"],"bee_group":{"antennae":"X","wings":"1","pattern":"S","legs":"X"},"bonus":0.9800000000000011},{"rt":2394.6999999955297,"stimulus":"bees-with-color/bee-A1SF.svg","response":1,"trial_type":"image-button-response","trial_index":35,"time_elapsed":404528,"internal_node_id":"0.0-4.0-0.12","subject_id":"6167efaf1a027420f7e6a651","study_id":"6197b3f67c2b5cd3b6d9596a","session_id":"619beeedff2e2801510086b4","condition":"full-information","relevant_dimensions":["wings","pattern"],"bee_group":{"antennae":"X","wings":"1","pattern":"S","legs":"X"},"action":"avoid","summary":"good-avoid","bonus":0.9800000000000011},{"rt":1228.6000000014901,"stimulus":"\n                    <p><b>Action: <em>avoid</em></b></p>\n                    <p>This is the bee that you just saw.</p>\n                    <img src=\"bees-with-color/bee-A1SF.svg\" width=\"200\">\n                    <p><span class=\"greenText\">Good choice!</span>  This bee would have stung you.<br>Your bonus pay is unchanged, and remains at $0.54.</p>\n            ","response":0,"trial_type":"html-button-response","trial_index":36,"time_elapsed":405765,"internal_node_id":"0.0-4.0-1.12","subject_id":"6167efaf1a027420f7e6a651","study_id":"6197b3f67c2b5cd3b6d9596a","session_id":"619beeedff2e2801510086b4","condition":"full-information","relevant_dimensions":["wings","pattern"],"bee_group":{"antennae":"X","wings":"1","pattern":"S","legs":"X"},"bonus":0.9800000000000011},{"rt":1500.5,"stimulus":"bees-with-color/bee-B2DM.svg","response":0,"trial_type":"image-button-response","trial_index":37,"time_elapsed":407275,"internal_node_id":"0.0-4.0-0.13","subject_id":"6167efaf1a027420f7e6a651","study_id":"6197b3f67c2b5cd3b6d9596a","session_id":"619beeedff2e2801510086b4","condition":"full-information","relevant_dimensions":["wings","pattern"],"bee_group":{"antennae":"X","wings":"1","pattern":"S","legs":"X"},"action":"harvest","summary":"good-harvest","bonus":0.9800000000000011},{"rt":962.5999999940395,"stimulus":"\n                    <p><b>Action: <em>harvest</em></b></p>\n                    <p>This is the bee that you just saw.</p>\n                    <img src=\"bees-with-color/bee-B2DM.svg\" width=\"200\">\n                    <p><span class=\"greenText\"><b>Successful harvest!</b></span><br>Your pay has increased by $0.02. Your bonus pay is now $0.56.</p>\n            ","response":0,"trial_type":"html-button-response","trial_index":38,"time_elapsed":408244,"internal_node_id":"0.0-4.0-1.13","subject_id":"6167efaf1a027420f7e6a651","study_id":"6197b3f67c2b5cd3b6d9596a","session_id":"619beeedff2e2801510086b4","condition":"full-information","relevant_dimensions":["wings","pattern"],"bee_group":{"antennae":"X","wings":"1","pattern":"S","legs":"X"},"bonus":0.9800000000000011},{"rt":1112,"stimulus":"bees-with-color/bee-B2DF.svg","response":0,"trial_type":"image-button-response","trial_index":39,"time_elapsed":409368,"internal_node_id":"0.0-4.0-0.14","subject_id":"6167efaf1a027420f7e6a651","study_id":"6197b3f67c2b5cd3b6d9596a","session_id":"619beeedff2e2801510086b4","condition":"full-information","relevant_dimensions":["wings","pattern"],"bee_group":{"antennae":"X","wings":"1","pattern":"S","legs":"X"},"action":"harvest","summary":"good-harvest","bonus":0.9800000000000011},{"rt":981,"stimulus":"\n                    <p><b>Action: <em>harvest</em></b></p>\n                    <p>This is the bee that you just saw.</p>\n                    <img src=\"bees-with-color/bee-B2DF.svg\" width=\"200\">\n                    <p><span class=\"greenText\"><b>Successful harvest!</b></span><br>Your pay has increased by $0.02. Your bonus pay is now $0.58.</p>\n            ","response":0,"trial_type":"html-button-response","trial_index":40,"time_elapsed":410357,"internal_node_id":"0.0-4.0-1.14","subject_id":"6167efaf1a027420f7e6a651","study_id":"6197b3f67c2b5cd3b6d9596a","session_id":"619beeedff2e2801510086b4","condition":"full-information","relevant_dimensions":["wings","pattern"],"bee_group":{"antennae":"X","wings":"1","pattern":"S","legs":"X"},"bonus":0.9800000000000011},{"rt":1383.1999999955297,"stimulus":"bees-with-color/bee-B2SM.svg","response":1,"trial_type":"image-button-response","trial_index":41,"time_elapsed":411749,"internal_node_id":"0.0-4.0-0.15","subject_id":"6167efaf1a027420f7e6a651","study_id":"6197b3f67c2b5cd3b6d9596a","session_id":"619beeedff2e2801510086b4","condition":"full-information","relevant_dimensions":["wings","pattern"],"bee_group":{"antennae":"X","wings":"1","pattern":"S","legs":"X"},"action":"avoid","summary":"bad-avoid","bonus":0.9800000000000011},{"rt":1147.8999999985099,"stimulus":"\n                    <p><b>Action: <em>avoid</em></b></p>\n                    <p>This is the bee that you just saw.</p>\n                    <img src=\"bees-with-color/bee-B2SM.svg\" width=\"200\">\n                    <p><span class=\"redText\">Bad choice,</span> the bee was friendly.<br>Your bonus pay is unchanged, and remains at $0.58.</p>\n            ","response":0,"trial_type":"html-button-response","trial_index":42,"time_elapsed":412909,"internal_node_id":"0.0-4.0-1.15","subject_id":"6167efaf1a027420f7e6a651","study_id":"6197b3f67c2b5cd3b6d9596a","session_id":"619beeedff2e2801510086b4","condition":"full-information","relevant_dimensions":["wings","pattern"],"bee_group":{"antennae":"X","wings":"1","pattern":"S","legs":"X"},"bonus":0.9800000000000011},{"rt":2044.3999999985099,"stimulus":"bees-with-color/bee-B1DF.svg","response":1,"trial_type":"image-button-response","trial_index":43,"time_elapsed":414962,"internal_node_id":"0.0-4.0-0.16","subject_id":"6167efaf1a027420f7e6a651","study_id":"6197b3f67c2b5cd3b6d9596a","session_id":"619beeedff2e2801510086b4","condition":"full-information","relevant_dimensions":["wings","pattern"],"bee_group":{"antennae":"X","wings":"1","pattern":"S","legs":"X"},"action":"avoid","summary":"bad-avoid","bonus":0.9800000000000011},{"rt":917.6000000014901,"stimulus":"\n                    <p><b>Action: <em>avoid</em></b></p>\n                    <p>This is the bee that you just saw.</p>\n                    <img src=\"bees-with-color/bee-B1DF.svg\" width=\"200\">\n                    <p><span class=\"redText\">Bad choice,</span> the bee was friendly.<br>Your bonus pay is unchanged, and remains at $0.58.</p>\n            ","response":0,"trial_type":"html-button-response","trial_index":44,"time_elapsed":415892,"internal_node_id":"0.0-4.0-1.16","subject_id":"6167efaf1a027420f7e6a651","study_id":"6197b3f67c2b5cd3b6d9596a","session_id":"619beeedff2e2801510086b4","condition":"full-information","relevant_dimensions":["wings","pattern"],"bee_group":{"antennae":"X","wings":"1","pattern":"S","legs":"X"},"bonus":0.9800000000000011},{"rt":1962.2999999970198,"stimulus":"bees-with-color/bee-B2SM.svg","response":0,"trial_type":"image-button-response","trial_index":45,"time_elapsed":417872,"internal_node_id":"0.0-4.0-0.17","subject_id":"6167efaf1a027420f7e6a651","study_id":"6197b3f67c2b5cd3b6d9596a","session_id":"619beeedff2e2801510086b4","condition":"full-information","relevant_dimensions":["wings","pattern"],"bee_group":{"antennae":"X","wings":"1","pattern":"S","legs":"X"},"action":"harvest","summary":"good-harvest","bonus":0.9800000000000011},{"rt":870.6000000014901,"stimulus":"\n                    <p><b>Action: <em>harvest</em></b></p>\n                    <p>This is the bee that you just saw.</p>\n                    <img src=\"bees-with-color/bee-B2SM.svg\" width=\"200\">\n                    <p><span class=\"greenText\"><b>Successful harvest!</b></span><br>Your pay has increased by $0.02. Your bonus pay is now $0.60.</p>\n            ","response":0,"trial_type":"html-button-response","trial_index":46,"time_elapsed":418754,"internal_node_id":"0.0-4.0-1.17","subject_id":"6167efaf1a027420f7e6a651","study_id":"6197b3f67c2b5cd3b6d9596a","session_id":"619beeedff2e2801510086b4","condition":"full-information","relevant_dimensions":["wings","pattern"],"bee_group":{"antennae":"X","wings":"1","pattern":"S","legs":"X"},"bonus":0.9800000000000011},{"rt":1193.2999999970198,"stimulus":"bees-with-color/bee-A2SF.svg","response":0,"trial_type":"image-button-response","trial_index":47,"time_elapsed":419960,"internal_node_id":"0.0-4.0-0.18","subject_id":"6167efaf1a027420f7e6a651","study_id":"6197b3f67c2b5cd3b6d9596a","session_id":"619beeedff2e2801510086b4","condition":"full-information","relevant_dimensions":["wings","pattern"],"bee_group":{"antennae":"X","wings":"1","pattern":"S","legs":"X"},"action":"harvest","summary":"good-harvest","bonus":0.9800000000000011},{"rt":871.1000000014901,"stimulus":"\n                    <p><b>Action: <em>harvest</em></b></p>\n                    <p>This is the bee that you just saw.</p>\n                    <img src=\"bees-with-color/bee-A2SF.svg\" width=\"200\">\n                    <p><span class=\"greenText\"><b>Successful harvest!</b></span><br>Your pay has increased by $0.02. Your bonus pay is now $0.62.</p>\n            ","response":0,"trial_type":"html-button-response","trial_index":48,"time_elapsed":420842,"internal_node_id":"0.0-4.0-1.18","subject_id":"6167efaf1a027420f7e6a651","study_id":"6197b3f67c2b5cd3b6d9596a","session_id":"619beeedff2e2801510086b4","condition":"full-information","relevant_dimensions":["wings","pattern"],"bee_group":{"antennae":"X","wings":"1","pattern":"S","legs":"X"},"bonus":0.9800000000000011},{"rt":1552,"stimulus":"bees-with-color/bee-B1SM.svg","response":0,"trial_type":"image-button-response","trial_index":49,"time_elapsed":422407,"internal_node_id":"0.0-4.0-0.19","subject_id":"6167efaf1a027420f7e6a651","study_id":"6197b3f67c2b5cd3b6d9596a","session_id":"619beeedff2e2801510086b4","condition":"full-information","relevant_dimensions":["wings","pattern"],"bee_group":{"antennae":"X","wings":"1","pattern":"S","legs":"X"},"action":"harvest","summary":"bad-harvest","bonus":0.9800000000000011},{"rt":1348.3999999985099,"stimulus":"\n                    <p><b>Action: <em>harvest</em></b></p>\n                    <p>This is the bee that you just saw.</p>\n                    <img src=\"bees-with-color/bee-B1SM.svg\" width=\"200\">\n                    <p><span class=\"redText\">Bad choice, the bee was angry.</span><br><b>You have been stung!</b><br>Your pay has been decreased by $0.10. Your bonus pay is now $0.52.</p>\n            ","response":0,"trial_type":"html-button-response","trial_index":50,"time_elapsed":423767,"internal_node_id":"0.0-4.0-1.19","subject_id":"6167efaf1a027420f7e6a651","study_id":"6197b3f67c2b5cd3b6d9596a","session_id":"619beeedff2e2801510086b4","condition":"full-information","relevant_dimensions":["wings","pattern"],"bee_group":{"antennae":"X","wings":"1","pattern":"S","legs":"X"},"bonus":0.9800000000000011},{"rt":1193.6000000014901,"stimulus":"bees-with-color/bee-A1SM.svg","response":1,"trial_type":"image-button-response","trial_index":51,"time_elapsed":424972,"internal_node_id":"0.0-4.0-0.20","subject_id":"6167efaf1a027420f7e6a651","study_id":"6197b3f67c2b5cd3b6d9596a","session_id":"619beeedff2e2801510086b4","condition":"full-information","relevant_dimensions":["wings","pattern"],"bee_group":{"antennae":"X","wings":"1","pattern":"S","legs":"X"},"action":"avoid","summary":"good-avoid","bonus":0.9800000000000011},{"rt":906,"stimulus":"\n                    <p><b>Action: <em>avoid</em></b></p>\n                    <p>This is the bee that you just saw.</p>\n                    <img src=\"bees-with-color/bee-A1SM.svg\" width=\"200\">\n                    <p><span class=\"greenText\">Good choice!</span>  This bee would have stung you.<br>Your bonus pay is unchanged, and remains at $0.52.</p>\n            ","response":0,"trial_type":"html-button-response","trial_index":52,"time_elapsed":425893,"internal_node_id":"0.0-4.0-1.20","subject_id":"6167efaf1a027420f7e6a651","study_id":"6197b3f67c2b5cd3b6d9596a","session_id":"619beeedff2e2801510086b4","condition":"full-information","relevant_dimensions":["wings","pattern"],"bee_group":{"antennae":"X","wings":"1","pattern":"S","legs":"X"},"bonus":0.9800000000000011},{"rt":2044.3999999985099,"stimulus":"bees-with-color/bee-A2SM.svg","response":1,"trial_type":"image-button-response","trial_index":53,"time_elapsed":427947,"internal_node_id":"0.0-4.0-0.21","subject_id":"6167efaf1a027420f7e6a651","study_id":"6197b3f67c2b5cd3b6d9596a","session_id":"619beeedff2e2801510086b4","condition":"full-information","relevant_dimensions":["wings","pattern"],"bee_group":{"antennae":"X","wings":"1","pattern":"S","legs":"X"},"action":"avoid","summary":"bad-avoid","bonus":0.9800000000000011},{"rt":993.6999999955297,"stimulus":"\n                    <p><b>Action: <em>avoid</em></b></p>\n                    <p>This is the bee that you just saw.</p>\n                    <img src=\"bees-with-color/bee-A2SM.svg\" width=\"200\">\n                    <p><span class=\"redText\">Bad choice,</span> the bee was friendly.<br>Your bonus pay is unchanged, and remains at $0.52.</p>\n            ","response":0,"trial_type":"html-button-response","trial_index":54,"time_elapsed":428953,"internal_node_id":"0.0-4.0-1.21","subject_id":"6167efaf1a027420f7e6a651","study_id":"6197b3f67c2b5cd3b6d9596a","session_id":"619beeedff2e2801510086b4","condition":"full-information","relevant_dimensions":["wings","pattern"],"bee_group":{"antennae":"X","wings":"1","pattern":"S","legs":"X"},"bonus":0.9800000000000011},{"rt":981.5,"stimulus":"bees-with-color/bee-B2DM.svg","response":0,"trial_type":"image-button-response","trial_index":55,"time_elapsed":429944,"internal_node_id":"0.0-4.0-0.22","subject_id":"6167efaf1a027420f7e6a651","study_id":"6197b3f67c2b5cd3b6d9596a","session_id":"619beeedff2e2801510086b4","condition":"full-information","relevant_dimensions":["wings","pattern"],"bee_group":{"antennae":"X","wings":"1","pattern":"S","legs":"X"},"action":"harvest","summary":"good-harvest","bonus":0.9800000000000011},{"rt":970.2999999970198,"stimulus":"\n                    <p><b>Action: <em>harvest</em></b></p>\n                    <p>This is the bee that you just saw.</p>\n                    <img src=\"bees-with-color/bee-B2DM.svg\" width=\"200\">\n                    <p><span class=\"greenText\"><b>Successful harvest!</b></span><br>Your pay has increased by $0.02. Your bonus pay is now $0.54.</p>\n            ","response":0,"trial_type":"html-button-response","trial_index":56,"time_elapsed":430926,"internal_node_id":"0.0-4.0-1.22","subject_id":"6167efaf1a027420f7e6a651","study_id":"6197b3f67c2b5cd3b6d9596a","session_id":"619beeedff2e2801510086b4","condition":"full-information","relevant_dimensions":["wings","pattern"],"bee_group":{"antennae":"X","wings":"1","pattern":"S","legs":"X"},"bonus":0.9800000000000011},{"rt":1396.2999999970198,"stimulus":"bees-with-color/bee-B2DF.svg","response":0,"trial_type":"image-button-response","trial_index":57,"time_elapsed":432332,"internal_node_id":"0.0-4.0-0.23","subject_id":"6167efaf1a027420f7e6a651","study_id":"6197b3f67c2b5cd3b6d9596a","session_id":"619beeedff2e2801510086b4","condition":"full-information","relevant_dimensions":["wings","pattern"],"bee_group":{"antennae":"X","wings":"1","pattern":"S","legs":"X"},"action":"harvest","summary":"good-harvest","bonus":0.9800000000000011},{"rt":895.5,"stimulus":"\n                    <p><b>Action: <em>harvest</em></b></p>\n                    <p>This is the bee that you just saw.</p>\n                    <img src=\"bees-with-color/bee-B2DF.svg\" width=\"200\">\n                    <p><span class=\"greenText\"><b>Successful harvest!</b></span><br>Your pay has increased by $0.02. Your bonus pay is now $0.56.</p>\n            ","response":0,"trial_type":"html-button-response","trial_index":58,"time_elapsed":433241,"internal_node_id":"0.0-4.0-1.23","subject_id":"6167efaf1a027420f7e6a651","study_id":"6197b3f67c2b5cd3b6d9596a","session_id":"619beeedff2e2801510086b4","condition":"full-information","relevant_dimensions":["wings","pattern"],"bee_group":{"antennae":"X","wings":"1","pattern":"S","legs":"X"},"bonus":0.9800000000000011},{"rt":2416.7999999970198,"stimulus":"bees-with-color/bee-B1DM.svg","response":0,"trial_type":"image-button-response","trial_index":59,"time_elapsed":435667,"internal_node_id":"0.0-4.0-0.24","subject_id":"6167efaf1a027420f7e6a651","study_id":"6197b3f67c2b5cd3b6d9596a","session_id":"619beeedff2e2801510086b4","condition":"full-information","relevant_dimensions":["wings","pattern"],"bee_group":{"antennae":"X","wings":"1","pattern":"S","legs":"X"},"action":"harvest","summary":"good-harvest","bonus":0.9800000000000011},{"rt":885,"stimulus":"\n                    <p><b>Action: <em>harvest</em></b></p>\n                    <p>This is the bee that you just saw.</p>\n                    <img src=\"bees-with-color/bee-B1DM.svg\" width=\"200\">\n                    <p><span class=\"greenText\"><b>Successful harvest!</b></span><br>Your pay has increased by $0.02. Your bonus pay is now $0.58.</p>\n            ","response":0,"trial_type":"html-button-response","trial_index":60,"time_elapsed":436560,"internal_node_id":"0.0-4.0-1.24","subject_id":"6167efaf1a027420f7e6a651","study_id":"6197b3f67c2b5cd3b6d9596a","session_id":"619beeedff2e2801510086b4","condition":"full-information","relevant_dimensions":["wings","pattern"],"bee_group":{"antennae":"X","wings":"1","pattern":"S","legs":"X"},"bonus":0.9800000000000011},{"rt":1119.3999999985099,"stimulus":"bees-with-color/bee-A2DF.svg","response":0,"trial_type":"image-button-response","trial_index":61,"time_elapsed":437692,"internal_node_id":"0.0-4.0-0.25","subject_id":"6167efaf1a027420f7e6a651","study_id":"6197b3f67c2b5cd3b6d9596a","session_id":"619beeedff2e2801510086b4","condition":"full-information","relevant_dimensions":["wings","pattern"],"bee_group":{"antennae":"X","wings":"1","pattern":"S","legs":"X"},"action":"harvest","summary":"good-harvest","bonus":0.9800000000000011},{"rt":864.9000000059605,"stimulus":"\n                    <p><b>Action: <em>harvest</em></b></p>\n                    <p>This is the bee that you just saw.</p>\n                    <img src=\"bees-with-color/bee-A2DF.svg\" width=\"200\">\n                    <p><span class=\"greenText\"><b>Successful harvest!</b></span><br>Your pay has increased by $0.02. Your bonus pay is now $0.60.</p>\n            ","response":0,"trial_type":"html-button-response","trial_index":62,"time_elapsed":438564,"internal_node_id":"0.0-4.0-1.25","subject_id":"6167efaf1a027420f7e6a651","study_id":"6197b3f67c2b5cd3b6d9596a","session_id":"619beeedff2e2801510086b4","condition":"full-information","relevant_dimensions":["wings","pattern"],"bee_group":{"antennae":"X","wings":"1","pattern":"S","legs":"X"},"bonus":0.9800000000000011},{"rt":1309,"stimulus":"bees-with-color/bee-B2SF.svg","response":0,"trial_type":"image-button-response","trial_index":63,"time_elapsed":439883,"internal_node_id":"0.0-4.0-0.26","subject_id":"6167efaf1a027420f7e6a651","study_id":"6197b3f67c2b5cd3b6d9596a","session_id":"619beeedff2e2801510086b4","condition":"full-information","relevant_dimensions":["wings","pattern"],"bee_group":{"antennae":"X","wings":"1","pattern":"S","legs":"X"},"action":"harvest","summary":"good-harvest","bonus":0.9800000000000011},{"rt":861.3999999985099,"stimulus":"\n                    <p><b>Action: <em>harvest</em></b></p>\n                    <p>This is the bee that you just saw.</p>\n                    <img src=\"bees-with-color/bee-B2SF.svg\" width=\"200\">\n                    <p><span class=\"greenText\"><b>Successful harvest!</b></span><br>Your pay has increased by $0.02. Your bonus pay is now $0.62.</p>\n            ","response":0,"trial_type":"html-button-response","trial_index":64,"time_elapsed":440751,"internal_node_id":"0.0-4.0-1.26","subject_id":"6167efaf1a027420f7e6a651","study_id":"6197b3f67c2b5cd3b6d9596a","session_id":"619beeedff2e2801510086b4","condition":"full-information","relevant_dimensions":["wings","pattern"],"bee_group":{"antennae":"X","wings":"1","pattern":"S","legs":"X"},"bonus":0.9800000000000011},{"rt":1104.8999999985099,"stimulus":"bees-with-color/bee-A1SF.svg","response":1,"trial_type":"image-button-response","trial_index":65,"time_elapsed":441868,"internal_node_id":"0.0-4.0-0.27","subject_id":"6167efaf1a027420f7e6a651","study_id":"6197b3f67c2b5cd3b6d9596a","session_id":"619beeedff2e2801510086b4","condition":"full-information","relevant_dimensions":["wings","pattern"],"bee_group":{"antennae":"X","wings":"1","pattern":"S","legs":"X"},"action":"avoid","summary":"good-avoid","bonus":0.9800000000000011},{"rt":887.3999999985099,"stimulus":"\n                    <p><b>Action: <em>avoid</em></b></p>\n                    <p>This is the bee that you just saw.</p>\n                    <img src=\"bees-with-color/bee-A1SF.svg\" width=\"200\">\n                    <p><span class=\"greenText\">Good choice!</span>  This bee would have stung you.<br>Your bonus pay is unchanged, and remains at $0.62.</p>\n            ","response":0,"trial_type":"html-button-response","trial_index":66,"time_elapsed":442760,"internal_node_id":"0.0-4.0-1.27","subject_id":"6167efaf1a027420f7e6a651","study_id":"6197b3f67c2b5cd3b6d9596a","session_id":"619beeedff2e2801510086b4","condition":"full-information","relevant_dimensions":["wings","pattern"],"bee_group":{"antennae":"X","wings":"1","pattern":"S","legs":"X"},"bonus":0.9800000000000011},{"rt":1845.2999999970198,"stimulus":"bees-with-color/bee-A1DM.svg","response":0,"trial_type":"image-button-response","trial_index":67,"time_elapsed":444620,"internal_node_id":"0.0-4.0-0.28","subject_id":"6167efaf1a027420f7e6a651","study_id":"6197b3f67c2b5cd3b6d9596a","session_id":"619beeedff2e2801510086b4","condition":"full-information","relevant_dimensions":["wings","pattern"],"bee_group":{"antennae":"X","wings":"1","pattern":"S","legs":"X"},"action":"harvest","summary":"good-harvest","bonus":0.9800000000000011},{"rt":780.1000000014901,"stimulus":"\n                    <p><b>Action: <em>harvest</em></b></p>\n                    <p>This is the bee that you just saw.</p>\n                    <img src=\"bees-with-color/bee-A1DM.svg\" width=\"200\">\n                    <p><span class=\"greenText\"><b>Successful harvest!</b></span><br>Your pay has increased by $0.02. Your bonus pay is now $0.64.</p>\n            ","response":0,"trial_type":"html-button-response","trial_index":68,"time_elapsed":445413,"internal_node_id":"0.0-4.0-1.28","subject_id":"6167efaf1a027420f7e6a651","study_id":"6197b3f67c2b5cd3b6d9596a","session_id":"619beeedff2e2801510086b4","condition":"full-information","relevant_dimensions":["wings","pattern"],"bee_group":{"antennae":"X","wings":"1","pattern":"S","legs":"X"},"bonus":0.9800000000000011},{"rt":1154.1000000014901,"stimulus":"bees-with-color/bee-A1DF.svg","response":0,"trial_type":"image-button-response","trial_index":69,"time_elapsed":446579,"internal_node_id":"0.0-4.0-0.29","subject_id":"6167efaf1a027420f7e6a651","study_id":"6197b3f67c2b5cd3b6d9596a","session_id":"619beeedff2e2801510086b4","condition":"full-information","relevant_dimensions":["wings","pattern"],"bee_group":{"antennae":"X","wings":"1","pattern":"S","legs":"X"},"action":"harvest","summary":"good-harvest","bonus":0.9800000000000011},{"rt":772,"stimulus":"\n                    <p><b>Action: <em>harvest</em></b></p>\n                    <p>This is the bee that you just saw.</p>\n                    <img src=\"bees-with-color/bee-A1DF.svg\" width=\"200\">\n                    <p><span class=\"greenText\"><b>Successful harvest!</b></span><br>Your pay has increased by $0.02. Your bonus pay is now $0.66.</p>\n            ","response":0,"trial_type":"html-button-response","trial_index":70,"time_elapsed":447358,"internal_node_id":"0.0-4.0-1.29","subject_id":"6167efaf1a027420f7e6a651","study_id":"6197b3f67c2b5cd3b6d9596a","session_id":"619beeedff2e2801510086b4","condition":"full-information","relevant_dimensions":["wings","pattern"],"bee_group":{"antennae":"X","wings":"1","pattern":"S","legs":"X"},"bonus":0.9800000000000011},{"rt":1437,"stimulus":"bees-with-color/bee-A2DM.svg","response":0,"trial_type":"image-button-response","trial_index":71,"time_elapsed":448804,"internal_node_id":"0.0-4.0-0.30","subject_id":"6167efaf1a027420f7e6a651","study_id":"6197b3f67c2b5cd3b6d9596a","session_id":"619beeedff2e2801510086b4","condition":"full-information","relevant_dimensions":["wings","pattern"],"bee_group":{"antennae":"X","wings":"1","pattern":"S","legs":"X"},"action":"harvest","summary":"good-harvest","bonus":0.9800000000000011},{"rt":833.6000000014901,"stimulus":"\n                    <p><b>Action: <em>harvest</em></b></p>\n                    <p>This is the bee that you just saw.</p>\n                    <img src=\"bees-with-color/bee-A2DM.svg\" width=\"200\">\n                    <p><span class=\"greenText\"><b>Successful harvest!</b></span><br>Your pay has increased by $0.02. Your bonus pay is now $0.68.</p>\n            ","response":0,"trial_type":"html-button-response","trial_index":72,"time_elapsed":449650,"internal_node_id":"0.0-4.0-1.30","subject_id":"6167efaf1a027420f7e6a651","study_id":"6197b3f67c2b5cd3b6d9596a","session_id":"619beeedff2e2801510086b4","condition":"full-information","relevant_dimensions":["wings","pattern"],"bee_group":{"antennae":"X","wings":"1","pattern":"S","legs":"X"},"bonus":0.9800000000000011},{"rt":1776.3000000044703,"stimulus":"bees-with-color/bee-B1SF.svg","response":1,"trial_type":"image-button-response","trial_index":73,"time_elapsed":451437,"internal_node_id":"0.0-4.0-0.31","subject_id":"6167efaf1a027420f7e6a651","study_id":"6197b3f67c2b5cd3b6d9596a","session_id":"619beeedff2e2801510086b4","condition":"full-information","relevant_dimensions":["wings","pattern"],"bee_group":{"antennae":"X","wings":"1","pattern":"S","legs":"X"},"action":"avoid","summary":"good-avoid","bonus":0.9800000000000011},{"rt":1156,"stimulus":"\n                    <p><b>Action: <em>avoid</em></b></p>\n                    <p>This is the bee that you just saw.</p>\n                    <img src=\"bees-with-color/bee-B1SF.svg\" width=\"200\">\n                    <p><span class=\"greenText\">Good choice!</span>  This bee would have stung you.<br>Your bonus pay is unchanged, and remains at $0.68.</p>\n            ","response":0,"trial_type":"html-button-response","trial_index":74,"time_elapsed":452607,"internal_node_id":"0.0-4.0-1.31","subject_id":"6167efaf1a027420f7e6a651","study_id":"6197b3f67c2b5cd3b6d9596a","session_id":"619beeedff2e2801510086b4","condition":"full-information","relevant_dimensions":["wings","pattern"],"bee_group":{"antennae":"X","wings":"1","pattern":"S","legs":"X"},"bonus":0.9800000000000011},{"rt":4118,"stimulus":"bees-with-color/bee-B2DF.svg","response":0,"trial_type":"image-button-response","trial_index":75,"time_elapsed":456737,"internal_node_id":"0.0-4.0-0.32","subject_id":"6167efaf1a027420f7e6a651","study_id":"6197b3f67c2b5cd3b6d9596a","session_id":"619beeedff2e2801510086b4","condition":"full-information","relevant_dimensions":["wings","pattern"],"bee_group":{"antennae":"X","wings":"1","pattern":"S","legs":"X"},"action":"harvest","summary":"good-harvest","bonus":0.9800000000000011},{"rt":1782.0999999940395,"stimulus":"\n                    <p><b>Action: <em>harvest</em></b></p>\n                    <p>This is the bee that you just saw.</p>\n                    <img src=\"bees-with-color/bee-B2DF.svg\" width=\"200\">\n                    <p><span class=\"greenText\"><b>Successful harvest!</b></span><br>Your pay has increased by $0.02. Your bonus pay is now $0.70.</p>\n            ","response":0,"trial_type":"html-button-response","trial_index":76,"time_elapsed":458532,"internal_node_id":"0.0-4.0-1.32","subject_id":"6167efaf1a027420f7e6a651","study_id":"6197b3f67c2b5cd3b6d9596a","session_id":"619beeedff2e2801510086b4","condition":"full-information","relevant_dimensions":["wings","pattern"],"bee_group":{"antennae":"X","wings":"1","pattern":"S","legs":"X"},"bonus":0.9800000000000011},{"rt":1644.5,"stimulus":"bees-with-color/bee-A1SF.svg","response":1,"trial_type":"image-button-response","trial_index":77,"time_elapsed":460189,"internal_node_id":"0.0-4.0-0.33","subject_id":"6167efaf1a027420f7e6a651","study_id":"6197b3f67c2b5cd3b6d9596a","session_id":"619beeedff2e2801510086b4","condition":"full-information","relevant_dimensions":["wings","pattern"],"bee_group":{"antennae":"X","wings":"1","pattern":"S","legs":"X"},"action":"avoid","summary":"good-avoid","bonus":0.9800000000000011},{"rt":2716.89999999851,"stimulus":"\n                    <p><b>Action: <em>avoid</em></b></p>\n                    <p>This is the bee that you just saw.</p>\n                    <img src=\"bees-with-color/bee-A1SF.svg\" width=\"200\">\n                    <p><span class=\"greenText\">Good choice!</span>  This bee would have stung you.<br>Your bonus pay is unchanged, and remains at $0.70.</p>\n            ","response":0,"trial_type":"html-button-response","trial_index":78,"time_elapsed":462913,"internal_node_id":"0.0-4.0-1.33","subject_id":"6167efaf1a027420f7e6a651","study_id":"6197b3f67c2b5cd3b6d9596a","session_id":"619beeedff2e2801510086b4","condition":"full-information","relevant_dimensions":["wings","pattern"],"bee_group":{"antennae":"X","wings":"1","pattern":"S","legs":"X"},"bonus":0.9800000000000011},{"rt":1931.6000000014901,"stimulus":"bees-with-color/bee-B1DM.svg","response":1,"trial_type":"image-button-response","trial_index":79,"time_elapsed":464862,"internal_node_id":"0.0-4.0-0.34","subject_id":"6167efaf1a027420f7e6a651","study_id":"6197b3f67c2b5cd3b6d9596a","session_id":"619beeedff2e2801510086b4","condition":"full-information","relevant_dimensions":["wings","pattern"],"bee_group":{"antennae":"X","wings":"1","pattern":"S","legs":"X"},"action":"avoid","summary":"bad-avoid","bonus":0.9800000000000011},{"rt":847.2999999970198,"stimulus":"\n                    <p><b>Action: <em>avoid</em></b></p>\n                    <p>This is the bee that you just saw.</p>\n                    <img src=\"bees-with-color/bee-B1DM.svg\" width=\"200\">\n                    <p><span class=\"redText\">Bad choice,</span> the bee was friendly.<br>Your bonus pay is unchanged, and remains at $0.70.</p>\n            ","response":0,"trial_type":"html-button-response","trial_index":80,"time_elapsed":465719,"internal_node_id":"0.0-4.0-1.34","subject_id":"6167efaf1a027420f7e6a651","study_id":"6197b3f67c2b5cd3b6d9596a","session_id":"619beeedff2e2801510086b4","condition":"full-information","relevant_dimensions":["wings","pattern"],"bee_group":{"antennae":"X","wings":"1","pattern":"S","legs":"X"},"bonus":0.9800000000000011},{"rt":1147,"stimulus":"bees-with-color/bee-B2SM.svg","response":0,"trial_type":"image-button-response","trial_index":81,"time_elapsed":466875,"internal_node_id":"0.0-4.0-0.35","subject_id":"6167efaf1a027420f7e6a651","study_id":"6197b3f67c2b5cd3b6d9596a","session_id":"619beeedff2e2801510086b4","condition":"full-information","relevant_dimensions":["wings","pattern"],"bee_group":{"antennae":"X","wings":"1","pattern":"S","legs":"X"},"action":"harvest","summary":"good-harvest","bonus":0.9800000000000011},{"rt":894.7000000029802,"stimulus":"\n                    <p><b>Action: <em>harvest</em></b></p>\n                    <p>This is the bee that you just saw.</p>\n                    <img src=\"bees-with-color/bee-B2SM.svg\" width=\"200\">\n                    <p><span class=\"greenText\"><b>Successful harvest!</b></span><br>Your pay has increased by $0.02. Your bonus pay is now $0.72.</p>\n            ","response":0,"trial_type":"html-button-response","trial_index":82,"time_elapsed":467777,"internal_node_id":"0.0-4.0-1.35","subject_id":"6167efaf1a027420f7e6a651","study_id":"6197b3f67c2b5cd3b6d9596a","session_id":"619beeedff2e2801510086b4","condition":"full-information","relevant_dimensions":["wings","pattern"],"bee_group":{"antennae":"X","wings":"1","pattern":"S","legs":"X"},"bonus":0.9800000000000011},{"rt":969.1000000014901,"stimulus":"bees-with-color/bee-A2DM.svg","response":0,"trial_type":"image-button-response","trial_index":83,"time_elapsed":468753,"internal_node_id":"0.0-4.0-0.36","subject_id":"6167efaf1a027420f7e6a651","study_id":"6197b3f67c2b5cd3b6d9596a","session_id":"619beeedff2e2801510086b4","condition":"full-information","relevant_dimensions":["wings","pattern"],"bee_group":{"antennae":"X","wings":"1","pattern":"S","legs":"X"},"action":"harvest","summary":"good-harvest","bonus":0.9800000000000011},{"rt":1345.3000000044703,"stimulus":"\n                    <p><b>Action: <em>harvest</em></b></p>\n                    <p>This is the bee that you just saw.</p>\n                    <img src=\"bees-with-color/bee-A2DM.svg\" width=\"200\">\n                    <p><span class=\"greenText\"><b>Successful harvest!</b></span><br>Your pay has increased by $0.02. Your bonus pay is now $0.74.</p>\n            ","response":0,"trial_type":"html-button-response","trial_index":84,"time_elapsed":470110,"internal_node_id":"0.0-4.0-1.36","subject_id":"6167efaf1a027420f7e6a651","study_id":"6197b3f67c2b5cd3b6d9596a","session_id":"619beeedff2e2801510086b4","condition":"full-information","relevant_dimensions":["wings","pattern"],"bee_group":{"antennae":"X","wings":"1","pattern":"S","legs":"X"},"bonus":0.9800000000000011},{"rt":1601.9000000059605,"stimulus":"bees-with-color/bee-A1DM.svg","response":1,"trial_type":"image-button-response","trial_index":85,"time_elapsed":471724,"internal_node_id":"0.0-4.0-0.37","subject_id":"6167efaf1a027420f7e6a651","study_id":"6197b3f67c2b5cd3b6d9596a","session_id":"619beeedff2e2801510086b4","condition":"full-information","relevant_dimensions":["wings","pattern"],"bee_group":{"antennae":"X","wings":"1","pattern":"S","legs":"X"},"action":"avoid","summary":"bad-avoid","bonus":0.9800000000000011},{"rt":829.3000000044703,"stimulus":"\n                    <p><b>Action: <em>avoid</em></b></p>\n                    <p>This is the bee that you just saw.</p>\n                    <img src=\"bees-with-color/bee-A1DM.svg\" width=\"200\">\n                    <p><span class=\"redText\">Bad choice,</span> the bee was friendly.<br>Your bonus pay is unchanged, and remains at $0.74.</p>\n            ","response":0,"trial_type":"html-button-response","trial_index":86,"time_elapsed":472568,"internal_node_id":"0.0-4.0-1.37","subject_id":"6167efaf1a027420f7e6a651","study_id":"6197b3f67c2b5cd3b6d9596a","session_id":"619beeedff2e2801510086b4","condition":"full-information","relevant_dimensions":["wings","pattern"],"bee_group":{"antennae":"X","wings":"1","pattern":"S","legs":"X"},"bonus":0.9800000000000011},{"rt":1244.2999999970198,"stimulus":"bees-with-color/bee-B1SM.svg","response":1,"trial_type":"image-button-response","trial_index":87,"time_elapsed":473826,"internal_node_id":"0.0-4.0-0.38","subject_id":"6167efaf1a027420f7e6a651","study_id":"6197b3f67c2b5cd3b6d9596a","session_id":"619beeedff2e2801510086b4","condition":"full-information","relevant_dimensions":["wings","pattern"],"bee_group":{"antennae":"X","wings":"1","pattern":"S","legs":"X"},"action":"avoid","summary":"good-avoid","bonus":0.9800000000000011},{"rt":705.3000000044703,"stimulus":"\n                    <p><b>Action: <em>avoid</em></b></p>\n                    <p>This is the bee that you just saw.</p>\n                    <img src=\"bees-with-color/bee-B1SM.svg\" width=\"200\">\n                    <p><span class=\"greenText\">Good choice!</span>  This bee would have stung you.<br>Your bonus pay is unchanged, and remains at $0.74.</p>\n            ","response":0,"trial_type":"html-button-response","trial_index":88,"time_elapsed":474543,"internal_node_id":"0.0-4.0-1.38","subject_id":"6167efaf1a027420f7e6a651","study_id":"6197b3f67c2b5cd3b6d9596a","session_id":"619beeedff2e2801510086b4","condition":"full-information","relevant_dimensions":["wings","pattern"],"bee_group":{"antennae":"X","wings":"1","pattern":"S","legs":"X"},"bonus":0.9800000000000011},{"rt":958.1999999955297,"stimulus":"bees-with-color/bee-A2DF.svg","response":0,"trial_type":"image-button-response","trial_index":89,"time_elapsed":475514,"internal_node_id":"0.0-4.0-0.39","subject_id":"6167efaf1a027420f7e6a651","study_id":"6197b3f67c2b5cd3b6d9596a","session_id":"619beeedff2e2801510086b4","condition":"full-information","relevant_dimensions":["wings","pattern"],"bee_group":{"antennae":"X","wings":"1","pattern":"S","legs":"X"},"action":"harvest","summary":"good-harvest","bonus":0.9800000000000011},{"rt":721.3999999985099,"stimulus":"\n                    <p><b>Action: <em>harvest</em></b></p>\n                    <p>This is the bee that you just saw.</p>\n                    <img src=\"bees-with-color/bee-A2DF.svg\" width=\"200\">\n                    <p><span class=\"greenText\"><b>Successful harvest!</b></span><br>Your pay has increased by $0.02. Your bonus pay is now $0.76.</p>\n            ","response":0,"trial_type":"html-button-response","trial_index":90,"time_elapsed":476247,"internal_node_id":"0.0-4.0-1.39","subject_id":"6167efaf1a027420f7e6a651","study_id":"6197b3f67c2b5cd3b6d9596a","session_id":"619beeedff2e2801510086b4","condition":"full-information","relevant_dimensions":["wings","pattern"],"bee_group":{"antennae":"X","wings":"1","pattern":"S","legs":"X"},"bonus":0.9800000000000011},{"rt":2006.5,"stimulus":"bees-with-color/bee-A1DF.svg","response":1,"trial_type":"image-button-response","trial_index":91,"time_elapsed":478259,"internal_node_id":"0.0-4.0-0.40","subject_id":"6167efaf1a027420f7e6a651","study_id":"6197b3f67c2b5cd3b6d9596a","session_id":"619beeedff2e2801510086b4","condition":"full-information","relevant_dimensions":["wings","pattern"],"bee_group":{"antennae":"X","wings":"1","pattern":"S","legs":"X"},"action":"avoid","summary":"bad-avoid","bonus":0.9800000000000011},{"rt":667.3999999985099,"stimulus":"\n                    <p><b>Action: <em>avoid</em></b></p>\n                    <p>This is the bee that you just saw.</p>\n                    <img src=\"bees-with-color/bee-A1DF.svg\" width=\"200\">\n                    <p><span class=\"redText\">Bad choice,</span> the bee was friendly.<br>Your bonus pay is unchanged, and remains at $0.76.</p>\n            ","response":0,"trial_type":"html-button-response","trial_index":92,"time_elapsed":478931,"internal_node_id":"0.0-4.0-1.40","subject_id":"6167efaf1a027420f7e6a651","study_id":"6197b3f67c2b5cd3b6d9596a","session_id":"619beeedff2e2801510086b4","condition":"full-information","relevant_dimensions":["wings","pattern"],"bee_group":{"antennae":"X","wings":"1","pattern":"S","legs":"X"},"bonus":0.9800000000000011},{"rt":821.8000000044703,"stimulus":"bees-with-color/bee-A2SF.svg","response":0,"trial_type":"image-button-response","trial_index":93,"time_elapsed":479770,"internal_node_id":"0.0-4.0-0.41","subject_id":"6167efaf1a027420f7e6a651","study_id":"6197b3f67c2b5cd3b6d9596a","session_id":"619beeedff2e2801510086b4","condition":"full-information","relevant_dimensions":["wings","pattern"],"bee_group":{"antennae":"X","wings":"1","pattern":"S","legs":"X"},"action":"harvest","summary":"good-harvest","bonus":0.9800000000000011},{"rt":758.8000000044703,"stimulus":"\n                    <p><b>Action: <em>harvest</em></b></p>\n                    <p>This is the bee that you just saw.</p>\n                    <img src=\"bees-with-color/bee-A2SF.svg\" width=\"200\">\n                    <p><span class=\"greenText\"><b>Successful harvest!</b></span><br>Your pay has increased by $0.02. Your bonus pay is now $0.78.</p>\n            ","response":0,"trial_type":"html-button-response","trial_index":94,"time_elapsed":480542,"internal_node_id":"0.0-4.0-1.41","subject_id":"6167efaf1a027420f7e6a651","study_id":"6197b3f67c2b5cd3b6d9596a","session_id":"619beeedff2e2801510086b4","condition":"full-information","relevant_dimensions":["wings","pattern"],"bee_group":{"antennae":"X","wings":"1","pattern":"S","legs":"X"},"bonus":0.9800000000000011},{"rt":1362.6000000014901,"stimulus":"bees-with-color/bee-B1DF.svg","response":1,"trial_type":"image-button-response","trial_index":95,"time_elapsed":481913,"internal_node_id":"0.0-4.0-0.42","subject_id":"6167efaf1a027420f7e6a651","study_id":"6197b3f67c2b5cd3b6d9596a","session_id":"619beeedff2e2801510086b4","condition":"full-information","relevant_dimensions":["wings","pattern"],"bee_group":{"antennae":"X","wings":"1","pattern":"S","legs":"X"},"action":"avoid","summary":"bad-avoid","bonus":0.9800000000000011},{"rt":744.3000000044703,"stimulus":"\n                    <p><b>Action: <em>avoid</em></b></p>\n                    <p>This is the bee that you just saw.</p>\n                    <img src=\"bees-with-color/bee-B1DF.svg\" width=\"200\">\n                    <p><span class=\"redText\">Bad choice,</span> the bee was friendly.<br>Your bonus pay is unchanged, and remains at $0.78.</p>\n            ","response":0,"trial_type":"html-button-response","trial_index":96,"time_elapsed":482665,"internal_node_id":"0.0-4.0-1.42","subject_id":"6167efaf1a027420f7e6a651","study_id":"6197b3f67c2b5cd3b6d9596a","session_id":"619beeedff2e2801510086b4","condition":"full-information","relevant_dimensions":["wings","pattern"],"bee_group":{"antennae":"X","wings":"1","pattern":"S","legs":"X"},"bonus":0.9800000000000011},{"rt":1023.5,"stimulus":"bees-with-color/bee-A1SM.svg","response":1,"trial_type":"image-button-response","trial_index":97,"time_elapsed":483696,"internal_node_id":"0.0-4.0-0.43","subject_id":"6167efaf1a027420f7e6a651","study_id":"6197b3f67c2b5cd3b6d9596a","session_id":"619beeedff2e2801510086b4","condition":"full-information","relevant_dimensions":["wings","pattern"],"bee_group":{"antennae":"X","wings":"1","pattern":"S","legs":"X"},"action":"avoid","summary":"good-avoid","bonus":0.9800000000000011},{"rt":753.5,"stimulus":"\n                    <p><b>Action: <em>avoid</em></b></p>\n                    <p>This is the bee that you just saw.</p>\n                    <img src=\"bees-with-color/bee-A1SM.svg\" width=\"200\">\n                    <p><span class=\"greenText\">Good choice!</span>  This bee would have stung you.<br>Your bonus pay is unchanged, and remains at $0.78.</p>\n            ","response":0,"trial_type":"html-button-response","trial_index":98,"time_elapsed":484455,"internal_node_id":"0.0-4.0-1.43","subject_id":"6167efaf1a027420f7e6a651","study_id":"6197b3f67c2b5cd3b6d9596a","session_id":"619beeedff2e2801510086b4","condition":"full-information","relevant_dimensions":["wings","pattern"],"bee_group":{"antennae":"X","wings":"1","pattern":"S","legs":"X"},"bonus":0.9800000000000011},{"rt":1847.2000000029802,"stimulus":"bees-with-color/bee-B2DM.svg","response":0,"trial_type":"image-button-response","trial_index":99,"time_elapsed":486312,"internal_node_id":"0.0-4.0-0.44","subject_id":"6167efaf1a027420f7e6a651","study_id":"6197b3f67c2b5cd3b6d9596a","session_id":"619beeedff2e2801510086b4","condition":"full-information","relevant_dimensions":["wings","pattern"],"bee_group":{"antennae":"X","wings":"1","pattern":"S","legs":"X"},"action":"harvest","summary":"good-harvest","bonus":0.9800000000000011},{"rt":828.4000000059605,"stimulus":"\n                    <p><b>Action: <em>harvest</em></b></p>\n                    <p>This is the bee that you just saw.</p>\n                    <img src=\"bees-with-color/bee-B2DM.svg\" width=\"200\">\n                    <p><span class=\"greenText\"><b>Successful harvest!</b></span><br>Your pay has increased by $0.02. Your bonus pay is now $0.80.</p>\n            ","response":0,"trial_type":"html-button-response","trial_index":100,"time_elapsed":487152,"internal_node_id":"0.0-4.0-1.44","subject_id":"6167efaf1a027420f7e6a651","study_id":"6197b3f67c2b5cd3b6d9596a","session_id":"619beeedff2e2801510086b4","condition":"full-information","relevant_dimensions":["wings","pattern"],"bee_group":{"antennae":"X","wings":"1","pattern":"S","legs":"X"},"bonus":0.9800000000000011},{"rt":1513.6000000014901,"stimulus":"bees-with-color/bee-A2SM.svg","response":0,"trial_type":"image-button-response","trial_index":101,"time_elapsed":488677,"internal_node_id":"0.0-4.0-0.45","subject_id":"6167efaf1a027420f7e6a651","study_id":"6197b3f67c2b5cd3b6d9596a","session_id":"619beeedff2e2801510086b4","condition":"full-information","relevant_dimensions":["wings","pattern"],"bee_group":{"antennae":"X","wings":"1","pattern":"S","legs":"X"},"action":"harvest","summary":"good-harvest","bonus":0.9800000000000011},{"rt":775.7999999970198,"stimulus":"\n                    <p><b>Action: <em>harvest</em></b></p>\n                    <p>This is the bee that you just saw.</p>\n                    <img src=\"bees-with-color/bee-A2SM.svg\" width=\"200\">\n                    <p><span class=\"greenText\"><b>Successful harvest!</b></span><br>Your pay has increased by $0.02. Your bonus pay is now $0.82.</p>\n            ","response":0,"trial_type":"html-button-response","trial_index":102,"time_elapsed":489466,"internal_node_id":"0.0-4.0-1.45","subject_id":"6167efaf1a027420f7e6a651","study_id":"6197b3f67c2b5cd3b6d9596a","session_id":"619beeedff2e2801510086b4","condition":"full-information","relevant_dimensions":["wings","pattern"],"bee_group":{"antennae":"X","wings":"1","pattern":"S","legs":"X"},"bonus":0.9800000000000011},{"rt":1662,"stimulus":"bees-with-color/bee-B2SF.svg","response":0,"trial_type":"image-button-response","trial_index":103,"time_elapsed":491139,"internal_node_id":"0.0-4.0-0.46","subject_id":"6167efaf1a027420f7e6a651","study_id":"6197b3f67c2b5cd3b6d9596a","session_id":"619beeedff2e2801510086b4","condition":"full-information","relevant_dimensions":["wings","pattern"],"bee_group":{"antennae":"X","wings":"1","pattern":"S","legs":"X"},"action":"harvest","summary":"good-harvest","bonus":0.9800000000000011},{"rt":771.3000000044703,"stimulus":"\n                    <p><b>Action: <em>harvest</em></b></p>\n                    <p>This is the bee that you just saw.</p>\n                    <img src=\"bees-with-color/bee-B2SF.svg\" width=\"200\">\n                    <p><span class=\"greenText\"><b>Successful harvest!</b></span><br>Your pay has increased by $0.02. Your bonus pay is now $0.84.</p>\n            ","response":0,"trial_type":"html-button-response","trial_index":104,"time_elapsed":491916,"internal_node_id":"0.0-4.0-1.46","subject_id":"6167efaf1a027420f7e6a651","study_id":"6197b3f67c2b5cd3b6d9596a","session_id":"619beeedff2e2801510086b4","condition":"full-information","relevant_dimensions":["wings","pattern"],"bee_group":{"antennae":"X","wings":"1","pattern":"S","legs":"X"},"bonus":0.9800000000000011},{"rt":1618.8000000044703,"stimulus":"bees-with-color/bee-B1SF.svg","response":0,"trial_type":"image-button-response","trial_index":105,"time_elapsed":493543,"internal_node_id":"0.0-4.0-0.47","subject_id":"6167efaf1a027420f7e6a651","study_id":"6197b3f67c2b5cd3b6d9596a","session_id":"619beeedff2e2801510086b4","condition":"full-information","relevant_dimensions":["wings","pattern"],"bee_group":{"antennae":"X","wings":"1","pattern":"S","legs":"X"},"action":"harvest","summary":"bad-harvest","bonus":0.9800000000000011},{"rt":1636.6000000014901,"stimulus":"\n                    <p><b>Action: <em>harvest</em></b></p>\n                    <p>This is the bee that you just saw.</p>\n                    <img src=\"bees-with-color/bee-B1SF.svg\" width=\"200\">\n                    <p><span class=\"redText\">Bad choice, the bee was angry.</span><br><b>You have been stung!</b><br>Your pay has been decreased by $0.10. Your bonus pay is now $0.74.</p>\n            ","response":0,"trial_type":"html-button-response","trial_index":106,"time_elapsed":495194,"internal_node_id":"0.0-4.0-1.47","subject_id":"6167efaf1a027420f7e6a651","study_id":"6197b3f67c2b5cd3b6d9596a","session_id":"619beeedff2e2801510086b4","condition":"full-information","relevant_dimensions":["wings","pattern"],"bee_group":{"antennae":"X","wings":"1","pattern":"S","legs":"X"},"bonus":0.9800000000000011},{"rt":2971.39999999851,"stimulus":"bees-with-color/bee-B2DM.svg","response":0,"trial_type":"image-button-response","trial_index":107,"time_elapsed":498179,"internal_node_id":"0.0-4.0-0.48","subject_id":"6167efaf1a027420f7e6a651","study_id":"6197b3f67c2b5cd3b6d9596a","session_id":"619beeedff2e2801510086b4","condition":"full-information","relevant_dimensions":["wings","pattern"],"bee_group":{"antennae":"X","wings":"1","pattern":"S","legs":"X"},"action":"harvest","summary":"good-harvest","bonus":0.9800000000000011},{"rt":819.1000000014901,"stimulus":"\n                    <p><b>Action: <em>harvest</em></b></p>\n                    <p>This is the bee that you just saw.</p>\n                    <img src=\"bees-with-color/bee-B2DM.svg\" width=\"200\">\n                    <p><span class=\"greenText\"><b>Successful harvest!</b></span><br>Your pay has increased by $0.02. Your bonus pay is now $0.76.</p>\n            ","response":0,"trial_type":"html-button-response","trial_index":108,"time_elapsed":499006,"internal_node_id":"0.0-4.0-1.48","subject_id":"6167efaf1a027420f7e6a651","study_id":"6197b3f67c2b5cd3b6d9596a","session_id":"619beeedff2e2801510086b4","condition":"full-information","relevant_dimensions":["wings","pattern"],"bee_group":{"antennae":"X","wings":"1","pattern":"S","legs":"X"},"bonus":0.9800000000000011},{"rt":1688.5,"stimulus":"bees-with-color/bee-B1SF.svg","response":0,"trial_type":"image-button-response","trial_index":109,"time_elapsed":500708,"internal_node_id":"0.0-4.0-0.49","subject_id":"6167efaf1a027420f7e6a651","study_id":"6197b3f67c2b5cd3b6d9596a","session_id":"619beeedff2e2801510086b4","condition":"full-information","relevant_dimensions":["wings","pattern"],"bee_group":{"antennae":"X","wings":"1","pattern":"S","legs":"X"},"action":"harvest","summary":"bad-harvest","bonus":0.9800000000000011},{"rt":2095,"stimulus":"\n                    <p><b>Action: <em>harvest</em></b></p>\n                    <p>This is the bee that you just saw.</p>\n                    <img src=\"bees-with-color/bee-B1SF.svg\" width=\"200\">\n                    <p><span class=\"redText\">Bad choice, the bee was angry.</span><br><b>You have been stung!</b><br>Your pay has been decreased by $0.10. Your bonus pay is now $0.66.</p>\n            ","response":0,"trial_type":"html-button-response","trial_index":110,"time_elapsed":502816,"internal_node_id":"0.0-4.0-1.49","subject_id":"6167efaf1a027420f7e6a651","study_id":"6197b3f67c2b5cd3b6d9596a","session_id":"619beeedff2e2801510086b4","condition":"full-information","relevant_dimensions":["wings","pattern"],"bee_group":{"antennae":"X","wings":"1","pattern":"S","legs":"X"},"bonus":0.9800000000000011},{"rt":1049.8999999985099,"stimulus":"bees-with-color/bee-B1DF.svg","response":0,"trial_type":"image-button-response","trial_index":111,"time_elapsed":503878,"internal_node_id":"0.0-4.0-0.50","subject_id":"6167efaf1a027420f7e6a651","study_id":"6197b3f67c2b5cd3b6d9596a","session_id":"619beeedff2e2801510086b4","condition":"full-information","relevant_dimensions":["wings","pattern"],"bee_group":{"antennae":"X","wings":"1","pattern":"S","legs":"X"},"action":"harvest","summary":"good-harvest","bonus":0.9800000000000011},{"rt":1279.1000000014901,"stimulus":"\n                    <p><b>Action: <em>harvest</em></b></p>\n                    <p>This is the bee that you just saw.</p>\n                    <img src=\"bees-with-color/bee-B1DF.svg\" width=\"200\">\n                    <p><span class=\"greenText\"><b>Successful harvest!</b></span><br>Your pay has increased by $0.02. Your bonus pay is now $0.68.</p>\n            ","response":0,"trial_type":"html-button-response","trial_index":112,"time_elapsed":505172,"internal_node_id":"0.0-4.0-1.50","subject_id":"6167efaf1a027420f7e6a651","study_id":"6197b3f67c2b5cd3b6d9596a","session_id":"619beeedff2e2801510086b4","condition":"full-information","relevant_dimensions":["wings","pattern"],"bee_group":{"antennae":"X","wings":"1","pattern":"S","legs":"X"},"bonus":0.9800000000000011},{"rt":1429.6000000014901,"stimulus":"bees-with-color/bee-A2SF.svg","response":0,"trial_type":"image-button-response","trial_index":113,"time_elapsed":506611,"internal_node_id":"0.0-4.0-0.51","subject_id":"6167efaf1a027420f7e6a651","study_id":"6197b3f67c2b5cd3b6d9596a","session_id":"619beeedff2e2801510086b4","condition":"full-information","relevant_dimensions":["wings","pattern"],"bee_group":{"antennae":"X","wings":"1","pattern":"S","legs":"X"},"action":"harvest","summary":"good-harvest","bonus":0.9800000000000011},{"rt":830.7999999970198,"stimulus":"\n                    <p><b>Action: <em>harvest</em></b></p>\n                    <p>This is the bee that you just saw.</p>\n                    <img src=\"bees-with-color/bee-A2SF.svg\" width=\"200\">\n                    <p><span class=\"greenText\"><b>Successful harvest!</b></span><br>Your pay has increased by $0.02. Your bonus pay is now $0.70.</p>\n            ","response":0,"trial_type":"html-button-response","trial_index":114,"time_elapsed":507452,"internal_node_id":"0.0-4.0-1.51","subject_id":"6167efaf1a027420f7e6a651","study_id":"6197b3f67c2b5cd3b6d9596a","session_id":"619beeedff2e2801510086b4","condition":"full-information","relevant_dimensions":["wings","pattern"],"bee_group":{"antennae":"X","wings":"1","pattern":"S","legs":"X"},"bonus":0.9800000000000011},{"rt":2061.89999999851,"stimulus":"bees-with-color/bee-B1SM.svg","response":0,"trial_type":"image-button-response","trial_index":115,"time_elapsed":509527,"internal_node_id":"0.0-4.0-0.52","subject_id":"6167efaf1a027420f7e6a651","study_id":"6197b3f67c2b5cd3b6d9596a","session_id":"619beeedff2e2801510086b4","condition":"full-information","relevant_dimensions":["wings","pattern"],"bee_group":{"antennae":"X","wings":"1","pattern":"S","legs":"X"},"action":"harvest","summary":"bad-harvest","bonus":0.9800000000000011},{"rt":2093.39999999851,"stimulus":"\n                    <p><b>Action: <em>harvest</em></b></p>\n                    <p>This is the bee that you just saw.</p>\n                    <img src=\"bees-with-color/bee-B1SM.svg\" width=\"200\">\n                    <p><span class=\"redText\">Bad choice, the bee was angry.</span><br><b>You have been stung!</b><br>Your pay has been decreased by $0.10. Your bonus pay is now $0.60.</p>\n            ","response":0,"trial_type":"html-button-response","trial_index":116,"time_elapsed":511633,"internal_node_id":"0.0-4.0-1.52","subject_id":"6167efaf1a027420f7e6a651","study_id":"6197b3f67c2b5cd3b6d9596a","session_id":"619beeedff2e2801510086b4","condition":"full-information","relevant_dimensions":["wings","pattern"],"bee_group":{"antennae":"X","wings":"1","pattern":"S","legs":"X"},"bonus":0.9800000000000011},{"rt":2140.5,"stimulus":"bees-with-color/bee-A1DF.svg","response":0,"trial_type":"image-button-response","trial_index":117,"time_elapsed":513786,"internal_node_id":"0.0-4.0-0.53","subject_id":"6167efaf1a027420f7e6a651","study_id":"6197b3f67c2b5cd3b6d9596a","session_id":"619beeedff2e2801510086b4","condition":"full-information","relevant_dimensions":["wings","pattern"],"bee_group":{"antennae":"X","wings":"1","pattern":"S","legs":"X"},"action":"harvest","summary":"good-harvest","bonus":0.9800000000000011},{"rt":830.5,"stimulus":"\n                    <p><b>Action: <em>harvest</em></b></p>\n                    <p>This is the bee that you just saw.</p>\n                    <img src=\"bees-with-color/bee-A1DF.svg\" width=\"200\">\n                    <p><span class=\"greenText\"><b>Successful harvest!</b></span><br>Your pay has increased by $0.02. Your bonus pay is now $0.62.</p>\n            ","response":0,"trial_type":"html-button-response","trial_index":118,"time_elapsed":514633,"internal_node_id":"0.0-4.0-1.53","subject_id":"6167efaf1a027420f7e6a651","study_id":"6197b3f67c2b5cd3b6d9596a","session_id":"619beeedff2e2801510086b4","condition":"full-information","relevant_dimensions":["wings","pattern"],"bee_group":{"antennae":"X","wings":"1","pattern":"S","legs":"X"},"bonus":0.9800000000000011},{"rt":1612,"stimulus":"bees-with-color/bee-B2SF.svg","response":0,"trial_type":"image-button-response","trial_index":119,"time_elapsed":516257,"internal_node_id":"0.0-4.0-0.54","subject_id":"6167efaf1a027420f7e6a651","study_id":"6197b3f67c2b5cd3b6d9596a","session_id":"619beeedff2e2801510086b4","condition":"full-information","relevant_dimensions":["wings","pattern"],"bee_group":{"antennae":"X","wings":"1","pattern":"S","legs":"X"},"action":"harvest","summary":"good-harvest","bonus":0.9800000000000011},{"rt":791.7000000029802,"stimulus":"\n                    <p><b>Action: <em>harvest</em></b></p>\n                    <p>This is the bee that you just saw.</p>\n                    <img src=\"bees-with-color/bee-B2SF.svg\" width=\"200\">\n                    <p><span class=\"greenText\"><b>Successful harvest!</b></span><br>Your pay has increased by $0.02. Your bonus pay is now $0.64.</p>\n            ","response":0,"trial_type":"html-button-response","trial_index":120,"time_elapsed":517061,"internal_node_id":"0.0-4.0-1.54","subject_id":"6167efaf1a027420f7e6a651","study_id":"6197b3f67c2b5cd3b6d9596a","session_id":"619beeedff2e2801510086b4","condition":"full-information","relevant_dimensions":["wings","pattern"],"bee_group":{"antennae":"X","wings":"1","pattern":"S","legs":"X"},"bonus":0.9800000000000011},{"rt":3333.3000000044703,"stimulus":"bees-with-color/bee-B2SM.svg","response":1,"trial_type":"image-button-response","trial_index":121,"time_elapsed":520403,"internal_node_id":"0.0-4.0-0.55","subject_id":"6167efaf1a027420f7e6a651","study_id":"6197b3f67c2b5cd3b6d9596a","session_id":"619beeedff2e2801510086b4","condition":"full-information","relevant_dimensions":["wings","pattern"],"bee_group":{"antennae":"X","wings":"1","pattern":"S","legs":"X"},"action":"avoid","summary":"bad-avoid","bonus":0.9800000000000011},{"rt":817.8999999985099,"stimulus":"\n                    <p><b>Action: <em>avoid</em></b></p>\n                    <p>This is the bee that you just saw.</p>\n                    <img src=\"bees-with-color/bee-B2SM.svg\" width=\"200\">\n                    <p><span class=\"redText\">Bad choice,</span> the bee was friendly.<br>Your bonus pay is unchanged, and remains at $0.64.</p>\n            ","response":0,"trial_type":"html-button-response","trial_index":122,"time_elapsed":521228,"internal_node_id":"0.0-4.0-1.55","subject_id":"6167efaf1a027420f7e6a651","study_id":"6197b3f67c2b5cd3b6d9596a","session_id":"619beeedff2e2801510086b4","condition":"full-information","relevant_dimensions":["wings","pattern"],"bee_group":{"antennae":"X","wings":"1","pattern":"S","legs":"X"},"bonus":0.9800000000000011},{"rt":1950.2000000029802,"stimulus":"bees-with-color/bee-A1SF.svg","response":1,"trial_type":"image-button-response","trial_index":123,"time_elapsed":523195,"internal_node_id":"0.0-4.0-0.56","subject_id":"6167efaf1a027420f7e6a651","study_id":"6197b3f67c2b5cd3b6d9596a","session_id":"619beeedff2e2801510086b4","condition":"full-information","relevant_dimensions":["wings","pattern"],"bee_group":{"antennae":"X","wings":"1","pattern":"S","legs":"X"},"action":"avoid","summary":"good-avoid","bonus":0.9800000000000011},{"rt":3849.3000000044703,"stimulus":"\n                    <p><b>Action: <em>avoid</em></b></p>\n                    <p>This is the bee that you just saw.</p>\n                    <img src=\"bees-with-color/bee-A1SF.svg\" width=\"200\">\n                    <p><span class=\"greenText\">Good choice!</span>  This bee would have stung you.<br>Your bonus pay is unchanged, and remains at $0.64.</p>\n            ","response":0,"trial_type":"html-button-response","trial_index":124,"time_elapsed":527054,"internal_node_id":"0.0-4.0-1.56","subject_id":"6167efaf1a027420f7e6a651","study_id":"6197b3f67c2b5cd3b6d9596a","session_id":"619beeedff2e2801510086b4","condition":"full-information","relevant_dimensions":["wings","pattern"],"bee_group":{"antennae":"X","wings":"1","pattern":"S","legs":"X"},"bonus":0.9800000000000011},{"rt":1789.2000000029802,"stimulus":"bees-with-color/bee-A2DM.svg","response":0,"trial_type":"image-button-response","trial_index":125,"time_elapsed":528853,"internal_node_id":"0.0-4.0-0.57","subject_id":"6167efaf1a027420f7e6a651","study_id":"6197b3f67c2b5cd3b6d9596a","session_id":"619beeedff2e2801510086b4","condition":"full-information","relevant_dimensions":["wings","pattern"],"bee_group":{"antennae":"X","wings":"1","pattern":"S","legs":"X"},"action":"harvest","summary":"good-harvest","bonus":0.9800000000000011},{"rt":746.2000000029802,"stimulus":"\n                    <p><b>Action: <em>harvest</em></b></p>\n                    <p>This is the bee that you just saw.</p>\n                    <img src=\"bees-with-color/bee-A2DM.svg\" width=\"200\">\n                    <p><span class=\"greenText\"><b>Successful harvest!</b></span><br>Your pay has increased by $0.02. Your bonus pay is now $0.66.</p>\n            ","response":0,"trial_type":"html-button-response","trial_index":126,"time_elapsed":529611,"internal_node_id":"0.0-4.0-1.57","subject_id":"6167efaf1a027420f7e6a651","study_id":"6197b3f67c2b5cd3b6d9596a","session_id":"619beeedff2e2801510086b4","condition":"full-information","relevant_dimensions":["wings","pattern"],"bee_group":{"antennae":"X","wings":"1","pattern":"S","legs":"X"},"bonus":0.9800000000000011},{"rt":6245.20000000298,"stimulus":"bees-with-color/bee-B1DM.svg","response":1,"trial_type":"image-button-response","trial_index":127,"time_elapsed":535864,"internal_node_id":"0.0-4.0-0.58","subject_id":"6167efaf1a027420f7e6a651","study_id":"6197b3f67c2b5cd3b6d9596a","session_id":"619beeedff2e2801510086b4","condition":"full-information","relevant_dimensions":["wings","pattern"],"bee_group":{"antennae":"X","wings":"1","pattern":"S","legs":"X"},"action":"avoid","summary":"bad-avoid","bonus":0.9800000000000011},{"rt":810.9000000059605,"stimulus":"\n                    <p><b>Action: <em>avoid</em></b></p>\n                    <p>This is the bee that you just saw.</p>\n                    <img src=\"bees-with-color/bee-B1DM.svg\" width=\"200\">\n                    <p><span class=\"redText\">Bad choice,</span> the bee was friendly.<br>Your bonus pay is unchanged, and remains at $0.66.</p>\n            ","response":0,"trial_type":"html-button-response","trial_index":128,"time_elapsed":536687,"internal_node_id":"0.0-4.0-1.58","subject_id":"6167efaf1a027420f7e6a651","study_id":"6197b3f67c2b5cd3b6d9596a","session_id":"619beeedff2e2801510086b4","condition":"full-information","relevant_dimensions":["wings","pattern"],"bee_group":{"antennae":"X","wings":"1","pattern":"S","legs":"X"},"bonus":0.9800000000000011},{"rt":2188,"stimulus":"bees-with-color/bee-A2SM.svg","response":1,"trial_type":"image-button-response","trial_index":129,"time_elapsed":538888,"internal_node_id":"0.0-4.0-0.59","subject_id":"6167efaf1a027420f7e6a651","study_id":"6197b3f67c2b5cd3b6d9596a","session_id":"619beeedff2e2801510086b4","condition":"full-information","relevant_dimensions":["wings","pattern"],"bee_group":{"antennae":"X","wings":"1","pattern":"S","legs":"X"},"action":"avoid","summary":"bad-avoid","bonus":0.9800000000000011},{"rt":698.7999999970198,"stimulus":"\n                    <p><b>Action: <em>avoid</em></b></p>\n                    <p>This is the bee that you just saw.</p>\n                    <img src=\"bees-with-color/bee-A2SM.svg\" width=\"200\">\n                    <p><span class=\"redText\">Bad choice,</span> the bee was friendly.<br>Your bonus pay is unchanged, and remains at $0.66.</p>\n            ","response":0,"trial_type":"html-button-response","trial_index":130,"time_elapsed":539598,"internal_node_id":"0.0-4.0-1.59","subject_id":"6167efaf1a027420f7e6a651","study_id":"6197b3f67c2b5cd3b6d9596a","session_id":"619beeedff2e2801510086b4","condition":"full-information","relevant_dimensions":["wings","pattern"],"bee_group":{"antennae":"X","wings":"1","pattern":"S","legs":"X"},"bonus":0.9800000000000011},{"rt":1691.2999999970198,"stimulus":"bees-with-color/bee-A1SM.svg","response":0,"trial_type":"image-button-response","trial_index":131,"time_elapsed":541304,"internal_node_id":"0.0-4.0-0.60","subject_id":"6167efaf1a027420f7e6a651","study_id":"6197b3f67c2b5cd3b6d9596a","session_id":"619beeedff2e2801510086b4","condition":"full-information","relevant_dimensions":["wings","pattern"],"bee_group":{"antennae":"X","wings":"1","pattern":"S","legs":"X"},"action":"harvest","summary":"bad-harvest","bonus":0.9800000000000011},{"rt":832.1000000014901,"stimulus":"\n                    <p><b>Action: <em>harvest</em></b></p>\n                    <p>This is the bee that you just saw.</p>\n                    <img src=\"bees-with-color/bee-A1SM.svg\" width=\"200\">\n                    <p><span class=\"redText\">Bad choice, the bee was angry.</span><br><b>You have been stung!</b><br>Your pay has been decreased by $0.10. Your bonus pay is now $0.56.</p>\n            ","response":0,"trial_type":"html-button-response","trial_index":132,"time_elapsed":542148,"internal_node_id":"0.0-4.0-1.60","subject_id":"6167efaf1a027420f7e6a651","study_id":"6197b3f67c2b5cd3b6d9596a","session_id":"619beeedff2e2801510086b4","condition":"full-information","relevant_dimensions":["wings","pattern"],"bee_group":{"antennae":"X","wings":"1","pattern":"S","legs":"X"},"bonus":0.9800000000000011},{"rt":1085.6000000014901,"stimulus":"bees-with-color/bee-B2DF.svg","response":0,"trial_type":"image-button-response","trial_index":133,"time_elapsed":543238,"internal_node_id":"0.0-4.0-0.61","subject_id":"6167efaf1a027420f7e6a651","study_id":"6197b3f67c2b5cd3b6d9596a","session_id":"619beeedff2e2801510086b4","condition":"full-information","relevant_dimensions":["wings","pattern"],"bee_group":{"antennae":"X","wings":"1","pattern":"S","legs":"X"},"action":"harvest","summary":"good-harvest","bonus":0.9800000000000011},{"rt":1652.7999999970198,"stimulus":"\n                    <p><b>Action: <em>harvest</em></b></p>\n                    <p>This is the bee that you just saw.</p>\n                    <img src=\"bees-with-color/bee-B2DF.svg\" width=\"200\">\n                    <p><span class=\"greenText\"><b>Successful harvest!</b></span><br>Your pay has increased by $0.02. Your bonus pay is now $0.58.</p>\n            ","response":0,"trial_type":"html-button-response","trial_index":134,"time_elapsed":544904,"internal_node_id":"0.0-4.0-1.61","subject_id":"6167efaf1a027420f7e6a651","study_id":"6197b3f67c2b5cd3b6d9596a","session_id":"619beeedff2e2801510086b4","condition":"full-information","relevant_dimensions":["wings","pattern"],"bee_group":{"antennae":"X","wings":"1","pattern":"S","legs":"X"},"bonus":0.9800000000000011},{"rt":1736.6999999955297,"stimulus":"bees-with-color/bee-A2DF.svg","response":0,"trial_type":"image-button-response","trial_index":135,"time_elapsed":546654,"internal_node_id":"0.0-4.0-0.62","subject_id":"6167efaf1a027420f7e6a651","study_id":"6197b3f67c2b5cd3b6d9596a","session_id":"619beeedff2e2801510086b4","condition":"full-information","relevant_dimensions":["wings","pattern"],"bee_group":{"antennae":"X","wings":"1","pattern":"S","legs":"X"},"action":"harvest","summary":"good-harvest","bonus":0.9800000000000011},{"rt":1415.6000000014901,"stimulus":"\n                    <p><b>Action: <em>harvest</em></b></p>\n                    <p>This is the bee that you just saw.</p>\n                    <img src=\"bees-with-color/bee-A2DF.svg\" width=\"200\">\n                    <p><span class=\"greenText\"><b>Successful harvest!</b></span><br>Your pay has increased by $0.02. Your bonus pay is now $0.60.</p>\n            ","response":0,"trial_type":"html-button-response","trial_index":136,"time_elapsed":548076,"internal_node_id":"0.0-4.0-1.62","subject_id":"6167efaf1a027420f7e6a651","study_id":"6197b3f67c2b5cd3b6d9596a","session_id":"619beeedff2e2801510086b4","condition":"full-information","relevant_dimensions":["wings","pattern"],"bee_group":{"antennae":"X","wings":"1","pattern":"S","legs":"X"},"bonus":0.9800000000000011},{"rt":1077.6000000014901,"stimulus":"bees-with-color/bee-A1DM.svg","response":0,"trial_type":"image-button-response","trial_index":137,"time_elapsed":549162,"internal_node_id":"0.0-4.0-0.63","subject_id":"6167efaf1a027420f7e6a651","study_id":"6197b3f67c2b5cd3b6d9596a","session_id":"619beeedff2e2801510086b4","condition":"full-information","relevant_dimensions":["wings","pattern"],"bee_group":{"antennae":"X","wings":"1","pattern":"S","legs":"X"},"action":"harvest","summary":"good-harvest","bonus":0.9800000000000011},{"rt":886.5,"stimulus":"\n                    <p><b>Action: <em>harvest</em></b></p>\n                    <p>This is the bee that you just saw.</p>\n                    <img src=\"bees-with-color/bee-A1DM.svg\" width=\"200\">\n                    <p><span class=\"greenText\"><b>Successful harvest!</b></span><br>Your pay has increased by $0.02. Your bonus pay is now $0.62.</p>\n            ","response":0,"trial_type":"html-button-response","trial_index":138,"time_elapsed":550061,"internal_node_id":"0.0-4.0-1.63","subject_id":"6167efaf1a027420f7e6a651","study_id":"6197b3f67c2b5cd3b6d9596a","session_id":"619beeedff2e2801510086b4","condition":"full-information","relevant_dimensions":["wings","pattern"],"bee_group":{"antennae":"X","wings":"1","pattern":"S","legs":"X"},"bonus":0.9800000000000011},{"rt":6487,"stimulus":"You have completed the first part of this experiment.<br><br>You will now begin a shorter second part, in which you will receive no feedback.<br>The same rules regarding bonus pay apply.<br><br>Press any key to begin.","response":"b","trial_type":"html-keyboard-response","trial_index":139,"time_elapsed":556560,"internal_node_id":"0.0-5.0","subject_id":"6167efaf1a027420f7e6a651","study_id":"6197b3f67c2b5cd3b6d9596a","session_id":"619beeedff2e2801510086b4","condition":"full-information","relevant_dimensions":["wings","pattern"],"bee_group":{"antennae":"X","wings":"1","pattern":"S","legs":"X"},"bonus":0.9800000000000011},{"rt":2925.5,"stimulus":"bees-with-color/bee-A2DM.svg","response":0,"trial_type":"image-button-response","trial_index":140,"time_elapsed":559577,"internal_node_id":"0.0-6.0-0.0","subject_id":"6167efaf1a027420f7e6a651","study_id":"6197b3f67c2b5cd3b6d9596a","session_id":"619beeedff2e2801510086b4","condition":"full-information","relevant_dimensions":["wings","pattern"],"bee_group":{"antennae":"X","wings":"1","pattern":"S","legs":"X"},"bonus":0.9800000000000011},{"rt":4143.5,"stimulus":"bees-with-color/bee-B1DF.svg","response":1,"trial_type":"image-button-response","trial_index":141,"time_elapsed":563737,"internal_node_id":"0.0-6.0-0.1","subject_id":"6167efaf1a027420f7e6a651","study_id":"6197b3f67c2b5cd3b6d9596a","session_id":"619beeedff2e2801510086b4","condition":"full-information","relevant_dimensions":["wings","pattern"],"bee_group":{"antennae":"X","wings":"1","pattern":"S","legs":"X"},"bonus":0.9800000000000011},{"rt":2065.10000000149,"stimulus":"bees-with-color/bee-B1SM.svg","response":1,"trial_type":"image-button-response","trial_index":142,"time_elapsed":565826,"internal_node_id":"0.0-6.0-0.2","subject_id":"6167efaf1a027420f7e6a651","study_id":"6197b3f67c2b5cd3b6d9596a","session_id":"619beeedff2e2801510086b4","condition":"full-information","relevant_dimensions":["wings","pattern"],"bee_group":{"antennae":"X","wings":"1","pattern":"S","legs":"X"},"bonus":0.9800000000000011},{"rt":2684.10000000149,"stimulus":"bees-with-color/bee-A2DF.svg","response":0,"trial_type":"image-button-response","trial_index":143,"time_elapsed":568527,"internal_node_id":"0.0-6.0-0.3","subject_id":"6167efaf1a027420f7e6a651","study_id":"6197b3f67c2b5cd3b6d9596a","session_id":"619beeedff2e2801510086b4","condition":"full-information","relevant_dimensions":["wings","pattern"],"bee_group":{"antennae":"X","wings":"1","pattern":"S","legs":"X"},"bonus":0.9800000000000011},{"rt":1102.3000000044703,"stimulus":"bees-with-color/bee-B1SF.svg","response":1,"trial_type":"image-button-response","trial_index":144,"time_elapsed":569648,"internal_node_id":"0.0-6.0-0.4","subject_id":"6167efaf1a027420f7e6a651","study_id":"6197b3f67c2b5cd3b6d9596a","session_id":"619beeedff2e2801510086b4","condition":"full-information","relevant_dimensions":["wings","pattern"],"bee_group":{"antennae":"X","wings":"1","pattern":"S","legs":"X"},"bonus":0.9800000000000011},{"rt":1123,"stimulus":"bees-with-color/bee-A1DM.svg","response":0,"trial_type":"image-button-response","trial_index":145,"time_elapsed":570785,"internal_node_id":"0.0-6.0-0.5","subject_id":"6167efaf1a027420f7e6a651","study_id":"6197b3f67c2b5cd3b6d9596a","session_id":"619beeedff2e2801510086b4","condition":"full-information","relevant_dimensions":["wings","pattern"],"bee_group":{"antennae":"X","wings":"1","pattern":"S","legs":"X"},"bonus":0.9800000000000011},{"rt":1384.7000000029802,"stimulus":"bees-with-color/bee-B2SM.svg","response":0,"trial_type":"image-button-response","trial_index":146,"time_elapsed":572185,"internal_node_id":"0.0-6.0-0.6","subject_id":"6167efaf1a027420f7e6a651","study_id":"6197b3f67c2b5cd3b6d9596a","session_id":"619beeedff2e2801510086b4","condition":"full-information","relevant_dimensions":["wings","pattern"],"bee_group":{"antennae":"X","wings":"1","pattern":"S","legs":"X"},"bonus":0.9800000000000011},{"rt":2348.89999999851,"stimulus":"bees-with-color/bee-B1DM.svg","response":1,"trial_type":"image-button-response","trial_index":147,"time_elapsed":574551,"internal_node_id":"0.0-6.0-0.7","subject_id":"6167efaf1a027420f7e6a651","study_id":"6197b3f67c2b5cd3b6d9596a","session_id":"619beeedff2e2801510086b4","condition":"full-information","relevant_dimensions":["wings","pattern"],"bee_group":{"antennae":"X","wings":"1","pattern":"S","legs":"X"},"bonus":0.9800000000000011},{"rt":2624.7999999970198,"stimulus":"bees-with-color/bee-A2SM.svg","response":0,"trial_type":"image-button-response","trial_index":148,"time_elapsed":577190,"internal_node_id":"0.0-6.0-0.8","subject_id":"6167efaf1a027420f7e6a651","study_id":"6197b3f67c2b5cd3b6d9596a","session_id":"619beeedff2e2801510086b4","condition":"full-information","relevant_dimensions":["wings","pattern"],"bee_group":{"antennae":"X","wings":"1","pattern":"S","legs":"X"},"bonus":0.9800000000000011},{"rt":1680.7999999970198,"stimulus":"bees-with-color/bee-A1DF.svg","response":1,"trial_type":"image-button-response","trial_index":149,"time_elapsed":578917,"internal_node_id":"0.0-6.0-0.9","subject_id":"6167efaf1a027420f7e6a651","study_id":"6197b3f67c2b5cd3b6d9596a","session_id":"619beeedff2e2801510086b4","condition":"full-information","relevant_dimensions":["wings","pattern"],"bee_group":{"antennae":"X","wings":"1","pattern":"S","legs":"X"},"bonus":0.9800000000000011},{"rt":2478.8000000044703,"stimulus":"bees-with-color/bee-B2DM.svg","response":0,"trial_type":"image-button-response","trial_index":150,"time_elapsed":581416,"internal_node_id":"0.0-6.0-0.10","subject_id":"6167efaf1a027420f7e6a651","study_id":"6197b3f67c2b5cd3b6d9596a","session_id":"619beeedff2e2801510086b4","condition":"full-information","relevant_dimensions":["wings","pattern"],"bee_group":{"antennae":"X","wings":"1","pattern":"S","legs":"X"},"bonus":0.9800000000000011},{"rt":1714.5,"stimulus":"bees-with-color/bee-A2SF.svg","response":0,"trial_type":"image-button-response","trial_index":151,"time_elapsed":583148,"internal_node_id":"0.0-6.0-0.11","subject_id":"6167efaf1a027420f7e6a651","study_id":"6197b3f67c2b5cd3b6d9596a","session_id":"619beeedff2e2801510086b4","condition":"full-information","relevant_dimensions":["wings","pattern"],"bee_group":{"antennae":"X","wings":"1","pattern":"S","legs":"X"},"bonus":0.9800000000000011},{"rt":2268.39999999851,"stimulus":"bees-with-color/bee-B2DF.svg","response":0,"trial_type":"image-button-response","trial_index":152,"time_elapsed":585435,"internal_node_id":"0.0-6.0-0.12","subject_id":"6167efaf1a027420f7e6a651","study_id":"6197b3f67c2b5cd3b6d9596a","session_id":"619beeedff2e2801510086b4","condition":"full-information","relevant_dimensions":["wings","pattern"],"bee_group":{"antennae":"X","wings":"1","pattern":"S","legs":"X"},"bonus":0.9800000000000011},{"rt":1154.8999999985099,"stimulus":"bees-with-color/bee-A1SF.svg","response":1,"trial_type":"image-button-response","trial_index":153,"time_elapsed":586614,"internal_node_id":"0.0-6.0-0.13","subject_id":"6167efaf1a027420f7e6a651","study_id":"6197b3f67c2b5cd3b6d9596a","session_id":"619beeedff2e2801510086b4","condition":"full-information","relevant_dimensions":["wings","pattern"],"bee_group":{"antennae":"X","wings":"1","pattern":"S","legs":"X"},"bonus":0.9800000000000011},{"rt":1845.0999999940395,"stimulus":"bees-with-color/bee-A1SM.svg","response":1,"trial_type":"image-button-response","trial_index":154,"time_elapsed":588476,"internal_node_id":"0.0-6.0-0.14","subject_id":"6167efaf1a027420f7e6a651","study_id":"6197b3f67c2b5cd3b6d9596a","session_id":"619beeedff2e2801510086b4","condition":"full-information","relevant_dimensions":["wings","pattern"],"bee_group":{"antennae":"X","wings":"1","pattern":"S","legs":"X"},"bonus":0.9800000000000011},{"rt":1142.1999999955297,"stimulus":"bees-with-color/bee-B2SF.svg","response":0,"trial_type":"image-button-response","trial_index":155,"time_elapsed":589636,"internal_node_id":"0.0-6.0-0.15","subject_id":"6167efaf1a027420f7e6a651","study_id":"6197b3f67c2b5c