[{"success":true,"trial_type":"fullscreen","trial_index":0,"time_elapsed":362127,"internal_node_id":"0.0-0.0","subject_id":"5f7e1a0d0fe2510c096b826e","study_id":"60edd13110225f80f9f3709b","session_id":"6196c701546bb2a802814ffe","condition":"contingent","relevant_dimensions":["antennae","legs"],"bee_group":{"antennae":"A","wings":"X","pattern":"X","legs":"M"},"bonus":1.6600000000000013},{"success":true,"timeout":false,"failed_images":[],"failed_audio":[],"failed_video":[],"trial_type":"preload","trial_index":1,"time_elapsed":363688,"internal_node_id":"0.0-1.0","subject_id":"5f7e1a0d0fe2510c096b826e","study_id":"60edd13110225f80f9f3709b","session_id":"6196c701546bb2a802814ffe","condition":"contingent","relevant_dimensions":["antennae","legs"],"bee_group":{"antennae":"A","wings":"X","pattern":"X","legs":"M"},"bonus":1.6600000000000013},{"rt":195361.89999997616,"stimulus":"Welcome! Press any key to begin.","response":"a","trial_type":"html-keyboard-response","trial_index":2,"time_elapsed":559051,"internal_node_id":"0.0-2.0","subject_id":"5f7e1a0d0fe2510c096b826e","study_id":"60edd13110225f80f9f3709b","session_id":"6196c701546bb2a802814ffe","condition":"contingent","relevant_dimensions":["antennae","legs"],"bee_group":{"antennae":"A","wings":"X","pattern":"X","legs":"M"},"bonus":1.6600000000000013},{"view_history":[{"page_index":0,"viewing_time":2912.899999976158},{"page_index":1,"viewing_time":88537.80000001192},{"page_index":2,"viewing_time":7059.800000011921},{"page_index":3,"viewing_time":9358},{"page_index":4,"viewing_time":3948.199999988079},{"page_index":5,"viewing_time":7538.899999976158},{"page_index":6,"viewing_time":28394.100000023842},{"page_index":7,"viewing_time":5872},{"page_index":8,"viewing_time":2814},{"page_index":9,"viewing_time":1881},{"page_index":10,"viewing_time":954.8999999761581},{"page_index":11,"viewing_time":5857.100000023842},{"page_index":12,"viewing_time":4402},{"page_index":13,"viewing_time":820.8000000119209},{"page_index":14,"viewing_time":1503.199999988079}],"rt":171854.80000001192,"trial_type":"instructions","trial_index":3,"time_elapsed":730907,"internal_node_id":"0.0-3.0-0.0","subject_id":"5f7e1a0d0fe2510c096b826e","study_id":"60edd13110225f80f9f3709b","session_id":"6196c701546bb2a802814ffe","condition":"contingent","relevant_dimensions":["antennae","legs"],"bee_group":{"antennae":"A","wings":"X","pattern":"X","legs":"M"},"bonus":1.6600000000000013},{"rt":11805.5,"response":{"Q0":["Two or six legs","Stripes or spots on body","Single or double wings","Antennae or no antennae"]},"question_order":[0],"trial_type":"survey-multi-select","trial_index":4,"time_elapsed":742715,"internal_node_id":"0.0-3.0-1.0","subject_id":"5f7e1a0d0fe2510c096b826e","study_id":"60edd13110225f80f9f3709b","session_id":"6196c701546bb2a802814ffe","condition":"contingent","relevant_dimensions":["antennae","legs"],"bee_group":{"antennae":"A","wings":"X","pattern":"X","legs":"M"},"correct":true,"bonus":1.6600000000000013},{"rt":17706,"response":{"Q1":"No.","Q2":"Based on the four features of the bee.","Q3":"You do not learn if it was friendly or dangerous, and do not alter your bonus."},"question_order":[0,1,2],"trial_type":"survey-multi-choice","trial_index":5,"time_elapsed":760422,"internal_node_id":"0.0-3.0-2.0","subject_id":"5f7e1a0d0fe2510c096b826e","study_id":"60edd13110225f80f9f3709b","session_id":"6196c701546bb2a802814ffe","condition":"contingent","relevant_dimensions":["antennae","legs"],"bee_group":{"antennae":"A","wings":"X","pattern":"X","legs":"M"},"correct":true,"bonus":1.6600000000000013},{"rt":1938.699999988079,"stimulus":"<p>Congrats, you got everything right<br>When you're ready, click the button below to continue to the experiment.</p>","response":0,"trial_type":"html-button-response","trial_index":6,"time_elapsed":762362,"internal_node_id":"0.0-3.0-3.0","subject_id":"5f7e1a0d0fe2510c096b826e","study_id":"60edd13110225f80f9f3709b","session_id":"6196c701546bb2a802814ffe","condition":"contingent","relevant_dimensions":["antennae","legs"],"bee_group":{"antennae":"A","wings":"X","pattern":"X","legs":"M"},"bonus":1.6600000000000013},{"rt":41797.5,"stimulus":"bees-with-color/bee-A2DM.svg","response":0,"trial_type":"image-button-response","trial_index":7,"time_elapsed":804161,"internal_node_id":"0.0-4.0-0.0","subject_id":"5f7e1a0d0fe2510c096b826e","study_id":"60edd13110225f80f9f3709b","session_id":"6196c701546bb2a802814ffe","condition":"contingent","relevant_dimensions":["antennae","legs"],"bee_group":{"antennae":"A","wings":"X","pattern":"X","legs":"M"},"action":"harvest","summary":"bad-harvest","bonus":1.6600000000000013},{"rt":10576.199999988079,"stimulus":"\n                    <p><b>Action: <em>harvest</em></b></p>\n                    <p>This is the bee that you just saw.</p>\n                    <img src=\"bees-with-color/bee-A2DM.svg\" width=\"200\">\n                    <p><span class=\"redText\">Bad choice, the bee was angry.</span><br><b>You have been stung!</b><br>Your pay has been decreased by $0.10. Your bonus pay is now $0.44.</p>\n            ","response":0,"trial_type":"html-button-response","trial_index":8,"time_elapsed":814738,"internal_node_id":"0.0-4.0-1.0","subject_id":"5f7e1a0d0fe2510c096b826e","study_id":"60edd13110225f80f9f3709b","session_id":"6196c701546bb2a802814ffe","condition":"contingent","relevant_dimensions":["antennae","legs"],"bee_group":{"antennae":"A","wings":"X","pattern":"X","legs":"M"},"bonus":1.6600000000000013},{"rt":18128.599999964237,"stimulus":"bees-with-color/bee-A2SF.svg","response":0,"trial_type":"image-button-response","trial_index":9,"time_elapsed":832868,"internal_node_id":"0.0-4.0-0.1","subject_id":"5f7e1a0d0fe2510c096b826e","study_id":"60edd13110225f80f9f3709b","session_id":"6196c701546bb2a802814ffe","condition":"contingent","relevant_dimensions":["antennae","legs"],"bee_group":{"antennae":"A","wings":"X","pattern":"X","legs":"M"},"action":"harvest","summary":"good-harvest","bonus":1.6600000000000013},{"rt":3027.600000023842,"stimulus":"\n                    <p><b>Action: <em>harvest</em></b></p>\n                    <p>This is the bee that you just saw.</p>\n                    <img src=\"bees-with-color/bee-A2SF.svg\" width=\"200\">\n                    <p><span class=\"greenText\"><b>Successful harvest!</b></span><br>Your pay has increased by $0.02. Your bonus pay is now $0.46.</p>\n            ","response":0,"trial_type":"html-button-response","trial_index":10,"time_elapsed":835897,"internal_node_id":"0.0-4.0-1.1","subject_id":"5f7e1a0d0fe2510c096b826e","study_id":"60edd13110225f80f9f3709b","session_id":"6196c701546bb2a802814ffe","condition":"contingent","relevant_dimensions":["antennae","legs"],"bee_group":{"antennae":"A","wings":"X","pattern":"X","legs":"M"},"bonus":1.6600000000000013},{"rt":30382.200000047684,"stimulus":"bees-with-color/bee-B2SM.svg","response":0,"trial_type":"image-button-response","trial_index":11,"time_elapsed":866280,"internal_node_id":"0.0-4.0-0.2","subject_id":"5f7e1a0d0fe2510c096b826e","study_id":"60edd13110225f80f9f3709b","session_id":"6196c701546bb2a802814ffe","condition":"contingent","relevant_dimensions":["antennae","legs"],"bee_group":{"antennae":"A","wings":"X","pattern":"X","legs":"M"},"action":"harvest","summary":"good-harvest","bonus":1.6600000000000013},{"rt":6264.599999964237,"stimulus":"\n                    <p><b>Action: <em>harvest</em></b></p>\n                    <p>This is the bee that you just saw.</p>\n                    <img src=\"bees-with-color/bee-B2SM.svg\" width=\"200\">\n                    <p><span class=\"greenText\"><b>Successful harvest!</b></span><br>Your pay has increased by $0.02. Your bonus pay is now $0.48.</p>\n            ","response":0,"trial_type":"html-button-response","trial_index":12,"time_elapsed":872546,"internal_node_id":"0.0-4.0-1.2","subject_id":"5f7e1a0d0fe2510c096b826e","study_id":"60edd13110225f80f9f3709b","session_id":"6196c701546bb2a802814ffe","condition":"contingent","relevant_dimensions":["antennae","legs"],"bee_group":{"antennae":"A","wings":"X","pattern":"X","legs":"M"},"bonus":1.6600000000000013},{"rt":16790.900000035763,"stimulus":"bees-with-color/bee-A2DF.svg","response":0,"trial_type":"image-button-response","trial_index":13,"time_elapsed":889338,"internal_node_id":"0.0-4.0-0.3","subject_id":"5f7e1a0d0fe2510c096b826e","study_id":"60edd13110225f80f9f3709b","session_id":"6196c701546bb2a802814ffe","condition":"contingent","relevant_dimensions":["antennae","legs"],"bee_group":{"antennae":"A","wings":"X","pattern":"X","legs":"M"},"action":"harvest","summary":"good-harvest","bonus":1.6600000000000013},{"rt":8958.300000011921,"stimulus":"\n                    <p><b>Action: <em>harvest</em></b></p>\n                    <p>This is the bee that you just saw.</p>\n                    <img src=\"bees-with-color/bee-A2DF.svg\" width=\"200\">\n                    <p><span class=\"greenText\"><b>Successful harvest!</b></span><br>Your pay has increased by $0.02. Your bonus pay is now $0.50.</p>\n            ","response":0,"trial_type":"html-button-response","trial_index":14,"time_elapsed":898297,"internal_node_id":"0.0-4.0-1.3","subject_id":"5f7e1a0d0fe2510c096b826e","study_id":"60edd13110225f80f9f3709b","session_id":"6196c701546bb2a802814ffe","condition":"contingent","relevant_dimensions":["antennae","legs"],"bee_group":{"antennae":"A","wings":"X","pattern":"X","legs":"M"},"bonus":1.6600000000000013},{"rt":15435.799999952316,"stimulus":"bees-with-color/bee-B2DM.svg","response":0,"trial_type":"image-button-response","trial_index":15,"time_elapsed":913734,"internal_node_id":"0.0-4.0-0.4","subject_id":"5f7e1a0d0fe2510c096b826e","study_id":"60edd13110225f80f9f3709b","session_id":"6196c701546bb2a802814ffe","condition":"contingent","relevant_dimensions":["antennae","legs"],"bee_group":{"antennae":"A","wings":"X","pattern":"X","legs":"M"},"action":"harvest","summary":"good-harvest","bonus":1.6600000000000013},{"rt":4905.699999988079,"stimulus":"\n                    <p><b>Action: <em>harvest</em></b></p>\n                    <p>This is the bee that you just saw.</p>\n                    <img src=\"bees-with-color/bee-B2DM.svg\" width=\"200\">\n                    <p><span class=\"greenText\"><b>Successful harvest!</b></span><br>Your pay has increased by $0.02. Your bonus pay is now $0.52.</p>\n            ","response":0,"trial_type":"html-button-response","trial_index":16,"time_elapsed":918641,"internal_node_id":"0.0-4.0-1.4","subject_id":"5f7e1a0d0fe2510c096b826e","study_id":"60edd13110225f80f9f3709b","session_id":"6196c701546bb2a802814ffe","condition":"contingent","relevant_dimensions":["antennae","legs"],"bee_group":{"antennae":"A","wings":"X","pattern":"X","legs":"M"},"bonus":1.6600000000000013},{"rt":12966.300000011921,"stimulus":"bees-with-color/bee-A1DF.svg","response":0,"trial_type":"image-button-response","trial_index":17,"time_elapsed":931608,"internal_node_id":"0.0-4.0-0.5","subject_id":"5f7e1a0d0fe2510c096b826e","study_id":"60edd13110225f80f9f3709b","session_id":"6196c701546bb2a802814ffe","condition":"contingent","relevant_dimensions":["antennae","legs"],"bee_group":{"antennae":"A","wings":"X","pattern":"X","legs":"M"},"action":"harvest","summary":"good-harvest","bonus":1.6600000000000013},{"rt":893.3000000119209,"stimulus":"\n                    <p><b>Action: <em>harvest</em></b></p>\n                    <p>This is the bee that you just saw.</p>\n                    <img src=\"bees-with-color/bee-A1DF.svg\" width=\"200\">\n                    <p><span class=\"greenText\"><b>Successful harvest!</b></span><br>Your pay has increased by $0.02. Your bonus pay is now $0.54.</p>\n            ","response":0,"trial_type":"html-button-response","trial_index":18,"time_elapsed":932502,"internal_node_id":"0.0-4.0-1.5","subject_id":"5f7e1a0d0fe2510c096b826e","study_id":"60edd13110225f80f9f3709b","session_id":"6196c701546bb2a802814ffe","condition":"contingent","relevant_dimensions":["antennae","legs"],"bee_group":{"antennae":"A","wings":"X","pattern":"X","legs":"M"},"bonus":1.6600000000000013},{"rt":21354.599999964237,"stimulus":"bees-with-color/bee-A2SM.svg","response":0,"trial_type":"image-button-response","trial_index":19,"time_elapsed":953858,"internal_node_id":"0.0-4.0-0.6","subject_id":"5f7e1a0d0fe2510c096b826e","study_id":"60edd13110225f80f9f3709b","session_id":"6196c701546bb2a802814ffe","condition":"contingent","relevant_dimensions":["antennae","legs"],"bee_group":{"antennae":"A","wings":"X","pattern":"X","legs":"M"},"action":"harvest","summary":"bad-harvest","bonus":1.6600000000000013},{"rt":5511.5,"stimulus":"\n                    <p><b>Action: <em>harvest</em></b></p>\n                    <p>This is the bee that you just saw.</p>\n                    <img src=\"bees-with-color/bee-A2SM.svg\" width=\"200\">\n                    <p><span class=\"redText\">Bad choice, the bee was angry.</span><br><b>You have been stung!</b><br>Your pay has been decreased by $0.10. Your bonus pay is now $0.44.</p>\n            ","response":0,"trial_type":"html-button-response","trial_index":20,"time_elapsed":959371,"internal_node_id":"0.0-4.0-1.6","subject_id":"5f7e1a0d0fe2510c096b826e","study_id":"60edd13110225f80f9f3709b","session_id":"6196c701546bb2a802814ffe","condition":"contingent","relevant_dimensions":["antennae","legs"],"bee_group":{"antennae":"A","wings":"X","pattern":"X","legs":"M"},"bonus":1.6600000000000013},{"rt":12001.5,"stimulus":"bees-with-color/bee-B1DM.svg","response":0,"trial_type":"image-button-response","trial_index":21,"time_elapsed":971373,"internal_node_id":"0.0-4.0-0.7","subject_id":"5f7e1a0d0fe2510c096b826e","study_id":"60edd13110225f80f9f3709b","session_id":"6196c701546bb2a802814ffe","condition":"contingent","relevant_dimensions":["antennae","legs"],"bee_group":{"antennae":"A","wings":"X","pattern":"X","legs":"M"},"action":"harvest","summary":"good-harvest","bonus":1.6600000000000013},{"rt":3119.099999964237,"stimulus":"\n                    <p><b>Action: <em>harvest</em></b></p>\n                    <p>This is the bee that you just saw.</p>\n                    <img src=\"bees-with-color/bee-B1DM.svg\" width=\"200\">\n                    <p><span class=\"greenText\"><b>Successful harvest!</b></span><br>Your pay has increased by $0.02. Your bonus pay is now $0.46.</p>\n            ","response":0,"trial_type":"html-button-response","trial_index":22,"time_elapsed":974493,"internal_node_id":"0.0-4.0-1.7","subject_id":"5f7e1a0d0fe2510c096b826e","study_id":"60edd13110225f80f9f3709b","session_id":"6196c701546bb2a802814ffe","condition":"contingent","relevant_dimensions":["antennae","legs"],"bee_group":{"antennae":"A","wings":"X","pattern":"X","legs":"M"},"bonus":1.6600000000000013},{"rt":12891.699999988079,"stimulus":"bees-with-color/bee-B1DF.svg","response":0,"trial_type":"image-button-response","trial_index":23,"time_elapsed":987386,"internal_node_id":"0.0-4.0-0.8","subject_id":"5f7e1a0d0fe2510c096b826e","study_id":"60edd13110225f80f9f3709b","session_id":"6196c701546bb2a802814ffe","condition":"contingent","relevant_dimensions":["antennae","legs"],"bee_group":{"antennae":"A","wings":"X","pattern":"X","legs":"M"},"action":"harvest","summary":"good-harvest","bonus":1.6600000000000013},{"rt":3043.399999976158,"stimulus":"\n                    <p><b>Action: <em>harvest</em></b></p>\n                    <p>This is the bee that you just saw.</p>\n                    <img src=\"bees-with-color/bee-B1DF.svg\" width=\"200\">\n                    <p><span class=\"greenText\"><b>Successful harvest!</b></span><br>Your pay has increased by $0.02. Your bonus pay is now $0.48.</p>\n            ","response":0,"trial_type":"html-button-response","trial_index":24,"time_elapsed":990430,"internal_node_id":"0.0-4.0-1.8","subject_id":"5f7e1a0d0fe2510c096b826e","study_id":"60edd13110225f80f9f3709b","session_id":"6196c701546bb2a802814ffe","condition":"contingent","relevant_dimensions":["antennae","legs"],"bee_group":{"antennae":"A","wings":"X","pattern":"X","legs":"M"},"bonus":1.6600000000000013},{"rt":23700.19999998808,"stimulus":"bees-with-color/bee-A1SM.svg","response":0,"trial_type":"image-button-response","trial_index":25,"time_elapsed":1014131,"internal_node_id":"0.0-4.0-0.9","subject_id":"5f7e1a0d0fe2510c096b826e","study_id":"60edd13110225f80f9f3709b","session_id":"6196c701546bb2a802814ffe","condition":"contingent","relevant_dimensions":["antennae","legs"],"bee_group":{"antennae":"A","wings":"X","pattern":"X","legs":"M"},"action":"harvest","summary":"bad-harvest","bonus":1.6600000000000013},{"rt":12735.699999988079,"stimulus":"\n                    <p><b>Action: <em>harvest</em></b></p>\n                    <p>This is the bee that you just saw.</p>\n                    <img src=\"bees-with-color/bee-A1SM.svg\" width=\"200\">\n                    <p><span class=\"redText\">Bad choice, the bee was angry.</span><br><b>You have been stung!</b><br>Your pay has been decreased by $0.10. Your bonus pay is now $0.38.</p>\n            ","response":0,"trial_type":"html-button-response","trial_index":26,"time_elapsed":1026868,"internal_node_id":"0.0-4.0-1.9","subject_id":"5f7e1a0d0fe2510c096b826e","study_id":"60edd13110225f80f9f3709b","session_id":"6196c701546bb2a802814ffe","condition":"contingent","relevant_dimensions":["antennae","legs"],"bee_group":{"antennae":"A","wings":"X","pattern":"X","legs":"M"},"bonus":1.6600000000000013},{"rt":1356,"stimulus":"bees-with-color/bee-B2SF.svg","response":0,"trial_type":"image-button-response","trial_index":27,"time_elapsed":1028225,"internal_node_id":"0.0-4.0-0.10","subject_id":"5f7e1a0d0fe2510c096b826e","study_id":"60edd13110225f80f9f3709b","session_id":"6196c701546bb2a802814ffe","condition":"contingent","relevant_dimensions":["antennae","legs"],"bee_group":{"antennae":"A","wings":"X","pattern":"X","legs":"M"},"action":"harvest","summary":"good-harvest","bonus":1.6600000000000013},{"rt":766.4000000357628,"stimulus":"\n                    <p><b>Action: <em>harvest</em></b></p>\n                    <p>This is the bee that you just saw.</p>\n                    <img src=\"bees-with-color/bee-B2SF.svg\" width=\"200\">\n                    <p><span class=\"greenText\"><b>Successful harvest!</b></span><br>Your pay has increased by $0.02. Your bonus pay is now $0.40.</p>\n            ","response":0,"trial_type":"html-button-response","trial_index":28,"time_elapsed":1028992,"internal_node_id":"0.0-4.0-1.10","subject_id":"5f7e1a0d0fe2510c096b826e","study_id":"60edd13110225f80f9f3709b","session_id":"6196c701546bb2a802814ffe","condition":"contingent","relevant_dimensions":["antennae","legs"],"bee_group":{"antennae":"A","wings":"X","pattern":"X","legs":"M"},"bonus":1.6600000000000013},{"rt":879,"stimulus":"bees-with-color/bee-B1SF.svg","response":0,"trial_type":"image-button-response","trial_index":29,"time_elapsed":1029872,"internal_node_id":"0.0-4.0-0.11","subject_id":"5f7e1a0d0fe2510c096b826e","study_id":"60edd13110225f80f9f3709b","session_id":"6196c701546bb2a802814ffe","condition":"contingent","relevant_dimensions":["antennae","legs"],"bee_group":{"antennae":"A","wings":"X","pattern":"X","legs":"M"},"action":"harvest","summary":"good-harvest","bonus":1.6600000000000013},{"rt":702.1000000238419,"stimulus":"\n                    <p><b>Action: <em>harvest</em></b></p>\n                    <p>This is the bee that you just saw.</p>\n                    <img src=\"bees-with-color/bee-B1SF.svg\" width=\"200\">\n                    <p><span class=\"greenText\"><b>Successful harvest!</b></span><br>Your pay has increased by $0.02. Your bonus pay is now $0.42.</p>\n            ","response":0,"trial_type":"html-button-response","trial_index":30,"time_elapsed":1030575,"internal_node_id":"0.0-4.0-1.11","subject_id":"5f7e1a0d0fe2510c096b826e","study_id":"60edd13110225f80f9f3709b","session_id":"6196c701546bb2a802814ffe","condition":"contingent","relevant_dimensions":["antennae","legs"],"bee_group":{"antennae":"A","wings":"X","pattern":"X","legs":"M"},"bonus":1.6600000000000013},{"rt":785.3000000119209,"stimulus":"bees-with-color/bee-B2DF.svg","response":0,"trial_type":"image-button-response","trial_index":31,"time_elapsed":1031361,"internal_node_id":"0.0-4.0-0.12","subject_id":"5f7e1a0d0fe2510c096b826e","study_id":"60edd13110225f80f9f3709b","session_id":"6196c701546bb2a802814ffe","condition":"contingent","relevant_dimensions":["antennae","legs"],"bee_group":{"antennae":"A","wings":"X","pattern":"X","legs":"M"},"action":"harvest","summary":"good-harvest","bonus":1.6600000000000013},{"rt":619.3999999761581,"stimulus":"\n                    <p><b>Action: <em>harvest</em></b></p>\n                    <p>This is the bee that you just saw.</p>\n                    <img src=\"bees-with-color/bee-B2DF.svg\" width=\"200\">\n                    <p><span class=\"greenText\"><b>Successful harvest!</b></span><br>Your pay has increased by $0.02. Your bonus pay is now $0.44.</p>\n            ","response":0,"trial_type":"html-button-response","trial_index":32,"time_elapsed":1031981,"internal_node_id":"0.0-4.0-1.12","subject_id":"5f7e1a0d0fe2510c096b826e","study_id":"60edd13110225f80f9f3709b","session_id":"6196c701546bb2a802814ffe","condition":"contingent","relevant_dimensions":["antennae","legs"],"bee_group":{"antennae":"A","wings":"X","pattern":"X","legs":"M"},"bonus":1.6600000000000013},{"rt":742.1999999880791,"stimulus":"bees-with-color/bee-A1SF.svg","response":0,"trial_type":"image-button-response","trial_index":33,"time_elapsed":1032724,"internal_node_id":"0.0-4.0-0.13","subject_id":"5f7e1a0d0fe2510c096b826e","study_id":"60edd13110225f80f9f3709b","session_id":"6196c701546bb2a802814ffe","condition":"contingent","relevant_dimensions":["antennae","legs"],"bee_group":{"antennae":"A","wings":"X","pattern":"X","legs":"M"},"action":"harvest","summary":"good-harvest","bonus":1.6600000000000013},{"rt":646,"stimulus":"\n                    <p><b>Action: <em>harvest</em></b></p>\n                    <p>This is the bee that you just saw.</p>\n                    <img src=\"bees-with-color/bee-A1SF.svg\" width=\"200\">\n                    <p><span class=\"greenText\"><b>Successful harvest!</b></span><br>Your pay has increased by $0.02. Your bonus pay is now $0.46.</p>\n            ","response":0,"trial_type":"html-button-response","trial_index":34,"time_elapsed":1033371,"internal_node_id":"0.0-4.0-1.13","subject_id":"5f7e1a0d0fe2510c096b826e","study_id":"60edd13110225f80f9f3709b","session_id":"6196c701546bb2a802814ffe","condition":"contingent","relevant_dimensions":["antennae","legs"],"bee_group":{"antennae":"A","wings":"X","pattern":"X","legs":"M"},"bonus":1.6600000000000013},{"rt":9034.299999952316,"stimulus":"bees-with-color/bee-A1DM.svg","response":1,"trial_type":"image-button-response","trial_index":35,"time_elapsed":1042406,"internal_node_id":"0.0-4.0-0.14","subject_id":"5f7e1a0d0fe2510c096b826e","study_id":"60edd13110225f80f9f3709b","session_id":"6196c701546bb2a802814ffe","condition":"contingent","relevant_dimensions":["antennae","legs"],"bee_group":{"antennae":"A","wings":"X","pattern":"X","legs":"M"},"action":"avoid","summary":"good-avoid","bonus":1.6600000000000013},{"rt":1412.3999999761581,"stimulus":"\n                    <p><b>Action: <em>avoid</em></b></p>\n                    <p>This is the bee that you just saw.</p>\n                    <img src=\"bees-with-color/bee-A1DM.svg\" width=\"200\">\n                    <p><br>Your bonus pay is unchanged, and remains at $0.46.</p>\n            ","response":0,"trial_type":"html-button-response","trial_index":36,"time_elapsed":1043819,"internal_node_id":"0.0-4.0-1.14","subject_id":"5f7e1a0d0fe2510c096b826e","study_id":"60edd13110225f80f9f3709b","session_id":"6196c701546bb2a802814ffe","condition":"contingent","relevant_dimensions":["antennae","legs"],"bee_group":{"antennae":"A","wings":"X","pattern":"X","legs":"M"},"bonus":1.6600000000000013},{"rt":1087.9000000357628,"stimulus":"bees-with-color/bee-B1SM.svg","response":0,"trial_type":"image-button-response","trial_index":37,"time_elapsed":1044908,"internal_node_id":"0.0-4.0-0.15","subject_id":"5f7e1a0d0fe2510c096b826e","study_id":"60edd13110225f80f9f3709b","session_id":"6196c701546bb2a802814ffe","condition":"contingent","relevant_dimensions":["antennae","legs"],"bee_group":{"antennae":"A","wings":"X","pattern":"X","legs":"M"},"action":"harvest","summary":"good-harvest","bonus":1.6600000000000013},{"rt":667.1999999880791,"stimulus":"\n                    <p><b>Action: <em>harvest</em></b></p>\n                    <p>This is the bee that you just saw.</p>\n                    <img src=\"bees-with-color/bee-B1SM.svg\" width=\"200\">\n                    <p><span class=\"greenText\"><b>Successful harvest!</b></span><br>Your pay has increased by $0.02. Your bonus pay is now $0.48.</p>\n            ","response":0,"trial_type":"html-button-response","trial_index":38,"time_elapsed":1045576,"internal_node_id":"0.0-4.0-1.15","subject_id":"5f7e1a0d0fe2510c096b826e","study_id":"60edd13110225f80f9f3709b","session_id":"6196c701546bb2a802814ffe","condition":"contingent","relevant_dimensions":["antennae","legs"],"bee_group":{"antennae":"A","wings":"X","pattern":"X","legs":"M"},"bonus":1.6600000000000013},{"rt":1578.2999999523163,"stimulus":"bees-with-color/bee-B1SM.svg","response":0,"trial_type":"image-button-response","trial_index":39,"time_elapsed":1047155,"internal_node_id":"0.0-4.0-0.16","subject_id":"5f7e1a0d0fe2510c096b826e","study_id":"60edd13110225f80f9f3709b","session_id":"6196c701546bb2a802814ffe","condition":"contingent","relevant_dimensions":["antennae","legs"],"bee_group":{"antennae":"A","wings":"X","pattern":"X","legs":"M"},"action":"harvest","summary":"good-harvest","bonus":1.6600000000000013},{"rt":552.1999999880791,"stimulus":"\n                    <p><b>Action: <em>harvest</em></b></p>\n                    <p>This is the bee that you just saw.</p>\n                    <img src=\"bees-with-color/bee-B1SM.svg\" width=\"200\">\n                    <p><span class=\"greenText\"><b>Successful harvest!</b></span><br>Your pay has increased by $0.02. Your bonus pay is now $0.50.</p>\n            ","response":0,"trial_type":"html-button-response","trial_index":40,"time_elapsed":1047708,"internal_node_id":"0.0-4.0-1.16","subject_id":"5f7e1a0d0fe2510c096b826e","study_id":"60edd13110225f80f9f3709b","session_id":"6196c701546bb2a802814ffe","condition":"contingent","relevant_dimensions":["antennae","legs"],"bee_group":{"antennae":"A","wings":"X","pattern":"X","legs":"M"},"bonus":1.6600000000000013},{"rt":959.2999999523163,"stimulus":"bees-with-color/bee-B2DM.svg","response":0,"trial_type":"image-button-response","trial_index":41,"time_elapsed":1048668,"internal_node_id":"0.0-4.0-0.17","subject_id":"5f7e1a0d0fe2510c096b826e","study_id":"60edd13110225f80f9f3709b","session_id":"6196c701546bb2a802814ffe","condition":"contingent","relevant_dimensions":["antennae","legs"],"bee_group":{"antennae":"A","wings":"X","pattern":"X","legs":"M"},"action":"harvest","summary":"good-harvest","bonus":1.6600000000000013},{"rt":494.19999998807907,"stimulus":"\n                    <p><b>Action: <em>harvest</em></b></p>\n                    <p>This is the bee that you just saw.</p>\n                    <img src=\"bees-with-color/bee-B2DM.svg\" width=\"200\">\n                    <p><span class=\"greenText\"><b>Successful harvest!</b></span><br>Your pay has increased by $0.02. Your bonus pay is now $0.52.</p>\n            ","response":0,"trial_type":"html-button-response","trial_index":42,"time_elapsed":1049163,"internal_node_id":"0.0-4.0-1.17","subject_id":"5f7e1a0d0fe2510c096b826e","study_id":"60edd13110225f80f9f3709b","session_id":"6196c701546bb2a802814ffe","condition":"contingent","relevant_dimensions":["antennae","legs"],"bee_group":{"antennae":"A","wings":"X","pattern":"X","legs":"M"},"bonus":1.6600000000000013},{"rt":1329.1000000238419,"stimulus":"bees-with-color/bee-A1SF.svg","response":0,"trial_type":"image-button-response","trial_index":43,"time_elapsed":1050493,"internal_node_id":"0.0-4.0-0.18","subject_id":"5f7e1a0d0fe2510c096b826e","study_id":"60edd13110225f80f9f3709b","session_id":"6196c701546bb2a802814ffe","condition":"contingent","relevant_dimensions":["antennae","legs"],"bee_group":{"antennae":"A","wings":"X","pattern":"X","legs":"M"},"action":"harvest","summary":"good-harvest","bonus":1.6600000000000013},{"rt":495.10000002384186,"stimulus":"\n                    <p><b>Action: <em>harvest</em></b></p>\n                    <p>This is the bee that you just saw.</p>\n                    <img src=\"bees-with-color/bee-A1SF.svg\" width=\"200\">\n                    <p><span class=\"greenText\"><b>Successful harvest!</b></span><br>Your pay has increased by $0.02. Your bonus pay is now $0.54.</p>\n            ","response":0,"trial_type":"html-button-response","trial_index":44,"time_elapsed":1050989,"internal_node_id":"0.0-4.0-1.18","subject_id":"5f7e1a0d0fe2510c096b826e","study_id":"60edd13110225f80f9f3709b","session_id":"6196c701546bb2a802814ffe","condition":"contingent","relevant_dimensions":["antennae","legs"],"bee_group":{"antennae":"A","wings":"X","pattern":"X","legs":"M"},"bonus":1.6600000000000013},{"rt":1002.3000000119209,"stimulus":"bees-with-color/bee-A1SM.svg","response":1,"trial_type":"image-button-response","trial_index":45,"time_elapsed":1051992,"internal_node_id":"0.0-4.0-0.19","subject_id":"5f7e1a0d0fe2510c096b826e","study_id":"60edd13110225f80f9f3709b","session_id":"6196c701546bb2a802814ffe","condition":"contingent","relevant_dimensions":["antennae","legs"],"bee_group":{"antennae":"A","wings":"X","pattern":"X","legs":"M"},"action":"avoid","summary":"good-avoid","bonus":1.6600000000000013},{"rt":574.3000000119209,"stimulus":"\n                    <p><b>Action: <em>avoid</em></b></p>\n                    <p>This is the bee that you just saw.</p>\n                    <img src=\"bees-with-color/bee-A1SM.svg\" width=\"200\">\n                    <p><br>Your bonus pay is unchanged, and remains at $0.54.</p>\n            ","response":0,"trial_type":"html-button-response","trial_index":46,"time_elapsed":1052568,"internal_node_id":"0.0-4.0-1.19","subject_id":"5f7e1a0d0fe2510c096b826e","study_id":"60edd13110225f80f9f3709b","session_id":"6196c701546bb2a802814ffe","condition":"contingent","relevant_dimensions":["antennae","legs"],"bee_group":{"antennae":"A","wings":"X","pattern":"X","legs":"M"},"bonus":1.6600000000000013},{"rt":1055.3999999761581,"stimulus":"bees-with-color/bee-B2SM.svg","response":0,"trial_type":"image-button-response","trial_index":47,"time_elapsed":1053623,"internal_node_id":"0.0-4.0-0.20","subject_id":"5f7e1a0d0fe2510c096b826e","study_id":"60edd13110225f80f9f3709b","session_id":"6196c701546bb2a802814ffe","condition":"contingent","relevant_dimensions":["antennae","legs"],"bee_group":{"antennae":"A","wings":"X","pattern":"X","legs":"M"},"action":"harvest","summary":"good-harvest","bonus":1.6600000000000013},{"rt":492.2999999523163,"stimulus":"\n                    <p><b>Action: <em>harvest</em></b></p>\n                    <p>This is the bee that you just saw.</p>\n                    <img src=\"bees-with-color/bee-B2SM.svg\" width=\"200\">\n                    <p><span class=\"greenText\"><b>Successful harvest!</b></span><br>Your pay has increased by $0.02. Your bonus pay is now $0.56.</p>\n            ","response":0,"trial_type":"html-button-response","trial_index":48,"time_elapsed":1054117,"internal_node_id":"0.0-4.0-1.20","subject_id":"5f7e1a0d0fe2510c096b826e","study_id":"60edd13110225f80f9f3709b","session_id":"6196c701546bb2a802814ffe","condition":"contingent","relevant_dimensions":["antennae","legs"],"bee_group":{"antennae":"A","wings":"X","pattern":"X","legs":"M"},"bonus":1.6600000000000013},{"rt":1621.0999999642372,"stimulus":"bees-with-color/bee-A2DF.svg","response":0,"trial_type":"image-button-response","trial_index":49,"time_elapsed":1055738,"internal_node_id":"0.0-4.0-0.21","subject_id":"5f7e1a0d0fe2510c096b826e","study_id":"60edd13110225f80f9f3709b","session_id":"6196c701546bb2a802814ffe","condition":"contingent","relevant_dimensions":["antennae","legs"],"bee_group":{"antennae":"A","wings":"X","pattern":"X","legs":"M"},"action":"harvest","summary":"good-harvest","bonus":1.6600000000000013},{"rt":500.5,"stimulus":"\n                    <p><b>Action: <em>harvest</em></b></p>\n                    <p>This is the bee that you just saw.</p>\n                    <img src=\"bees-with-color/bee-A2DF.svg\" width=\"200\">\n                    <p><span class=\"greenText\"><b>Successful harvest!</b></span><br>Your pay has increased by $0.02. Your bonus pay is now $0.58.</p>\n            ","response":0,"trial_type":"html-button-response","trial_index":50,"time_elapsed":1056240,"internal_node_id":"0.0-4.0-1.21","subject_id":"5f7e1a0d0fe2510c096b826e","study_id":"60edd13110225f80f9f3709b","session_id":"6196c701546bb2a802814ffe","condition":"contingent","relevant_dimensions":["antennae","legs"],"bee_group":{"antennae":"A","wings":"X","pattern":"X","legs":"M"},"bonus":1.6600000000000013},{"rt":1457.8999999761581,"stimulus":"bees-with-color/bee-A2DM.svg","response":1,"trial_type":"image-button-response","trial_index":51,"time_elapsed":1057698,"internal_node_id":"0.0-4.0-0.22","subject_id":"5f7e1a0d0fe2510c096b826e","study_id":"60edd13110225f80f9f3709b","session_id":"6196c701546bb2a802814ffe","condition":"contingent","relevant_dimensions":["antennae","legs"],"bee_group":{"antennae":"A","wings":"X","pattern":"X","legs":"M"},"action":"avoid","summary":"good-avoid","bonus":1.6600000000000013},{"rt":575.6000000238419,"stimulus":"\n                    <p><b>Action: <em>avoid</em></b></p>\n                    <p>This is the bee that you just saw.</p>\n                    <img src=\"bees-with-color/bee-A2DM.svg\" width=\"200\">\n                    <p><br>Your bonus pay is unchanged, and remains at $0.58.</p>\n            ","response":0,"trial_type":"html-button-response","trial_index":52,"time_elapsed":1058275,"internal_node_id":"0.0-4.0-1.22","subject_id":"5f7e1a0d0fe2510c096b826e","study_id":"60edd13110225f80f9f3709b","session_id":"6196c701546bb2a802814ffe","condition":"contingent","relevant_dimensions":["antennae","legs"],"bee_group":{"antennae":"A","wings":"X","pattern":"X","legs":"M"},"bonus":1.6600000000000013},{"rt":7941.399999976158,"stimulus":"bees-with-color/bee-A1DF.svg","response":0,"trial_type":"image-button-response","trial_index":53,"time_elapsed":1066217,"internal_node_id":"0.0-4.0-0.23","subject_id":"5f7e1a0d0fe2510c096b826e","study_id":"60edd13110225f80f9f3709b","session_id":"6196c701546bb2a802814ffe","condition":"contingent","relevant_dimensions":["antennae","legs"],"bee_group":{"antennae":"A","wings":"X","pattern":"X","legs":"M"},"action":"harvest","summary":"good-harvest","bonus":1.6600000000000013},{"rt":554.3000000119209,"stimulus":"\n                    <p><b>Action: <em>harvest</em></b></p>\n                    <p>This is the bee that you just saw.</p>\n                    <img src=\"bees-with-color/bee-A1DF.svg\" width=\"200\">\n                    <p><span class=\"greenText\"><b>Successful harvest!</b></span><br>Your pay has increased by $0.02. Your bonus pay is now $0.60.</p>\n            ","response":0,"trial_type":"html-button-response","trial_index":54,"time_elapsed":1066772,"internal_node_id":"0.0-4.0-1.23","subject_id":"5f7e1a0d0fe2510c096b826e","study_id":"60edd13110225f80f9f3709b","session_id":"6196c701546bb2a802814ffe","condition":"contingent","relevant_dimensions":["antennae","legs"],"bee_group":{"antennae":"A","wings":"X","pattern":"X","legs":"M"},"bonus":1.6600000000000013},{"rt":1099.699999988079,"stimulus":"bees-with-color/bee-B1DM.svg","response":0,"trial_type":"image-button-response","trial_index":55,"time_elapsed":1067873,"internal_node_id":"0.0-4.0-0.24","subject_id":"5f7e1a0d0fe2510c096b826e","study_id":"60edd13110225f80f9f3709b","session_id":"6196c701546bb2a802814ffe","condition":"contingent","relevant_dimensions":["antennae","legs"],"bee_group":{"antennae":"A","wings":"X","pattern":"X","legs":"M"},"action":"harvest","summary":"good-harvest","bonus":1.6600000000000013},{"rt":473.69999998807907,"stimulus":"\n                    <p><b>Action: <em>harvest</em></b></p>\n                    <p>This is the bee that you just saw.</p>\n                    <img src=\"bees-with-color/bee-B1DM.svg\" width=\"200\">\n                    <p><span class=\"greenText\"><b>Successful harvest!</b></span><br>Your pay has increased by $0.02. Your bonus pay is now $0.62.</p>\n            ","response":0,"trial_type":"html-button-response","trial_index":56,"time_elapsed":1068348,"internal_node_id":"0.0-4.0-1.24","subject_id":"5f7e1a0d0fe2510c096b826e","study_id":"60edd13110225f80f9f3709b","session_id":"6196c701546bb2a802814ffe","condition":"contingent","relevant_dimensions":["antennae","legs"],"bee_group":{"antennae":"A","wings":"X","pattern":"X","legs":"M"},"bonus":1.6600000000000013},{"rt":898.9000000357628,"stimulus":"bees-with-color/bee-B1DF.svg","response":0,"trial_type":"image-button-response","trial_index":57,"time_elapsed":1069247,"internal_node_id":"0.0-4.0-0.25","subject_id":"5f7e1a0d0fe2510c096b826e","study_id":"60edd13110225f80f9f3709b","session_id":"6196c701546bb2a802814ffe","condition":"contingent","relevant_dimensions":["antennae","legs"],"bee_group":{"antennae":"A","wings":"X","pattern":"X","legs":"M"},"action":"harvest","summary":"good-harvest","bonus":1.6600000000000013},{"rt":422.10000002384186,"stimulus":"\n                    <p><b>Action: <em>harvest</em></b></p>\n                    <p>This is the bee that you just saw.</p>\n                    <img src=\"bees-with-color/bee-B1DF.svg\" width=\"200\">\n                    <p><span class=\"greenText\"><b>Successful harvest!</b></span><br>Your pay has increased by $0.02. Your bonus pay is now $0.64.</p>\n            ","response":0,"trial_type":"html-button-response","trial_index":58,"time_elapsed":1069670,"internal_node_id":"0.0-4.0-1.25","subject_id":"5f7e1a0d0fe2510c096b826e","study_id":"60edd13110225f80f9f3709b","session_id":"6196c701546bb2a802814ffe","condition":"contingent","relevant_dimensions":["antennae","legs"],"bee_group":{"antennae":"A","wings":"X","pattern":"X","legs":"M"},"bonus":1.6600000000000013},{"rt":901,"stimulus":"bees-with-color/bee-A2SF.svg","response":0,"trial_type":"image-button-response","trial_index":59,"time_elapsed":1070572,"internal_node_id":"0.0-4.0-0.26","subject_id":"5f7e1a0d0fe2510c096b826e","study_id":"60edd13110225f80f9f3709b","session_id":"6196c701546bb2a802814ffe","condition":"contingent","relevant_dimensions":["antennae","legs"],"bee_group":{"antennae":"A","wings":"X","pattern":"X","legs":"M"},"action":"harvest","summary":"good-harvest","bonus":1.6600000000000013},{"rt":488.89999997615814,"stimulus":"\n                    <p><b>Action: <em>harvest</em></b></p>\n                    <p>This is the bee that you just saw.</p>\n                    <img src=\"bees-with-color/bee-A2SF.svg\" width=\"200\">\n                    <p><span class=\"greenText\"><b>Successful harvest!</b></span><br>Your pay has increased by $0.02. Your bonus pay is now $0.66.</p>\n            ","response":0,"trial_type":"html-button-response","trial_index":60,"time_elapsed":1071062,"internal_node_id":"0.0-4.0-1.26","subject_id":"5f7e1a0d0fe2510c096b826e","study_id":"60edd13110225f80f9f3709b","session_id":"6196c701546bb2a802814ffe","condition":"contingent","relevant_dimensions":["antennae","legs"],"bee_group":{"antennae":"A","wings":"X","pattern":"X","legs":"M"},"bonus":1.6600000000000013},{"rt":550,"stimulus":"bees-with-color/bee-B2SF.svg","response":0,"trial_type":"image-button-response","trial_index":61,"time_elapsed":1071613,"internal_node_id":"0.0-4.0-0.27","subject_id":"5f7e1a0d0fe2510c096b826e","study_id":"60edd13110225f80f9f3709b","session_id":"6196c701546bb2a802814ffe","condition":"contingent","relevant_dimensions":["antennae","legs"],"bee_group":{"antennae":"A","wings":"X","pattern":"X","legs":"M"},"action":"harvest","summary":"good-harvest","bonus":1.6600000000000013},{"rt":415.10000002384186,"stimulus":"\n                    <p><b>Action: <em>harvest</em></b></p>\n                    <p>This is the bee that you just saw.</p>\n                    <img src=\"bees-with-color/bee-B2SF.svg\" width=\"200\">\n                    <p><span class=\"greenText\"><b>Successful harvest!</b></span><br>Your pay has increased by $0.02. Your bonus pay is now $0.68.</p>\n            ","response":0,"trial_type":"html-button-response","trial_index":62,"time_elapsed":1072028,"internal_node_id":"0.0-4.0-1.27","subject_id":"5f7e1a0d0fe2510c096b826e","study_id":"60edd13110225f80f9f3709b","session_id":"6196c701546bb2a802814ffe","condition":"contingent","relevant_dimensions":["antennae","legs"],"bee_group":{"antennae":"A","wings":"X","pattern":"X","legs":"M"},"bonus":1.6600000000000013},{"rt":486.60000002384186,"stimulus":"bees-with-color/bee-B1SF.svg","response":0,"trial_type":"image-button-response","trial_index":63,"time_elapsed":1072516,"internal_node_id":"0.0-4.0-0.28","subject_id":"5f7e1a0d0fe2510c096b826e","study_id":"60edd13110225f80f9f3709b","session_id":"6196c701546bb2a802814ffe","condition":"contingent","relevant_dimensions":["antennae","legs"],"bee_group":{"antennae":"A","wings":"X","pattern":"X","legs":"M"},"action":"harvest","summary":"good-harvest","bonus":1.6600000000000013},{"rt":447.5,"stimulus":"\n                    <p><b>Action: <em>harvest</em></b></p>\n                    <p>This is the bee that you just saw.</p>\n                    <img src=\"bees-with-color/bee-B1SF.svg\" width=\"200\">\n                    <p><span class=\"greenText\"><b>Successful harvest!</b></span><br>Your pay has increased by $0.02. Your bonus pay is now $0.70.</p>\n            ","response":0,"trial_type":"html-button-response","trial_index":64,"time_elapsed":1072964,"internal_node_id":"0.0-4.0-1.28","subject_id":"5f7e1a0d0fe2510c096b826e","study_id":"60edd13110225f80f9f3709b","session_id":"6196c701546bb2a802814ffe","condition":"contingent","relevant_dimensions":["antennae","legs"],"bee_group":{"antennae":"A","wings":"X","pattern":"X","legs":"M"},"bonus":1.6600000000000013},{"rt":833.6999999880791,"stimulus":"bees-with-color/bee-A1DM.svg","response":1,"trial_type":"image-button-response","trial_index":65,"time_elapsed":1073798,"internal_node_id":"0.0-4.0-0.29","subject_id":"5f7e1a0d0fe2510c096b826e","study_id":"60edd13110225f80f9f3709b","session_id":"6196c701546bb2a802814ffe","condition":"contingent","relevant_dimensions":["antennae","legs"],"bee_group":{"antennae":"A","wings":"X","pattern":"X","legs":"M"},"action":"avoid","summary":"good-avoid","bonus":1.6600000000000013},{"rt":505.9000000357628,"stimulus":"\n                    <p><b>Action: <em>avoid</em></b></p>\n                    <p>This is the bee that you just saw.</p>\n                    <img src=\"bees-with-color/bee-A1DM.svg\" width=\"200\">\n                    <p><br>Your bonus pay is unchanged, and remains at $0.70.</p>\n            ","response":0,"trial_type":"html-button-response","trial_index":66,"time_elapsed":1074305,"internal_node_id":"0.0-4.0-1.29","subject_id":"5f7e1a0d0fe2510c096b826e","study_id":"60edd13110225f80f9f3709b","session_id":"6196c701546bb2a802814ffe","condition":"contingent","relevant_dimensions":["antennae","legs"],"bee_group":{"antennae":"A","wings":"X","pattern":"X","legs":"M"},"bonus":1.6600000000000013},{"rt":393,"stimulus":"bees-with-color/bee-B2DF.svg","response":0,"trial_type":"image-button-response","trial_index":67,"time_elapsed":1074699,"internal_node_id":"0.0-4.0-0.30","subject_id":"5f7e1a0d0fe2510c096b826e","study_id":"60edd13110225f80f9f3709b","session_id":"6196c701546bb2a802814ffe","condition":"contingent","relevant_dimensions":["antennae","legs"],"bee_group":{"antennae":"A","wings":"X","pattern":"X","legs":"M"},"action":"harvest","summary":"good-harvest","bonus":1.6600000000000013},{"rt":470.10000002384186,"stimulus":"\n                    <p><b>Action: <em>harvest</em></b></p>\n                    <p>This is the bee that you just saw.</p>\n                    <img src=\"bees-with-color/bee-B2DF.svg\" width=\"200\">\n                    <p><span class=\"greenText\"><b>Successful harvest!</b></span><br>Your pay has increased by $0.02. Your bonus pay is now $0.72.</p>\n            ","response":0,"trial_type":"html-button-response","trial_index":68,"time_elapsed":1075169,"internal_node_id":"0.0-4.0-1.30","subject_id":"5f7e1a0d0fe2510c096b826e","study_id":"60edd13110225f80f9f3709b","session_id":"6196c701546bb2a802814ffe","condition":"contingent","relevant_dimensions":["antennae","legs"],"bee_group":{"antennae":"A","wings":"X","pattern":"X","legs":"M"},"bonus":1.6600000000000013},{"rt":1370.4000000357628,"stimulus":"bees-with-color/bee-A2SM.svg","response":1,"trial_type":"image-button-response","trial_index":69,"time_elapsed":1076540,"internal_node_id":"0.0-4.0-0.31","subject_id":"5f7e1a0d0fe2510c096b826e","study_id":"60edd13110225f80f9f3709b","session_id":"6196c701546bb2a802814ffe","condition":"contingent","relevant_dimensions":["antennae","legs"],"bee_group":{"antennae":"A","wings":"X","pattern":"X","legs":"M"},"action":"avoid","summary":"good-avoid","bonus":1.6600000000000013},{"rt":519.5999999642372,"stimulus":"\n                    <p><b>Action: <em>avoid</em></b></p>\n                    <p>This is the bee that you just saw.</p>\n                    <img src=\"bees-with-color/bee-A2SM.svg\" width=\"200\">\n                    <p><br>Your bonus pay is unchanged, and remains at $0.72.</p>\n            ","response":0,"trial_type":"html-button-response","trial_index":70,"time_elapsed":1077061,"internal_node_id":"0.0-4.0-1.31","subject_id":"5f7e1a0d0fe2510c096b826e","study_id":"60edd13110225f80f9f3709b","session_id":"6196c701546bb2a802814ffe","condition":"contingent","relevant_dimensions":["antennae","legs"],"bee_group":{"antennae":"A","wings":"X","pattern":"X","legs":"M"},"bonus":1.6600000000000013},{"rt":1737.3999999761581,"stimulus":"bees-with-color/bee-A1SM.svg","response":1,"trial_type":"image-button-response","trial_index":71,"time_elapsed":1078799,"internal_node_id":"0.0-4.0-0.32","subject_id":"5f7e1a0d0fe2510c096b826e","study_id":"60edd13110225f80f9f3709b","session_id":"6196c701546bb2a802814ffe","condition":"contingent","relevant_dimensions":["antennae","legs"],"bee_group":{"antennae":"A","wings":"X","pattern":"X","legs":"M"},"action":"avoid","summary":"good-avoid","bonus":1.6600000000000013},{"rt":457.60000002384186,"stimulus":"\n                    <p><b>Action: <em>avoid</em></b></p>\n                    <p>This is the bee that you just saw.</p>\n                    <img src=\"bees-with-color/bee-A1SM.svg\" width=\"200\">\n                    <p><br>Your bonus pay is unchanged, and remains at $0.72.</p>\n            ","response":0,"trial_type":"html-button-response","trial_index":72,"time_elapsed":1079257,"internal_node_id":"0.0-4.0-1.32","subject_id":"5f7e1a0d0fe2510c096b826e","study_id":"60edd13110225f80f9f3709b","session_id":"6196c701546bb2a802814ffe","condition":"contingent","relevant_dimensions":["antennae","legs"],"bee_group":{"antennae":"A","wings":"X","pattern":"X","legs":"M"},"bonus":1.6600000000000013},{"rt":820.2999999523163,"stimulus":"bees-with-color/bee-A2SF.svg","response":0,"trial_type":"image-button-response","trial_index":73,"time_elapsed":1080079,"internal_node_id":"0.0-4.0-0.33","subject_id":"5f7e1a0d0fe2510c096b826e","study_id":"60edd13110225f80f9f3709b","session_id":"6196c701546bb2a802814ffe","condition":"contingent","relevant_dimensions":["antennae","legs"],"bee_group":{"antennae":"A","wings":"X","pattern":"X","legs":"M"},"action":"harvest","summary":"good-harvest","bonus":1.6600000000000013},{"rt":427.19999998807907,"stimulus":"\n                    <p><b>Action: <em>harvest</em></b></p>\n                    <p>This is the bee that you just saw.</p>\n                    <img src=\"bees-with-color/bee-A2SF.svg\" width=\"200\">\n                    <p><span class=\"greenText\"><b>Successful harvest!</b></span><br>Your pay has increased by $0.02. Your bonus pay is now $0.74.</p>\n            ","response":0,"trial_type":"html-button-response","trial_index":74,"time_elapsed":1080507,"internal_node_id":"0.0-4.0-1.33","subject_id":"5f7e1a0d0fe2510c096b826e","study_id":"60edd13110225f80f9f3709b","session_id":"6196c701546bb2a802814ffe","condition":"contingent","relevant_dimensions":["antennae","legs"],"bee_group":{"antennae":"A","wings":"X","pattern":"X","legs":"M"},"bonus":1.6600000000000013},{"rt":1090.300000011921,"stimulus":"bees-with-color/bee-B1SM.svg","response":0,"trial_type":"image-button-response","trial_index":75,"time_elapsed":1081598,"internal_node_id":"0.0-4.0-0.34","subject_id":"5f7e1a0d0fe2510c096b826e","study_id":"60edd13110225f80f9f3709b","session_id":"6196c701546bb2a802814ffe","condition":"contingent","relevant_dimensions":["antennae","legs"],"bee_group":{"antennae":"A","wings":"X","pattern":"X","legs":"M"},"action":"harvest","summary":"good-harvest","bonus":1.6600000000000013},{"rt":363.0999999642372,"stimulus":"\n                    <p><b>Action: <em>harvest</em></b></p>\n                    <p>This is the bee that you just saw.</p>\n                    <img src=\"bees-with-color/bee-B1SM.svg\" width=\"200\">\n                    <p><span class=\"greenText\"><b>Successful harvest!</b></span><br>Your pay has increased by $0.02. Your bonus pay is now $0.76.</p>\n            ","response":0,"trial_type":"html-button-response","trial_index":76,"time_elapsed":1081961,"internal_node_id":"0.0-4.0-1.34","subject_id":"5f7e1a0d0fe2510c096b826e","study_id":"60edd13110225f80f9f3709b","session_id":"6196c701546bb2a802814ffe","condition":"contingent","relevant_dimensions":["antennae","legs"],"bee_group":{"antennae":"A","wings":"X","pattern":"X","legs":"M"},"bonus":1.6600000000000013},{"rt":670.1999999880791,"stimulus":"bees-with-color/bee-B1DF.svg","response":0,"trial_type":"image-button-response","trial_index":77,"time_elapsed":1082633,"internal_node_id":"0.0-4.0-0.35","subject_id":"5f7e1a0d0fe2510c096b826e","study_id":"60edd13110225f80f9f3709b","session_id":"6196c701546bb2a802814ffe","condition":"contingent","relevant_dimensions":["antennae","legs"],"bee_group":{"antennae":"A","wings":"X","pattern":"X","legs":"M"},"action":"harvest","summary":"good-harvest","bonus":1.6600000000000013},{"rt":428.19999998807907,"stimulus":"\n                    <p><b>Action: <em>harvest</em></b></p>\n                    <p>This is the bee that you just saw.</p>\n                    <img src=\"bees-with-color/bee-B1DF.svg\" width=\"200\">\n                    <p><span class=\"greenText\"><b>Successful harvest!</b></span><br>Your pay has increased by $0.02. Your bonus pay is now $0.78.</p>\n            ","response":0,"trial_type":"html-button-response","trial_index":78,"time_elapsed":1083062,"internal_node_id":"0.0-4.0-1.35","subject_id":"5f7e1a0d0fe2510c096b826e","study_id":"60edd13110225f80f9f3709b","session_id":"6196c701546bb2a802814ffe","condition":"contingent","relevant_dimensions":["antennae","legs"],"bee_group":{"antennae":"A","wings":"X","pattern":"X","legs":"M"},"bonus":1.6600000000000013},{"rt":630.3999999761581,"stimulus":"bees-with-color/bee-A2DF.svg","response":0,"trial_type":"image-button-response","trial_index":79,"time_elapsed":1083693,"internal_node_id":"0.0-4.0-0.36","subject_id":"5f7e1a0d0fe2510c096b826e","study_id":"60edd13110225f80f9f3709b","session_id":"6196c701546bb2a802814ffe","condition":"contingent","relevant_dimensions":["antennae","legs"],"bee_group":{"antennae":"A","wings":"X","pattern":"X","legs":"M"},"action":"harvest","summary":"good-harvest","bonus":1.6600000000000013},{"rt":342.9000000357628,"stimulus":"\n                    <p><b>Action: <em>harvest</em></b></p>\n                    <p>This is the bee that you just saw.</p>\n                    <img src=\"bees-with-color/bee-A2DF.svg\" width=\"200\">\n                    <p><span class=\"greenText\"><b>Successful harvest!</b></span><br>Your pay has increased by $0.02. Your bonus pay is now $0.80.</p>\n            ","response":0,"trial_type":"html-button-response","trial_index":80,"time_elapsed":1084036,"internal_node_id":"0.0-4.0-1.36","subject_id":"5f7e1a0d0fe2510c096b826e","study_id":"60edd13110225f80f9f3709b","session_id":"6196c701546bb2a802814ffe","condition":"contingent","relevant_dimensions":["antennae","legs"],"bee_group":{"antennae":"A","wings":"X","pattern":"X","legs":"M"},"bonus":1.6600000000000013},{"rt":560.4000000357628,"stimulus":"bees-with-color/bee-B2DF.svg","response":0,"trial_type":"image-button-response","trial_index":81,"time_elapsed":1084597,"internal_node_id":"0.0-4.0-0.37","subject_id":"5f7e1a0d0fe2510c096b826e","study_id":"60edd13110225f80f9f3709b","session_id":"6196c701546bb2a802814ffe","condition":"contingent","relevant_dimensions":["antennae","legs"],"bee_group":{"antennae":"A","wings":"X","pattern":"X","legs":"M"},"action":"harvest","summary":"good-harvest","bonus":1.6600000000000013},{"rt":341.69999998807907,"stimulus":"\n                    <p><b>Action: <em>harvest</em></b></p>\n                    <p>This is the bee that you just saw.</p>\n                    <img src=\"bees-with-color/bee-B2DF.svg\" width=\"200\">\n                    <p><span class=\"greenText\"><b>Successful harvest!</b></span><br>Your pay has increased by $0.02. Your bonus pay is now $0.82.</p>\n            ","response":0,"trial_type":"html-button-response","trial_index":82,"time_elapsed":1084940,"internal_node_id":"0.0-4.0-1.37","subject_id":"5f7e1a0d0fe2510c096b826e","study_id":"60edd13110225f80f9f3709b","session_id":"6196c701546bb2a802814ffe","condition":"contingent","relevant_dimensions":["antennae","legs"],"bee_group":{"antennae":"A","wings":"X","pattern":"X","legs":"M"},"bonus":1.6600000000000013},{"rt":1021.1000000238419,"stimulus":"bees-with-color/bee-B2SM.svg","response":0,"trial_type":"image-button-response","trial_index":83,"time_elapsed":1085962,"internal_node_id":"0.0-4.0-0.38","subject_id":"5f7e1a0d0fe2510c096b826e","study_id":"60edd13110225f80f9f3709b","session_id":"6196c701546bb2a802814ffe","condition":"contingent","relevant_dimensions":["antennae","legs"],"bee_group":{"antennae":"A","wings":"X","pattern":"X","legs":"M"},"action":"harvest","summary":"good-harvest","bonus":1.6600000000000013},{"rt":336.60000002384186,"stimulus":"\n                    <p><b>Action: <em>harvest</em></b></p>\n                    <p>This is the bee that you just saw.</p>\n                    <img src=\"bees-with-color/bee-B2SM.svg\" width=\"200\">\n                    <p><span class=\"greenText\"><b>Successful harvest!</b></span><br>Your pay has increased by $0.02. Your bonus pay is now $0.84.</p>\n            ","response":0,"trial_type":"html-button-response","trial_index":84,"time_elapsed":1086299,"internal_node_id":"0.0-4.0-1.38","subject_id":"5f7e1a0d0fe2510c096b826e","study_id":"60edd13110225f80f9f3709b","session_id":"6196c701546bb2a802814ffe","condition":"contingent","relevant_dimensions":["antennae","legs"],"bee_group":{"antennae":"A","wings":"X","pattern":"X","legs":"M"},"bonus":1.6600000000000013},{"rt":1233.699999988079,"stimulus":"bees-with-color/bee-A1DM.svg","response":1,"trial_type":"image-button-response","trial_index":85,"time_elapsed":1087533,"internal_node_id":"0.0-4.0-0.39","subject_id":"5f7e1a0d0fe2510c096b826e","study_id":"60edd13110225f80f9f3709b","session_id":"6196c701546bb2a802814ffe","condition":"contingent","relevant_dimensions":["antennae","legs"],"bee_group":{"antennae":"A","wings":"X","pattern":"X","legs":"M"},"action":"avoid","summary":"good-avoid","bonus":1.6600000000000013},{"rt":526.1000000238419,"stimulus":"\n                    <p><b>Action: <em>avoid</em></b></p>\n                    <p>This is the bee that you just saw.</p>\n                    <img src=\"bees-with-color/bee-A1DM.svg\" width=\"200\">\n                    <p><br>Your bonus pay is unchanged, and remains at $0.84.</p>\n            ","response":0,"trial_type":"html-button-response","trial_index":86,"time_elapsed":1088060,"internal_node_id":"0.0-4.0-1.39","subject_id":"5f7e1a0d0fe2510c096b826e","study_id":"60edd13110225f80f9f3709b","session_id":"6196c701546bb2a802814ffe","condition":"contingent","relevant_dimensions":["antennae","legs"],"bee_group":{"antennae":"A","wings":"X","pattern":"X","legs":"M"},"bonus":1.6600000000000013},{"rt":1283.4000000357628,"stimulus":"bees-with-color/bee-B1DM.svg","response":0,"trial_type":"image-button-response","trial_index":87,"time_elapsed":1089344,"internal_node_id":"0.0-4.0-0.40","subject_id":"5f7e1a0d0fe2510c096b826e","study_id":"60edd13110225f80f9f3709b","session_id":"6196c701546bb2a802814ffe","condition":"contingent","relevant_dimensions":["antennae","legs"],"bee_group":{"antennae":"A","wings":"X","pattern":"X","legs":"M"},"action":"harvest","summary":"good-harvest","bonus":1.6600000000000013},{"rt":629.6999999880791,"stimulus":"\n                    <p><b>Action: <em>harvest</em></b></p>\n                    <p>This is the bee that you just saw.</p>\n                    <img src=\"bees-with-color/bee-B1DM.svg\" width=\"200\">\n                    <p><span class=\"greenText\"><b>Successful harvest!</b></span><br>Your pay has increased by $0.02. Your bonus pay is now $0.86.</p>\n            ","response":0,"trial_type":"html-button-response","trial_index":88,"time_elapsed":1089975,"internal_node_id":"0.0-4.0-1.40","subject_id":"5f7e1a0d0fe2510c096b826e","study_id":"60edd13110225f80f9f3709b","session_id":"6196c701546bb2a802814ffe","condition":"contingent","relevant_dimensions":["antennae","legs"],"bee_group":{"antennae":"A","wings":"X","pattern":"X","legs":"M"},"bonus":1.6600000000000013},{"rt":901,"stimulus":"bees-with-color/bee-B2SF.svg","response":0,"trial_type":"image-button-response","trial_index":89,"time_elapsed":1090877,"internal_node_id":"0.0-4.0-0.41","subject_id":"5f7e1a0d0fe2510c096b826e","study_id":"60edd13110225f80f9f3709b","session_id":"6196c701546bb2a802814ffe","condition":"contingent","relevant_dimensions":["antennae","legs"],"bee_group":{"antennae":"A","wings":"X","pattern":"X","legs":"M"},"action":"harvest","summary":"good-harvest","bonus":1.6600000000000013},{"rt":410.80000001192093,"stimulus":"\n                    <p><b>Action: <em>harvest</em></b></p>\n                    <p>This is the bee that you just saw.</p>\n                    <img src=\"bees-with-color/bee-B2SF.svg\" width=\"200\">\n                    <p><span class=\"greenText\"><b>Successful harvest!</b></span><br>Your pay has increased by $0.02. Your bonus pay is now $0.88.</p>\n            ","response":0,"trial_type":"html-button-response","trial_index":90,"time_elapsed":1091288,"internal_node_id":"0.0-4.0-1.41","subject_id":"5f7e1a0d0fe2510c096b826e","study_id":"60edd13110225f80f9f3709b","session_id":"6196c701546bb2a802814ffe","condition":"contingent","relevant_dimensions":["antennae","legs"],"bee_group":{"antennae":"A","wings":"X","pattern":"X","legs":"M"},"bonus":1.6600000000000013},{"rt":1027.199999988079,"stimulus":"bees-with-color/bee-A2SM.svg","response":1,"trial_type":"image-button-response","trial_index":91,"time_elapsed":1092317,"internal_node_id":"0.0-4.0-0.42","subject_id":"5f7e1a0d0fe2510c096b826e","study_id":"60edd13110225f80f9f3709b","session_id":"6196c701546bb2a802814ffe","condition":"contingent","relevant_dimensions":["antennae","legs"],"bee_group":{"antennae":"A","wings":"X","pattern":"X","legs":"M"},"action":"avoid","summary":"good-avoid","bonus":1.6600000000000013},{"rt":493.30000001192093,"stimulus":"\n                    <p><b>Action: <em>avoid</em></b></p>\n                    <p>This is the bee that you just saw.</p>\n                    <img src=\"bees-with-color/bee-A2SM.svg\" width=\"200\">\n                    <p><br>Your bonus pay is unchanged, and remains at $0.88.</p>\n            ","response":0,"trial_type":"html-button-response","trial_index":92,"time_elapsed":1092811,"internal_node_id":"0.0-4.0-1.42","subject_id":"5f7e1a0d0fe2510c096b826e","study_id":"60edd13110225f80f9f3709b","session_id":"6196c701546bb2a802814ffe","condition":"contingent","relevant_dimensions":["antennae","legs"],"bee_group":{"antennae":"A","wings":"X","pattern":"X","legs":"M"},"bonus":1.6600000000000013},{"rt":614.3000000119209,"stimulus":"bees-with-color/bee-A1SF.svg","response":0,"trial_type":"image-button-response","trial_index":93,"time_elapsed":1093426,"internal_node_id":"0.0-4.0-0.43","subject_id":"5f7e1a0d0fe2510c096b826e","study_id":"60edd13110225f80f9f3709b","session_id":"6196c701546bb2a802814ffe","condition":"contingent","relevant_dimensions":["antennae","legs"],"bee_group":{"antennae":"A","wings":"X","pattern":"X","legs":"M"},"action":"harvest","summary":"good-harvest","bonus":1.6600000000000013},{"rt":416.9000000357628,"stimulus":"\n                    <p><b>Action: <em>harvest</em></b></p>\n                    <p>This is the bee that you just saw.</p>\n                    <img src=\"bees-with-color/bee-A1SF.svg\" width=\"200\">\n                    <p><span class=\"greenText\"><b>Successful harvest!</b></span><br>Your pay has increased by $0.02. Your bonus pay is now $0.90.</p>\n            ","response":0,"trial_type":"html-button-response","trial_index":94,"time_elapsed":1093844,"internal_node_id":"0.0-4.0-1.43","subject_id":"5f7e1a0d0fe2510c096b826e","study_id":"60edd13110225f80f9f3709b","session_id":"6196c701546bb2a802814ffe","condition":"contingent","relevant_dimensions":["antennae","legs"],"bee_group":{"antennae":"A","wings":"X","pattern":"X","legs":"M"},"bonus":1.6600000000000013},{"rt":814.0999999642372,"stimulus":"bees-with-color/bee-B1SF.svg","response":0,"trial_type":"image-button-response","trial_index":95,"time_elapsed":1094659,"internal_node_id":"0.0-4.0-0.44","subject_id":"5f7e1a0d0fe2510c096b826e","study_id":"60edd13110225f80f9f3709b","session_id":"6196c701546bb2a802814ffe","condition":"contingent","relevant_dimensions":["antennae","legs"],"bee_group":{"antennae":"A","wings":"X","pattern":"X","legs":"M"},"action":"harvest","summary":"good-harvest","bonus":1.6600000000000013},{"rt":363.10000002384186,"stimulus":"\n                    <p><b>Action: <em>harvest</em></b></p>\n                    <p>This is the bee that you just saw.</p>\n                    <img src=\"bees-with-color/bee-B1SF.svg\" width=\"200\">\n                    <p><span class=\"greenText\"><b>Successful harvest!</b></span><br>Your pay has increased by $0.02. Your bonus pay is now $0.92.</p>\n            ","response":0,"trial_type":"html-button-response","trial_index":96,"time_elapsed":1095022,"internal_node_id":"0.0-4.0-1.44","subject_id":"5f7e1a0d0fe2510c096b826e","study_id":"60edd13110225f80f9f3709b","session_id":"6196c701546bb2a802814ffe","condition":"contingent","relevant_dimensions":["antennae","legs"],"bee_group":{"antennae":"A","wings":"X","pattern":"X","legs":"M"},"bonus":1.6600000000000013},{"rt":927.5,"stimulus":"bees-with-color/bee-A1DF.svg","response":0,"trial_type":"image-button-response","trial_index":97,"time_elapsed":1095951,"internal_node_id":"0.0-4.0-0.45","subject_id":"5f7e1a0d0fe2510c096b826e","study_id":"60edd13110225f80f9f3709b","session_id":"6196c701546bb2a802814ffe","condition":"contingent","relevant_dimensions":["antennae","legs"],"bee_group":{"antennae":"A","wings":"X","pattern":"X","legs":"M"},"action":"harvest","summary":"good-harvest","bonus":1.6600000000000013},{"rt":335.9000000357628,"stimulus":"\n                    <p><b>Action: <em>harvest</em></b></p>\n                    <p>This is the bee that you just saw.</p>\n                    <img src=\"bees-with-color/bee-A1DF.svg\" width=\"200\">\n                    <p><span class=\"greenText\"><b>Successful harvest!</b></span><br>Your pay has increased by $0.02. Your bonus pay is now $0.94.</p>\n            ","response":0,"trial_type":"html-button-response","trial_index":98,"time_elapsed":1096287,"internal_node_id":"0.0-4.0-1.45","subject_id":"5f7e1a0d0fe2510c096b826e","study_id":"60edd13110225f80f9f3709b","session_id":"6196c701546bb2a802814ffe","condition":"contingent","relevant_dimensions":["antennae","legs"],"bee_group":{"antennae":"A","wings":"X","pattern":"X","legs":"M"},"bonus":1.6600000000000013},{"rt":853.9000000357628,"stimulus":"bees-with-color/bee-B2DM.svg","response":0,"trial_type":"image-button-response","trial_index":99,"time_elapsed":1097142,"internal_node_id":"0.0-4.0-0.46","subject_id":"5f7e1a0d0fe2510c096b826e","study_id":"60edd13110225f80f9f3709b","session_id":"6196c701546bb2a802814ffe","condition":"contingent","relevant_dimensions":["antennae","legs"],"bee_group":{"antennae":"A","wings":"X","pattern":"X","legs":"M"},"action":"harvest","summary":"good-harvest","bonus":1.6600000000000013},{"rt":340.60000002384186,"stimulus":"\n                    <p><b>Action: <em>harvest</em></b></p>\n                    <p>This is the bee that you just saw.</p>\n                    <img src=\"bees-with-color/bee-B2DM.svg\" width=\"200\">\n                    <p><span class=\"greenText\"><b>Successful harvest!</b></span><br>Your pay has increased by $0.02. Your bonus pay is now $0.96.</p>\n            ","response":0,"trial_type":"html-button-response","trial_index":100,"time_elapsed":1097483,"internal_node_id":"0.0-4.0-1.46","subject_id":"5f7e1a0d0fe2510c096b826e","study_id":"60edd13110225f80f9f3709b","session_id":"6196c701546bb2a802814ffe","condition":"contingent","relevant_dimensions":["antennae","legs"],"bee_group":{"antennae":"A","wings":"X","pattern":"X","legs":"M"},"bonus":1.6600000000000013},{"rt":822.5,"stimulus":"bees-with-color/bee-A2DM.svg","response":1,"trial_type":"image-button-response","trial_index":101,"time_elapsed":1098307,"internal_node_id":"0.0-4.0-0.47","subject_id":"5f7e1a0d0fe2510c096b826e","study_id":"60edd13110225f80f9f3709b","session_id":"6196c701546bb2a802814ffe","condition":"contingent","relevant_dimensions":["antennae","legs"],"bee_group":{"antennae":"A","wings":"X","pattern":"X","legs":"M"},"action":"avoid","summary":"good-avoid","bonus":1.6600000000000013},{"rt":426.19999998807907,"stimulus":"\n                    <p><b>Action: <em>avoid</em></b></p>\n                    <p>This is the bee that you just saw.</p>\n                    <img src=\"bees-with-color/bee-A2DM.svg\" width=\"200\">\n                    <p><br>Your bonus pay is unchanged, and remains at $0.96.</p>\n            ","response":0,"trial_type":"html-button-response","trial_index":102,"time_elapsed":1098734,"internal_node_id":"0.0-4.0-1.47","subject_id":"5f7e1a0d0fe2510c096b826e","study_id":"60edd13110225f80f9f3709b","session_id":"6196c701546bb2a802814ffe","condition":"contingent","relevant_dimensions":["antennae","legs"],"bee_group":{"antennae":"A","wings":"X","pattern":"X","legs":"M"},"bonus":1.6600000000000013},{"rt":700,"stimulus":"bees-with-color/bee-B2DF.svg","response":0,"trial_type":"image-button-response","trial_index":103,"time_elapsed":1099434,"internal_node_id":"0.0-4.0-0.48","subject_id":"5f7e1a0d0fe2510c096b826e","study_id":"60edd13110225f80f9f3709b","session_id":"6196c701546bb2a802814ffe","condition":"contingent","relevant_dimensions":["antennae","legs"],"bee_group":{"antennae":"A","wings":"X","pattern":"X","legs":"M"},"action":"harvest","summary":"good-harvest","bonus":1.6600000000000013},{"rt":337.39999997615814,"stimulus":"\n                    <p><b>Action: <em>harvest</em></b></p>\n                    <p>This is the bee that you just saw.</p>\n                    <img src=\"bees-with-color/bee-B2DF.svg\" width=\"200\">\n                    <p><span class=\"greenText\"><b>Successful harvest!</b></span><br>Your pay has increased by $0.02. Your bonus pay is now $0.98.</p>\n            ","response":0,"trial_type":"html-button-response","trial_index":104,"time_elapsed":1099772,"internal_node_id":"0.0-4.0-1.48","subject_id":"5f7e1a0d0fe2510c096b826e","study_id":"60edd13110225f80f9f3709b","session_id":"6196c701546bb2a802814ffe","condition":"contingent","relevant_dimensions":["antennae","legs"],"bee_group":{"antennae":"A","wings":"X","pattern":"X","legs":"M"},"bonus":1.6600000000000013},{"rt":1523.300000011921,"stimulus":"bees-with-color/bee-A1DM.svg","response":1,"trial_type":"image-button-response","trial_index":105,"time_elapsed":1101297,"internal_node_id":"0.0-4.0-0.49","subject_id":"5f7e1a0d0fe2510c096b826e","study_id":"60edd13110225f80f9f3709b","session_id":"6196c701546bb2a802814ffe","condition":"contingent","relevant_dimensions":["antennae","legs"],"bee_group":{"antennae":"A","wings":"X","pattern":"X","legs":"M"},"action":"avoid","summary":"good-avoid","bonus":1.6600000000000013},{"rt":466.10000002384186,"stimulus":"\n                    <p><b>Action: <em>avoid</em></b></p>\n                    <p>This is the bee that you just saw.</p>\n                    <img src=\"bees-with-color/bee-A1DM.svg\" width=\"200\">\n                    <p><br>Your bonus pay is unchanged, and remains at $0.98.</p>\n            ","response":0,"trial_type":"html-button-response","trial_index":106,"time_elapsed":1101763,"internal_node_id":"0.0-4.0-1.49","subject_id":"5f7e1a0d0fe2510c096b826e","study_id":"60edd13110225f80f9f3709b","session_id":"6196c701546bb2a802814ffe","condition":"contingent","relevant_dimensions":["antennae","legs"],"bee_group":{"antennae":"A","wings":"X","pattern":"X","legs":"M"},"bonus":1.6600000000000013},{"rt":665.1999999880791,"stimulus":"bees-with-color/bee-A1DF.svg","response":0,"trial_type":"image-button-response","trial_index":107,"time_elapsed":1102429,"internal_node_id":"0.0-4.0-0.50","subject_id":"5f7e1a0d0fe2510c096b826e","study_id":"60edd13110225f80f9f3709b","session_id":"6196c701546bb2a802814ffe","condition":"contingent","relevant_dimensions":["antennae","legs"],"bee_group":{"antennae":"A","wings":"X","pattern":"X","legs":"M"},"action":"harvest","summary":"good-harvest","bonus":1.6600000000000013},{"rt":404.39999997615814,"stimulus":"\n                    <p><b>Action: <em>harvest</em></b></p>\n                    <p>This is the bee that you just saw.</p>\n                    <img src=\"bees-with-color/bee-A1DF.svg\" width=\"200\">\n                    <p><span class=\"greenText\"><b>Successful harvest!</b></span><br>Your pay has increased by $0.02. Your bonus pay is now $1.00.</p>\n            ","response":0,"trial_type":"html-button-response","trial_index":108,"time_elapsed":1102835,"internal_node_id":"0.0-4.0-1.50","subject_id":"5f7e1a0d0fe2510c096b826e","study_id":"60edd13110225f80f9f3709b","session_id":"6196c701546bb2a802814ffe","condition":"contingent","relevant_dimensions":["antennae","legs"],"bee_group":{"antennae":"A","wings":"X","pattern":"X","legs":"M"},"bonus":1.6600000000000013},{"rt":378.10000002384186,"stimulus":"bees-with-color/bee-A1SF.svg","response":0,"trial_type":"image-button-response","trial_index":109,"time_elapsed":1103213,"internal_node_id":"0.0-4.0-0.51","subject_id":"5f7e1a0d0fe2510c096b826e","study_id":"60edd13110225f80f9f3709b","session_id":"6196c701546bb2a802814ffe","condition":"contingent","relevant_dimensions":["antennae","legs"],"bee_group":{"antennae":"A","wings":"X","pattern":"X","legs":"M"},"action":"harvest","summary":"good-harvest","bonus":1.6600000000000013},{"rt":634.3000000119209,"stimulus":"\n                    <p><b>Action: <em>harvest</em></b></p>\n                    <p>This is the bee that you just saw.</p>\n                    <img src=\"bees-with-color/bee-A1SF.svg\" width=\"200\">\n                    <p><span class=\"greenText\"><b>Successful harvest!</b></span><br>Your pay has increased by $0.02. Your bonus pay is now $1.02.</p>\n            ","response":0,"trial_type":"html-button-response","trial_index":110,"time_elapsed":1103849,"internal_node_id":"0.0-4.0-1.51","subject_id":"5f7e1a0d0fe2510c096b826e","study_id":"60edd13110225f80f9f3709b","session_id":"6196c701546bb2a802814ffe","condition":"contingent","relevant_dimensions":["antennae","legs"],"bee_group":{"antennae":"A","wings":"X","pattern":"X","legs":"M"},"bonus":1.6600000000000013},{"rt":1154.8999999761581,"stimulus":"bees-with-color/bee-A2SM.svg","response":1,"trial_type":"image-button-response","trial_index":111,"time_elapsed":1105004,"internal_node_id":"0.0-4.0-0.52","subject_id":"5f7e1a0d0fe2510c096b826e","study_id":"60edd13110225f80f9f3709b","session_id":"6196c701546bb2a802814ffe","condition":"contingent","relevant_dimensions":["antennae","legs"],"bee_group":{"antennae":"A","wings":"X","pattern":"X","legs":"M"},"action":"avoid","summary":"good-avoid","bonus":1.6600000000000013},{"rt":433.2999999523163,"stimulus":"\n                    <p><b>Action: <em>avoid</em></b></p>\n                    <p>This is the bee that you just saw.</p>\n                    <img src=\"bees-with-color/bee-A2SM.svg\" width=\"200\">\n                    <p><br>Your bonus pay is unchanged, and remains at $1.02.</p>\n            ","response":0,"trial_type":"html-button-response","trial_index":112,"time_elapsed":1105438,"internal_node_id":"0.0-4.0-1.52","subject_id":"5f7e1a0d0fe2510c096b826e","study_id":"60edd13110225f80f9f3709b","session_id":"6196c701546bb2a802814ffe","condition":"contingent","relevant_dimensions":["antennae","legs"],"bee_group":{"antennae":"A","wings":"X","pattern":"X","legs":"M"},"bonus":1.6600000000000013},{"rt":722.3999999761581,"stimulus":"bees-with-color/bee-B1DM.svg","response":0,"trial_type":"image-button-response","trial_index":113,"time_elapsed":1106162,"internal_node_id":"0.0-4.0-0.53","subject_id":"5f7e1a0d0fe2510c096b826e","study_id":"60edd13110225f80f9f3709b","session_id":"6196c701546bb2a802814ffe","condition":"contingent","relevant_dimensions":["antennae","legs"],"bee_group":{"antennae":"A","wings":"X","pattern":"X","legs":"M"},"action":"harvest","summary":"good-harvest","bonus":1.6600000000000013},{"rt":384,"stimulus":"\n                    <p><b>Action: <em>harvest</em></b></p>\n                    <p>This is the bee that you just saw.</p>\n                    <img src=\"bees-with-color/bee-B1DM.svg\" width=\"200\">\n                    <p><span class=\"greenText\"><b>Successful harvest!</b></span><br>Your pay has increased by $0.02. Your bonus pay is now $1.04.</p>\n            ","response":0,"trial_type":"html-button-response","trial_index":114,"time_elapsed":1106546,"internal_node_id":"0.0-4.0-1.53","subject_id":"5f7e1a0d0fe2510c096b826e","study_id":"60edd13110225f80f9f3709b","session_id":"6196c701546bb2a802814ffe","condition":"contingent","relevant_dimensions":["antennae","legs"],"bee_group":{"antennae":"A","wings":"X","pattern":"X","legs":"M"},"bonus":1.6600000000000013},{"rt":696.1999999880791,"stimulus":"bees-with-color/bee-B2DM.svg","response":0,"trial_type":"image-button-response","trial_index":115,"time_elapsed":1107243,"internal_node_id":"0.0-4.0-0.54","subject_id":"5f7e1a0d0fe2510c096b826e","study_id":"60edd13110225f80f9f3709b","session_id":"6196c701546bb2a802814ffe","condition":"contingent","relevant_dimensions":["antennae","legs"],"bee_group":{"antennae":"A","wings":"X","pattern":"X","legs":"M"},"action":"harvest","summary":"good-harvest","bonus":1.6600000000000013},{"rt":331.39999997615814,"stimulus":"\n                    <p><b>Action: <em>harvest</em></b></p>\n                    <p>This is the bee that you just saw.</p>\n                    <img src=\"bees-with-color/bee-B2DM.svg\" width=\"200\">\n                    <p><span class=\"greenText\"><b>Successful harvest!</b></span><br>Your pay has increased by $0.02. Your bonus pay is now $1.06.</p>\n            ","response":0,"trial_type":"html-button-response","trial_index":116,"time_elapsed":1107576,"internal_node_id":"0.0-4.0-1.54","subject_id":"5f7e1a0d0fe2510c096b826e","study_id":"60edd13110225f80f9f3709b","session_id":"6196c701546bb2a802814ffe","condition":"contingent","relevant_dimensions":["antennae","legs"],"bee_group":{"antennae":"A","wings":"X","pattern":"X","legs":"M"},"bonus":1.6600000000000013},{"rt":555,"stimulus":"bees-with-color/bee-B1SM.svg","response":0,"trial_type":"image-button-response","trial_index":117,"time_elapsed":1108131,"internal_node_id":"0.0-4.0-0.55","subject_id":"5f7e1a0d0fe2510c096b826e","study_id":"60edd13110225f80f9f3709b","session_id":"6196c701546bb2a802814ffe","condition":"contingent","relevant_dimensions":["antennae","legs"],"bee_group":{"antennae":"A","wings":"X","pattern":"X","legs":"M"},"action":"harvest","summary":"good-harvest","bonus":1.6600000000000013},{"rt":642.1999999880791,"stimulus":"\n                    <p><b>Action: <em>harvest</em></b></p>\n                    <p>This is the bee that you just saw.</p>\n                    <img src=\"bees-with-color/bee-B1SM.svg\" width=\"200\">\n                    <p><span class=\"greenText\"><b>Successful harvest!</b></span><br>Your pay has increased by $0.02. Your bonus pay is now $1.08.</p>\n            ","response":0,"trial_type":"html-button-response","trial_index":118,"time_elapsed":1108774,"internal_node_id":"0.0-4.0-1.55","subject_id":"5f7e1a0d0fe2510c096b826e","study_id":"60edd13110225f80f9f3709b","session_id":"6196c701546bb2a802814ffe","condition":"contingent","relevant_dimensions":["antennae","legs"],"bee_group":{"antennae":"A","wings":"X","pattern":"X","legs":"M"},"bonus":1.6600000000000013},{"rt":1263.5,"stimulus":"bees-with-color/bee-A2DM.svg","response":1,"trial_type":"image-button-response","trial_index":119,"time_elapsed":1110039,"internal_node_id":"0.0-4.0-0.56","subject_id":"5f7e1a0d0fe2510c096b826e","study_id":"60edd13110225f80f9f3709b","session_id":"6196c701546bb2a802814ffe","condition":"contingent","relevant_dimensions":["antennae","legs"],"bee_group":{"antennae":"A","wings":"X","pattern":"X","legs":"M"},"action":"avoid","summary":"good-avoid","bonus":1.6600000000000013},{"rt":496.7999999523163,"stimulus":"\n                    <p><b>Action: <em>avoid</em></b></p>\n                    <p>This is the bee that you just saw.</p>\n                    <img src=\"bees-with-color/bee-A2DM.svg\" width=\"200\">\n                    <p><br>Your bonus pay is unchanged, and remains at $1.08.</p>\n            ","response":0,"trial_type":"html-button-response","trial_index":120,"time_elapsed":1110536,"internal_node_id":"0.0-4.0-1.56","subject_id":"5f7e1a0d0fe2510c096b826e","study_id":"60edd13110225f80f9f3709b","session_id":"6196c701546bb2a802814ffe","condition":"contingent","relevant_dimensions":["antennae","legs"],"bee_group":{"antennae":"A","wings":"X","pattern":"X","legs":"M"},"bonus":1.6600000000000013},{"rt":863.6000000238419,"stimulus":"bees-with-color/bee-B1SF.svg","response":0,"trial_type":"image-button-response","trial_index":121,"time_elapsed":1111400,"internal_node_id":"0.0-4.0-0.57","subject_id":"5f7e1a0d0fe2510c096b826e","study_id":"60edd13110225f80f9f3709b","session_id":"6196c701546bb2a802814ffe","condition":"contingent","relevant_dimensions":["antennae","legs"],"bee_group":{"antennae":"A","wings":"X","pattern":"X","legs":"M"},"action":"harvest","summary":"good-harvest","bonus":1.6600000000000013},{"rt":728.3000000119209,"stimulus":"\n                    <p><b>Action: <em>harvest</em></b></p>\n                    <p>This is the bee that you just saw.</p>\n                    <img src=\"bees-with-color/bee-B1SF.svg\" width=\"200\">\n                    <p><span class=\"greenText\"><b>Successful harvest!</b></span><br>Your pay has increased by $0.02. Your bonus pay is now $1.10.</p>\n            ","response":0,"trial_type":"html-button-response","trial_index":122,"time_elapsed":1112129,"internal_node_id":"0.0-4.0-1.57","subject_id":"5f7e1a0d0fe2510c096b826e","study_id":"60edd13110225f80f9f3709b","session_id":"6196c701546bb2a802814ffe","condition":"contingent","relevant_dimensions":["antennae","legs"],"bee_group":{"antennae":"A","wings":"X","pattern":"X","legs":"M"},"bonus":1.6600000000000013},{"rt":717.3000000119209,"stimulus":"bees-with-color/bee-B2SF.svg","response":0,"trial_type":"image-button-response","trial_index":123,"time_elapsed":1112847,"internal_node_id":"0.0-4.0-0.58","subject_id":"5f7e1a0d0fe2510c096b826e","study_id":"60edd13110225f80f9f3709b","session_id":"6196c701546bb2a802814ffe","condition":"contingent","relevant_dimensions":["antennae","legs"],"bee_group":{"antennae":"A","wings":"X","pattern":"X","legs":"M"},"action":"harvest","summary":"good-harvest","bonus":1.6600000000000013},{"rt":287.0999999642372,"stimulus":"\n                    <p><b>Action: <em>harvest</em></b></p>\n                    <p>This is the bee that you just saw.</p>\n                    <img src=\"bees-with-color/bee-B2SF.svg\" width=\"200\">\n                    <p><span class=\"greenText\"><b>Successful harvest!</b></span><br>Your pay has increased by $0.02. Your bonus pay is now $1.12.</p>\n            ","response":0,"trial_type":"html-button-response","trial_index":124,"time_elapsed":1113135,"internal_node_id":"0.0-4.0-1.58","subject_id":"5f7e1a0d0fe2510c096b826e","study_id":"60edd13110225f80f9f3709b","session_id":"6196c701546bb2a802814ffe","condition":"contingent","relevant_dimensions":["antennae","legs"],"bee_group":{"antennae":"A","wings":"X","pattern":"X","legs":"M"},"bonus":1.6600000000000013},{"rt":573.8999999761581,"stimulus":"bees-with-color/bee-B1DF.svg","response":0,"trial_type":"image-button-response","trial_index":125,"time_elapsed":1113710,"internal_node_id":"0.0-4.0-0.59","subject_id":"5f7e1a0d0fe2510c096b826e","study_id":"60edd13110225f80f9f3709b","session_id":"6196c701546bb2a802814ffe","condition":"contingent","relevant_dimensions":["antennae","legs"],"bee_group":{"antennae":"A","wings":"X","pattern":"X","legs":"M"},"action":"harvest","summary":"good-harvest","bonus":1.6600000000000013},{"rt":295.39999997615814,"stimulus":"\n                    <p><b>Action: <em>harvest</em></b></p>\n                    <p>This is the bee that you just saw.</p>\n                    <img src=\"bees-with-color/bee-B1DF.svg\" width=\"200\">\n                    <p><span class=\"greenText\"><b>Successful harvest!</b></span><br>Your pay has increased by $0.02. Your bonus pay is now $1.14.</p>\n            ","response":0,"trial_type":"html-button-response","trial_index":126,"time_elapsed":1114006,"internal_node_id":"0.0-4.0-1.59","subject_id":"5f7e1a0d0fe2510c096b826e","study_id":"60edd13110225f80f9f3709b","session_id":"6196c701546bb2a802814ffe","condition":"contingent","relevant_dimensions":["antennae","legs"],"bee_group":{"antennae":"A","wings":"X","pattern":"X","legs":"M"},"bonus":1.6600000000000013},{"rt":857.0999999642372,"stimulus":"bees-with-color/bee-B2SM.svg","response":0,"trial_type":"image-button-response","trial_index":127,"time_elapsed":1114865,"internal_node_id":"0.0-4.0-0.60","subject_id":"5f7e1a0d0fe2510c096b826e","study_id":"60edd13110225f80f9f3709b","session_id":"6196c701546bb2a802814ffe","condition":"contingent","relevant_dimensions":["antennae","legs"],"bee_group":{"antennae":"A","wings":"X","pattern":"X","legs":"M"},"action":"harvest","summary":"good-harvest","bonus":1.6600000000000013},{"rt":594.1999999880791,"stimulus":"\n                    <p><b>Action: <em>harvest</em></b></p>\n                    <p>This is the bee that you just saw.</p>\n                    <img src=\"bees-with-color/bee-B2SM.svg\" width=\"200\">\n                    <p><span class=\"greenText\"><b>Successful harvest!</b></span><br>Your pay has increased by $0.02. Your bonus pay is now $1.16.</p>\n            ","response":0,"trial_type":"html-button-response","trial_index":128,"time_elapsed":1115460,"internal_node_id":"0.0-4.0-1.60","subject_id":"5f7e1a0d0fe2510c096b826e","study_id":"60edd13110225f80f9f3709b","session_id":"6196c701546bb2a802814ffe","condition":"contingent","relevant_dimensions":["antennae","legs"],"bee_group":{"antennae":"A","wings":"X","pattern":"X","legs":"M"},"bonus":1.6600000000000013},{"rt":1387.3999999761581,"stimulus":"bees-with-color/bee-A1SM.svg","response":1,"trial_type":"image-button-response","trial_index":129,"time_elapsed":1116848,"internal_node_id":"0.0-4.0-0.61","subject_id":"5f7e1a0d0fe2510c096b826e","study_id":"60edd13110225f80f9f3709b","session_id":"6196c701546bb2a802814ffe","condition":"contingent","relevant_dimensions":["antennae","legs"],"bee_group":{"antennae":"A","wings":"X","pattern":"X","legs":"M"},"action":"avoid","summary":"good-avoid","bonus":1.6600000000000013},{"rt":415.19999998807907,"stimulus":"\n                    <p><b>Action: <em>avoid</em></b></p>\n                    <p>This is the bee that you just saw.</p>\n                    <img src=\"bees-with-color/bee-A1SM.svg\" width=\"200\">\n                    <p><br>Your bonus pay is unchanged, and remains at $1.16.</p>\n            ","response":0,"trial_type":"html-button-response","trial_index":130,"time_elapsed":1117264,"internal_node_id":"0.0-4.0-1.61","subject_id":"5f7e1a0d0fe2510c096b826e","study_id":"60edd13110225f80f9f3709b","session_id":"6196c701546bb2a802814ffe","condition":"contingent","relevant_dimensions":["antennae","legs"],"bee_group":{"antennae":"A","wings":"X","pattern":"X","legs":"M"},"bonus":1.6600000000000013},{"rt":1340,"stimulus":"bees-with-color/bee-A2SF.svg","response":0,"trial_type":"image-button-response","trial_index":131,"time_elapsed":1118605,"internal_node_id":"0.0-4.0-0.62","subject_id":"5f7e1a0d0fe2510c096b826e","study_id":"60edd13110225f80f9f3709b","session_id":"6196c701546bb2a802814ffe","condition":"contingent","relevant_dimensions":["antennae","legs"],"bee_group":{"antennae":"A","wings":"X","pattern":"X","legs":"M"},"action":"harvest","summary":"good-harvest","bonus":1.6600000000000013},{"rt":565.4000000357628,"stimulus":"\n                    <p><b>Action: <em>harvest</em></b></p>\n                    <p>This is the bee that you just saw.</p>\n                    <img src=\"bees-with-color/bee-A2SF.svg\" width=\"200\">\n                    <p><span class=\"greenText\"><b>Successful harvest!</b></span><br>Your pay has increased by $0.02. Your bonus pay is now $1.18.</p>\n            ","response":0,"trial_type":"html-button-response","trial_index":132,"time_elapsed":1119171,"internal_node_id":"0.0-4.0-1.62","subject_id":"5f7e1a0d0fe2510c096b826e","study_id":"60edd13110225f80f9f3709b","session_id":"6196c701546bb2a802814ffe","condition":"contingent","relevant_dimensions":["antennae","legs"],"bee_group":{"antennae":"A","wings":"X","pattern":"X","legs":"M"},"bonus":1.6600000000000013},{"rt":1420.7000000476837,"stimulus":"bees-with-color/bee-A2DF.svg","response":0,"trial_type":"image-button-response","trial_index":133,"time_elapsed":1120592,"internal_node_id":"0.0-4.0-0.63","subject_id":"5f7e1a0d0fe2510c096b826e","study_id":"60edd13110225f80f9f3709b","session_id":"6196c701546bb2a802814ffe","condition":"contingent","relevant_dimensions":["antennae","legs"],"bee_group":{"antennae":"A","wings":"X","pattern":"X","legs":"M"},"action":"harvest","summary":"good-harvest","bonus":1.6600000000000013},{"rt":406.19999998807907,"stimulus":"\n                    <p><b>Action: <em>harvest</em></b></p>\n                    <p>This is the bee that you just saw.</p>\n                    <img src=\"bees-with-color/bee-A2DF.svg\" width=\"200\">\n                    <p><span class=\"greenText\"><b>Successful harvest!</b></span><br>Your pay has increased by $0.02. Your bonus pay is now $1.20.</p>\n            ","response":0,"trial_type":"html-button-response","trial_index":134,"time_elapsed":1120999,"internal_node_id":"0.0-4.0-1.63","subject_id":"5f7e1a0d0fe2510c096b826e","study_id":"60edd13110225f80f9f3709b","session_id":"6196c701546bb2a802814ffe","condition":"contingent","relevant_dimensions":["antennae","legs"],"bee_group":{"antennae":"A","wings":"X","pattern":"X","legs":"M"},"bonus":1.6600000000000013},{"rt":6382.099999964237,"stimulus":"You have completed the first part of this experiment.<br><br>You will now begin a shorter second part, in which you will receive no feedback.<br>The same rules regarding bonus pay apply.<br><br>Press any key to begin.","response":"a","trial_type":"html-keyboard-response","trial_index":135,"time_elapsed":1127382,"internal_node_id":"0.0-5.0","subject_id":"5f7e1a0d0fe2510c096b826e","study_id":"60edd13110225f80f9f3709b","session_id":"6196c701546bb2a802814ffe","condition":"contingent","relevant_dimensions":["antennae","legs"],"bee_group":{"antennae":"A","wings":"X","pattern":"X","legs":"M"},"bonus":1.6600000000000013},{"rt":1023.5,"stimulus":"bees-with-color/bee-B1DF.svg","response":0,"trial_type":"image-button-response","trial_index":136,"time_elapsed":1128411,"internal_node_id":"0.0-6.0-0.0","subject_id":"5f7e1a0d0fe2510c096b826e","study_id":"60edd13110225f80f9f3709b","session_id":"6196c701546bb2a802814ffe","condition":"contingent","relevant_dimensions":["antennae","legs"],"bee_group":{"antennae":"A","wings":"X","pattern":"X","legs":"M"},"bonus":1.6600000000000013},{"rt":2134.399999976158,"stimulus":"bees-with-color/bee-A2DF.svg","response":0,"trial_type":"image-button-response","trial_index":137,"time_elapsed":1130547,"internal_node_id":"0.0-6.0-0.1","subject_id":"5f7e1a0d0fe2510c096b826e","study_id":"60edd13110225f80f9f3709b","session_id":"6196c701546bb2a802814ffe","condition":"contingent","relevant_dimensions":["antennae","legs"],"bee_group":{"antennae":"A","wings":"X","pattern":"X","legs":"M"},"bonus":1.6600000000000013},{"rt":787.7999999523163,"stimulus":"bees-with-color/bee-B1SF.svg","response":0,"trial_type":"image-button-response","trial_index":138,"time_elapsed":1131336,"internal_node_id":"0.0-6.0-0.2","subject_id":"5f7e1a0d0fe2510c096b826e","study_id":"60edd13110225f80f9f3709b","session_id":"6196c701546bb2a802814ffe","condition":"contingent","relevant_dimensions":["antennae","legs"],"bee_group":{"antennae":"A","wings":"X","pattern":"X","legs":"M"},"bonus":1.6600000000000013},{"rt":1058,"stimulus":"bees-with-color/bee-A1DM.svg","response":1,"trial_type":"image-button-response","trial_index":139,"time_elapsed":1132395,"internal_node_id":"0.0-6.0-0.3","subject_id":"5f7e1a0d0fe2510c096b826e","study_id":"60edd13110225f80f9f3709b","session_id":"6196c701546bb2a802814ffe","condition":"contingent","relevant_dimensions":["antennae","legs"],"bee_group":{"antennae":"A","wings":"X","pattern":"X","legs":"M"},"bonus":1.6600000000000013},{"rt":923.8000000119209,"stimulus":"bees-with-color/bee-A2SM.svg","response":1,"trial_type":"image-button-response","trial_index":140,"time_elapsed":1133320,"internal_node_id":"0.0-6.0-0.4","subject_id":"5f7e1a0d0fe2510c096b826e","study_id":"60edd13110225f80f9f3709b","session_id":"6196c701546bb2a802814ffe","condition":"contingent","relevant_dimensions":["antennae","legs"],"bee_group":{"antennae":"A","wings":"X","pattern":"X","legs":"M"},"bonus":1.6600000000000013},{"rt":666.6999999880791,"stimulus":"bees-with-color/bee-B2SF.svg","response":0,"trial_type":"image-button-response","trial_index":141,"time_elapsed":1133988,"internal_node_id":"0.0-6.0-0.5","subject_id":"5f7e1a0d0fe2510c096b826e","study_id":"60edd13110225f80f9f3709b","session_id":"6196c701546bb2a802814ffe","condition":"contingent","relevant_dimensions":["antennae","legs"],"bee_group":{"antennae":"A","wings":"X","pattern":"X","legs":"M"},"bonus":1.6600000000000013},{"rt":1379.6000000238419,"stimulus":"bees-with-color/bee-B2DM.svg","response":0,"trial_type":"image-button-response","trial_index":142,"time_elapsed":1135369,"internal_node_id":"0.0-6.0-0.6","subject_id":"5f7e1a0d0fe2510c096b826e","study_id":"60edd13110225f80f9f3709b","session_id":"6196c701546bb2a802814ffe","condition":"contingent","relevant_dimensions":["antennae","legs"],"bee_group":{"antennae":"A","wings":"X","pattern":"X","legs":"M"},"bonus":1.6600000000000013},{"rt":812.8999999761581,"stimulus":"bees-with-color/bee-B1DM.svg","response":0,"trial_type":"image-button-response","trial_index":143,"time_elapsed":1136183,"internal_node_id":"0.0-6.0-0.7","subject_id":"5f7e1a0d0fe2510c096b826e","study_id":"60edd13110225f80f9f3709b","session_id":"6196c701546bb2a802814ffe","condition":"contingent","relevant_dimensions":["antennae","legs"],"bee_group":{"antennae":"A","wings":"X","pattern":"X","legs":"M"},"bonus":1.6600000000000013},{"rt":1054.7999999523163,"stimulus":"bees-with-color/bee-A2DM.svg","response":1,"trial_type":"image-button-response","trial_index":144,"time_elapsed":1137239,"internal_node_id":"0.0-6.0-0.8","subject_id":"5f7e1a0d0fe2510c096b826e","study_id":"60edd13110225f80f9f3709b","session_id":"6196c701546bb2a802814ffe","condition":"contingent","relevant_dimensions":["antennae","legs"],"bee_group":{"antennae":"A","wings":"X","pattern":"X","legs":"M"},"bonus":1.6600000000000013},{"rt":994.8999999761581,"stimulus":"bees-with-color/bee-A1DF.svg","response":0,"trial_type":"image-button-response","trial_index":145,"time_elapsed":1138235,"internal_node_id":"0.0-6.0-0.9","subject_id":"5f7e1a0d0fe2510c096b826e","study_id":"60edd13110225f80f9f3709b","session_id":"6196c701546bb2a802814ffe","condition":"contingent","relevant_dimensions":["antennae","legs"],"bee_group":{"antennae":"A","wings":"X","pattern":"X","legs":"M"},"bonus":1.6600000000000013},{"rt":656.8000000119209,"stimulus":"bees-with-color/bee-A1SF.svg","response":0,"trial_type":"image-button-response","trial_index":146,"time_elapsed":1138893,"internal_node_id":"0.0-6.0-0.10","subject_id":"5f7e1a0d0fe2510c096b826e","study_id":"60edd13110225f80f9f3709b","session_id":"6196c701546bb2a802814ffe","condition":"contingent","relevant_dimensions":["antennae","legs"],"bee_group":{"antennae":"A","wings":"X","pattern":"X","legs":"M"},"bonus":1.6600000000000013},{"rt":701.1000000238419,"stimulus":"bees-with-color/bee-B2DF.svg","response":0,"trial_type":"image-button-response","trial_index":147,"time_elapsed":1139595,"internal_node_id":"0.0-6.0-0.11","subject_id":"5f7e1a0d0fe2510c096b826e","study_id":"60edd13110225f80f9f3709b","session_id":"6196c701546bb2a802814ffe","condition":"contingent","relevant_dimensions":["antennae","legs"],"bee_group":{"antennae":"A","wings":"X","pattern":"X","legs":"M"},"bonus":1.6600000000000013},{"rt":934.8999999761581,"stimulus":"bees-with-color/bee-A1SM.svg","response":1,"trial_type":"image-button-response","trial_index":148,"time_elapsed":1140531,"internal_node_id":"0.0-6.0-0.12","subject_id":"5f7e1a0d0fe2510c096b826e","study_id":"60edd13110225f80f9f3709b","session_id":"6196c701546bb2a802814ffe","condition":"contingent","relevant_dimensions":["antennae","legs"],"bee_group":{"antennae":"A","wings":"X","pattern":"X","legs":"M"},"bonus":1.6600000000000013},{"rt":1029.0999999642372,"stimulus":"bees-with-color/bee-B2SM.svg","response":0,"trial_type":"image-button-response","trial_index":149,"time_elapsed":1141561,"internal_node_id":"0.0-6.0-0.13","subject_id":"5f7e1a0d0fe2510c096b826e","study_id":"60edd13110225f80f9f3709b","session_id":"6196c701546bb2a802814ffe","condition":"contingent","relevant_dimensions":["antennae","legs"],"bee_group":{"antennae":"A","wings":"X","pattern":"X","legs":"M"},"bonus":1.6600000000000013},{"rt":878.8999999761581,"stimulus":"bees-with-color/bee-B1SM.svg","response":0,"trial_type":"image-button-response","trial_index":150,"time_elapsed":1142441,"internal_node_id":"0.0-6.0-0.14","subject_id":"5f7e1a0d0fe2510c096b826e","study_id":"60edd13110225f80f9f3709b","session_id":"6196c701546bb2a802814ffe","condition":"contingent","relevant_dimensions":["antennae","legs"],"bee_group":{"antennae":"A","wings":"X","pattern":"X","legs":"M"},"bonus":1.6600000000000013},{"rt":2483.899999976158,"stimulus":"bees-with-color/bee-A2SF.svg","response":0,"trial_type":"image-button-response","trial_index":151,"time_elapsed":1144926,"internal_node_id":"0.0-6.0-0.15","subject_id":"5f7e1a0d0fe2510c096b826e","study_id":"60edd13110225f80f9f3709b","session_id":"6196c701546bb2a802814ffe","condition":"contingent","relevant_dimensions":["antennae","legs"],"bee_group":{"antennae":"A","wings":"X","pattern":"X","legs":"M"},"bonus":1.6600000000000013},{"rt":1179.699999988079,"stimulus":"bees-with-color/bee-A1SM.svg","response":1,"trial_type":"image-button-response","trial_index":152,"time_elapsed":1146107,"internal_node_id":"0.0-6.0-0.16","subject_id":"5f7e1a0d0fe2510c096b826e","study_id":"60edd13110225f80f9f3709b","session_id":"6196c701546bb2a802814ffe","condition":"contingent","relevant_dimensions":["antennae","legs"],"bee_group":{"antennae":"A","wings":"X","pattern":"X","legs":"M"},"bonus":1.6600000000000013},{"rt":1023.1999999880791,"stimulus":"bees-with-color/bee-B1DM.svg","response":0,"trial_type":"image-button-response","trial_index":153,"time_elapsed":1147131,"internal_node_id":"0.0-6.0-0.17","subject_id":"5f7e1a0d0fe2510c096b826e","study_id":"60edd13110225f80f9f3709b","session_id":"6196c701546bb2a802814ffe","condition":"contingent","relevant_dimensions":["antennae","legs"],"bee_group":{"antennae":"A","wings":"X","pattern":"X","legs":"M"},"bonus":1.6600000000000013},{"rt":804.1999999880791,"stimulus":"bees-with-color/bee-A1SF.svg","response":0,"trial_type":"image-button-response","trial_index":154,"time_elapsed":1147936,"internal_node_id":"0.0-6.0-0.18","subject_id":"5f7e1a0d0fe2510c096b826e","study_id":"60edd13110225f80f9f3709b","session_id":"6196c701546bb2a802814ffe","condition":"contingent","relevant_dimensions":["antennae","legs"],"bee_group":{"antennae":"A","wings":"X","pattern":"X","legs":"M"},"bonus":1.6600000000000013},{"rt":1075.800000011921,"stimulus":"bees-with-color/bee-A1DM.svg","response":1,"trial_type":"image-button-response","trial_index":155,"time_elapsed":1149013,"internal_node_id":"0.0-6.0-0.19","subject_id":"5f7e1a0d0fe2510c096b826e","study_id":"60edd13110225f80f9f3709b","session_id":"6196c701546bb2a802814ffe","condition":"contingent","relevant_dimensions":["antennae","legs"],"bee_group":{"antennae":"A","wings":"X","pattern":"X","legs":"M"},"bonus":1.6600000000000013},{"rt":1677.199999988079,"stimulus":"bees-with-color/bee-B1DF.svg","response":0,"trial_type":"image-button-response","trial_index":156,"time_elapsed":1150691,"internal_node_id":"0.0-6.0-0.20","subject_id":"5f7e1a0d0fe2510c096b826e","study_id":"60edd13110225f80f9f3709b","session_id":"6196c701546bb2a802814ffe","condition":"contingent","relevant_dimensions":["antennae","legs"],"bee_group":{"antennae":"A","wings":"X","pattern":"X","legs":"M"},"bonus":1.6600000000000013},{"rt":1167,"stimulus":"bees-with-color/bee-B2SM.svg","response":1,"trial_type":"image-button-response","trial_index":157,"time_elapsed":1151859,"internal_node_id":"0.0-6.0-0.21","subject_id":"5f7e1a0d0fe2510c096b826e","study_id":"60edd13110225f80f9f3709b","session_id":"6196c701546bb2a802814ffe","condition":"contingent","relevant_dimensions":["antennae","legs"],"bee_group":{"antennae":"A","wings":"X","pattern":"X","legs":"M"},"bonus":1.6600000000000013},{"rt":1058.1000000238419,"stimulus":"bees-with-color/bee-B2DM.svg","response":0,"trial_type":"image-button-response","trial_index":158,"time_elapsed":1152918,"internal_node_id":"0.0-6.0-0.22","subject_id":"5f7e1a0d0fe2510c096b826e","study_id":"60edd13110225f80f9f3709b","session_id":"6196c701546bb2a802814ffe","condition":"contingent","relevant_dimensions":["antennae","legs"],"bee_group":{"antennae":"A","wings":"X","pattern":"X","legs":"M"},"bonus":1.6600000000000013},{"rt":795.1000000238419,"stimulus":"bees-with-color/bee-A2DF.svg","response":0,"trial_type":"image-button-response","trial_index":159,"time_elapsed":1153714,"internal_node_id":"0.0-6.0-0.23","subject_id":"5f7e1a0d0fe2510c096b826e","study_id":"60edd13110225f80f9f3709b","session_id":"6196c701546bb2a802814ffe","condition":"contingent","relevant_dimensions":["antennae","legs"],"bee_group":{"antennae":"A","wings":"X","pattern":"X","legs":"M"},"bonus":1.6600000000000013},{"rt":1003.1000000238419,"stimulus":"bees-with-color/bee-A2SM.svg","response":1,"trial_type":"image-button-response","trial_index":160,"time_elapsed":1154718,"internal_node_id":"0.0-6.0-0.24","subject_id":"5f7e1a0d0fe2510c096b826e","study_id":"60edd13110225f80f9f3709b","session_id":"6196c701546bb2a802814ffe","condition":"contingent","relevant_dimensions":["antennae","legs"],"bee_group":{"antennae":"A","wings":"X","pattern":"X","legs":"M"},"bonus":1.6600000000000013},{"rt":647.0999999642372,"stimulus":"bees-