[{"success":true,"trial_type":"fullscreen","trial_index":0,"time_elapsed":5701,"internal_node_id":"0.0-0.0","subject_id":"61721801de15feaf7ae0e40a","study_id":"60edd13110225f80f9f3709b","session_id":"6196bf600e75314455173721","condition":"contingent","relevant_dimensions":["wings","legs"],"bee_group":{"antennae":"X","wings":"1","pattern":"X","legs":"M"},"bonus":0.08},{"success":true,"timeout":false,"failed_images":[],"failed_audio":[],"failed_video":[],"trial_type":"preload","trial_index":1,"time_elapsed":13319,"internal_node_id":"0.0-1.0","subject_id":"61721801de15feaf7ae0e40a","study_id":"60edd13110225f80f9f3709b","session_id":"6196bf600e75314455173721","condition":"contingent","relevant_dimensions":["wings","legs"],"bee_group":{"antennae":"X","wings":"1","pattern":"X","legs":"M"},"bonus":0.08},{"rt":3847.199999988079,"stimulus":"Welcome! Press any key to begin.","response":"h","trial_type":"html-keyboard-response","trial_index":2,"time_elapsed":17167,"internal_node_id":"0.0-2.0","subject_id":"61721801de15feaf7ae0e40a","study_id":"60edd13110225f80f9f3709b","session_id":"6196bf600e75314455173721","condition":"contingent","relevant_dimensions":["wings","legs"],"bee_group":{"antennae":"X","wings":"1","pattern":"X","legs":"M"},"bonus":0.08},{"view_history":[{"page_index":0,"viewing_time":7260.900000035763},{"page_index":1,"viewing_time":23695.599999964237},{"page_index":2,"viewing_time":75024.5},{"page_index":3,"viewing_time":44824.40000003576},{"page_index":4,"viewing_time":11767.899999976158},{"page_index":5,"viewing_time":12847.800000011921},{"page_index":6,"viewing_time":18432.19999998808},{"page_index":7,"viewing_time":8392},{"page_index":8,"viewing_time":5984.199999988079},{"page_index":9,"viewing_time":3944},{"page_index":10,"viewing_time":4688},{"page_index":11,"viewing_time":17616.100000023842},{"page_index":12,"viewing_time":11959.899999976158},{"page_index":13,"viewing_time":1672.1000000238419},{"page_index":14,"viewing_time":3992.100000023842}],"rt":252102.20000004768,"trial_type":"instructions","trial_index":3,"time_elapsed":269270,"internal_node_id":"0.0-3.0-0.0","subject_id":"61721801de15feaf7ae0e40a","study_id":"60edd13110225f80f9f3709b","session_id":"6196bf600e75314455173721","condition":"contingent","relevant_dimensions":["wings","legs"],"bee_group":{"antennae":"X","wings":"1","pattern":"X","legs":"M"},"bonus":0.08},{"rt":19810.599999964237,"response":{"Q0":["Two or six legs","Stripes or spots on body","Single or double wings","Antennae or no antennae"]},"question_order":[0],"trial_type":"survey-multi-select","trial_index":4,"time_elapsed":289086,"internal_node_id":"0.0-3.0-1.0","subject_id":"61721801de15feaf7ae0e40a","study_id":"60edd13110225f80f9f3709b","session_id":"6196bf600e75314455173721","condition":"contingent","relevant_dimensions":["wings","legs"],"bee_group":{"antennae":"X","wings":"1","pattern":"X","legs":"M"},"correct":true,"bonus":0.08},{"rt":38597.89999997616,"response":{"Q1":"Yes.","Q2":"Based on the four features of the bee.","Q3":"You do not learn if it was friendly or dangerous, and do not alter your bonus."},"question_order":[0,1,2],"trial_type":"survey-multi-choice","trial_index":5,"time_elapsed":327686,"internal_node_id":"0.0-3.0-2.0","subject_id":"61721801de15feaf7ae0e40a","study_id":"60edd13110225f80f9f3709b","session_id":"6196bf600e75314455173721","condition":"contingent","relevant_dimensions":["wings","legs"],"bee_group":{"antennae":"X","wings":"1","pattern":"X","legs":"M"},"correct":false,"bonus":0.08},{"rt":8405,"stimulus":"<p>You did not answer all comprehension questions correctly.<br>Press <b>continue</b> to review the instructions again.</p>","response":0,"trial_type":"html-button-response","trial_index":6,"time_elapsed":336095,"internal_node_id":"0.0-3.0-3.0","subject_id":"61721801de15feaf7ae0e40a","study_id":"60edd13110225f80f9f3709b","session_id":"6196bf600e75314455173721","condition":"contingent","relevant_dimensions":["wings","legs"],"bee_group":{"antennae":"X","wings":"1","pattern":"X","legs":"M"},"bonus":0.08},{"view_history":[{"page_index":0,"viewing_time":4678.699999988079},{"page_index":1,"viewing_time":32239.80000001192},{"page_index":2,"viewing_time":19056.099999964237},{"page_index":3,"viewing_time":25248},{"page_index":4,"viewing_time":15256.200000047684},{"page_index":5,"viewing_time":5064},{"page_index":6,"viewing_time":14104},{"page_index":7,"viewing_time":2656},{"page_index":8,"viewing_time":4304},{"page_index":9,"viewing_time":3376.099999964237},{"page_index":10,"viewing_time":4272.100000023842},{"page_index":11,"viewing_time":14368.5},{"page_index":12,"viewing_time":1935.5999999642372},{"page_index":13,"viewing_time":1207.9000000357628},{"page_index":14,"viewing_time":984}],"rt":148752.19999998808,"trial_type":"instructions","trial_index":7,"time_elapsed":484848,"internal_node_id":"0.0-3.0-4.0-0.0","subject_id":"61721801de15feaf7ae0e40a","study_id":"60edd13110225f80f9f3709b","session_id":"6196bf600e75314455173721","condition":"contingent","relevant_dimensions":["wings","legs"],"bee_group":{"antennae":"X","wings":"1","pattern":"X","legs":"M"},"bonus":0.08},{"rt":18327,"response":{"Q0":["Two or six legs","Stripes or spots on body","Single or double wings","Antennae or no antennae"]},"question_order":[0],"trial_type":"survey-multi-select","trial_index":8,"time_elapsed":503184,"internal_node_id":"0.0-3.0-4.0-1.0","subject_id":"61721801de15feaf7ae0e40a","study_id":"60edd13110225f80f9f3709b","session_id":"6196bf600e75314455173721","condition":"contingent","relevant_dimensions":["wings","legs"],"bee_group":{"antennae":"X","wings":"1","pattern":"X","legs":"M"},"correct":true,"bonus":0.08},{"rt":63566.200000047684,"response":{"Q1":"No.","Q2":"Based on the four features of the bee.","Q3":"You do not learn if it was friendly or dangerous, and do not alter your bonus."},"question_order":[0,1,2],"trial_type":"survey-multi-choice","trial_index":9,"time_elapsed":566753,"internal_node_id":"0.0-3.0-4.0-2.0","subject_id":"61721801de15feaf7ae0e40a","study_id":"60edd13110225f80f9f3709b","session_id":"6196bf600e75314455173721","condition":"contingent","relevant_dimensions":["wings","legs"],"bee_group":{"antennae":"X","wings":"1","pattern":"X","legs":"M"},"correct":true,"bonus":0.08},{"rt":3197.399999976158,"stimulus":"<p>Congrats, you got everything right<br>When you're ready, click the button below to continue to the experiment.</p>","response":0,"trial_type":"html-button-response","trial_index":10,"time_elapsed":569953,"internal_node_id":"0.0-3.0-4.0-3.0","subject_id":"61721801de15feaf7ae0e40a","study_id":"60edd13110225f80f9f3709b","session_id":"6196bf600e75314455173721","condition":"contingent","relevant_dimensions":["wings","legs"],"bee_group":{"antennae":"X","wings":"1","pattern":"X","legs":"M"},"bonus":0.08},{"rt":11396.599999964237,"stimulus":"bees-with-color/bee-B2DF.svg","response":1,"trial_type":"image-button-response","trial_index":11,"time_elapsed":581352,"internal_node_id":"0.0-4.0-0.0","subject_id":"61721801de15feaf7ae0e40a","study_id":"60edd13110225f80f9f3709b","session_id":"6196bf600e75314455173721","condition":"contingent","relevant_dimensions":["wings","legs"],"bee_group":{"antennae":"X","wings":"1","pattern":"X","legs":"M"},"action":"avoid","summary":"bad-avoid","bonus":0.08},{"rt":15555.400000035763,"stimulus":"\n                    <p><b>Action: <em>avoid</em></b></p>\n                    <p>This is the bee that you just saw.</p>\n                    <img src=\"bees-with-color/bee-B2DF.svg\" width=\"200\">\n                    <p><br>Your bonus pay is unchanged, and remains at $0.54.</p>\n            ","response":0,"trial_type":"html-button-response","trial_index":12,"time_elapsed":596912,"internal_node_id":"0.0-4.0-1.0","subject_id":"61721801de15feaf7ae0e40a","study_id":"60edd13110225f80f9f3709b","session_id":"6196bf600e75314455173721","condition":"contingent","relevant_dimensions":["wings","legs"],"bee_group":{"antennae":"X","wings":"1","pattern":"X","legs":"M"},"bonus":0.08},{"rt":3613.5,"stimulus":"bees-with-color/bee-A2SM.svg","response":0,"trial_type":"image-button-response","trial_index":13,"time_elapsed":600528,"internal_node_id":"0.0-4.0-0.1","subject_id":"61721801de15feaf7ae0e40a","study_id":"60edd13110225f80f9f3709b","session_id":"6196bf600e75314455173721","condition":"contingent","relevant_dimensions":["wings","legs"],"bee_group":{"antennae":"X","wings":"1","pattern":"X","legs":"M"},"action":"harvest","summary":"good-harvest","bonus":0.08},{"rt":8757.5,"stimulus":"\n                    <p><b>Action: <em>harvest</em></b></p>\n                    <p>This is the bee that you just saw.</p>\n                    <img src=\"bees-with-color/bee-A2SM.svg\" width=\"200\">\n                    <p><span class=\"greenText\"><b>Successful harvest!</b></span><br>Your pay has increased by $0.02. Your bonus pay is now $0.56.</p>\n            ","response":0,"trial_type":"html-button-response","trial_index":14,"time_elapsed":609287,"internal_node_id":"0.0-4.0-1.1","subject_id":"61721801de15feaf7ae0e40a","study_id":"60edd13110225f80f9f3709b","session_id":"6196bf600e75314455173721","condition":"contingent","relevant_dimensions":["wings","legs"],"bee_group":{"antennae":"X","wings":"1","pattern":"X","legs":"M"},"bonus":0.08},{"rt":6373.899999976158,"stimulus":"bees-with-color/bee-A1DF.svg","response":0,"trial_type":"image-button-response","trial_index":15,"time_elapsed":615664,"internal_node_id":"0.0-4.0-0.2","subject_id":"61721801de15feaf7ae0e40a","study_id":"60edd13110225f80f9f3709b","session_id":"6196bf600e75314455173721","condition":"contingent","relevant_dimensions":["wings","legs"],"bee_group":{"antennae":"X","wings":"1","pattern":"X","legs":"M"},"action":"harvest","summary":"good-harvest","bonus":0.08},{"rt":8173.599999964237,"stimulus":"\n                    <p><b>Action: <em>harvest</em></b></p>\n                    <p>This is the bee that you just saw.</p>\n                    <img src=\"bees-with-color/bee-A1DF.svg\" width=\"200\">\n                    <p><span class=\"greenText\"><b>Successful harvest!</b></span><br>Your pay has increased by $0.02. Your bonus pay is now $0.58.</p>\n            ","response":0,"trial_type":"html-button-response","trial_index":16,"time_elapsed":623840,"internal_node_id":"0.0-4.0-1.2","subject_id":"61721801de15feaf7ae0e40a","study_id":"60edd13110225f80f9f3709b","session_id":"6196bf600e75314455173721","condition":"contingent","relevant_dimensions":["wings","legs"],"bee_group":{"antennae":"X","wings":"1","pattern":"X","legs":"M"},"bonus":0.08},{"rt":4381.699999988079,"stimulus":"bees-with-color/bee-B1SM.svg","response":0,"trial_type":"image-button-response","trial_index":17,"time_elapsed":628223,"internal_node_id":"0.0-4.0-0.3","subject_id":"61721801de15feaf7ae0e40a","study_id":"60edd13110225f80f9f3709b","session_id":"6196bf600e75314455173721","condition":"contingent","relevant_dimensions":["wings","legs"],"bee_group":{"antennae":"X","wings":"1","pattern":"X","legs":"M"},"action":"harvest","summary":"bad-harvest","bonus":0.08},{"rt":7454.699999988079,"stimulus":"\n                    <p><b>Action: <em>harvest</em></b></p>\n                    <p>This is the bee that you just saw.</p>\n                    <img src=\"bees-with-color/bee-B1SM.svg\" width=\"200\">\n                    <p><span class=\"redText\">Bad choice, the bee was angry.</span><br><b>You have been stung!</b><br>Your pay has been decreased by $0.10. Your bonus pay is now $0.48.</p>\n            ","response":0,"trial_type":"html-button-response","trial_index":18,"time_elapsed":635679,"internal_node_id":"0.0-4.0-1.3","subject_id":"61721801de15feaf7ae0e40a","study_id":"60edd13110225f80f9f3709b","session_id":"6196bf600e75314455173721","condition":"contingent","relevant_dimensions":["wings","legs"],"bee_group":{"antennae":"X","wings":"1","pattern":"X","legs":"M"},"bonus":0.08},{"rt":2661.699999988079,"stimulus":"bees-with-color/bee-A2DF.svg","response":0,"trial_type":"image-button-response","trial_index":19,"time_elapsed":638343,"internal_node_id":"0.0-4.0-0.4","subject_id":"61721801de15feaf7ae0e40a","study_id":"60edd13110225f80f9f3709b","session_id":"6196bf600e75314455173721","condition":"contingent","relevant_dimensions":["wings","legs"],"bee_group":{"antennae":"X","wings":"1","pattern":"X","legs":"M"},"action":"harvest","summary":"good-harvest","bonus":0.08},{"rt":1174.7000000476837,"stimulus":"\n                    <p><b>Action: <em>harvest</em></b></p>\n                    <p>This is the bee that you just saw.</p>\n                    <img src=\"bees-with-color/bee-A2DF.svg\" width=\"200\">\n                    <p><span class=\"greenText\"><b>Successful harvest!</b></span><br>Your pay has increased by $0.02. Your bonus pay is now $0.50.</p>\n            ","response":0,"trial_type":"html-button-response","trial_index":20,"time_elapsed":639520,"internal_node_id":"0.0-4.0-1.4","subject_id":"61721801de15feaf7ae0e40a","study_id":"60edd13110225f80f9f3709b","session_id":"6196bf600e75314455173721","condition":"contingent","relevant_dimensions":["wings","legs"],"bee_group":{"antennae":"X","wings":"1","pattern":"X","legs":"M"},"bonus":0.08},{"rt":1974.2999999523163,"stimulus":"bees-with-color/bee-A1DM.svg","response":0,"trial_type":"image-button-response","trial_index":21,"time_elapsed":641496,"internal_node_id":"0.0-4.0-0.5","subject_id":"61721801de15feaf7ae0e40a","study_id":"60edd13110225f80f9f3709b","session_id":"6196bf600e75314455173721","condition":"contingent","relevant_dimensions":["wings","legs"],"bee_group":{"antennae":"X","wings":"1","pattern":"X","legs":"M"},"action":"harvest","summary":"bad-harvest","bonus":0.08},{"rt":6206.5,"stimulus":"\n                    <p><b>Action: <em>harvest</em></b></p>\n                    <p>This is the bee that you just saw.</p>\n                    <img src=\"bees-with-color/bee-A1DM.svg\" width=\"200\">\n                    <p><span class=\"redText\">Bad choice, the bee was angry.</span><br><b>You have been stung!</b><br>Your pay has been decreased by $0.10. Your bonus pay is now $0.40.</p>\n            ","response":0,"trial_type":"html-button-response","trial_index":22,"time_elapsed":647704,"internal_node_id":"0.0-4.0-1.5","subject_id":"61721801de15feaf7ae0e40a","study_id":"60edd13110225f80f9f3709b","session_id":"6196bf600e75314455173721","condition":"contingent","relevant_dimensions":["wings","legs"],"bee_group":{"antennae":"X","wings":"1","pattern":"X","legs":"M"},"bonus":0.08},{"rt":3909.699999988079,"stimulus":"bees-with-color/bee-B2DM.svg","response":1,"trial_type":"image-button-response","trial_index":23,"time_elapsed":651616,"internal_node_id":"0.0-4.0-0.6","subject_id":"61721801de15feaf7ae0e40a","study_id":"60edd13110225f80f9f3709b","session_id":"6196bf600e75314455173721","condition":"contingent","relevant_dimensions":["wings","legs"],"bee_group":{"antennae":"X","wings":"1","pattern":"X","legs":"M"},"action":"avoid","summary":"bad-avoid","bonus":0.08},{"rt":5982,"stimulus":"\n                    <p><b>Action: <em>avoid</em></b></p>\n                    <p>This is the bee that you just saw.</p>\n                    <img src=\"bees-with-color/bee-B2DM.svg\" width=\"200\">\n                    <p><br>Your bonus pay is unchanged, and remains at $0.40.</p>\n            ","response":0,"trial_type":"html-button-response","trial_index":24,"time_elapsed":657600,"internal_node_id":"0.0-4.0-1.6","subject_id":"61721801de15feaf7ae0e40a","study_id":"60edd13110225f80f9f3709b","session_id":"6196bf600e75314455173721","condition":"contingent","relevant_dimensions":["wings","legs"],"bee_group":{"antennae":"X","wings":"1","pattern":"X","legs":"M"},"bonus":0.08},{"rt":2886.600000023842,"stimulus":"bees-with-color/bee-B2SF.svg","response":0,"trial_type":"image-button-response","trial_index":25,"time_elapsed":660488,"internal_node_id":"0.0-4.0-0.7","subject_id":"61721801de15feaf7ae0e40a","study_id":"60edd13110225f80f9f3709b","session_id":"6196bf600e75314455173721","condition":"contingent","relevant_dimensions":["wings","legs"],"bee_group":{"antennae":"X","wings":"1","pattern":"X","legs":"M"},"action":"harvest","summary":"good-harvest","bonus":0.08},{"rt":3733.5,"stimulus":"\n                    <p><b>Action: <em>harvest</em></b></p>\n                    <p>This is the bee that you just saw.</p>\n                    <img src=\"bees-with-color/bee-B2SF.svg\" width=\"200\">\n                    <p><span class=\"greenText\"><b>Successful harvest!</b></span><br>Your pay has increased by $0.02. Your bonus pay is now $0.42.</p>\n            ","response":0,"trial_type":"html-button-response","trial_index":26,"time_elapsed":664224,"internal_node_id":"0.0-4.0-1.7","subject_id":"61721801de15feaf7ae0e40a","study_id":"60edd13110225f80f9f3709b","session_id":"6196bf600e75314455173721","condition":"contingent","relevant_dimensions":["wings","legs"],"bee_group":{"antennae":"X","wings":"1","pattern":"X","legs":"M"},"bonus":0.08},{"rt":9069.699999988079,"stimulus":"bees-with-color/bee-B1DM.svg","response":0,"trial_type":"image-button-response","trial_index":27,"time_elapsed":673296,"internal_node_id":"0.0-4.0-0.8","subject_id":"61721801de15feaf7ae0e40a","study_id":"60edd13110225f80f9f3709b","session_id":"6196bf600e75314455173721","condition":"contingent","relevant_dimensions":["wings","legs"],"bee_group":{"antennae":"X","wings":"1","pattern":"X","legs":"M"},"action":"harvest","summary":"bad-harvest","bonus":0.08},{"rt":2078.800000011921,"stimulus":"\n                    <p><b>Action: <em>harvest</em></b></p>\n                    <p>This is the bee that you just saw.</p>\n                    <img src=\"bees-with-color/bee-B1DM.svg\" width=\"200\">\n                    <p><span class=\"redText\">Bad choice, the bee was angry.</span><br><b>You have been stung!</b><br>Your pay has been decreased by $0.10. Your bonus pay is now $0.32.</p>\n            ","response":0,"trial_type":"html-button-response","trial_index":28,"time_elapsed":675376,"internal_node_id":"0.0-4.0-1.8","subject_id":"61721801de15feaf7ae0e40a","study_id":"60edd13110225f80f9f3709b","session_id":"6196bf600e75314455173721","condition":"contingent","relevant_dimensions":["wings","legs"],"bee_group":{"antennae":"X","wings":"1","pattern":"X","legs":"M"},"bonus":0.08},{"rt":1629.9000000357628,"stimulus":"bees-with-color/bee-B1SF.svg","response":0,"trial_type":"image-button-response","trial_index":29,"time_elapsed":677008,"internal_node_id":"0.0-4.0-0.9","subject_id":"61721801de15feaf7ae0e40a","study_id":"60edd13110225f80f9f3709b","session_id":"6196bf600e75314455173721","condition":"contingent","relevant_dimensions":["wings","legs"],"bee_group":{"antennae":"X","wings":"1","pattern":"X","legs":"M"},"action":"harvest","summary":"good-harvest","bonus":0.08},{"rt":1990.300000011921,"stimulus":"\n                    <p><b>Action: <em>harvest</em></b></p>\n                    <p>This is the bee that you just saw.</p>\n                    <img src=\"bees-with-color/bee-B1SF.svg\" width=\"200\">\n                    <p><span class=\"greenText\"><b>Successful harvest!</b></span><br>Your pay has increased by $0.02. Your bonus pay is now $0.34.</p>\n            ","response":0,"trial_type":"html-button-response","trial_index":30,"time_elapsed":679000,"internal_node_id":"0.0-4.0-1.9","subject_id":"61721801de15feaf7ae0e40a","study_id":"60edd13110225f80f9f3709b","session_id":"6196bf600e75314455173721","condition":"contingent","relevant_dimensions":["wings","legs"],"bee_group":{"antennae":"X","wings":"1","pattern":"X","legs":"M"},"bonus":0.08},{"rt":1078.4000000357628,"stimulus":"bees-with-color/bee-A1SM.svg","response":0,"trial_type":"image-button-response","trial_index":31,"time_elapsed":680080,"internal_node_id":"0.0-4.0-0.10","subject_id":"61721801de15feaf7ae0e40a","study_id":"60edd13110225f80f9f3709b","session_id":"6196bf600e75314455173721","condition":"contingent","relevant_dimensions":["wings","legs"],"bee_group":{"antennae":"X","wings":"1","pattern":"X","legs":"M"},"action":"harvest","summary":"bad-harvest","bonus":0.08},{"rt":4927,"stimulus":"\n                    <p><b>Action: <em>harvest</em></b></p>\n                    <p>This is the bee that you just saw.</p>\n                    <img src=\"bees-with-color/bee-A1SM.svg\" width=\"200\">\n                    <p><span class=\"redText\">Bad choice, the bee was angry.</span><br><b>You have been stung!</b><br>Your pay has been decreased by $0.10. Your bonus pay is now $0.24.</p>\n            ","response":0,"trial_type":"html-button-response","trial_index":32,"time_elapsed":685008,"internal_node_id":"0.0-4.0-1.10","subject_id":"61721801de15feaf7ae0e40a","study_id":"60edd13110225f80f9f3709b","session_id":"6196bf600e75314455173721","condition":"contingent","relevant_dimensions":["wings","legs"],"bee_group":{"antennae":"X","wings":"1","pattern":"X","legs":"M"},"bonus":0.08},{"rt":2582.2000000476837,"stimulus":"bees-with-color/bee-B2SM.svg","response":0,"trial_type":"image-button-response","trial_index":33,"time_elapsed":687592,"internal_node_id":"0.0-4.0-0.11","subject_id":"61721801de15feaf7ae0e40a","study_id":"60edd13110225f80f9f3709b","session_id":"6196bf600e75314455173721","condition":"contingent","relevant_dimensions":["wings","legs"],"bee_group":{"antennae":"X","wings":"1","pattern":"X","legs":"M"},"action":"harvest","summary":"good-harvest","bonus":0.08},{"rt":1774.1000000238419,"stimulus":"\n                    <p><b>Action: <em>harvest</em></b></p>\n                    <p>This is the bee that you just saw.</p>\n                    <img src=\"bees-with-color/bee-B2SM.svg\" width=\"200\">\n                    <p><span class=\"greenText\"><b>Successful harvest!</b></span><br>Your pay has increased by $0.02. Your bonus pay is now $0.26.</p>\n            ","response":0,"trial_type":"html-button-response","trial_index":34,"time_elapsed":689368,"internal_node_id":"0.0-4.0-1.11","subject_id":"61721801de15feaf7ae0e40a","study_id":"60edd13110225f80f9f3709b","session_id":"6196bf600e75314455173721","condition":"contingent","relevant_dimensions":["wings","legs"],"bee_group":{"antennae":"X","wings":"1","pattern":"X","legs":"M"},"bonus":0.08},{"rt":3046.5,"stimulus":"bees-with-color/bee-B1DF.svg","response":1,"trial_type":"image-button-response","trial_index":35,"time_elapsed":692416,"internal_node_id":"0.0-4.0-0.12","subject_id":"61721801de15feaf7ae0e40a","study_id":"60edd13110225f80f9f3709b","session_id":"6196bf600e75314455173721","condition":"contingent","relevant_dimensions":["wings","legs"],"bee_group":{"antennae":"X","wings":"1","pattern":"X","legs":"M"},"action":"avoid","summary":"bad-avoid","bonus":0.08},{"rt":1446.2999999523163,"stimulus":"\n                    <p><b>Action: <em>avoid</em></b></p>\n                    <p>This is the bee that you just saw.</p>\n                    <img src=\"bees-with-color/bee-B1DF.svg\" width=\"200\">\n                    <p><br>Your bonus pay is unchanged, and remains at $0.26.</p>\n            ","response":0,"trial_type":"html-button-response","trial_index":36,"time_elapsed":693864,"internal_node_id":"0.0-4.0-1.12","subject_id":"61721801de15feaf7ae0e40a","study_id":"60edd13110225f80f9f3709b","session_id":"6196bf600e75314455173721","condition":"contingent","relevant_dimensions":["wings","legs"],"bee_group":{"antennae":"X","wings":"1","pattern":"X","legs":"M"},"bonus":0.08},{"rt":3326.2000000476837,"stimulus":"bees-with-color/bee-A2SF.svg","response":0,"trial_type":"image-button-response","trial_index":37,"time_elapsed":697192,"internal_node_id":"0.0-4.0-0.13","subject_id":"61721801de15feaf7ae0e40a","study_id":"60edd13110225f80f9f3709b","session_id":"6196bf600e75314455173721","condition":"contingent","relevant_dimensions":["wings","legs"],"bee_group":{"antennae":"X","wings":"1","pattern":"X","legs":"M"},"action":"harvest","summary":"good-harvest","bonus":0.08},{"rt":2254,"stimulus":"\n                    <p><b>Action: <em>harvest</em></b></p>\n                    <p>This is the bee that you just saw.</p>\n                    <img src=\"bees-with-color/bee-A2SF.svg\" width=\"200\">\n                    <p><span class=\"greenText\"><b>Successful harvest!</b></span><br>Your pay has increased by $0.02. Your bonus pay is now $0.28.</p>\n            ","response":0,"trial_type":"html-button-response","trial_index":38,"time_elapsed":699448,"internal_node_id":"0.0-4.0-1.13","subject_id":"61721801de15feaf7ae0e40a","study_id":"60edd13110225f80f9f3709b","session_id":"6196bf600e75314455173721","condition":"contingent","relevant_dimensions":["wings","legs"],"bee_group":{"antennae":"X","wings":"1","pattern":"X","legs":"M"},"bonus":0.08},{"rt":3846.400000035763,"stimulus":"bees-with-color/bee-A1SF.svg","response":0,"trial_type":"image-button-response","trial_index":39,"time_elapsed":703296,"internal_node_id":"0.0-4.0-0.14","subject_id":"61721801de15feaf7ae0e40a","study_id":"60edd13110225f80f9f3709b","session_id":"6196bf600e75314455173721","condition":"contingent","relevant_dimensions":["wings","legs"],"bee_group":{"antennae":"X","wings":"1","pattern":"X","legs":"M"},"action":"harvest","summary":"good-harvest","bonus":0.08},{"rt":1765.800000011921,"stimulus":"\n                    <p><b>Action: <em>harvest</em></b></p>\n                    <p>This is the bee that you just saw.</p>\n                    <img src=\"bees-with-color/bee-A1SF.svg\" width=\"200\">\n                    <p><span class=\"greenText\"><b>Successful harvest!</b></span><br>Your pay has increased by $0.02. Your bonus pay is now $0.30.</p>\n            ","response":0,"trial_type":"html-button-response","trial_index":40,"time_elapsed":705064,"internal_node_id":"0.0-4.0-1.14","subject_id":"61721801de15feaf7ae0e40a","study_id":"60edd13110225f80f9f3709b","session_id":"6196bf600e75314455173721","condition":"contingent","relevant_dimensions":["wings","legs"],"bee_group":{"antennae":"X","wings":"1","pattern":"X","legs":"M"},"bonus":0.08},{"rt":3078.5,"stimulus":"bees-with-color/bee-A2DM.svg","response":0,"trial_type":"image-button-response","trial_index":41,"time_elapsed":708144,"internal_node_id":"0.0-4.0-0.15","subject_id":"61721801de15feaf7ae0e40a","study_id":"60edd13110225f80f9f3709b","session_id":"6196bf600e75314455173721","condition":"contingent","relevant_dimensions":["wings","legs"],"bee_group":{"antennae":"X","wings":"1","pattern":"X","legs":"M"},"action":"harvest","summary":"good-harvest","bonus":0.08},{"rt":1790.0999999642372,"stimulus":"\n                    <p><b>Action: <em>harvest</em></b></p>\n                    <p>This is the bee that you just saw.</p>\n                    <img src=\"bees-with-color/bee-A2DM.svg\" width=\"200\">\n                    <p><span class=\"greenText\"><b>Successful harvest!</b></span><br>Your pay has increased by $0.02. Your bonus pay is now $0.32.</p>\n            ","response":0,"trial_type":"html-button-response","trial_index":42,"time_elapsed":709936,"internal_node_id":"0.0-4.0-1.15","subject_id":"61721801de15feaf7ae0e40a","study_id":"60edd13110225f80f9f3709b","session_id":"6196bf600e75314455173721","condition":"contingent","relevant_dimensions":["wings","legs"],"bee_group":{"antennae":"X","wings":"1","pattern":"X","legs":"M"},"bonus":0.08},{"rt":4237.899999976158,"stimulus":"bees-with-color/bee-B1SF.svg","response":1,"trial_type":"image-button-response","trial_index":43,"time_elapsed":714176,"internal_node_id":"0.0-4.0-0.16","subject_id":"61721801de15feaf7ae0e40a","study_id":"60edd13110225f80f9f3709b","session_id":"6196bf600e75314455173721","condition":"contingent","relevant_dimensions":["wings","legs"],"bee_group":{"antennae":"X","wings":"1","pattern":"X","legs":"M"},"action":"avoid","summary":"bad-avoid","bonus":0.08},{"rt":1774.2999999523163,"stimulus":"\n                    <p><b>Action: <em>avoid</em></b></p>\n                    <p>This is the bee that you just saw.</p>\n                    <img src=\"bees-with-color/bee-B1SF.svg\" width=\"200\">\n                    <p><br>Your bonus pay is unchanged, and remains at $0.32.</p>\n            ","response":0,"trial_type":"html-button-response","trial_index":44,"time_elapsed":715953,"internal_node_id":"0.0-4.0-1.16","subject_id":"61721801de15feaf7ae0e40a","study_id":"60edd13110225f80f9f3709b","session_id":"6196bf600e75314455173721","condition":"contingent","relevant_dimensions":["wings","legs"],"bee_group":{"antennae":"X","wings":"1","pattern":"X","legs":"M"},"bonus":0.08},{"rt":3293.399999976158,"stimulus":"bees-with-color/bee-B1DF.svg","response":1,"trial_type":"image-button-response","trial_index":45,"time_elapsed":719249,"internal_node_id":"0.0-4.0-0.17","subject_id":"61721801de15feaf7ae0e40a","study_id":"60edd13110225f80f9f3709b","session_id":"6196bf600e75314455173721","condition":"contingent","relevant_dimensions":["wings","legs"],"bee_group":{"antennae":"X","wings":"1","pattern":"X","legs":"M"},"action":"avoid","summary":"bad-avoid","bonus":0.08},{"rt":1549.699999988079,"stimulus":"\n                    <p><b>Action: <em>avoid</em></b></p>\n                    <p>This is the bee that you just saw.</p>\n                    <img src=\"bees-with-color/bee-B1DF.svg\" width=\"200\">\n                    <p><br>Your bonus pay is unchanged, and remains at $0.32.</p>\n            ","response":0,"trial_type":"html-button-response","trial_index":46,"time_elapsed":720800,"internal_node_id":"0.0-4.0-1.17","subject_id":"61721801de15feaf7ae0e40a","study_id":"60edd13110225f80f9f3709b","session_id":"6196bf600e75314455173721","condition":"contingent","relevant_dimensions":["wings","legs"],"bee_group":{"antennae":"X","wings":"1","pattern":"X","legs":"M"},"bonus":0.08},{"rt":2014.300000011921,"stimulus":"bees-with-color/bee-A1SF.svg","response":0,"trial_type":"image-button-response","trial_index":47,"time_elapsed":722816,"internal_node_id":"0.0-4.0-0.18","subject_id":"61721801de15feaf7ae0e40a","study_id":"60edd13110225f80f9f3709b","session_id":"6196bf600e75314455173721","condition":"contingent","relevant_dimensions":["wings","legs"],"bee_group":{"antennae":"X","wings":"1","pattern":"X","legs":"M"},"action":"harvest","summary":"good-harvest","bonus":0.08},{"rt":1854.199999988079,"stimulus":"\n                    <p><b>Action: <em>harvest</em></b></p>\n                    <p>This is the bee that you just saw.</p>\n                    <img src=\"bees-with-color/bee-A1SF.svg\" width=\"200\">\n                    <p><span class=\"greenText\"><b>Successful harvest!</b></span><br>Your pay has increased by $0.02. Your bonus pay is now $0.34.</p>\n            ","response":0,"trial_type":"html-button-response","trial_index":48,"time_elapsed":724672,"internal_node_id":"0.0-4.0-1.18","subject_id":"61721801de15feaf7ae0e40a","study_id":"60edd13110225f80f9f3709b","session_id":"6196bf600e75314455173721","condition":"contingent","relevant_dimensions":["wings","legs"],"bee_group":{"antennae":"X","wings":"1","pattern":"X","legs":"M"},"bonus":0.08},{"rt":2174.600000023842,"stimulus":"bees-with-color/bee-A1SM.svg","response":0,"trial_type":"image-button-response","trial_index":49,"time_elapsed":726848,"internal_node_id":"0.0-4.0-0.19","subject_id":"61721801de15feaf7ae0e40a","study_id":"60edd13110225f80f9f3709b","session_id":"6196bf600e75314455173721","condition":"contingent","relevant_dimensions":["wings","legs"],"bee_group":{"antennae":"X","wings":"1","pattern":"X","legs":"M"},"action":"harvest","summary":"bad-harvest","bonus":0.08},{"rt":3238.099999964237,"stimulus":"\n                    <p><b>Action: <em>harvest</em></b></p>\n                    <p>This is the bee that you just saw.</p>\n                    <img src=\"bees-with-color/bee-A1SM.svg\" width=\"200\">\n                    <p><span class=\"redText\">Bad choice, the bee was angry.</span><br><b>You have been stung!</b><br>Your pay has been decreased by $0.10. Your bonus pay is now $0.24.</p>\n            ","response":0,"trial_type":"html-button-response","trial_index":50,"time_elapsed":730088,"internal_node_id":"0.0-4.0-1.19","subject_id":"61721801de15feaf7ae0e40a","study_id":"60edd13110225f80f9f3709b","session_id":"6196bf600e75314455173721","condition":"contingent","relevant_dimensions":["wings","legs"],"bee_group":{"antennae":"X","wings":"1","pattern":"X","legs":"M"},"bonus":0.08},{"rt":6326.599999964237,"stimulus":"bees-with-color/bee-A2DF.svg","response":0,"trial_type":"image-button-response","trial_index":51,"time_elapsed":736416,"internal_node_id":"0.0-4.0-0.20","subject_id":"61721801de15feaf7ae0e40a","study_id":"60edd13110225f80f9f3709b","session_id":"6196bf600e75314455173721","condition":"contingent","relevant_dimensions":["wings","legs"],"bee_group":{"antennae":"X","wings":"1","pattern":"X","legs":"M"},"action":"harvest","summary":"good-harvest","bonus":0.08},{"rt":2109.699999988079,"stimulus":"\n                    <p><b>Action: <em>harvest</em></b></p>\n                    <p>This is the bee that you just saw.</p>\n                    <img src=\"bees-with-color/bee-A2DF.svg\" width=\"200\">\n                    <p><span class=\"greenText\"><b>Successful harvest!</b></span><br>Your pay has increased by $0.02. Your bonus pay is now $0.26.</p>\n            ","response":0,"trial_type":"html-button-response","trial_index":52,"time_elapsed":738528,"internal_node_id":"0.0-4.0-1.20","subject_id":"61721801de15feaf7ae0e40a","study_id":"60edd13110225f80f9f3709b","session_id":"6196bf600e75314455173721","condition":"contingent","relevant_dimensions":["wings","legs"],"bee_group":{"antennae":"X","wings":"1","pattern":"X","legs":"M"},"bonus":0.08},{"rt":5638.5,"stimulus":"bees-with-color/bee-A2SF.svg","response":0,"trial_type":"image-button-response","trial_index":53,"time_elapsed":744169,"internal_node_id":"0.0-4.0-0.21","subject_id":"61721801de15feaf7ae0e40a","study_id":"60edd13110225f80f9f3709b","session_id":"6196bf600e75314455173721","condition":"contingent","relevant_dimensions":["wings","legs"],"bee_group":{"antennae":"X","wings":"1","pattern":"X","legs":"M"},"action":"harvest","summary":"good-harvest","bonus":0.08},{"rt":2237.7999999523163,"stimulus":"\n                    <p><b>Action: <em>harvest</em></b></p>\n                    <p>This is the bee that you just saw.</p>\n                    <img src=\"bees-with-color/bee-A2SF.svg\" width=\"200\">\n                    <p><span class=\"greenText\"><b>Successful harvest!</b></span><br>Your pay has increased by $0.02. Your bonus pay is now $0.28.</p>\n            ","response":0,"trial_type":"html-button-response","trial_index":54,"time_elapsed":746408,"internal_node_id":"0.0-4.0-1.21","subject_id":"61721801de15feaf7ae0e40a","study_id":"60edd13110225f80f9f3709b","session_id":"6196bf600e75314455173721","condition":"contingent","relevant_dimensions":["wings","legs"],"bee_group":{"antennae":"X","wings":"1","pattern":"X","legs":"M"},"bonus":0.08},{"rt":5478.400000035763,"stimulus":"bees-with-color/bee-A1DM.svg","response":0,"trial_type":"image-button-response","trial_index":55,"time_elapsed":751888,"internal_node_id":"0.0-4.0-0.22","subject_id":"61721801de15feaf7ae0e40a","study_id":"60edd13110225f80f9f3709b","session_id":"6196bf600e75314455173721","condition":"contingent","relevant_dimensions":["wings","legs"],"bee_group":{"antennae":"X","wings":"1","pattern":"X","legs":"M"},"action":"harvest","summary":"bad-harvest","bonus":0.08},{"rt":2078.2999999523163,"stimulus":"\n                    <p><b>Action: <em>harvest</em></b></p>\n                    <p>This is the bee that you just saw.</p>\n                    <img src=\"bees-with-color/bee-A1DM.svg\" width=\"200\">\n                    <p><span class=\"redText\">Bad choice, the bee was angry.</span><br><b>You have been stung!</b><br>Your pay has been decreased by $0.10. Your bonus pay is now $0.18.</p>\n            ","response":0,"trial_type":"html-button-response","trial_index":56,"time_elapsed":753968,"internal_node_id":"0.0-4.0-1.22","subject_id":"61721801de15feaf7ae0e40a","study_id":"60edd13110225f80f9f3709b","session_id":"6196bf600e75314455173721","condition":"contingent","relevant_dimensions":["wings","legs"],"bee_group":{"antennae":"X","wings":"1","pattern":"X","legs":"M"},"bonus":0.08},{"rt":1334.300000011921,"stimulus":"bees-with-color/bee-B2DF.svg","response":0,"trial_type":"image-button-response","trial_index":57,"time_elapsed":755305,"internal_node_id":"0.0-4.0-0.23","subject_id":"61721801de15feaf7ae0e40a","study_id":"60edd13110225f80f9f3709b","session_id":"6196bf600e75314455173721","condition":"contingent","relevant_dimensions":["wings","legs"],"bee_group":{"antennae":"X","wings":"1","pattern":"X","legs":"M"},"action":"harvest","summary":"good-harvest","bonus":0.08},{"rt":1286.0999999642372,"stimulus":"\n                    <p><b>Action: <em>harvest</em></b></p>\n                    <p>This is the bee that you just saw.</p>\n                    <img src=\"bees-with-color/bee-B2DF.svg\" width=\"200\">\n                    <p><span class=\"greenText\"><b>Successful harvest!</b></span><br>Your pay has increased by $0.02. Your bonus pay is now $0.20.</p>\n            ","response":0,"trial_type":"html-button-response","trial_index":58,"time_elapsed":756592,"internal_node_id":"0.0-4.0-1.23","subject_id":"61721801de15feaf7ae0e40a","study_id":"60edd13110225f80f9f3709b","session_id":"6196bf600e75314455173721","condition":"contingent","relevant_dimensions":["wings","legs"],"bee_group":{"antennae":"X","wings":"1","pattern":"X","legs":"M"},"bonus":0.08},{"rt":2734.699999988079,"stimulus":"bees-with-color/bee-B2DM.svg","response":0,"trial_type":"image-button-response","trial_index":59,"time_elapsed":759328,"internal_node_id":"0.0-4.0-0.24","subject_id":"61721801de15feaf7ae0e40a","study_id":"60edd13110225f80f9f3709b","session_id":"6196bf600e75314455173721","condition":"contingent","relevant_dimensions":["wings","legs"],"bee_group":{"antennae":"X","wings":"1","pattern":"X","legs":"M"},"action":"harvest","summary":"good-harvest","bonus":0.08},{"rt":1598.199999988079,"stimulus":"\n                    <p><b>Action: <em>harvest</em></b></p>\n                    <p>This is the bee that you just saw.</p>\n                    <img src=\"bees-with-color/bee-B2DM.svg\" width=\"200\">\n                    <p><span class=\"greenText\"><b>Successful harvest!</b></span><br>Your pay has increased by $0.02. Your bonus pay is now $0.22.</p>\n            ","response":0,"trial_type":"html-button-response","trial_index":60,"time_elapsed":760929,"internal_node_id":"0.0-4.0-1.24","subject_id":"61721801de15feaf7ae0e40a","study_id":"60edd13110225f80f9f3709b","session_id":"6196bf600e75314455173721","condition":"contingent","relevant_dimensions":["wings","legs"],"bee_group":{"antennae":"X","wings":"1","pattern":"X","legs":"M"},"bonus":0.08},{"rt":2109.800000011921,"stimulus":"bees-with-color/bee-B1DM.svg","response":1,"trial_type":"image-button-response","trial_index":61,"time_elapsed":763041,"internal_node_id":"0.0-4.0-0.25","subject_id":"61721801de15feaf7ae0e40a","study_id":"60edd13110225f80f9f3709b","session_id":"6196bf600e75314455173721","condition":"contingent","relevant_dimensions":["wings","legs"],"bee_group":{"antennae":"X","wings":"1","pattern":"X","legs":"M"},"action":"avoid","summary":"good-avoid","bonus":0.08},{"rt":1158.1000000238419,"stimulus":"\n                    <p><b>Action: <em>avoid</em></b></p>\n                    <p>This is the bee that you just saw.</p>\n                    <img src=\"bees-with-color/bee-B1DM.svg\" width=\"200\">\n                    <p><br>Your bonus pay is unchanged, and remains at $0.22.</p>\n            ","response":0,"trial_type":"html-button-response","trial_index":62,"time_elapsed":764201,"internal_node_id":"0.0-4.0-1.25","subject_id":"61721801de15feaf7ae0e40a","study_id":"60edd13110225f80f9f3709b","session_id":"6196bf600e75314455173721","condition":"contingent","relevant_dimensions":["wings","legs"],"bee_group":{"antennae":"X","wings":"1","pattern":"X","legs":"M"},"bonus":0.08},{"rt":2382.300000011921,"stimulus":"bees-with-color/bee-B1SM.svg","response":0,"trial_type":"image-button-response","trial_index":63,"time_elapsed":766585,"internal_node_id":"0.0-4.0-0.26","subject_id":"61721801de15feaf7ae0e40a","study_id":"60edd13110225f80f9f3709b","session_id":"6196bf600e75314455173721","condition":"contingent","relevant_dimensions":["wings","legs"],"bee_group":{"antennae":"X","wings":"1","pattern":"X","legs":"M"},"action":"harvest","summary":"bad-harvest","bonus":0.08},{"rt":1797.3999999761581,"stimulus":"\n                    <p><b>Action: <em>harvest</em></b></p>\n                    <p>This is the bee that you just saw.</p>\n                    <img src=\"bees-with-color/bee-B1SM.svg\" width=\"200\">\n                    <p><span class=\"redText\">Bad choice, the bee was angry.</span><br><b>You have been stung!</b><br>Your pay has been decreased by $0.10. Your bonus pay is now $0.12.</p>\n            ","response":0,"trial_type":"html-button-response","trial_index":64,"time_elapsed":768385,"internal_node_id":"0.0-4.0-1.26","subject_id":"61721801de15feaf7ae0e40a","study_id":"60edd13110225f80f9f3709b","session_id":"6196bf600e75314455173721","condition":"contingent","relevant_dimensions":["wings","legs"],"bee_group":{"antennae":"X","wings":"1","pattern":"X","legs":"M"},"bonus":0.08},{"rt":1197.699999988079,"stimulus":"bees-with-color/bee-A2DM.svg","response":0,"trial_type":"image-button-response","trial_index":65,"time_elapsed":769585,"internal_node_id":"0.0-4.0-0.27","subject_id":"61721801de15feaf7ae0e40a","study_id":"60edd13110225f80f9f3709b","session_id":"6196bf600e75314455173721","condition":"contingent","relevant_dimensions":["wings","legs"],"bee_group":{"antennae":"X","wings":"1","pattern":"X","legs":"M"},"action":"harvest","summary":"good-harvest","bonus":0.08},{"rt":1054.699999988079,"stimulus":"\n                    <p><b>Action: <em>harvest</em></b></p>\n                    <p>This is the bee that you just saw.</p>\n                    <img src=\"bees-with-color/bee-A2DM.svg\" width=\"200\">\n                    <p><span class=\"greenText\"><b>Successful harvest!</b></span><br>Your pay has increased by $0.02. Your bonus pay is now $0.14.</p>\n            ","response":0,"trial_type":"html-button-response","trial_index":66,"time_elapsed":770641,"internal_node_id":"0.0-4.0-1.27","subject_id":"61721801de15feaf7ae0e40a","study_id":"60edd13110225f80f9f3709b","session_id":"6196bf600e75314455173721","condition":"contingent","relevant_dimensions":["wings","legs"],"bee_group":{"antennae":"X","wings":"1","pattern":"X","legs":"M"},"bonus":0.08},{"rt":1061.6000000238419,"stimulus":"bees-with-color/bee-B2SM.svg","response":0,"trial_type":"image-button-response","trial_index":67,"time_elapsed":771705,"internal_node_id":"0.0-4.0-0.28","subject_id":"61721801de15feaf7ae0e40a","study_id":"60edd13110225f80f9f3709b","session_id":"6196bf600e75314455173721","condition":"contingent","relevant_dimensions":["wings","legs"],"bee_group":{"antennae":"X","wings":"1","pattern":"X","legs":"M"},"action":"harvest","summary":"good-harvest","bonus":0.08},{"rt":1166.1000000238419,"stimulus":"\n                    <p><b>Action: <em>harvest</em></b></p>\n                    <p>This is the bee that you just saw.</p>\n                    <img src=\"bees-with-color/bee-B2SM.svg\" width=\"200\">\n                    <p><span class=\"greenText\"><b>Successful harvest!</b></span><br>Your pay has increased by $0.02. Your bonus pay is now $0.16.</p>\n            ","response":0,"trial_type":"html-button-response","trial_index":68,"time_elapsed":772873,"internal_node_id":"0.0-4.0-1.28","subject_id":"61721801de15feaf7ae0e40a","study_id":"60edd13110225f80f9f3709b","session_id":"6196bf600e75314455173721","condition":"contingent","relevant_dimensions":["wings","legs"],"bee_group":{"antennae":"X","wings":"1","pattern":"X","legs":"M"},"bonus":0.08},{"rt":1566.5,"stimulus":"bees-with-color/bee-B2SF.svg","response":0,"trial_type":"image-button-response","trial_index":69,"time_elapsed":774441,"internal_node_id":"0.0-4.0-0.29","subject_id":"61721801de15feaf7ae0e40a","study_id":"60edd13110225f80f9f3709b","session_id":"6196bf600e75314455173721","condition":"contingent","relevant_dimensions":["wings","legs"],"bee_group":{"antennae":"X","wings":"1","pattern":"X","legs":"M"},"action":"harvest","summary":"good-harvest","bonus":0.08},{"rt":1845.8999999761581,"stimulus":"\n                    <p><b>Action: <em>harvest</em></b></p>\n                    <p>This is the bee that you just saw.</p>\n                    <img src=\"bees-with-color/bee-B2SF.svg\" width=\"200\">\n                    <p><span class=\"greenText\"><b>Successful harvest!</b></span><br>Your pay has increased by $0.02. Your bonus pay is now $0.18.</p>\n            ","response":0,"trial_type":"html-button-response","trial_index":70,"time_elapsed":776288,"internal_node_id":"0.0-4.0-1.29","subject_id":"61721801de15feaf7ae0e40a","study_id":"60edd13110225f80f9f3709b","session_id":"6196bf600e75314455173721","condition":"contingent","relevant_dimensions":["wings","legs"],"bee_group":{"antennae":"X","wings":"1","pattern":"X","legs":"M"},"bonus":0.08},{"rt":1990.6000000238419,"stimulus":"bees-with-color/bee-A2SM.svg","response":0,"trial_type":"image-button-response","trial_index":71,"time_elapsed":778280,"internal_node_id":"0.0-4.0-0.30","subject_id":"61721801de15feaf7ae0e40a","study_id":"60edd13110225f80f9f3709b","session_id":"6196bf600e75314455173721","condition":"contingent","relevant_dimensions":["wings","legs"],"bee_group":{"antennae":"X","wings":"1","pattern":"X","legs":"M"},"action":"harvest","summary":"good-harvest","bonus":0.08},{"rt":1734.800000011921,"stimulus":"\n                    <p><b>Action: <em>harvest</em></b></p>\n                    <p>This is the bee that you just saw.</p>\n                    <img src=\"bees-with-color/bee-A2SM.svg\" width=\"200\">\n                    <p><span class=\"greenText\"><b>Successful harvest!</b></span><br>Your pay has increased by $0.02. Your bonus pay is now $0.20.</p>\n            ","response":0,"trial_type":"html-button-response","trial_index":72,"time_elapsed":780016,"internal_node_id":"0.0-4.0-1.30","subject_id":"61721801de15feaf7ae0e40a","study_id":"60edd13110225f80f9f3709b","session_id":"6196bf600e75314455173721","condition":"contingent","relevant_dimensions":["wings","legs"],"bee_group":{"antennae":"X","wings":"1","pattern":"X","legs":"M"},"bonus":0.08},{"rt":3126.5,"stimulus":"bees-with-color/bee-A1DF.svg","response":1,"trial_type":"image-button-response","trial_index":73,"time_elapsed":783144,"internal_node_id":"0.0-4.0-0.31","subject_id":"61721801de15feaf7ae0e40a","study_id":"60edd13110225f80f9f3709b","session_id":"6196bf600e75314455173721","condition":"contingent","relevant_dimensions":["wings","legs"],"bee_group":{"antennae":"X","wings":"1","pattern":"X","legs":"M"},"action":"avoid","summary":"bad-avoid","bonus":0.08},{"rt":1014.8000000119209,"stimulus":"\n                    <p><b>Action: <em>avoid</em></b></p>\n                    <p>This is the bee that you just saw.</p>\n                    <img src=\"bees-with-color/bee-A1DF.svg\" width=\"200\">\n                    <p><br>Your bonus pay is unchanged, and remains at $0.20.</p>\n            ","response":0,"trial_type":"html-button-response","trial_index":74,"time_elapsed":784160,"internal_node_id":"0.0-4.0-1.31","subject_id":"61721801de15feaf7ae0e40a","study_id":"60edd13110225f80f9f3709b","session_id":"6196bf600e75314455173721","condition":"contingent","relevant_dimensions":["wings","legs"],"bee_group":{"antennae":"X","wings":"1","pattern":"X","legs":"M"},"bonus":0.08},{"rt":2310.100000023842,"stimulus":"bees-with-color/bee-A2SF.svg","response":0,"trial_type":"image-button-response","trial_index":75,"time_elapsed":786472,"internal_node_id":"0.0-4.0-0.32","subject_id":"61721801de15feaf7ae0e40a","study_id":"60edd13110225f80f9f3709b","session_id":"6196bf600e75314455173721","condition":"contingent","relevant_dimensions":["wings","legs"],"bee_group":{"antennae":"X","wings":"1","pattern":"X","legs":"M"},"action":"harvest","summary":"good-harvest","bonus":0.08},{"rt":1318.5999999642372,"stimulus":"\n                    <p><b>Action: <em>harvest</em></b></p>\n                    <p>This is the bee that you just saw.</p>\n                    <img src=\"bees-with-color/bee-A2SF.svg\" width=\"200\">\n                    <p><span class=\"greenText\"><b>Successful harvest!</b></span><br>Your pay has increased by $0.02. Your bonus pay is now $0.22.</p>\n            ","response":0,"trial_type":"html-button-response","trial_index":76,"time_elapsed":787792,"internal_node_id":"0.0-4.0-1.32","subject_id":"61721801de15feaf7ae0e40a","study_id":"60edd13110225f80f9f3709b","session_id":"6196bf600e75314455173721","condition":"contingent","relevant_dimensions":["wings","legs"],"bee_group":{"antennae":"X","wings":"1","pattern":"X","legs":"M"},"bonus":0.08},{"rt":8254.5,"stimulus":"bees-with-color/bee-B2DM.svg","response":0,"trial_type":"image-button-response","trial_index":77,"time_elapsed":796048,"internal_node_id":"0.0-4.0-0.33","subject_id":"61721801de15feaf7ae0e40a","study_id":"60edd13110225f80f9f3709b","session_id":"6196bf600e75314455173721","condition":"contingent","relevant_dimensions":["wings","legs"],"bee_group":{"antennae":"X","wings":"1","pattern":"X","legs":"M"},"action":"harvest","summary":"good-harvest","bonus":0.08},{"rt":1214.0999999642372,"stimulus":"\n                    <p><b>Action: <em>harvest</em></b></p>\n                    <p>This is the bee that you just saw.</p>\n                    <img src=\"bees-with-color/bee-B2DM.svg\" width=\"200\">\n                    <p><span class=\"greenText\"><b>Successful harvest!</b></span><br>Your pay has increased by $0.02. Your bonus pay is now $0.24.</p>\n            ","response":0,"trial_type":"html-button-response","trial_index":78,"time_elapsed":797264,"internal_node_id":"0.0-4.0-1.33","subject_id":"61721801de15feaf7ae0e40a","study_id":"60edd13110225f80f9f3709b","session_id":"6196bf600e75314455173721","condition":"contingent","relevant_dimensions":["wings","legs"],"bee_group":{"antennae":"X","wings":"1","pattern":"X","legs":"M"},"bonus":0.08},{"rt":2709.899999976158,"stimulus":"bees-with-color/bee-B1SF.svg","response":1,"trial_type":"image-button-response","trial_index":79,"time_elapsed":799976,"internal_node_id":"0.0-4.0-0.34","subject_id":"61721801de15feaf7ae0e40a","study_id":"60edd13110225f80f9f3709b","session_id":"6196bf600e75314455173721","condition":"contingent","relevant_dimensions":["wings","legs"],"bee_group":{"antennae":"X","wings":"1","pattern":"X","legs":"M"},"action":"avoid","summary":"bad-avoid","bonus":0.08},{"rt":1263,"stimulus":"\n                    <p><b>Action: <em>avoid</em></b></p>\n                    <p>This is the bee that you just saw.</p>\n                    <img src=\"bees-with-color/bee-B1SF.svg\" width=\"200\">\n                    <p><br>Your bonus pay is unchanged, and remains at $0.24.</p>\n            ","response":0,"trial_type":"html-button-response","trial_index":80,"time_elapsed":801241,"internal_node_id":"0.0-4.0-1.34","subject_id":"61721801de15feaf7ae0e40a","study_id":"60edd13110225f80f9f3709b","session_id":"6196bf600e75314455173721","condition":"contingent","relevant_dimensions":["wings","legs"],"bee_group":{"antennae":"X","wings":"1","pattern":"X","legs":"M"},"bonus":0.08},{"rt":3749.699999988079,"stimulus":"bees-with-color/bee-B1SM.svg","response":0,"trial_type":"image-button-response","trial_index":81,"time_elapsed":804992,"internal_node_id":"0.0-4.0-0.35","subject_id":"61721801de15feaf7ae0e40a","study_id":"60edd13110225f80f9f3709b","session_id":"6196bf600e75314455173721","condition":"contingent","relevant_dimensions":["wings","legs"],"bee_group":{"antennae":"X","wings":"1","pattern":"X","legs":"M"},"action":"harvest","summary":"bad-harvest","bonus":0.08},{"rt":1758.3999999761581,"stimulus":"\n                    <p><b>Action: <em>harvest</em></b></p>\n                    <p>This is the bee that you just saw.</p>\n                    <img src=\"bees-with-color/bee-B1SM.svg\" width=\"200\">\n                    <p><span class=\"redText\">Bad choice, the bee was angry.</span><br><b>You have been stung!</b><br>Your pay has been decreased by $0.10. Your bonus pay is now $0.14.</p>\n            ","response":0,"trial_type":"html-button-response","trial_index":82,"time_elapsed":806752,"internal_node_id":"0.0-4.0-1.35","subject_id":"61721801de15feaf7ae0e40a","study_id":"60edd13110225f80f9f3709b","session_id":"6196bf600e75314455173721","condition":"contingent","relevant_dimensions":["wings","legs"],"bee_group":{"antennae":"X","wings":"1","pattern":"X","legs":"M"},"bonus":0.08},{"rt":1726.0999999642372,"stimulus":"bees-with-color/bee-B2SF.svg","response":0,"trial_type":"image-button-response","trial_index":83,"time_elapsed":808480,"internal_node_id":"0.0-4.0-0.36","subject_id":"61721801de15feaf7ae0e40a","study_id":"60edd13110225f80f9f3709b","session_id":"6196bf600e75314455173721","condition":"contingent","relevant_dimensions":["wings","legs"],"bee_group":{"antennae":"X","wings":"1","pattern":"X","legs":"M"},"action":"harvest","summary":"good-harvest","bonus":0.08},{"rt":1325.300000011921,"stimulus":"\n                    <p><b>Action: <em>harvest</em></b></p>\n                    <p>This is the bee that you just saw.</p>\n                    <img src=\"bees-with-color/bee-B2SF.svg\" width=\"200\">\n                    <p><span class=\"greenText\"><b>Successful harvest!</b></span><br>Your pay has increased by $0.02. Your bonus pay is now $0.16.</p>\n            ","response":0,"trial_type":"html-button-response","trial_index":84,"time_elapsed":809808,"internal_node_id":"0.0-4.0-1.36","subject_id":"61721801de15feaf7ae0e40a","study_id":"60edd13110225f80f9f3709b","session_id":"6196bf600e75314455173721","condition":"contingent","relevant_dimensions":["wings","legs"],"bee_group":{"antennae":"X","wings":"1","pattern":"X","legs":"M"},"bonus":0.08},{"rt":5310.300000011921,"stimulus":"bees-with-color/bee-B1DM.svg","response":0,"trial_type":"image-button-response","trial_index":85,"time_elapsed":815120,"internal_node_id":"0.0-4.0-0.37","subject_id":"61721801de15feaf7ae0e40a","study_id":"60edd13110225f80f9f3709b","session_id":"6196bf600e75314455173721","condition":"contingent","relevant_dimensions":["wings","legs"],"bee_group":{"antennae":"X","wings":"1","pattern":"X","legs":"M"},"action":"harvest","summary":"bad-harvest","bonus":0.08},{"rt":1246.3999999761581,"stimulus":"\n                    <p><b>Action: <em>harvest</em></b></p>\n                    <p>This is the bee that you just saw.</p>\n                    <img src=\"bees-with-color/bee-B1DM.svg\" width=\"200\">\n                    <p><span class=\"redText\">Bad choice, the bee was angry.</span><br><b>You have been stung!</b><br>Your pay has been decreased by $0.10. Your bonus pay is now $0.06.</p>\n            ","response":0,"trial_type":"html-button-response","trial_index":86,"time_elapsed":816368,"internal_node_id":"0.0-4.0-1.37","subject_id":"61721801de15feaf7ae0e40a","study_id":"60edd13110225f80f9f3709b","session_id":"6196bf600e75314455173721","condition":"contingent","relevant_dimensions":["wings","legs"],"bee_group":{"antennae":"X","wings":"1","pattern":"X","legs":"M"},"bonus":0.08},{"rt":1830.199999988079,"stimulus":"bees-with-color/bee-A1SF.svg","response":0,"trial_type":"image-button-response","trial_index":87,"time_elapsed":818201,"internal_node_id":"0.0-4.0-0.38","subject_id":"61721801de15feaf7ae0e40a","study_id":"60edd13110225f80f9f3709b","session_id":"6196bf600e75314455173721","condition":"contingent","relevant_dimensions":["wings","legs"],"bee_group":{"antennae":"X","wings":"1","pattern":"X","legs":"M"},"action":"harvest","summary":"good-harvest","bonus":0.08},{"rt":1325.800000011921,"stimulus":"\n                    <p><b>Action: <em>harvest</em></b></p>\n                    <p>This is the bee that you just saw.</p>\n                    <img src=\"bees-with-color/bee-A1SF.svg\" width=\"200\">\n                    <p><span class=\"greenText\"><b>Successful harvest!</b></span><br>Your pay has increased by $0.02. Your bonus pay is now $0.08.</p>\n            ","response":0,"trial_type":"html-button-response","trial_index":88,"time_elapsed":819528,"internal_node_id":"0.0-4.0-1.38","subject_id":"61721801de15feaf7ae0e40a","study_id":"60edd13110225f80f9f3709b","session_id":"6196bf600e75314455173721","condition":"contingent","relevant_dimensions":["wings","legs"],"bee_group":{"antennae":"X","wings":"1","pattern":"X","legs":"M"},"bonus":0.08},{"rt":3614.300000011921,"stimulus":"bees-with-color/bee-A1DF.svg","response":1,"trial_type":"image-button-response","trial_index":89,"time_elapsed":823144,"internal_node_id":"0.0-4.0-0.39","subject_id":"61721801de15feaf7ae0e40a","study_id":"60edd13110225f80f9f3709b","session_id":"6196bf600e75314455173721","condition":"contingent","relevant_dimensions":["wings","legs"],"bee_group":{"antennae":"X","wings":"1","pattern":"X","legs":"M"},"action":"avoid","summary":"bad-avoid","bonus":0.08},{"rt":1878,"stimulus":"\n                    <p><b>Action: <em>avoid</em></b></p>\n                    <p>This is the bee that you just saw.</p>\n                    <img src=\"bees-with-color/bee-A1DF.svg\" width=\"200\">\n                    <p><br>Your bonus pay is unchanged, and remains at $0.08.</p>\n            ","response":0,"trial_type":"html-button-response","trial_index":90,"time_elapsed":825025,"internal_node_id":"0.0-4.0-1.39","subject_id":"61721801de15feaf7ae0e40a","study_id":"60edd13110225f80f9f3709b","session_id":"6196bf600e75314455173721","condition":"contingent","relevant_dimensions":["wings","legs"],"bee_group":{"antennae":"X","wings":"1","pattern":"X","legs":"M"},"bonus":0.08},{"rt":2862,"stimulus":"bees-with-color/bee-A1SM.svg","response":0,"trial_type":"image-button-response","trial_index":91,"time_elapsed":827888,"internal_node_id":"0.0-4.0-0.40","subject_id":"61721801de15feaf7ae0e40a","study_id":"60edd13110225f80f9f3709b","session_id":"6196bf600e75314455173721","condition":"contingent","relevant_dimensions":["wings","legs"],"bee_group":{"antennae":"X","wings":"1","pattern":"X","legs":"M"},"action":"harvest","summary":"bad-harvest","bonus":0.08},{"rt":3070.400000035763,"stimulus":"\n                    <p><b>Action: <em>harvest</em></b></p>\n                    <p>This is the bee that you just saw.</p>\n                    <img src=\"bees-with-color/bee-A1SM.svg\" width=\"200\">\n                    <p><span class=\"redText\">Bad choice, the bee was angry.</span><br><b>You have been stung!</b><br>Your pay has been decreased by $0.10. Your bonus pay is now $0.00.</p>\n            ","response":0,"trial_type":"html-button-response","trial_index":92,"time_elapsed":830960,"internal_node_id":"0.0-4.0-1.40","subject_id":"61721801de15feaf7ae0e40a","study_id":"60edd13110225f80f9f3709b","session_id":"6196bf600e75314455173721","condition":"contingent","relevant_dimensions":["wings","legs"],"bee_group":{"antennae":"X","wings":"1","pattern":"X","legs":"M"},"bonus":0.08},{"rt":2294.100000023842,"stimulus":"bees-with-color/bee-B1DF.svg","response":1,"trial_type":"image-button-response","trial_index":93,"time_elapsed":833256,"internal_node_id":"0.0-4.0-0.41","subject_id":"61721801de15feaf7ae0e40a","study_id":"60edd13110225f80f9f3709b","session_id":"6196bf600e75314455173721","condition":"contingent","relevant_dimensions":["wings","legs"],"bee_group":{"antennae":"X","wings":"1","pattern":"X","legs":"M"},"action":"avoid","summary":"bad-avoid","bonus":0.08},{"rt":1510.800000011921,"stimulus":"\n                    <p><b>Action: <em>avoid</em></b></p>\n                    <p>This is the bee that you just saw.</p>\n                    <img src=\"bees-with-color/bee-B1DF.svg\" width=\"200\">\n                    <p><br>Your bonus pay is unchanged, and remains at $0.00.</p>\n            ","response":0,"trial_type":"html-button-response","trial_index":94,"time_elapsed":834769,"internal_node_id":"0.0-4.0-1.41","subject_id":"61721801de15feaf7ae0e40a","study_id":"60edd13110225f80f9f3709b","session_id":"6196bf600e75314455173721","condition":"contingent","relevant_dimensions":["wings","legs"],"bee_group":{"antennae":"X","wings":"1","pattern":"X","legs":"M"},"bonus":0.08},{"rt":1758,"stimulus":"bees-with-color/bee-B2SM.svg","response":0,"trial_type":"image-button-response","trial_index":95,"time_elapsed":836529,"internal_node_id":"0.0-4.0-0.42","subject_id":"61721801de15feaf7ae0e40a","study_id":"60edd13110225f80f9f3709b","session_id":"6196bf600e75314455173721","condition":"contingent","relevant_dimensions":["wings","legs"],"bee_group":{"antennae":"X","wings":"1","pattern":"X","legs":"M"},"action":"harvest","summary":"good-harvest","bonus":0.08},{"rt":1550.199999988079,"stimulus":"\n                    <p><b>Action: <em>harvest</em></b></p>\n                    <p>This is the bee that you just saw.</p>\n                    <img src=\"bees-with-color/bee-B2SM.svg\" width=\"200\">\n                    <p><span class=\"greenText\"><b>Successful harvest!</b></span><br>Your pay has increased by $0.02. Your bonus pay is now $0.02.</p>\n            ","response":0,"trial_type":"html-button-response","trial_index":96,"time_elapsed":838081,"internal_node_id":"0.0-4.0-1.42","subject_id":"61721801de15feaf7ae0e40a","study_id":"60edd13110225f80f9f3709b","session_id":"6196bf600e75314455173721","condition":"contingent","relevant_dimensions":["wings","legs"],"bee_group":{"antennae":"X","wings":"1","pattern":"X","legs":"M"},"bonus":0.08},{"rt":2254.399999976158,"stimulus":"bees-with-color/bee-A2DM.svg","response":0,"trial_type":"image-button-response","trial_index":97,"time_elapsed":840337,"internal_node_id":"0.0-4.0-0.43","subject_id":"61721801de15feaf7ae0e40a","study_id":"60edd13110225f80f9f3709b","session_id":"6196bf600e75314455173721","condition":"contingent","relevant_dimensions":["wings","legs"],"bee_group":{"antennae":"X","wings":"1","pattern":"X","legs":"M"},"action":"harvest","summary":"good-harvest","bonus":0.08},{"rt":2551,"stimulus":"\n                    <p><b>Action: <em>harvest</em></b></p>\n                    <p>This is the bee that you just saw.</p>\n                    <img src=\"bees-with-color/bee-A2DM.svg\" width=\"200\">\n                    <p><span class=\"greenText\"><b>Successful harvest!</b></span><br>Your pay has increased by $0.02. Your bonus pay is now $0.04.</p>\n            ","response":0,"trial_type":"html-button-response","trial_index":98,"time_elapsed":842890,"internal_node_id":"0.0-4.0-1.43","subject_id":"61721801de15feaf7ae0e40a","study_id":"60edd13110225f80f9f3709b","session_id":"6196bf600e75314455173721","condition":"contingent","relevant_dimensions":["wings","legs"],"bee_group":{"antennae":"X","wings":"1","pattern":"X","legs":"M"},"bonus":0.08},{"rt":2845.899999976158,"stimulus":"bees-with-color/bee-A1DM.svg","response":0,"trial_type":"image-button-response","trial_index":99,"time_elapsed":845737,"internal_node_id":"0.0-4.0-0.44","subject_id":"61721801de15feaf7ae0e40a","study_id":"60edd13110225f80f9f3709b","session_id":"6196bf600e75314455173721","condition":"contingent","relevant_dimensions":["wings","legs"],"bee_group":{"antennae":"X","wings":"1","pattern":"X","legs":"M"},"action":"harvest","summary":"bad-harvest","bonus":0.08},{"rt":1390.699999988079,"stimulus":"\n                    <p><b>Action: <em>harvest</em></b></p>\n                    <p>This is the bee that you just saw.</p>\n                    <img src=\"bees-with-color/bee-A1DM.svg\" width=\"200\">\n                    <p><span class=\"redText\">Bad choice, the bee was angry.</span><br><b>You have been stung!</b><br>Your pay has been decreased by $0.10. Your bonus pay is now $0.00.</p>\n            ","response":0,"trial_type":"html-button-response","trial_index":100,"time_elapsed":847129,"internal_node_id":"0.0-4.0-1.44","subject_id":"61721801de15feaf7ae0e40a","study_id":"60edd13110225f80f9f3709b","session_id":"6196bf600e75314455173721","condition":"contingent","relevant_dimensions":["wings","legs"],"bee_group":{"antennae":"X","wings":"1","pattern":"X","legs":"M"},"bonus":0.08},{"rt":1574.6000000238419,"stimulus":"bees-with-color/bee-A2SM.svg","response":0,"trial_type":"image-button-response","trial_index":101,"time_elapsed":848705,"internal_node_id":"0.0-4.0-0.45","subject_id":"61721801de15feaf7ae0e40a","study_id":"60edd13110225f80f9f3709b","session_id":"6196bf600e75314455173721","condition":"contingent","relevant_dimensions":["wings","legs"],"bee_group":{"antennae":"X","wings":"1","pattern":"X","legs":"M"},"action":"harvest","summary":"good-harvest","bonus":0.08},{"rt":1126.4000000357628,"stimulus":"\n                    <p><b>Action: <em>harvest</em></b></p>\n                    <p>This is the bee that you just saw.</p>\n                    <img src=\"bees-with-color/bee-A2SM.svg\" width=\"200\">\n                    <p><span class=\"greenText\"><b>Successful harvest!</b></span><br>Your pay has increased by $0.02. Your bonus pay is now $0.02.</p>\n            ","response":0,"trial_type":"html-button-response","trial_index":102,"time_elapsed":849833,"internal_node_id":"0.0-4.0-1.45","subject_id":"61721801de15feaf7ae0e40a","study_id":"60edd13110225f80f9f3709b","session_id":"6196bf600e75314455173721","condition":"contingent","relevant_dimensions":["wings","legs"],"bee_group":{"antennae":"X","wings":"1","pattern":"X","legs":"M"},"bonus":0.08},{"rt":4390.800000011921,"stimulus":"bees-with-color/bee-A2DF.svg","response":0,"trial_type":"image-button-response","trial_index":103,"time_elapsed":854225,"internal_node_id":"0.0-4.0-0.46","subject_id":"61721801de15feaf7ae0e40a","study_id":"60edd13110225f80f9f3709b","session_id":"6196bf600e75314455173721","condition":"contingent","relevant_dimensions":["wings","legs"],"bee_group":{"antennae":"X","wings":"1","pattern":"X","legs":"M"},"action":"harvest","summary":"good-harvest","bonus":0.08},{"rt":1165.8999999761581,"stimulus":"\n                    <p><b>Action: <em>harvest</em></b></p>\n                    <p>This is the bee that you just saw.</p>\n                    <img src=\"bees-with-color/bee-A2DF.svg\" width=\"200\">\n                    <p><span class=\"greenText\"><b>Successful harvest!</b></span><br>Your pay has increased by $0.02. Your bonus pay is now $0.04.</p>\n            ","response":0,"trial_type":"html-button-response","trial_index":104,"time_elapsed":855393,"internal_node_id":"0.0-4.0-1.46","subject_id":"61721801de15feaf7ae0e40a","study_id":"60edd13110225f80f9f3709b","session_id":"6196bf600e75314455173721","condition":"contingent","relevant_dimensions":["wings","legs"],"bee_group":{"antennae":"X","wings":"1","pattern":"X","legs":"M"},"bonus":0.08},{"rt":2189.7999999523163,"stimulus":"bees-with-color/bee-B2DF.svg","response":0,"trial_type":"image-button-response","trial_index":105,"time_elapsed":857585,"internal_node_id":"0.0-4.0-0.47","subject_id":"61721801de15feaf7ae0e40a","study_id":"60edd13110225f80f9f3709b","session_id":"6196bf600e75314455173721","condition":"contingent","relevant_dimensions":["wings","legs"],"bee_group":{"antennae":"X","wings":"1","pattern":"X","legs":"M"},"action":"harvest","summary":"good-harvest","bonus":0.08},{"rt":1246.699999988079,"stimulus":"\n                    <p><b>Action: <em>harvest</em></b></p>\n                    <p>This is the bee that you just saw.</p>\n                    <img src=\"bees-with-color/bee-B2DF.svg\" width=\"200\">\n                    <p><span class=\"greenText\"><b>Successful harvest!</b></span><br>Your pay has increased by $0.02. Your bonus pay is now $0.06.</p>\n            ","response":0,"trial_type":"html-button-response","trial_index":106,"time_elapsed":858833,"internal_node_id":"0.0-4.0-1.47","subject_id":"61721801de15feaf7ae0e40a","study_id":"60edd13110225f80f9f3709b","session_id":"6196bf600e75314455173721","condition":"contingent","relevant_dimensions":["wings","legs"],"bee_group":{"antennae":"X","wings":"1","pattern":"X","legs":"M"},"bonus":0.08},{"rt":1951.5,"stimulus":"bees-with-color/bee-B2SF.svg","response":0,"trial_type":"image-button-response","trial_index":107,"time_elapsed":860786,"internal_node_id":"0.0-4.0-0.48","subject_id":"61721801de15feaf7ae0e40a","study_id":"60edd13110225f80f9f3709b","session_id":"6196bf600e75314455173721","condition":"contingent","relevant_dimensions":["wings","legs"],"bee_group":{"antennae":"X","wings":"1","pattern":"X","legs":"M"},"action":"harvest","summary":"good-harvest","bonus":0.08},{"rt":1510,"stimulus":"\n                    <p><b>Action: <em>harvest</em></b></p>\n                    <p>This is the bee that you just saw.</p>\n                    <img src=\"bees-with-color/bee-B2SF.svg\" width=\"200\">\n                    <p><span class=\"greenText\"><b>Successful harvest!</b></span><br>Your pay has increased by $0.02. Your bonus pay is now $0.08.</p>\n            ","response":0,"trial_type":"html-button-response","trial_index":108,"time_elapsed":862297,"internal_node_id":"0.0-4.0-1.48","subject_id":"61721801de15feaf7ae0e40a","study_id":"60edd13110225f80f9f3709b","session_id":"6196bf600e75314455173721","condition":"contingent","relevant_dimensions":["wings","legs"],"bee_group":{"antennae":"X","wings":"1","pattern":"X","legs":"M"},"bonus":0.08},{"rt":2654.5,"stimulus":"bees-with-color/bee-B2DF.svg","response":1,"trial_type":"image-button-response","trial_index":109,"time_elapsed":864954,"internal_node_id":"0.0-4.0-0.49","subject_id":"61721801de15feaf7ae0e40a","study_id":"60edd13110225f80f9f3709b","session_id":"6196bf600e75314455173721","condition":"contingent","relevant_dimensions":["wings","legs"],"bee_group":{"antennae":"X","wings":"1","pattern":"X","legs":"M"},"action":"avoid","summary":"bad-avoid","bonus":0.08},{"rt":1062.3999999761581,"stimulus":"\n                    <p><b>Action: <em>avoid</em></b></p>\n                    <p>This is the bee that you just saw.</p>\n                    <img src=\"bees-with-color/bee-B2DF.svg\" width=\"200\">\n                    <p><br>Your bonus pay is unchanged, and remains at $0.08.</p>\n            ","response":0,"trial_type":"html-button-response","trial_index":110,"time_elapsed":866018,"internal_node_id":"0.0-4.0-1.49","subject_id":"61721801de15feaf7ae0e40a","study_id":"60edd13110225f80f9f3709b","session_id":"6196bf600e75314455173721","condition":"contingent","relevant_dimensions":["wings","legs"],"bee_group":{"antennae":"X","wings":"1","pattern":"X","legs":"M"},"bonus":0.08},{"rt":3542.5,"stimulus":"bees-with-color/bee-A2SM.svg","response":0,"trial_type":"image-button-response","trial_index":111,"time_elapsed":869562,"internal_node_id":"0.0-4.0-0.50","subject_id":"61721801de15feaf7ae0e40a","study_id":"60edd13110225f80f9f3709b","session_id":"6196bf600e75314455173721","condition":"contingent","relevant_dimensions":["wings","legs"],"bee_group":{"antennae":"X","wings":"1","pattern":"X","legs":"M"},"action":"harvest","summary":"good-harvest","bonus":0.08},{"rt":1348.5,"stimulus":"\n                    <p><b>Action: <em>harvest</em></b></p>\n                    <p>This is the bee that you just saw.</p>\n                    <img src=\"bees-with-color/bee-A2SM.svg\" width=\"200\">\n                    <p><span class=\"greenText\"><b>Successful harvest!</b></span><br>Your pay has increased by $0.02. Your bonus pay is now $0.10.</p>\n            ","response":0,"trial_type":"html-button-response","trial_index":112,"time_elapsed":870913,"internal_node_id":"0.0-4.0-1.50","subject_id":"61721801de15feaf7ae0e40a","study_id":"60edd13110225f80f9f3709b","session_id":"6196bf600e75314455173721","condition":"contingent","relevant_dimensions":["wings","legs"],"bee_group":{"antennae":"X","wings":"1","pattern":"X","legs":"M"},"bonus":0.08},{"rt":1846.199999988079,"stimulus":"bees-with-color/bee-B2DM.svg","response":0,"trial_type":"image-button-response","trial_index":113,"time_elapsed":872761,"internal_node_id":"0.0-4.0-0.51","subject_id":"61721801de15feaf7ae0e40a","study_id":"60edd13110225f80f9f3709b","session_id":"6196bf600e75314455173721","condition":"contingent","relevant_dimensions":["wings","legs"],"bee_group":{"antennae":"X","wings":"1","pattern":"X","legs":"M"},"action":"harvest","summary":"good-harvest","bonus":0.08},{"rt":1478.1000000238419,"stimulus":"\n                    <p><b>Action: <em>harvest</em></b></p>\n                    <p>This is the bee that you just saw.</p>\n                    <img src=\"bees-with-color/bee-B2DM.svg\" width=\"200\">\n                    <p><span class=\"greenText\"><b>Successful harvest!</b></span><br>Your pay has increased by $0.02. Your bonus pay is now $0.12.</p>\n            ","response":0,"trial_type":"html-button-response","trial_index":114,"time_elapsed":874241,"internal_node_id":"0.0-4.0-1.51","subject_id":"61721801de15feaf7ae0e40a","study_id":"60edd13110225f80f9f3709b","session_id":"6196bf600e75314455173721","condition":"contingent","relevant_dimensions":["wings","legs"],"bee_group":{"antennae":"X","wings":"1","pattern":"X","legs":"M"},"bonus":0.08},{"rt":3734.2000000476837,"stimulus":"bees-with-color/bee-A1DM.svg","response":0,"trial_type":"image-button-response","trial_index":115,"time_elapsed":877977,"internal_node_id":"0.0-4.0-0.52","subject_id":"61721801de15feaf7ae0e40a","study_id":"60edd13110225f80f9f3709b","session_id":"6196bf600e75314455173721","condition":"contingent","relevant_dimensions":["wings","legs"],"bee_group":{"antennae":"X","wings":"1","pattern":"X","legs":"M"},"action":"harvest","summary":"bad-harvest","bonus":0.08},{"rt":1669.800000011921,"stimulus":"\n                    <p><b>Action: <em>harvest</em></b></p>\n                    <p>This is the bee that you just saw.</p>\n                    <img src=\"bees-with-color/bee-A1DM.svg\" width=\"200\">\n                    <p><span class=\"redText\">Bad choice, the bee was angry.</span><br><b>You have been stung!</b><br>Your pay has been decreased by $0.10. Your bonus pay is now $0.02.</p>\n            ","response":0,"trial_type":"html-button-response","trial_index":116,"time_elapsed":879650,"internal_node_id":"0.0-4.0-1.52","subject_id":"61721801de15feaf7ae0e40a","study_id":"60edd13110225f80f9f3709b","session_id":"6196bf600e75314455173721","condition":"contingent","relevant_dimensions":["wings","legs"],"bee_group":{"antennae":"X","wings":"1","pattern":"X","legs":"M"},"bonus":0.08},{"rt":2532.400000035763,"stimulus":"bees-with-color/bee-B1DF.svg","response":1,"trial_type":"image-button-response","trial_index":117,"time_elapsed":882185,"internal_node_id":"0.0-4.0-0.53","subject_id":"61721801de15feaf7ae0e40a","study_id":"60edd13110225f80f9f3709b","session_id":"6196bf600e75314455173721","condition":"contingent","relevant_dimensions":["wings","legs"],"bee_group":{"antennae":"X","wings":"1","pattern":"X","legs":"M"},"action":"avoid","summary":"bad-avoid","bonus":0.08},{"rt":1366.5,"stimulus":"\n                    <p><b>Action: <em>avoid</em></b></p>\n                    <p>This is the bee that you just saw.</p>\n                    <img src=\"bees-with-color/bee-B1DF.svg\" width=\"200\">\n                    <p><br>Your bonus pay is unchanged, and remains at $0.02.</p>\n            ","response":0,"trial_type":"html-button-response","trial_index":118,"time_elapsed":883553,"internal_node_id":"0.0-4.0-1.53","subject_id":"61721801de15feaf7ae0e40a","study_id":"60edd13110225f80f9f3709b","session_id":"6196bf600e75314455173721","condition":"contingent","relevant_dimensions":["wings","legs"],"bee_group":{"antennae":"X","wings":"1","pattern":"X","legs":"M"},"bonus":0.08},{"rt":1909.800000011921,"stimulus":"bees-with-color/bee-B1SM.svg","response":0,"trial_type":"image-button-response","trial_index":119,"time_elapsed":885465,"internal_node_id":"0.0-4.0-0.54","subject_id":"61721801de15feaf7ae0e40a","study_id":"60edd13110225f80f9f3709b","session_id":"6196bf600e75314455173721","condition":"contingent","relevant_dimensions":["wings","legs"],"bee_group":{"antennae":"X","wings":"1","pattern":"X","legs":"M"},"action":"harvest","summary":"bad-harvest","bonus":0.08},{"rt":1406.3999999761581,"stimulus":"\n                    <p><b>Action: <em>harvest</em></b></p>\n                    <p>This is the bee that you just saw.</p>\n                    <img src=\"bees-with-color/bee-B1SM.svg\" width=\"200\">\n                    <p><span class=\"redText\">Bad choice, the bee was angry.</span><br><b>You have been stung!</b><br>Your pay has been decreased by $0.10. Your bonus pay is now $0.00.</p>\n            ","response":0,"trial_type":"html-button-response","trial_index":120,"time_elapsed":886873,"internal_node_id":"0.0-4.0-1.54","subject_id":"61721801de15feaf7ae0e40a","study_id":"60edd13110225f80f9f3709b","session_id":"6196bf600e75314455173721","condition":"contingent","relevant_dimensions":["wings","legs"],"bee_group":{"antennae":"X","wings":"1","pattern":"X","legs":"M"},"bonus":0.08},{"rt":3126.5,"stimulus":"bees-with-color/bee-A1SF.svg","response":0,"trial_type":"image-button-response","trial_index":121,"time_elapsed":890001,"internal_node_id":"0.0-4.0-0.55","subject_id":"61721801de15feaf7ae0e40a","study_id":"60edd13110225f80f9f3709b","session_id":"6196bf600e75314455173721","condition":"contingent","relevant_dimensions":["wings","legs"],"bee_group":{"antennae":"X","wings":"1","pattern":"X","legs":"M"},"action":"harvest","summary":"good-harvest","bonus":0.08},{"rt":1469.300000011921,"stimulus":"\n                    <p><b>Action: <em>harvest</em></b></p>\n                    <p>This is the bee that you just saw.</p>\n                    <img src=\"bees-with-color/bee-A1SF.svg\" width=\"200\">\n                    <p><span class=\"greenText\"><b>Successful harvest!</b></span><br>Your pay has increased by $0.02. Your bonus pay is now $0.02.</p>\n            ","response":0,"trial_type":"html-button-response","trial_index":122,"time_elapsed":891473,"internal_node_id":"0.0-4.0-1.55","subject_id":"61721801de15feaf7ae0e40a","study_id":"60edd13110225f80f9f3709b","session_id":"6196bf600e75314455173721","condition":"contingent","relevant_dimensions":["wings","legs"],"bee_group":{"antennae":"X","wings":"1","pattern":"X","legs":"M"},"bonus":0.08},{"rt":3749.199999988079,"stimulus":"bees-with-color/bee-B1DM.svg","response":0,"trial_type":"image-button-response","trial_index":123,"time_elapsed":895225,"internal_node_id":"0.0-4.0-0.56","subject_id":"61721801de15feaf7ae0e40a","study_id":"60edd13110225f80f9f3709b","session_id":"6196bf600e75314455173721","condition":"contingent","relevant_dimensions":["wings","legs"],"bee_group":{"antennae":"X","wings":"1","pattern":"X","legs":"M"},"action":"harvest","summary":"bad-harvest","bonus":0.08},{"rt":1277.6000000238419,"stimulus":"\n                    <p><b>Action: <em>harvest</em></b></p>\n                    <p>This is the bee that you just saw.</p>\n                    <img src=\"bees-with-color/bee-B1DM.svg\" width=\"200\">\n                    <p><span class=\"redText\">Bad choice, the bee was angry.</span><br><b>You have been stung!</b><br>Your pay has been decreased by $0.10. Your bonus pay is now $0.00.</p>\n            ","response":0,"trial_type":"html-button-response","trial_index":124,"time_elapsed":896505,"internal_node_id":"0.0-4.0-1.56","subject_id":"61721801de15feaf7ae0e40a","study_id":"60edd13110225f80f9f3709b","session_id":"6196bf600e75314455173721","condition":"contingent","relevant_dimensions":["wings","legs"],"bee_group":{"antennae":"X","wings":"1","pattern":"X","legs":"M"},"bonus":0.08},{"rt":1574.699999988079,"stimulus":"bees-with-color/bee-A1DF.svg","response":0,"trial_type":"image-button-response","trial_index":125,"time_elapsed":898081,"internal_node_id":"0.0-4.0-0.57","subject_id":"61721801de15feaf7ae0e40a","study_id":"60edd13110225f80f9f3709b","session_id":"6196bf600e75314455173721","condition":"contingent","relevant_dimensions":["wings","legs"],"bee_group":{"antennae":"X","wings":"1","pattern":"X","legs":"M"},"action":"harvest","summary":"good-harvest","bonus":0.08},{"rt":1222.300000011921,"stimulus":"\n                    <p><b>Action: <em>harvest</em></b></p>\n                    <p>This is the bee that you just saw.</p>\n                    <img src=\"bees-with-color/bee-A1DF.svg\" width=\"200\">\n                    <p><span class=\"greenText\"><b>Successful harvest!</b></span><br>Your pay has increased by $0.02. Your bonus pay is now $0.02.</p>\n            ","response":0,"trial_type":"html-button-response","trial_index":126,"time_elapsed":899305,"internal_node_id":"0.0-4.0-1.57","subject_id":"61721801de15feaf7ae0e40a","study_id":"60edd13110225f80f9f3709b","session_id":"6196bf600e75314455173721","condition":"contingent","relevant_dimensions":["wings","legs"],"bee_group":{"antennae":"X","wings":"1","pattern":"X","legs":"M"},"bonus":0.08},{"rt":4318.899999976158,"stimulus":"bees-with-color/bee-B2SM.svg","response":0,"trial_type":"image-button-response","trial_index":127,"time_elapsed":903625,"internal_node_id":"0.0-4.0-0.58","subject_id":"61721801de15feaf7ae0e40a","study_id":"60edd13110225f80f9f3709b","session_id":"6196bf600e75314455173721","condition":"contingent","relevant_dimensions":["wings","legs"],"bee_group":{"antennae":"X","wings":"1","pattern":"X","legs":"M"},"action":"harvest","summary":"good-harvest","bonus":0.08},{"rt":1862.300000011921,"stimulus":"\n                    <p><b>Action: <em>harvest</em></b></p>\n                    <p>This is the bee that you just saw.</p>\n                    <img src=\"bees-with-color/bee-B2SM.svg\" width=\"200\">\n                    <p><span class=\"greenText\"><b>Successful harvest!</b></span><br>Your pay has increased by $0.02. Your bonus pay is now $0.04.</p>\n            ","response":0,"trial_type":"html-button-response","trial_index":128,"time_elapsed":905489,"internal_node_id":"0.0-4.0-1.58","subject_id":"61721801de15feaf7ae0e40a","study_id":"60edd13110225f80f9f3709b","session_id":"6196bf600e75314455173721","condition":"contingent","relevant_dimensions":["wings","legs"],"bee_group":{"antennae":"X","wings":"1","pattern":"X","legs":"M"},"bonus":0.08},{"rt":2934.5,"stimulus":"bees-with-color/bee-B1SF.svg","response":0,"trial_type":"image-button-response","trial_index":129,"time_elapsed":908425,"internal_node_id":"0.0-4.0-0.59","subject_id":"61721801de15feaf7ae0e40a","study_id":"60edd13110225f80f9f3709b","session_id":"6196bf600e75314455173721","condition":"contingent","relevant_dimensions":["wings","legs"],"bee_group":{"antennae":"X","wings":"1","pattern":"X","legs":"M"},"action":"harvest","summary":"good-harvest","bonus":0.08},{"rt":1622.800000011921,"stimulus":"\n                    <p><b>Action: <em>harvest</em></b></p>\n                    <p>This is the bee that you just saw.</p>\n                    <img src=\"bees-with-color/bee-B1SF.svg\" width=\"200\">\n                    <p><span class=\"greenText\"><b>Successful harvest!</b></span><br>Your pay has increased by $0.02. Your bonus pay is now $0.06.</p>\n            ","response":0,"trial_type":"html-button-response","trial_index":130,"time_elapsed":910049,"internal_node_id":"0.0-4.0-1.59","subject_id":"61721801de15feaf7ae0e40a","study_id":"60edd13110225f80f9f3709b","session_id":"6196bf600e75314455173721","condition":"contingent","relevant_dimensions":["wings","legs"],"bee_group":{"antennae":"X","wings":"1","pattern":"X","legs":"M"},"bonus":0.08},{"rt":8102.600000023842,"stimulus":"bees-with-color/bee-A2DF.svg","response":1,"trial_type":"image-button-response","trial_index":131,"time_elapsed":918153,"internal_node_id":"0.0-4.0-0.60","subject_id":"61721801de15feaf7ae0e40a","study_id":"60edd13110225f80f9f3709b","session_id":"6196bf600e75314455173721","condition":"contingent","relevant_dimensions":["wings","legs"],"bee_group":{"antennae":"X","wings":"1","pattern":"X","legs":"M"},"action":"avoid","summary":"bad-avoid","bonus":0.08},{"rt":1686.199999988079,"stimulus":"\n                    <p><b>Action: <em>avoid</em></b></p>\n                    <p>This is the bee that you just saw.</p>\n                    <img src=\"bees-with-color/bee-A2DF.svg\" width=\"200\">\n                    <p><br>Your bonus pay is unchanged, and remains at $0.06.</p>\n            ","response":0,"trial_type":"html-button-response","trial_index":132,"time_elapsed":919841,"internal_node_id":"0.0-4.0-1.60","subject_id":"61721801de15feaf7ae0e40a","study_id":"60edd13110225f80f9f3709b","session_id":"6196bf600e75314455173721","condition":"contingent","relevant_dimensions":["wings","legs"],"bee_group":{"antennae":"X","wings":"1","pattern":"X","legs":"M"},"bonus":0.08},{"rt":3358.5,"stimulus":"bees-with-color/bee-A2SF.svg","response":0,"trial_type":"image-button-response","trial_index":133,"time_elapsed":923201,"internal_node_id":"0.0-4.0-0.61","subject_id":"61721801de15feaf7ae0e40a","study_id":"60edd13110225f80f9f3709b","session_id":"6196bf600e75314455173721","condition":"contingent","relevant_dimensions":["wings","legs"],"bee_group":{"antennae":"X","wings":"1","pattern":"X","legs":"M"},"action":"harvest","summary":"good-harvest","bonus":0.08},{"rt":3030.400000035763,"stimulus":"\n                    <p><b>Action: <em>harvest</em></b></p>\n                    <p>This is the bee that you just saw.</p>\n                    <img src=\"bees-with-color/bee-A2SF.svg\" width=\"200\">\n                    <p><span class=\"greenText\"><b>Successful harvest!</b></span><br>Your pay has increased by $0.02. Your bonus pay is now $0.08.</p>\n            ","response":0,"trial_type":"html-button-response","trial_index":134,"time_elapsed":926233,"internal_node_id":"0.0-4.0-1.61","subject_id":"61721801de15feaf7ae0e40a","study_id":"60edd13110225f80f9f3709b","session_id":"6196bf600e75314455173721","condition":"contingent","relevant_dimensions":["wings","legs"],"bee_group":{"antennae":"X","wings":"1","pattern":"X","legs":"M"},"bonus":0.08},{"rt":2846.400000035763,"stimulus":"bees-with-color/bee-A2DM.svg","response":0,"trial_type":"image-button-response","trial_index":135,"time_elapsed":929081,"internal_node_id":"0.0-4.0-0.62","subject_id":"61721801de15feaf7ae0e40a","study_id":"60edd13110225f80f9f3709b","session_id":"6196bf600e75314455173721","condition":"contingent","relevant_dimensions":["wings","legs"],"bee_group":{"antennae":"X","wings":"1","pattern":"X","legs":"M"},"action":"harvest","summary":"good-harvest","bonus":0.08},{"rt":1830.9000000357628,"stimulus":"\n                    <p><b>Action: <em>harvest</em></b></p>\n                    <p>This is the bee that you just saw.</p>\n                    <img src=\"bees-with-color/bee-A2DM.svg\" width=\"200\">\n                    <p><span class=\"greenText\"><b>Successful harvest!</b></span><br>Your pay has increased by $0.02. Your bonus pay is now $0.10.</p>\n            ","response":0,"trial_type":"html-button-response","trial_index":136,"time_elapsed":930913,"internal_node_id":"0.0-4.0-1.62","subject_id":"61721801de15feaf7ae0e40a","study_id":"60edd13110225f80f9f3709b","session_id":"6196bf600e75314455173721","condition":"contingent","relevant_dimensions":["wings","legs"],"bee_group":{"antennae":"X","wings":"1","pattern":"X","legs":"M"},"bonus":0.08},{"rt":2558.699999988079,"stimulus":"bees-with-color/bee-A1SM.svg","response":1,"trial_type":"image-button-response","trial_index":137,"time_elapsed":933474,"internal_node_id":"0.0-4.0-0.63","subject_id":"61721801de15feaf7ae0e40a","study_id":"60edd13110225f80f9f3709b","session_id":"6196bf600e75314455173721","condition":"contingent","relevant_dimensions":["wings","legs"],"bee_group":{"antennae":"X","wings":"1","pattern":"X","legs":"M"},"action":"avoid","summary":"good-avoid","bonus":0.08},{"rt":1069.8999999761581,"stimulus":"\n                    <p><b>Action: <em>avoid</em></b></p>\n                    <p>This is the bee that you just saw.</p>\n                    <img src=\"bees-with-color/bee-A1SM.svg\" width=\"200\">\n                    <p><br>Your bonus pay is unchanged, and remains at $0.10.</p>\n            ","response":0,"trial_type":"html-button-response","trial_index":138,"time_elapsed":934545,"internal_node_id":"0.0-4.0-1.63","subject_id":"61721801de15feaf7ae0e40a","study_id":"60edd13110225f80f9f3709b","session_id":"6196bf600e75314455173721","condition":"contingent","relevant_dimensions":["wings","legs"],"bee_group":{"antennae":"X","wings":"1","pattern":"X","legs":"M"},"bonus":0.08},{"rt":13302.5,"stimulus":"You have completed the first part of this experiment.<br><br>You will now begin a shorter second part, in which you will receive no feedback.<br>The same rules regarding bonus pay apply.<br><br>Press any key to begin.","response":"enter","trial_type":"html-keyboard-response","trial_index":139,"time_elapsed":947849,"internal_node_id":"0.0-5.0","subject_id":"61721801de15feaf7ae0e40a","study_id":"60edd13110225f80f9f3709b","session_id":"6196bf600e75314455173721","condition":"contingent","relevant_dimensions":["wings","legs"],"bee_group":{"antennae":"X","wings":"1","pattern":"X","legs":"M"},"bonus":0.08},{"rt":6153.699999988079,"stimulus":"bees-with-color/bee-A1SF.svg","response":0,"trial_type":"image-button-response","trial_index":140,"time_elapsed":954041,"internal_node_id":"0.0-6.0-0.0","subject_id":"61721801de15feaf7ae0e40a","study_id":"60edd13110225f80f9f3709b","session_id":"6196bf600e75314455173721","condition":"contingent","relevant_dimensions":["wings","legs"],"bee_group":{"antennae":"X","wings":"1","pattern":"X","legs":"M"},"bonus":0.08},{"rt":2708.600000023842,"stimulus":"bees-with-color/bee-B2DM.svg","response":0,"trial_type":"image-button-response","trial_index":141,"time_elapsed":956754,"internal_node_id":"0.0-6.0-0.1","subject_id":"61721801de15feaf7ae0e40a","study_id":"60edd13110225f80f9f3709b","session_id":"6196bf600e75314455173721","condition":"contingent","relevant_dimensions":["wings","legs"],"bee_group":{"antennae":"X","wings":"1","pattern":"X","legs":"M"},"bonus":0.08},{"rt":2293.400000035763,"stimulus":"bees-with-color/bee-B1DF.svg","response":1,"trial_type":"image-button-response","trial_index":142,"time_elapsed":959050,"internal_node_id":"0.0-6.0-0.2","subject_id":"61721801de15feaf7ae0e40a","study_id":"60edd13110225f80f9f3709b","session_id":"6196bf600e75314455173721","condition":"contingent","relevant_dimensions":["wings","legs"],"bee_group":{"antennae":"X","wings":"1","pattern":"X","legs":"M"},"bonus":0.08},{"rt":1853.0999999642372,"stimulus":"bees-with-color/bee-A1DM.svg","response":0,"trial_type":"image-button-response","trial_index":143,"time_elapsed":960906,"internal_node_id":"0.0-6.0-0.3","subject_id":"61721801de15feaf7ae0e40a","study_id":"60edd13110225f80f9f3709b","session_id":"6196bf600e75314455173721","condition":"contingent","relevant_dimensions":["wings","legs"],"bee_group":{"antennae":"X","wings":"1","pattern":"X","legs":"M"},"bonus":0.08},{"rt":1925.699999988079,"stimulus":"bees-with-color/bee-A2SF.svg","response":0,"trial_type":"image-button-response","trial_index":144,"time_elapsed":962834,"internal_node_id":"0.0-6.0-0.4","subject_id":"61721801de15feaf7ae0e40a","study_id":"60edd13110225f80f9f3709b","session_id":"6196bf600e75314455173721","condition":"contingent","relevant_dimensions":["wings","legs"],"bee_group":{"antennae":"X","wings":"1","pattern":"X","legs":"M"},"bonus":0.08},{"rt":1717.800000011921,"stimulus":"bees-with-color/bee-A1DF.svg","response":0,"trial_type":"image-button-response","trial_index":145,"time_elapsed":964554,"internal_node_id":"0.0-6.0-0.5","subject_id":"61721801de15feaf7ae0e40a","study_id":"60edd13110225f80f9f3709b","session_id":"6196bf600e75314455173721","condition":"contingent","relevant_dimensions":["wings","legs"],"bee_group":{"antennae":"X","wings":"1","pattern":"X","legs":"M"},"bonus":0.08},{"rt":1733.5,"stimulus":"bees-with-color/bee-B1SF.svg","response":1,"trial_type":"image-button-response","trial_index":146,"time_elapsed":966290,"internal_node_id":"0.0-6.0-0.6","subject_id":"61721801de15feaf7ae0e40a","study_id":"60edd13110225f80f9f3709b","session_id":"6196bf600e75314455173721","condition":"contingent","relevant_dimensions":["wings","legs"],"bee_group":{"antennae":"X","wings":"1","pattern":"X","legs":"M"},"bonus":0.08},{"rt":2148.599999964237,"stimulus":"bees-with-color/bee-B1DM.svg","response":0,"trial_type":"image-button-response","trial_index":147,"time_elapsed":968442,"internal_node_id":"0.0-6.0-0.7","subject_id":"61721801de15feaf7ae0e40a","study_id":"60edd13110225f80f9f3709b","session_id":"6196bf600e75314455173721","condition":"contingent","relevant_dimensions":["wings","legs"],"bee_group":{"antennae":"X","wings":"1","pattern":"X","legs":"M"},"bonus":0.08},{"rt":1973.9000000357628,"stimulus":"bees-with-color/bee-B1SM.svg","response":0,"trial_type":"image-button-response","trial_index":148,"time_elapsed":970418,"internal_node_id":"0.0-6.0-0.8","subject_id":"61721801de15feaf7ae0e40a","study_id":"60edd13110225f80f9f3709b","session_id":"6196bf600e75314455173721","condition":"contingent","relevant_dimensions":["wings","legs"],"bee_group":{"antennae":"X","wings":"1","pattern":"X","legs":"M"},"bonus":0.08},{"rt":3654.2000000476837,"stimulus":"bees-with-color/bee-A1SM.svg","response":0,"trial_type":"image-button-response","trial_index":149,"time_elapsed":974074,"internal_node_id":"0.0-6.0-0.9","subject_id":"61721801de15feaf7ae0e40a","study_id":"60edd13110225f80f9f3709b","session_id":"6196bf600e75314455173721","condition":"contingent","relevant_dimensions":["wings","legs"],"bee_group":{"antennae":"X","wings":"1","pattern":"X","legs":"M"},"bonus":0.08},{"rt":2022.2999999523163,"stimulus":"bees-with-color/bee-B2SF.svg","response":0,"trial_type":"image-button-response","trial_index":150,"time_elapsed":976098,"internal_node_id":"0.0-6.0-0.10","subject_id":"61721801de15feaf7ae0e40a","study_id":"60edd13110225f80f9f3709b","session_id":"6196bf600e75314455173721","condition":"contingent","relevant_dimensions":["wings","legs"],"bee_group":{"antennae":"X","wings":"1","pattern":"X","legs":"M"},"bonus":0.08},{"rt":3582.099999964237,"stimulus":"bees-with-color/bee-A2DM.svg","response":0,"trial_type":"image-button-response","trial_index":151,"time_elapsed":979682,"internal_node_id":"0.0-6.0-0.11","subject_id":"61721801de15feaf7ae0e40a","study_id":"60edd13110225f80f9f3709b","session_id":"6196bf600e75314455173721","condition":"contingent","relevant_dimensions":["wings","legs"],"bee_group":{"antennae":"X","wings":"1","pattern":"X","legs":"M"},"bonus":0.08},{"rt":1614.199999988079,"stimulus":"bees-with-color/bee-B2DF.svg","response":1,"trial_type":"image-button-response","trial_index":152,"time_elapsed":981300,"internal_node_id":"0.0-6.0-0.12","subject_id":"61721801de15feaf7ae0e40a","study_id":"60edd13110225f80f9f3709b","session_id":"6196bf600e75314455173721","condition":"contingent","relevant_dimensions":["wings","legs"],"bee_group":{"antennae":"X","wings":"1","pattern":"X","legs":"M"},"bonus":0.08},{"rt":1794.699999988079,"stimulus":"bees-with-color/bee-B2SM.svg","response":0,"trial_type":"image-button-response","trial_index":153,"time_elapsed":983097,"internal_node_id":"0.0-6.0-0.13","subject_id":"61721801de15feaf7ae0e40a","study_id":"60edd13110225f80f9f3709b","session_id":"6196bf600e75314455173721","condition":"contingent","relevant_dimensions":["wings","legs"],"bee_group":{"antennae":"X","wings":"1","pattern":"X","legs":"M"},"bonus":0.08},{"rt":1717.5,"stimulus":"bees-with-color/bee-A2SM.svg","response":0,"trial_type":"image-button-response","trial_index":154,"time_elapsed":984818,"internal_node_id":"0.0-6.0-0.14","subject_id":"61721801de15feaf7ae0e40a","study_id":"60edd13110225f80f9f3709b","session_id":"6196bf600e75314455173721","condition":"contingent","relevant_dimensions":["wings","legs"],"bee_group":{"antennae":"X","wings":"1","pattern":"X","legs":"M"},"bonus":0.08},{"rt":1630.199999988079,"stimulus":"bees-with-color/bee-A2DF.svg","response":1,"trial_type":"image-button-response","trial_index":155,"time_elapsed":986450,"internal_node_id":"0.0-6.0-0.15","subject_id":"61721801de15feaf7ae0e40a","study_id":"60edd13110225f80f9f3709b","session_id":"6196bf600e75314455173721","condition":"contingent","relevant_dimensions":["wings","legs"],"bee_group":{"antennae":"X","wings":"1","pattern":"X","legs":"M"},"bonus":0.08},{"rt":4261.300000011921,"stimulus":"bees-with-color/bee-B1SM.svg","response":0,"trial_type":"image-button-response","trial_index":156,"time_elapsed":990714,"internal_node_id":"0.0-6.0-0.16","subject_id":"61721801de15feaf7ae0e40a","study_id":"60edd13110225f80f9f3709b","session_id":"6196bf600e75314455173721","condition":"contingent","relevant_dimensions":["wings","legs"],"bee_group":{"antennae":"X","wings":"1","pattern":"X","legs":"M"},"bonus":0.08},{"rt":2086.5,"stimulus":"bees-with-color/bee-A1SM.svg","response":0,"trial_type":"image-button-response","trial_index":157,"time_elapsed":992802,"internal_node_id":"0.0-6.0-0.17","subject_id":"61721801de15feaf7ae0e40a","study_id":"60edd13110225f80f9f3709b","session_id":"6196bf600e75314455173721","condition":"contingent","relevant_dimensions":["wings","legs"],"bee_group":{"antennae":"X","wings":"1","pattern":"X","legs":"M"},"bonus":0.08},{"rt":1869.800000011921,"stimulus":"bees-with-color/bee-B2SM.svg","response":0,"trial_type":"image-button-response","trial_index":158,"time_elapsed":994674,"internal_node_id":"0.0-6.0-0.18","subject_id":"61721801de15feaf7ae0e40a","study_id":"60edd13110225f80f9f3709b","session_id":"6196bf600e75314455173721","condition":"contingent","relevant_dimensions":["wings","legs"],"bee_group":{"antennae":"X","wings":"1","pattern":"X","legs":"M"},"bonus":0.08},{"rt":2558.5,"stimulus":"bees-with-color/bee-B2DF.svg","response":1,"trial_type":"image-button-response","trial_index":159,"time_elapsed":997234,"internal_node_id":"0.0-6.0-0.19","subject_id":"61721801de15feaf7ae0e40a","study_id":"60edd13110225f80f9f3709b","session_id":"6196bf600e75314455173721","condition":"contingent","relevant_dimensions":["wings","legs"],"bee_group":{"antennae":"X","wings":"1","pattern":"X","legs":"M"},"bonus":0.08},{"rt":1829,"stimulus":"bees-with-color/bee-A2DF.svg","response":1,"trial_type":"image-button-response","trial_index":160,"time_elapsed":999066,"internal_node_id":"0.0-6.0-0.20","subject_id":"61721801de15feaf7ae0e40a","study_id":"60edd13110225f80f9f3709b","session_id":"6196bf600e75314455173721","condition":"contingent","relevant_dimensions":["wings","legs"],"bee_group":{"antennae":"X","wings":"1","pattern":"X","legs":"M"},"bonus":0.08},{"rt":2334.5,"stimulus":"bees-with-color/bee-B1DF.svg","response":0,"trial_type":"image-button-response","trial_index":161,"time_elapsed":1001402,"internal_node_id":"0.0-6.0-0.21","subject_id":"61721801de15feaf7ae0e40a","study_id":"60edd13110225f80f9f3709b","session_id":"6196bf600e75314455173721","condition":"contingent","relevant_dimensions":["wings","legs"],"bee_group":{"antennae":"X","wings":"1","pattern":"X","legs":"M"},"bonus":0.08},{"rt":2516.599999964237,"stimulus":"bees-with-color/bee-A1DF.svg","response":1,"trial_type":"image-button-response","trial_index":162,"time_elapsed":1003922,"internal_node_id":"0.0-6.0-0.22","subject_id":"61721801de15feaf7ae0e40a","study_id":"60edd13110225f80f9f3709b","session_id":"6196bf600e75314455173721","condition":"contingent","relevant_dimensions":["wings","legs"],"bee_group":{"antennae":"X","wings":"1","pattern":"X","legs":"M"},"bonus":0.08},{"rt":2630.300000011921,"stimulus":"bees-with-color/bee-A2SF.svg","response":0,"trial_type":"image-button-response","trial_index":163,"time_elapsed":1006554,"internal_node_id":"0.0-6.0-0.23","subject_id":"61721801de15feaf7ae0e40a","study_id":"60edd13110225f80f9f3709b","session_id":"6196bf600e75314455173721","condition":"contingent","relevant_dimensions":["wings","legs"],"bee_group":{"antennae":"X","wings":"1","pattern":"X","legs":"M"},"bonus":0.08},{"rt":3333.2000000476837,"stimulus":"bees-with-color/bee-A1DM.svg","response":0,"trial_type":"image-button-response","trial_index":164,"time_elapsed":1009890,"internal_node_id":"0.0-6.0-0.24","subject_id":"61721801de15feaf7ae0e40a","study_id":"60edd13110225f80f9f3709b","session_id":"6196bf600e75314455173721","condition":"contingent","relevant_dimensions":["wings","legs"],"be