[{"success":true,"trial_type":"fullscreen","trial_index":0,"time_elapsed":2366,"internal_node_id":"0.0-0.0","subject_id":"5c86303fc2ceec001719a6eb","study_id":"6197b3f67c2b5cd3b6d9596a","session_id":"619be9b6a7685e06ce5d929f","condition":"contingent","relevant_dimensions":["antennae","wings"],"bee_group":{"antennae":"A","wings":"1","pattern":"X","legs":"X"},"bonus":0.9800000000000011},{"success":true,"timeout":false,"failed_images":[],"failed_audio":[],"failed_video":[],"trial_type":"preload","trial_index":1,"time_elapsed":3963,"internal_node_id":"0.0-1.0","subject_id":"5c86303fc2ceec001719a6eb","study_id":"6197b3f67c2b5cd3b6d9596a","session_id":"619be9b6a7685e06ce5d929f","condition":"contingent","relevant_dimensions":["antennae","wings"],"bee_group":{"antennae":"A","wings":"1","pattern":"X","legs":"X"},"bonus":0.9800000000000011},{"rt":1640.300000011921,"stimulus":"Welcome! Press any key to begin.","response":" ","trial_type":"html-keyboard-response","trial_index":2,"time_elapsed":5604,"internal_node_id":"0.0-2.0","subject_id":"5c86303fc2ceec001719a6eb","study_id":"6197b3f67c2b5cd3b6d9596a","session_id":"619be9b6a7685e06ce5d929f","condition":"contingent","relevant_dimensions":["antennae","wings"],"bee_group":{"antennae":"A","wings":"1","pattern":"X","legs":"X"},"bonus":0.9800000000000011},{"view_history":[{"page_index":0,"viewing_time":2231.5},{"page_index":1,"viewing_time":7959.899999976158},{"page_index":2,"viewing_time":4528},{"page_index":3,"viewing_time":7536},{"page_index":4,"viewing_time":3640},{"page_index":5,"viewing_time":5448},{"page_index":6,"viewing_time":5128.100000023842},{"page_index":7,"viewing_time":7776},{"page_index":8,"viewing_time":2423.899999976158},{"page_index":9,"viewing_time":2360},{"page_index":10,"viewing_time":2008.1000000238419},{"page_index":11,"viewing_time":5055.899999976158},{"page_index":12,"viewing_time":8936.100000023842},{"page_index":13,"viewing_time":1087.8999999761581},{"page_index":14,"viewing_time":1512}],"rt":67631.80000001192,"trial_type":"instructions","trial_index":3,"time_elapsed":73235,"internal_node_id":"0.0-3.0-0.0","subject_id":"5c86303fc2ceec001719a6eb","study_id":"6197b3f67c2b5cd3b6d9596a","session_id":"619be9b6a7685e06ce5d929f","condition":"contingent","relevant_dimensions":["antennae","wings"],"bee_group":{"antennae":"A","wings":"1","pattern":"X","legs":"X"},"bonus":0.9800000000000011},{"rt":8189.099999964237,"response":{"Q0":["Two or six legs","Stripes or spots on body","Single or double wings","Antennae or no antennae"]},"question_order":[0],"trial_type":"survey-multi-select","trial_index":4,"time_elapsed":81428,"internal_node_id":"0.0-3.0-1.0","subject_id":"5c86303fc2ceec001719a6eb","study_id":"6197b3f67c2b5cd3b6d9596a","session_id":"619be9b6a7685e06ce5d929f","condition":"contingent","relevant_dimensions":["antennae","wings"],"bee_group":{"antennae":"A","wings":"1","pattern":"X","legs":"X"},"correct":true,"bonus":0.9800000000000011},{"rt":15150.300000011921,"response":{"Q1":"No.","Q2":"Based on the four features of the bee.","Q3":"You do not learn if it was friendly or dangerous, and do not alter your bonus."},"question_order":[0,1,2],"trial_type":"survey-multi-choice","trial_index":5,"time_elapsed":96579,"internal_node_id":"0.0-3.0-2.0","subject_id":"5c86303fc2ceec001719a6eb","study_id":"6197b3f67c2b5cd3b6d9596a","session_id":"619be9b6a7685e06ce5d929f","condition":"contingent","relevant_dimensions":["antennae","wings"],"bee_group":{"antennae":"A","wings":"1","pattern":"X","legs":"X"},"correct":true,"bonus":0.9800000000000011},{"rt":1670.9000000357628,"stimulus":"<p>Congrats, you got everything right<br>When you're ready, click the button below to continue to the experiment.</p>","response":0,"trial_type":"html-button-response","trial_index":6,"time_elapsed":98251,"internal_node_id":"0.0-3.0-3.0","subject_id":"5c86303fc2ceec001719a6eb","study_id":"6197b3f67c2b5cd3b6d9596a","session_id":"619be9b6a7685e06ce5d929f","condition":"contingent","relevant_dimensions":["antennae","wings"],"bee_group":{"antennae":"A","wings":"1","pattern":"X","legs":"X"},"bonus":0.9800000000000011},{"rt":12782.199999988079,"stimulus":"bees-with-color/bee-B1DM.svg","response":0,"trial_type":"image-button-response","trial_index":7,"time_elapsed":111035,"internal_node_id":"0.0-4.0-0.0","subject_id":"5c86303fc2ceec001719a6eb","study_id":"6197b3f67c2b5cd3b6d9596a","session_id":"619be9b6a7685e06ce5d929f","condition":"contingent","relevant_dimensions":["antennae","wings"],"bee_group":{"antennae":"A","wings":"1","pattern":"X","legs":"X"},"action":"harvest","summary":"good-harvest","bonus":0.9800000000000011},{"rt":3166.100000023842,"stimulus":"\n                    <p><b>Action: <em>harvest</em></b></p>\n                    <p>This is the bee that you just saw.</p>\n                    <img src=\"bees-with-color/bee-B1DM.svg\" width=\"200\">\n                    <p><span class=\"greenText\"><b>Successful harvest!</b></span><br>Your pay has increased by $0.02. Your bonus pay is now $0.56.</p>\n            ","response":0,"trial_type":"html-button-response","trial_index":8,"time_elapsed":114203,"internal_node_id":"0.0-4.0-1.0","subject_id":"5c86303fc2ceec001719a6eb","study_id":"6197b3f67c2b5cd3b6d9596a","session_id":"619be9b6a7685e06ce5d929f","condition":"contingent","relevant_dimensions":["antennae","wings"],"bee_group":{"antennae":"A","wings":"1","pattern":"X","legs":"X"},"bonus":0.9800000000000011},{"rt":6230.800000011921,"stimulus":"bees-with-color/bee-B2SF.svg","response":0,"trial_type":"image-button-response","trial_index":9,"time_elapsed":120435,"internal_node_id":"0.0-4.0-0.1","subject_id":"5c86303fc2ceec001719a6eb","study_id":"6197b3f67c2b5cd3b6d9596a","session_id":"619be9b6a7685e06ce5d929f","condition":"contingent","relevant_dimensions":["antennae","wings"],"bee_group":{"antennae":"A","wings":"1","pattern":"X","legs":"X"},"action":"harvest","summary":"good-harvest","bonus":0.9800000000000011},{"rt":1342.3999999761581,"stimulus":"\n                    <p><b>Action: <em>harvest</em></b></p>\n                    <p>This is the bee that you just saw.</p>\n                    <img src=\"bees-with-color/bee-B2SF.svg\" width=\"200\">\n                    <p><span class=\"greenText\"><b>Successful harvest!</b></span><br>Your pay has increased by $0.02. Your bonus pay is now $0.58.</p>\n            ","response":0,"trial_type":"html-button-response","trial_index":10,"time_elapsed":121779,"internal_node_id":"0.0-4.0-1.1","subject_id":"5c86303fc2ceec001719a6eb","study_id":"6197b3f67c2b5cd3b6d9596a","session_id":"619be9b6a7685e06ce5d929f","condition":"contingent","relevant_dimensions":["antennae","wings"],"bee_group":{"antennae":"A","wings":"1","pattern":"X","legs":"X"},"bonus":0.9800000000000011},{"rt":5446.600000023842,"stimulus":"bees-with-color/bee-A1DM.svg","response":0,"trial_type":"image-button-response","trial_index":11,"time_elapsed":127227,"internal_node_id":"0.0-4.0-0.2","subject_id":"5c86303fc2ceec001719a6eb","study_id":"6197b3f67c2b5cd3b6d9596a","session_id":"619be9b6a7685e06ce5d929f","condition":"contingent","relevant_dimensions":["antennae","wings"],"bee_group":{"antennae":"A","wings":"1","pattern":"X","legs":"X"},"action":"harvest","summary":"bad-harvest","bonus":0.9800000000000011},{"rt":1478.8999999761581,"stimulus":"\n                    <p><b>Action: <em>harvest</em></b></p>\n                    <p>This is the bee that you just saw.</p>\n                    <img src=\"bees-with-color/bee-A1DM.svg\" width=\"200\">\n                    <p><span class=\"redText\">Bad choice, the bee was angry.</span><br><b>You have been stung!</b><br>Your pay has been decreased by $0.10. Your bonus pay is now $0.48.</p>\n            ","response":0,"trial_type":"html-button-response","trial_index":12,"time_elapsed":128707,"internal_node_id":"0.0-4.0-1.2","subject_id":"5c86303fc2ceec001719a6eb","study_id":"6197b3f67c2b5cd3b6d9596a","session_id":"619be9b6a7685e06ce5d929f","condition":"contingent","relevant_dimensions":["antennae","wings"],"bee_group":{"antennae":"A","wings":"1","pattern":"X","legs":"X"},"bonus":0.9800000000000011},{"rt":3966.800000011921,"stimulus":"bees-with-color/bee-B2DM.svg","response":0,"trial_type":"image-button-response","trial_index":13,"time_elapsed":132675,"internal_node_id":"0.0-4.0-0.3","subject_id":"5c86303fc2ceec001719a6eb","study_id":"6197b3f67c2b5cd3b6d9596a","session_id":"619be9b6a7685e06ce5d929f","condition":"contingent","relevant_dimensions":["antennae","wings"],"bee_group":{"antennae":"A","wings":"1","pattern":"X","legs":"X"},"action":"harvest","summary":"good-harvest","bonus":0.9800000000000011},{"rt":943,"stimulus":"\n                    <p><b>Action: <em>harvest</em></b></p>\n                    <p>This is the bee that you just saw.</p>\n                    <img src=\"bees-with-color/bee-B2DM.svg\" width=\"200\">\n                    <p><span class=\"greenText\"><b>Successful harvest!</b></span><br>Your pay has increased by $0.02. Your bonus pay is now $0.50.</p>\n            ","response":0,"trial_type":"html-button-response","trial_index":14,"time_elapsed":133619,"internal_node_id":"0.0-4.0-1.3","subject_id":"5c86303fc2ceec001719a6eb","study_id":"6197b3f67c2b5cd3b6d9596a","session_id":"619be9b6a7685e06ce5d929f","condition":"contingent","relevant_dimensions":["antennae","wings"],"bee_group":{"antennae":"A","wings":"1","pattern":"X","legs":"X"},"bonus":0.9800000000000011},{"rt":3622.899999976158,"stimulus":"bees-with-color/bee-A1SM.svg","response":0,"trial_type":"image-button-response","trial_index":15,"time_elapsed":137244,"internal_node_id":"0.0-4.0-0.4","subject_id":"5c86303fc2ceec001719a6eb","study_id":"6197b3f67c2b5cd3b6d9596a","session_id":"619be9b6a7685e06ce5d929f","condition":"contingent","relevant_dimensions":["antennae","wings"],"bee_group":{"antennae":"A","wings":"1","pattern":"X","legs":"X"},"action":"harvest","summary":"bad-harvest","bonus":0.9800000000000011},{"rt":918.8999999761581,"stimulus":"\n                    <p><b>Action: <em>harvest</em></b></p>\n                    <p>This is the bee that you just saw.</p>\n                    <img src=\"bees-with-color/bee-A1SM.svg\" width=\"200\">\n                    <p><span class=\"redText\">Bad choice, the bee was angry.</span><br><b>You have been stung!</b><br>Your pay has been decreased by $0.10. Your bonus pay is now $0.40.</p>\n            ","response":0,"trial_type":"html-button-response","trial_index":16,"time_elapsed":138164,"internal_node_id":"0.0-4.0-1.4","subject_id":"5c86303fc2ceec001719a6eb","study_id":"6197b3f67c2b5cd3b6d9596a","session_id":"619be9b6a7685e06ce5d929f","condition":"contingent","relevant_dimensions":["antennae","wings"],"bee_group":{"antennae":"A","wings":"1","pattern":"X","legs":"X"},"bonus":0.9800000000000011},{"rt":5150.900000035763,"stimulus":"bees-with-color/bee-B1SF.svg","response":0,"trial_type":"image-button-response","trial_index":17,"time_elapsed":143316,"internal_node_id":"0.0-4.0-0.5","subject_id":"5c86303fc2ceec001719a6eb","study_id":"6197b3f67c2b5cd3b6d9596a","session_id":"619be9b6a7685e06ce5d929f","condition":"contingent","relevant_dimensions":["antennae","wings"],"bee_group":{"antennae":"A","wings":"1","pattern":"X","legs":"X"},"action":"harvest","summary":"good-harvest","bonus":0.9800000000000011},{"rt":895,"stimulus":"\n                    <p><b>Action: <em>harvest</em></b></p>\n                    <p>This is the bee that you just saw.</p>\n                    <img src=\"bees-with-color/bee-B1SF.svg\" width=\"200\">\n                    <p><span class=\"greenText\"><b>Successful harvest!</b></span><br>Your pay has increased by $0.02. Your bonus pay is now $0.42.</p>\n            ","response":0,"trial_type":"html-button-response","trial_index":18,"time_elapsed":144212,"internal_node_id":"0.0-4.0-1.5","subject_id":"5c86303fc2ceec001719a6eb","study_id":"6197b3f67c2b5cd3b6d9596a","session_id":"619be9b6a7685e06ce5d929f","condition":"contingent","relevant_dimensions":["antennae","wings"],"bee_group":{"antennae":"A","wings":"1","pattern":"X","legs":"X"},"bonus":0.9800000000000011},{"rt":1414.5,"stimulus":"bees-with-color/bee-B1DF.svg","response":0,"trial_type":"image-button-response","trial_index":19,"time_elapsed":145628,"internal_node_id":"0.0-4.0-0.6","subject_id":"5c86303fc2ceec001719a6eb","study_id":"6197b3f67c2b5cd3b6d9596a","session_id":"619be9b6a7685e06ce5d929f","condition":"contingent","relevant_dimensions":["antennae","wings"],"bee_group":{"antennae":"A","wings":"1","pattern":"X","legs":"X"},"action":"harvest","summary":"good-harvest","bonus":0.9800000000000011},{"rt":702.8000000119209,"stimulus":"\n                    <p><b>Action: <em>harvest</em></b></p>\n                    <p>This is the bee that you just saw.</p>\n                    <img src=\"bees-with-color/bee-B1DF.svg\" width=\"200\">\n                    <p><span class=\"greenText\"><b>Successful harvest!</b></span><br>Your pay has increased by $0.02. Your bonus pay is now $0.44.</p>\n            ","response":0,"trial_type":"html-button-response","trial_index":20,"time_elapsed":146332,"internal_node_id":"0.0-4.0-1.6","subject_id":"5c86303fc2ceec001719a6eb","study_id":"6197b3f67c2b5cd3b6d9596a","session_id":"619be9b6a7685e06ce5d929f","condition":"contingent","relevant_dimensions":["antennae","wings"],"bee_group":{"antennae":"A","wings":"1","pattern":"X","legs":"X"},"bonus":0.9800000000000011},{"rt":2855,"stimulus":"bees-with-color/bee-A2SM.svg","response":0,"trial_type":"image-button-response","trial_index":21,"time_elapsed":149188,"internal_node_id":"0.0-4.0-0.7","subject_id":"5c86303fc2ceec001719a6eb","study_id":"6197b3f67c2b5cd3b6d9596a","session_id":"619be9b6a7685e06ce5d929f","condition":"contingent","relevant_dimensions":["antennae","wings"],"bee_group":{"antennae":"A","wings":"1","pattern":"X","legs":"X"},"action":"harvest","summary":"good-harvest","bonus":0.9800000000000011},{"rt":4870.800000011921,"stimulus":"\n                    <p><b>Action: <em>harvest</em></b></p>\n                    <p>This is the bee that you just saw.</p>\n                    <img src=\"bees-with-color/bee-A2SM.svg\" width=\"200\">\n                    <p><span class=\"greenText\"><b>Successful harvest!</b></span><br>Your pay has increased by $0.02. Your bonus pay is now $0.46.</p>\n            ","response":0,"trial_type":"html-button-response","trial_index":22,"time_elapsed":154060,"internal_node_id":"0.0-4.0-1.7","subject_id":"5c86303fc2ceec001719a6eb","study_id":"6197b3f67c2b5cd3b6d9596a","session_id":"619be9b6a7685e06ce5d929f","condition":"contingent","relevant_dimensions":["antennae","wings"],"bee_group":{"antennae":"A","wings":"1","pattern":"X","legs":"X"},"bonus":0.9800000000000011},{"rt":4374.5,"stimulus":"bees-with-color/bee-A2DF.svg","response":0,"trial_type":"image-button-response","trial_index":23,"time_elapsed":158435,"internal_node_id":"0.0-4.0-0.8","subject_id":"5c86303fc2ceec001719a6eb","study_id":"6197b3f67c2b5cd3b6d9596a","session_id":"619be9b6a7685e06ce5d929f","condition":"contingent","relevant_dimensions":["antennae","wings"],"bee_group":{"antennae":"A","wings":"1","pattern":"X","legs":"X"},"action":"harvest","summary":"good-harvest","bonus":0.9800000000000011},{"rt":4215.199999988079,"stimulus":"\n                    <p><b>Action: <em>harvest</em></b></p>\n                    <p>This is the bee that you just saw.</p>\n                    <img src=\"bees-with-color/bee-A2DF.svg\" width=\"200\">\n                    <p><span class=\"greenText\"><b>Successful harvest!</b></span><br>Your pay has increased by $0.02. Your bonus pay is now $0.48.</p>\n            ","response":0,"trial_type":"html-button-response","trial_index":24,"time_elapsed":162651,"internal_node_id":"0.0-4.0-1.8","subject_id":"5c86303fc2ceec001719a6eb","study_id":"6197b3f67c2b5cd3b6d9596a","session_id":"619be9b6a7685e06ce5d929f","condition":"contingent","relevant_dimensions":["antennae","wings"],"bee_group":{"antennae":"A","wings":"1","pattern":"X","legs":"X"},"bonus":0.9800000000000011},{"rt":5295,"stimulus":"bees-with-color/bee-A1SF.svg","response":0,"trial_type":"image-button-response","trial_index":25,"time_elapsed":167948,"internal_node_id":"0.0-4.0-0.9","subject_id":"5c86303fc2ceec001719a6eb","study_id":"6197b3f67c2b5cd3b6d9596a","session_id":"619be9b6a7685e06ce5d929f","condition":"contingent","relevant_dimensions":["antennae","wings"],"bee_group":{"antennae":"A","wings":"1","pattern":"X","legs":"X"},"action":"harvest","summary":"bad-harvest","bonus":0.9800000000000011},{"rt":23023,"stimulus":"\n                    <p><b>Action: <em>harvest</em></b></p>\n                    <p>This is the bee that you just saw.</p>\n                    <img src=\"bees-with-color/bee-A1SF.svg\" width=\"200\">\n                    <p><span class=\"redText\">Bad choice, the bee was angry.</span><br><b>You have been stung!</b><br>Your pay has been decreased by $0.10. Your bonus pay is now $0.38.</p>\n            ","response":0,"trial_type":"html-button-response","trial_index":26,"time_elapsed":190971,"internal_node_id":"0.0-4.0-1.9","subject_id":"5c86303fc2ceec001719a6eb","study_id":"6197b3f67c2b5cd3b6d9596a","session_id":"619be9b6a7685e06ce5d929f","condition":"contingent","relevant_dimensions":["antennae","wings"],"bee_group":{"antennae":"A","wings":"1","pattern":"X","legs":"X"},"bonus":0.9800000000000011},{"rt":9350.800000011921,"stimulus":"bees-with-color/bee-A2DM.svg","response":1,"trial_type":"image-button-response","trial_index":27,"time_elapsed":200324,"internal_node_id":"0.0-4.0-0.10","subject_id":"5c86303fc2ceec001719a6eb","study_id":"6197b3f67c2b5cd3b6d9596a","session_id":"619be9b6a7685e06ce5d929f","condition":"contingent","relevant_dimensions":["antennae","wings"],"bee_group":{"antennae":"A","wings":"1","pattern":"X","legs":"X"},"action":"avoid","summary":"bad-avoid","bonus":0.9800000000000011},{"rt":2134.899999976158,"stimulus":"\n                    <p><b>Action: <em>avoid</em></b></p>\n                    <p>This is the bee that you just saw.</p>\n                    <img src=\"bees-with-color/bee-A2DM.svg\" width=\"200\">\n                    <p><br>Your bonus pay is unchanged, and remains at $0.38.</p>\n            ","response":0,"trial_type":"html-button-response","trial_index":28,"time_elapsed":202460,"internal_node_id":"0.0-4.0-1.10","subject_id":"5c86303fc2ceec001719a6eb","study_id":"6197b3f67c2b5cd3b6d9596a","session_id":"619be9b6a7685e06ce5d929f","condition":"contingent","relevant_dimensions":["antennae","wings"],"bee_group":{"antennae":"A","wings":"1","pattern":"X","legs":"X"},"bonus":0.9800000000000011},{"rt":7462.900000035763,"stimulus":"bees-with-color/bee-A2SF.svg","response":0,"trial_type":"image-button-response","trial_index":29,"time_elapsed":209924,"internal_node_id":"0.0-4.0-0.11","subject_id":"5c86303fc2ceec001719a6eb","study_id":"6197b3f67c2b5cd3b6d9596a","session_id":"619be9b6a7685e06ce5d929f","condition":"contingent","relevant_dimensions":["antennae","wings"],"bee_group":{"antennae":"A","wings":"1","pattern":"X","legs":"X"},"action":"harvest","summary":"good-harvest","bonus":0.9800000000000011},{"rt":1831.1000000238419,"stimulus":"\n                    <p><b>Action: <em>harvest</em></b></p>\n                    <p>This is the bee that you just saw.</p>\n                    <img src=\"bees-with-color/bee-A2SF.svg\" width=\"200\">\n                    <p><span class=\"greenText\"><b>Successful harvest!</b></span><br>Your pay has increased by $0.02. Your bonus pay is now $0.40.</p>\n            ","response":0,"trial_type":"html-button-response","trial_index":30,"time_elapsed":211756,"internal_node_id":"0.0-4.0-1.11","subject_id":"5c86303fc2ceec001719a6eb","study_id":"6197b3f67c2b5cd3b6d9596a","session_id":"619be9b6a7685e06ce5d929f","condition":"contingent","relevant_dimensions":["antennae","wings"],"bee_group":{"antennae":"A","wings":"1","pattern":"X","legs":"X"},"bonus":0.9800000000000011},{"rt":2414.7999999523163,"stimulus":"bees-with-color/bee-B2SM.svg","response":0,"trial_type":"image-button-response","trial_index":31,"time_elapsed":214172,"internal_node_id":"0.0-4.0-0.12","subject_id":"5c86303fc2ceec001719a6eb","study_id":"6197b3f67c2b5cd3b6d9596a","session_id":"619be9b6a7685e06ce5d929f","condition":"contingent","relevant_dimensions":["antennae","wings"],"bee_group":{"antennae":"A","wings":"1","pattern":"X","legs":"X"},"action":"harvest","summary":"good-harvest","bonus":0.9800000000000011},{"rt":927.2000000476837,"stimulus":"\n                    <p><b>Action: <em>harvest</em></b></p>\n                    <p>This is the bee that you just saw.</p>\n                    <img src=\"bees-with-color/bee-B2SM.svg\" width=\"200\">\n                    <p><span class=\"greenText\"><b>Successful harvest!</b></span><br>Your pay has increased by $0.02. Your bonus pay is now $0.42.</p>\n            ","response":0,"trial_type":"html-button-response","trial_index":32,"time_elapsed":215100,"internal_node_id":"0.0-4.0-1.12","subject_id":"5c86303fc2ceec001719a6eb","study_id":"6197b3f67c2b5cd3b6d9596a","session_id":"619be9b6a7685e06ce5d929f","condition":"contingent","relevant_dimensions":["antennae","wings"],"bee_group":{"antennae":"A","wings":"1","pattern":"X","legs":"X"},"bonus":0.9800000000000011},{"rt":3431,"stimulus":"bees-with-color/bee-B1SM.svg","response":0,"trial_type":"image-button-response","trial_index":33,"time_elapsed":218532,"internal_node_id":"0.0-4.0-0.13","subject_id":"5c86303fc2ceec001719a6eb","study_id":"6197b3f67c2b5cd3b6d9596a","session_id":"619be9b6a7685e06ce5d929f","condition":"contingent","relevant_dimensions":["antennae","wings"],"bee_group":{"antennae":"A","wings":"1","pattern":"X","legs":"X"},"action":"harvest","summary":"good-harvest","bonus":0.9800000000000011},{"rt":1359.1000000238419,"stimulus":"\n                    <p><b>Action: <em>harvest</em></b></p>\n                    <p>This is the bee that you just saw.</p>\n                    <img src=\"bees-with-color/bee-B1SM.svg\" width=\"200\">\n                    <p><span class=\"greenText\"><b>Successful harvest!</b></span><br>Your pay has increased by $0.02. Your bonus pay is now $0.44.</p>\n            ","response":0,"trial_type":"html-button-response","trial_index":34,"time_elapsed":219892,"internal_node_id":"0.0-4.0-1.13","subject_id":"5c86303fc2ceec001719a6eb","study_id":"6197b3f67c2b5cd3b6d9596a","session_id":"619be9b6a7685e06ce5d929f","condition":"contingent","relevant_dimensions":["antennae","wings"],"bee_group":{"antennae":"A","wings":"1","pattern":"X","legs":"X"},"bonus":0.9800000000000011},{"rt":4735,"stimulus":"bees-with-color/bee-A1DF.svg","response":1,"trial_type":"image-button-response","trial_index":35,"time_elapsed":224628,"internal_node_id":"0.0-4.0-0.14","subject_id":"5c86303fc2ceec001719a6eb","study_id":"6197b3f67c2b5cd3b6d9596a","session_id":"619be9b6a7685e06ce5d929f","condition":"contingent","relevant_dimensions":["antennae","wings"],"bee_group":{"antennae":"A","wings":"1","pattern":"X","legs":"X"},"action":"avoid","summary":"good-avoid","bonus":0.9800000000000011},{"rt":1247,"stimulus":"\n                    <p><b>Action: <em>avoid</em></b></p>\n                    <p>This is the bee that you just saw.</p>\n                    <img src=\"bees-with-color/bee-A1DF.svg\" width=\"200\">\n                    <p><br>Your bonus pay is unchanged, and remains at $0.44.</p>\n            ","response":0,"trial_type":"html-button-response","trial_index":36,"time_elapsed":225876,"internal_node_id":"0.0-4.0-1.14","subject_id":"5c86303fc2ceec001719a6eb","study_id":"6197b3f67c2b5cd3b6d9596a","session_id":"619be9b6a7685e06ce5d929f","condition":"contingent","relevant_dimensions":["antennae","wings"],"bee_group":{"antennae":"A","wings":"1","pattern":"X","legs":"X"},"bonus":0.9800000000000011},{"rt":8022.899999976158,"stimulus":"bees-with-color/bee-B2DF.svg","response":0,"trial_type":"image-button-response","trial_index":37,"time_elapsed":233900,"internal_node_id":"0.0-4.0-0.15","subject_id":"5c86303fc2ceec001719a6eb","study_id":"6197b3f67c2b5cd3b6d9596a","session_id":"619be9b6a7685e06ce5d929f","condition":"contingent","relevant_dimensions":["antennae","wings"],"bee_group":{"antennae":"A","wings":"1","pattern":"X","legs":"X"},"action":"harvest","summary":"good-harvest","bonus":0.9800000000000011},{"rt":919.1000000238419,"stimulus":"\n                    <p><b>Action: <em>harvest</em></b></p>\n                    <p>This is the bee that you just saw.</p>\n                    <img src=\"bees-with-color/bee-B2DF.svg\" width=\"200\">\n                    <p><span class=\"greenText\"><b>Successful harvest!</b></span><br>Your pay has increased by $0.02. Your bonus pay is now $0.46.</p>\n            ","response":0,"trial_type":"html-button-response","trial_index":38,"time_elapsed":234820,"internal_node_id":"0.0-4.0-1.15","subject_id":"5c86303fc2ceec001719a6eb","study_id":"6197b3f67c2b5cd3b6d9596a","session_id":"619be9b6a7685e06ce5d929f","condition":"contingent","relevant_dimensions":["antennae","wings"],"bee_group":{"antennae":"A","wings":"1","pattern":"X","legs":"X"},"bonus":0.9800000000000011},{"rt":2462.800000011921,"stimulus":"bees-with-color/bee-B1SF.svg","response":0,"trial_type":"image-button-response","trial_index":39,"time_elapsed":237284,"internal_node_id":"0.0-4.0-0.16","subject_id":"5c86303fc2ceec001719a6eb","study_id":"6197b3f67c2b5cd3b6d9596a","session_id":"619be9b6a7685e06ce5d929f","condition":"contingent","relevant_dimensions":["antennae","wings"],"bee_group":{"antennae":"A","wings":"1","pattern":"X","legs":"X"},"action":"harvest","summary":"good-harvest","bonus":0.9800000000000011},{"rt":1311.1000000238419,"stimulus":"\n                    <p><b>Action: <em>harvest</em></b></p>\n                    <p>This is the bee that you just saw.</p>\n                    <img src=\"bees-with-color/bee-B1SF.svg\" width=\"200\">\n                    <p><span class=\"greenText\"><b>Successful harvest!</b></span><br>Your pay has increased by $0.02. Your bonus pay is now $0.48.</p>\n            ","response":0,"trial_type":"html-button-response","trial_index":40,"time_elapsed":238596,"internal_node_id":"0.0-4.0-1.16","subject_id":"5c86303fc2ceec001719a6eb","study_id":"6197b3f67c2b5cd3b6d9596a","session_id":"619be9b6a7685e06ce5d929f","condition":"contingent","relevant_dimensions":["antennae","wings"],"bee_group":{"antennae":"A","wings":"1","pattern":"X","legs":"X"},"bonus":0.9800000000000011},{"rt":3407.2000000476837,"stimulus":"bees-with-color/bee-B2DF.svg","response":0,"trial_type":"image-button-response","trial_index":41,"time_elapsed":242004,"internal_node_id":"0.0-4.0-0.17","subject_id":"5c86303fc2ceec001719a6eb","study_id":"6197b3f67c2b5cd3b6d9596a","session_id":"619be9b6a7685e06ce5d929f","condition":"contingent","relevant_dimensions":["antennae","wings"],"bee_group":{"antennae":"A","wings":"1","pattern":"X","legs":"X"},"action":"harvest","summary":"good-harvest","bonus":0.9800000000000011},{"rt":670.8999999761581,"stimulus":"\n                    <p><b>Action: <em>harvest</em></b></p>\n                    <p>This is the bee that you just saw.</p>\n                    <img src=\"bees-with-color/bee-B2DF.svg\" width=\"200\">\n                    <p><span class=\"greenText\"><b>Successful harvest!</b></span><br>Your pay has increased by $0.02. Your bonus pay is now $0.50.</p>\n            ","response":0,"trial_type":"html-button-response","trial_index":42,"time_elapsed":242676,"internal_node_id":"0.0-4.0-1.17","subject_id":"5c86303fc2ceec001719a6eb","study_id":"6197b3f67c2b5cd3b6d9596a","session_id":"619be9b6a7685e06ce5d929f","condition":"contingent","relevant_dimensions":["antennae","wings"],"bee_group":{"antennae":"A","wings":"1","pattern":"X","legs":"X"},"bonus":0.9800000000000011},{"rt":1118.8999999761581,"stimulus":"bees-with-color/bee-B2SF.svg","response":0,"trial_type":"image-button-response","trial_index":43,"time_elapsed":243796,"internal_node_id":"0.0-4.0-0.18","subject_id":"5c86303fc2ceec001719a6eb","study_id":"6197b3f67c2b5cd3b6d9596a","session_id":"619be9b6a7685e06ce5d929f","condition":"contingent","relevant_dimensions":["antennae","wings"],"bee_group":{"antennae":"A","wings":"1","pattern":"X","legs":"X"},"action":"harvest","summary":"good-harvest","bonus":0.9800000000000011},{"rt":711.1000000238419,"stimulus":"\n                    <p><b>Action: <em>harvest</em></b></p>\n                    <p>This is the bee that you just saw.</p>\n                    <img src=\"bees-with-color/bee-B2SF.svg\" width=\"200\">\n                    <p><span class=\"greenText\"><b>Successful harvest!</b></span><br>Your pay has increased by $0.02. Your bonus pay is now $0.52.</p>\n            ","response":0,"trial_type":"html-button-response","trial_index":44,"time_elapsed":244508,"internal_node_id":"0.0-4.0-1.18","subject_id":"5c86303fc2ceec001719a6eb","study_id":"6197b3f67c2b5cd3b6d9596a","session_id":"619be9b6a7685e06ce5d929f","condition":"contingent","relevant_dimensions":["antennae","wings"],"bee_group":{"antennae":"A","wings":"1","pattern":"X","legs":"X"},"bonus":0.9800000000000011},{"rt":2103.100000023842,"stimulus":"bees-with-color/bee-B1DM.svg","response":0,"trial_type":"image-button-response","trial_index":45,"time_elapsed":246612,"internal_node_id":"0.0-4.0-0.19","subject_id":"5c86303fc2ceec001719a6eb","study_id":"6197b3f67c2b5cd3b6d9596a","session_id":"619be9b6a7685e06ce5d929f","condition":"contingent","relevant_dimensions":["antennae","wings"],"bee_group":{"antennae":"A","wings":"1","pattern":"X","legs":"X"},"action":"harvest","summary":"good-harvest","bonus":0.9800000000000011},{"rt":695,"stimulus":"\n                    <p><b>Action: <em>harvest</em></b></p>\n                    <p>This is the bee that you just saw.</p>\n                    <img src=\"bees-with-color/bee-B1DM.svg\" width=\"200\">\n                    <p><span class=\"greenText\"><b>Successful harvest!</b></span><br>Your pay has increased by $0.02. Your bonus pay is now $0.54.</p>\n            ","response":0,"trial_type":"html-button-response","trial_index":46,"time_elapsed":247308,"internal_node_id":"0.0-4.0-1.19","subject_id":"5c86303fc2ceec001719a6eb","study_id":"6197b3f67c2b5cd3b6d9596a","session_id":"619be9b6a7685e06ce5d929f","condition":"contingent","relevant_dimensions":["antennae","wings"],"bee_group":{"antennae":"A","wings":"1","pattern":"X","legs":"X"},"bonus":0.9800000000000011},{"rt":2711,"stimulus":"bees-with-color/bee-A2SF.svg","response":1,"trial_type":"image-button-response","trial_index":47,"time_elapsed":250020,"internal_node_id":"0.0-4.0-0.20","subject_id":"5c86303fc2ceec001719a6eb","study_id":"6197b3f67c2b5cd3b6d9596a","session_id":"619be9b6a7685e06ce5d929f","condition":"contingent","relevant_dimensions":["antennae","wings"],"bee_group":{"antennae":"A","wings":"1","pattern":"X","legs":"X"},"action":"avoid","summary":"bad-avoid","bonus":0.9800000000000011},{"rt":759,"stimulus":"\n                    <p><b>Action: <em>avoid</em></b></p>\n                    <p>This is the bee that you just saw.</p>\n                    <img src=\"bees-with-color/bee-A2SF.svg\" width=\"200\">\n                    <p><br>Your bonus pay is unchanged, and remains at $0.54.</p>\n            ","response":0,"trial_type":"html-button-response","trial_index":48,"time_elapsed":250780,"internal_node_id":"0.0-4.0-1.20","subject_id":"5c86303fc2ceec001719a6eb","study_id":"6197b3f67c2b5cd3b6d9596a","session_id":"619be9b6a7685e06ce5d929f","condition":"contingent","relevant_dimensions":["antennae","wings"],"bee_group":{"antennae":"A","wings":"1","pattern":"X","legs":"X"},"bonus":0.9800000000000011},{"rt":1847.1000000238419,"stimulus":"bees-with-color/bee-A1SF.svg","response":0,"trial_type":"image-button-response","trial_index":49,"time_elapsed":252628,"internal_node_id":"0.0-4.0-0.21","subject_id":"5c86303fc2ceec001719a6eb","study_id":"6197b3f67c2b5cd3b6d9596a","session_id":"619be9b6a7685e06ce5d929f","condition":"contingent","relevant_dimensions":["antennae","wings"],"bee_group":{"antennae":"A","wings":"1","pattern":"X","legs":"X"},"action":"harvest","summary":"bad-harvest","bonus":0.9800000000000011},{"rt":7095,"stimulus":"\n                    <p><b>Action: <em>harvest</em></b></p>\n                    <p>This is the bee that you just saw.</p>\n                    <img src=\"bees-with-color/bee-A1SF.svg\" width=\"200\">\n                    <p><span class=\"redText\">Bad choice, the bee was angry.</span><br><b>You have been stung!</b><br>Your pay has been decreased by $0.10. Your bonus pay is now $0.44.</p>\n            ","response":0,"trial_type":"html-button-response","trial_index":50,"time_elapsed":259724,"internal_node_id":"0.0-4.0-1.21","subject_id":"5c86303fc2ceec001719a6eb","study_id":"6197b3f67c2b5cd3b6d9596a","session_id":"619be9b6a7685e06ce5d929f","condition":"contingent","relevant_dimensions":["antennae","wings"],"bee_group":{"antennae":"A","wings":"1","pattern":"X","legs":"X"},"bonus":0.9800000000000011},{"rt":1630.9000000357628,"stimulus":"bees-with-color/bee-A1DF.svg","response":0,"trial_type":"image-button-response","trial_index":51,"time_elapsed":261356,"internal_node_id":"0.0-4.0-0.22","subject_id":"5c86303fc2ceec001719a6eb","study_id":"6197b3f67c2b5cd3b6d9596a","session_id":"619be9b6a7685e06ce5d929f","condition":"contingent","relevant_dimensions":["antennae","wings"],"bee_group":{"antennae":"A","wings":"1","pattern":"X","legs":"X"},"action":"harvest","summary":"bad-harvest","bonus":0.9800000000000011},{"rt":1366.8999999761581,"stimulus":"\n                    <p><b>Action: <em>harvest</em></b></p>\n                    <p>This is the bee that you just saw.</p>\n                    <img src=\"bees-with-color/bee-A1DF.svg\" width=\"200\">\n                    <p><span class=\"redText\">Bad choice, the bee was angry.</span><br><b>You have been stung!</b><br>Your pay has been decreased by $0.10. Your bonus pay is now $0.34.</p>\n            ","response":0,"trial_type":"html-button-response","trial_index":52,"time_elapsed":262724,"internal_node_id":"0.0-4.0-1.22","subject_id":"5c86303fc2ceec001719a6eb","study_id":"6197b3f67c2b5cd3b6d9596a","session_id":"619be9b6a7685e06ce5d929f","condition":"contingent","relevant_dimensions":["antennae","wings"],"bee_group":{"antennae":"A","wings":"1","pattern":"X","legs":"X"},"bonus":0.9800000000000011},{"rt":14375.100000023842,"stimulus":"bees-with-color/bee-B1SM.svg","response":0,"trial_type":"image-button-response","trial_index":53,"time_elapsed":277100,"internal_node_id":"0.0-4.0-0.23","subject_id":"5c86303fc2ceec001719a6eb","study_id":"6197b3f67c2b5cd3b6d9596a","session_id":"619be9b6a7685e06ce5d929f","condition":"contingent","relevant_dimensions":["antennae","wings"],"bee_group":{"antennae":"A","wings":"1","pattern":"X","legs":"X"},"action":"harvest","summary":"good-harvest","bonus":0.9800000000000011},{"rt":567,"stimulus":"\n                    <p><b>Action: <em>harvest</em></b></p>\n                    <p>This is the bee that you just saw.</p>\n                    <img src=\"bees-with-color/bee-B1SM.svg\" width=\"200\">\n                    <p><span class=\"greenText\"><b>Successful harvest!</b></span><br>Your pay has increased by $0.02. Your bonus pay is now $0.36.</p>\n            ","response":0,"trial_type":"html-button-response","trial_index":54,"time_elapsed":277668,"internal_node_id":"0.0-4.0-1.23","subject_id":"5c86303fc2ceec001719a6eb","study_id":"6197b3f67c2b5cd3b6d9596a","session_id":"619be9b6a7685e06ce5d929f","condition":"contingent","relevant_dimensions":["antennae","wings"],"bee_group":{"antennae":"A","wings":"1","pattern":"X","legs":"X"},"bonus":0.9800000000000011},{"rt":1502.800000011921,"stimulus":"bees-with-color/bee-A1SM.svg","response":0,"trial_type":"image-button-response","trial_index":55,"time_elapsed":279172,"internal_node_id":"0.0-4.0-0.24","subject_id":"5c86303fc2ceec001719a6eb","study_id":"6197b3f67c2b5cd3b6d9596a","session_id":"619be9b6a7685e06ce5d929f","condition":"contingent","relevant_dimensions":["antennae","wings"],"bee_group":{"antennae":"A","wings":"1","pattern":"X","legs":"X"},"action":"harvest","summary":"bad-harvest","bonus":0.9800000000000011},{"rt":559,"stimulus":"\n                    <p><b>Action: <em>harvest</em></b></p>\n                    <p>This is the bee that you just saw.</p>\n                    <img src=\"bees-with-color/bee-A1SM.svg\" width=\"200\">\n                    <p><span class=\"redText\">Bad choice, the bee was angry.</span><br><b>You have been stung!</b><br>Your pay has been decreased by $0.10. Your bonus pay is now $0.26.</p>\n            ","response":0,"trial_type":"html-button-response","trial_index":56,"time_elapsed":279732,"internal_node_id":"0.0-4.0-1.24","subject_id":"5c86303fc2ceec001719a6eb","study_id":"6197b3f67c2b5cd3b6d9596a","session_id":"619be9b6a7685e06ce5d929f","condition":"contingent","relevant_dimensions":["antennae","wings"],"bee_group":{"antennae":"A","wings":"1","pattern":"X","legs":"X"},"bonus":0.9800000000000011},{"rt":1767.1000000238419,"stimulus":"bees-with-color/bee-A2SM.svg","response":0,"trial_type":"image-button-response","trial_index":57,"time_elapsed":281500,"internal_node_id":"0.0-4.0-0.25","subject_id":"5c86303fc2ceec001719a6eb","study_id":"6197b3f67c2b5cd3b6d9596a","session_id":"619be9b6a7685e06ce5d929f","condition":"contingent","relevant_dimensions":["antennae","wings"],"bee_group":{"antennae":"A","wings":"1","pattern":"X","legs":"X"},"action":"harvest","summary":"good-harvest","bonus":0.9800000000000011},{"rt":559,"stimulus":"\n                    <p><b>Action: <em>harvest</em></b></p>\n                    <p>This is the bee that you just saw.</p>\n                    <img src=\"bees-with-color/bee-A2SM.svg\" width=\"200\">\n                    <p><span class=\"greenText\"><b>Successful harvest!</b></span><br>Your pay has increased by $0.02. Your bonus pay is now $0.28.</p>\n            ","response":0,"trial_type":"html-button-response","trial_index":58,"time_elapsed":282060,"internal_node_id":"0.0-4.0-1.25","subject_id":"5c86303fc2ceec001719a6eb","study_id":"6197b3f67c2b5cd3b6d9596a","session_id":"619be9b6a7685e06ce5d929f","condition":"contingent","relevant_dimensions":["antennae","wings"],"bee_group":{"antennae":"A","wings":"1","pattern":"X","legs":"X"},"bonus":0.9800000000000011},{"rt":2455.100000023842,"stimulus":"bees-with-color/bee-A2DM.svg","response":1,"trial_type":"image-button-response","trial_index":59,"time_elapsed":284516,"internal_node_id":"0.0-4.0-0.26","subject_id":"5c86303fc2ceec001719a6eb","study_id":"6197b3f67c2b5cd3b6d9596a","session_id":"619be9b6a7685e06ce5d929f","condition":"contingent","relevant_dimensions":["antennae","wings"],"bee_group":{"antennae":"A","wings":"1","pattern":"X","legs":"X"},"action":"avoid","summary":"bad-avoid","bonus":0.9800000000000011},{"rt":471,"stimulus":"\n                    <p><b>Action: <em>avoid</em></b></p>\n                    <p>This is the bee that you just saw.</p>\n                    <img src=\"bees-with-color/bee-A2DM.svg\" width=\"200\">\n                    <p><br>Your bonus pay is unchanged, and remains at $0.28.</p>\n            ","response":0,"trial_type":"html-button-response","trial_index":60,"time_elapsed":284988,"internal_node_id":"0.0-4.0-1.26","subject_id":"5c86303fc2ceec001719a6eb","study_id":"6197b3f67c2b5cd3b6d9596a","session_id":"619be9b6a7685e06ce5d929f","condition":"contingent","relevant_dimensions":["antennae","wings"],"bee_group":{"antennae":"A","wings":"1","pattern":"X","legs":"X"},"bonus":0.9800000000000011},{"rt":1246.5999999642372,"stimulus":"bees-with-color/bee-A2DF.svg","response":1,"trial_type":"image-button-response","trial_index":61,"time_elapsed":286236,"internal_node_id":"0.0-4.0-0.27","subject_id":"5c86303fc2ceec001719a6eb","study_id":"6197b3f67c2b5cd3b6d9596a","session_id":"619be9b6a7685e06ce5d929f","condition":"contingent","relevant_dimensions":["antennae","wings"],"bee_group":{"antennae":"A","wings":"1","pattern":"X","legs":"X"},"action":"avoid","summary":"bad-avoid","bonus":0.9800000000000011},{"rt":438.80000001192093,"stimulus":"\n                    <p><b>Action: <em>avoid</em></b></p>\n                    <p>This is the bee that you just saw.</p>\n                    <img src=\"bees-with-color/bee-A2DF.svg\" width=\"200\">\n                    <p><br>Your bonus pay is unchanged, and remains at $0.28.</p>\n            ","response":0,"trial_type":"html-button-response","trial_index":62,"time_elapsed":286676,"internal_node_id":"0.0-4.0-1.27","subject_id":"5c86303fc2ceec001719a6eb","study_id":"6197b3f67c2b5cd3b6d9596a","session_id":"619be9b6a7685e06ce5d929f","condition":"contingent","relevant_dimensions":["antennae","wings"],"bee_group":{"antennae":"A","wings":"1","pattern":"X","legs":"X"},"bonus":0.9800000000000011},{"rt":1007,"stimulus":"bees-with-color/bee-B1DF.svg","response":0,"trial_type":"image-button-response","trial_index":63,"time_elapsed":287684,"internal_node_id":"0.0-4.0-0.28","subject_id":"5c86303fc2ceec001719a6eb","study_id":"6197b3f67c2b5cd3b6d9596a","session_id":"619be9b6a7685e06ce5d929f","condition":"contingent","relevant_dimensions":["antennae","wings"],"bee_group":{"antennae":"A","wings":"1","pattern":"X","legs":"X"},"action":"harvest","summary":"good-harvest","bonus":0.9800000000000011},{"rt":526.8000000119209,"stimulus":"\n                    <p><b>Action: <em>harvest</em></b></p>\n                    <p>This is the bee that you just saw.</p>\n                    <img src=\"bees-with-color/bee-B1DF.svg\" width=\"200\">\n                    <p><span class=\"greenText\"><b>Successful harvest!</b></span><br>Your pay has increased by $0.02. Your bonus pay is now $0.30.</p>\n            ","response":0,"trial_type":"html-button-response","trial_index":64,"time_elapsed":288212,"internal_node_id":"0.0-4.0-1.28","subject_id":"5c86303fc2ceec001719a6eb","study_id":"6197b3f67c2b5cd3b6d9596a","session_id":"619be9b6a7685e06ce5d929f","condition":"contingent","relevant_dimensions":["antennae","wings"],"bee_group":{"antennae":"A","wings":"1","pattern":"X","legs":"X"},"bonus":0.9800000000000011},{"rt":1095.1000000238419,"stimulus":"bees-with-color/bee-B2DM.svg","response":0,"trial_type":"image-button-response","trial_index":65,"time_elapsed":289308,"internal_node_id":"0.0-4.0-0.29","subject_id":"5c86303fc2ceec001719a6eb","study_id":"6197b3f67c2b5cd3b6d9596a","session_id":"619be9b6a7685e06ce5d929f","condition":"contingent","relevant_dimensions":["antennae","wings"],"bee_group":{"antennae":"A","wings":"1","pattern":"X","legs":"X"},"action":"harvest","summary":"good-harvest","bonus":0.9800000000000011},{"rt":543.1000000238419,"stimulus":"\n                    <p><b>Action: <em>harvest</em></b></p>\n                    <p>This is the bee that you just saw.</p>\n                    <img src=\"bees-with-color/bee-B2DM.svg\" width=\"200\">\n                    <p><span class=\"greenText\"><b>Successful harvest!</b></span><br>Your pay has increased by $0.02. Your bonus pay is now $0.32.</p>\n            ","response":0,"trial_type":"html-button-response","trial_index":66,"time_elapsed":289852,"internal_node_id":"0.0-4.0-1.29","subject_id":"5c86303fc2ceec001719a6eb","study_id":"6197b3f67c2b5cd3b6d9596a","session_id":"619be9b6a7685e06ce5d929f","condition":"contingent","relevant_dimensions":["antennae","wings"],"bee_group":{"antennae":"A","wings":"1","pattern":"X","legs":"X"},"bonus":0.9800000000000011},{"rt":719.1000000238419,"stimulus":"bees-with-color/bee-B2SM.svg","response":0,"trial_type":"image-button-response","trial_index":67,"time_elapsed":290572,"internal_node_id":"0.0-4.0-0.30","subject_id":"5c86303fc2ceec001719a6eb","study_id":"6197b3f67c2b5cd3b6d9596a","session_id":"619be9b6a7685e06ce5d929f","condition":"contingent","relevant_dimensions":["antennae","wings"],"bee_group":{"antennae":"A","wings":"1","pattern":"X","legs":"X"},"action":"harvest","summary":"good-harvest","bonus":0.9800000000000011},{"rt":503.2000000476837,"stimulus":"\n                    <p><b>Action: <em>harvest</em></b></p>\n                    <p>This is the bee that you just saw.</p>\n                    <img src=\"bees-with-color/bee-B2SM.svg\" width=\"200\">\n                    <p><span class=\"greenText\"><b>Successful harvest!</b></span><br>Your pay has increased by $0.02. Your bonus pay is now $0.34.</p>\n            ","response":0,"trial_type":"html-button-response","trial_index":68,"time_elapsed":291076,"internal_node_id":"0.0-4.0-1.30","subject_id":"5c86303fc2ceec001719a6eb","study_id":"6197b3f67c2b5cd3b6d9596a","session_id":"619be9b6a7685e06ce5d929f","condition":"contingent","relevant_dimensions":["antennae","wings"],"bee_group":{"antennae":"A","wings":"1","pattern":"X","legs":"X"},"bonus":0.9800000000000011},{"rt":911.3000000119209,"stimulus":"bees-with-color/bee-A1DM.svg","response":1,"trial_type":"image-button-response","trial_index":69,"time_elapsed":291988,"internal_node_id":"0.0-4.0-0.31","subject_id":"5c86303fc2ceec001719a6eb","study_id":"6197b3f67c2b5cd3b6d9596a","session_id":"619be9b6a7685e06ce5d929f","condition":"contingent","relevant_dimensions":["antennae","wings"],"bee_group":{"antennae":"A","wings":"1","pattern":"X","legs":"X"},"action":"avoid","summary":"good-avoid","bonus":0.9800000000000011},{"rt":454.80000001192093,"stimulus":"\n                    <p><b>Action: <em>avoid</em></b></p>\n                    <p>This is the bee that you just saw.</p>\n                    <img src=\"bees-with-color/bee-A1DM.svg\" width=\"200\">\n                    <p><br>Your bonus pay is unchanged, and remains at $0.34.</p>\n            ","response":0,"trial_type":"html-button-response","trial_index":70,"time_elapsed":292444,"internal_node_id":"0.0-4.0-1.31","subject_id":"5c86303fc2ceec001719a6eb","study_id":"6197b3f67c2b5cd3b6d9596a","session_id":"619be9b6a7685e06ce5d929f","condition":"contingent","relevant_dimensions":["antennae","wings"],"bee_group":{"antennae":"A","wings":"1","pattern":"X","legs":"X"},"bonus":0.9800000000000011},{"rt":783.3000000119209,"stimulus":"bees-with-color/bee-A1SM.svg","response":1,"trial_type":"image-button-response","trial_index":71,"time_elapsed":293228,"internal_node_id":"0.0-4.0-0.32","subject_id":"5c86303fc2ceec001719a6eb","study_id":"6197b3f67c2b5cd3b6d9596a","session_id":"619be9b6a7685e06ce5d929f","condition":"contingent","relevant_dimensions":["antennae","wings"],"bee_group":{"antennae":"A","wings":"1","pattern":"X","legs":"X"},"action":"avoid","summary":"good-avoid","bonus":0.9800000000000011},{"rt":711.1000000238419,"stimulus":"\n                    <p><b>Action: <em>avoid</em></b></p>\n                    <p>This is the bee that you just saw.</p>\n                    <img src=\"bees-with-color/bee-A1SM.svg\" width=\"200\">\n                    <p><br>Your bonus pay is unchanged, and remains at $0.34.</p>\n            ","response":0,"trial_type":"html-button-response","trial_index":72,"time_elapsed":293940,"internal_node_id":"0.0-4.0-1.32","subject_id":"5c86303fc2ceec001719a6eb","study_id":"6197b3f67c2b5cd3b6d9596a","session_id":"619be9b6a7685e06ce5d929f","condition":"contingent","relevant_dimensions":["antennae","wings"],"bee_group":{"antennae":"A","wings":"1","pattern":"X","legs":"X"},"bonus":0.9800000000000011},{"rt":671.3000000119209,"stimulus":"bees-with-color/bee-B2DM.svg","response":0,"trial_type":"image-button-response","trial_index":73,"time_elapsed":294612,"internal_node_id":"0.0-4.0-0.33","subject_id":"5c86303fc2ceec001719a6eb","study_id":"6197b3f67c2b5cd3b6d9596a","session_id":"619be9b6a7685e06ce5d929f","condition":"contingent","relevant_dimensions":["antennae","wings"],"bee_group":{"antennae":"A","wings":"1","pattern":"X","legs":"X"},"action":"harvest","summary":"good-harvest","bonus":0.9800000000000011},{"rt":535.1000000238419,"stimulus":"\n                    <p><b>Action: <em>harvest</em></b></p>\n                    <p>This is the bee that you just saw.</p>\n                    <img src=\"bees-with-color/bee-B2DM.svg\" width=\"200\">\n                    <p><span class=\"greenText\"><b>Successful harvest!</b></span><br>Your pay has increased by $0.02. Your bonus pay is now $0.36.</p>\n            ","response":0,"trial_type":"html-button-response","trial_index":74,"time_elapsed":295148,"internal_node_id":"0.0-4.0-1.33","subject_id":"5c86303fc2ceec001719a6eb","study_id":"6197b3f67c2b5cd3b6d9596a","session_id":"619be9b6a7685e06ce5d929f","condition":"contingent","relevant_dimensions":["antennae","wings"],"bee_group":{"antennae":"A","wings":"1","pattern":"X","legs":"X"},"bonus":0.9800000000000011},{"rt":655.2000000476837,"stimulus":"bees-with-color/bee-B2SM.svg","response":0,"trial_type":"image-button-response","trial_index":75,"time_elapsed":295804,"internal_node_id":"0.0-4.0-0.34","subject_id":"5c86303fc2ceec001719a6eb","study_id":"6197b3f67c2b5cd3b6d9596a","session_id":"619be9b6a7685e06ce5d929f","condition":"contingent","relevant_dimensions":["antennae","wings"],"bee_group":{"antennae":"A","wings":"1","pattern":"X","legs":"X"},"action":"harvest","summary":"good-harvest","bonus":0.9800000000000011},{"rt":479.2000000476837,"stimulus":"\n                    <p><b>Action: <em>harvest</em></b></p>\n                    <p>This is the bee that you just saw.</p>\n                    <img src=\"bees-with-color/bee-B2SM.svg\" width=\"200\">\n                    <p><span class=\"greenText\"><b>Successful harvest!</b></span><br>Your pay has increased by $0.02. Your bonus pay is now $0.38.</p>\n            ","response":0,"trial_type":"html-button-response","trial_index":76,"time_elapsed":296284,"internal_node_id":"0.0-4.0-1.34","subject_id":"5c86303fc2ceec001719a6eb","study_id":"6197b3f67c2b5cd3b6d9596a","session_id":"619be9b6a7685e06ce5d929f","condition":"contingent","relevant_dimensions":["antennae","wings"],"bee_group":{"antennae":"A","wings":"1","pattern":"X","legs":"X"},"bonus":0.9800000000000011},{"rt":1183.5999999642372,"stimulus":"bees-with-color/bee-B1DF.svg","response":0,"trial_type":"image-button-response","trial_index":77,"time_elapsed":297468,"internal_node_id":"0.0-4.0-0.35","subject_id":"5c86303fc2ceec001719a6eb","study_id":"6197b3f67c2b5cd3b6d9596a","session_id":"619be9b6a7685e06ce5d929f","condition":"contingent","relevant_dimensions":["antennae","wings"],"bee_group":{"antennae":"A","wings":"1","pattern":"X","legs":"X"},"action":"harvest","summary":"good-harvest","bonus":0.9800000000000011},{"rt":534.8000000119209,"stimulus":"\n                    <p><b>Action: <em>harvest</em></b></p>\n                    <p>This is the bee that you just saw.</p>\n                    <img src=\"bees-with-color/bee-B1DF.svg\" width=\"200\">\n                    <p><span class=\"greenText\"><b>Successful harvest!</b></span><br>Your pay has increased by $0.02. Your bonus pay is now $0.40.</p>\n            ","response":0,"trial_type":"html-button-response","trial_index":78,"time_elapsed":298004,"internal_node_id":"0.0-4.0-1.35","subject_id":"5c86303fc2ceec001719a6eb","study_id":"6197b3f67c2b5cd3b6d9596a","session_id":"619be9b6a7685e06ce5d929f","condition":"contingent","relevant_dimensions":["antennae","wings"],"bee_group":{"antennae":"A","wings":"1","pattern":"X","legs":"X"},"bonus":0.9800000000000011},{"rt":855.1000000238419,"stimulus":"bees-with-color/bee-A1DM.svg","response":1,"trial_type":"image-button-response","trial_index":79,"time_elapsed":298860,"internal_node_id":"0.0-4.0-0.36","subject_id":"5c86303fc2ceec001719a6eb","study_id":"6197b3f67c2b5cd3b6d9596a","session_id":"619be9b6a7685e06ce5d929f","condition":"contingent","relevant_dimensions":["antennae","wings"],"bee_group":{"antennae":"A","wings":"1","pattern":"X","legs":"X"},"action":"avoid","summary":"good-avoid","bonus":0.9800000000000011},{"rt":767,"stimulus":"\n                    <p><b>Action: <em>avoid</em></b></p>\n                    <p>This is the bee that you just saw.</p>\n                    <img src=\"bees-with-color/bee-A1DM.svg\" width=\"200\">\n                    <p><br>Your bonus pay is unchanged, and remains at $0.40.</p>\n            ","response":0,"trial_type":"html-button-response","trial_index":80,"time_elapsed":299628,"internal_node_id":"0.0-4.0-1.36","subject_id":"5c86303fc2ceec001719a6eb","study_id":"6197b3f67c2b5cd3b6d9596a","session_id":"619be9b6a7685e06ce5d929f","condition":"contingent","relevant_dimensions":["antennae","wings"],"bee_group":{"antennae":"A","wings":"1","pattern":"X","legs":"X"},"bonus":0.9800000000000011},{"rt":775.2000000476837,"stimulus":"bees-with-color/bee-A2SM.svg","response":1,"trial_type":"image-button-response","trial_index":81,"time_elapsed":300404,"internal_node_id":"0.0-4.0-0.37","subject_id":"5c86303fc2ceec001719a6eb","study_id":"6197b3f67c2b5cd3b6d9596a","session_id":"619be9b6a7685e06ce5d929f","condition":"contingent","relevant_dimensions":["antennae","wings"],"bee_group":{"antennae":"A","wings":"1","pattern":"X","legs":"X"},"action":"avoid","summary":"bad-avoid","bonus":0.9800000000000011},{"rt":351,"stimulus":"\n                    <p><b>Action: <em>avoid</em></b></p>\n                    <p>This is the bee that you just saw.</p>\n                    <img src=\"bees-with-color/bee-A2SM.svg\" width=\"200\">\n                    <p><br>Your bonus pay is unchanged, and remains at $0.40.</p>\n            ","response":0,"trial_type":"html-button-response","trial_index":82,"time_elapsed":300756,"internal_node_id":"0.0-4.0-1.37","subject_id":"5c86303fc2ceec001719a6eb","study_id":"6197b3f67c2b5cd3b6d9596a","session_id":"619be9b6a7685e06ce5d929f","condition":"contingent","relevant_dimensions":["antennae","wings"],"bee_group":{"antennae":"A","wings":"1","pattern":"X","legs":"X"},"bonus":0.9800000000000011},{"rt":631.2000000476837,"stimulus":"bees-with-color/bee-B1SM.svg","response":0,"trial_type":"image-button-response","trial_index":83,"time_elapsed":301388,"internal_node_id":"0.0-4.0-0.38","subject_id":"5c86303fc2ceec001719a6eb","study_id":"6197b3f67c2b5cd3b6d9596a","session_id":"619be9b6a7685e06ce5d929f","condition":"contingent","relevant_dimensions":["antennae","wings"],"bee_group":{"antennae":"A","wings":"1","pattern":"X","legs":"X"},"action":"harvest","summary":"good-harvest","bonus":0.9800000000000011},{"rt":503,"stimulus":"\n                    <p><b>Action: <em>harvest</em></b></p>\n                    <p>This is the bee that you just saw.</p>\n                    <img src=\"bees-with-color/bee-B1SM.svg\" width=\"200\">\n                    <p><span class=\"greenText\"><b>Successful harvest!</b></span><br>Your pay has increased by $0.02. Your bonus pay is now $0.42.</p>\n            ","response":0,"trial_type":"html-button-response","trial_index":84,"time_elapsed":301892,"internal_node_id":"0.0-4.0-1.38","subject_id":"5c86303fc2ceec001719a6eb","study_id":"6197b3f67c2b5cd3b6d9596a","session_id":"619be9b6a7685e06ce5d929f","condition":"contingent","relevant_dimensions":["antennae","wings"],"bee_group":{"antennae":"A","wings":"1","pattern":"X","legs":"X"},"bonus":0.9800000000000011},{"rt":607.2000000476837,"stimulus":"bees-with-color/bee-B1SF.svg","response":0,"trial_type":"image-button-response","trial_index":85,"time_elapsed":302500,"internal_node_id":"0.0-4.0-0.39","subject_id":"5c86303fc2ceec001719a6eb","study_id":"6197b3f67c2b5cd3b6d9596a","session_id":"619be9b6a7685e06ce5d929f","condition":"contingent","relevant_dimensions":["antennae","wings"],"bee_group":{"antennae":"A","wings":"1","pattern":"X","legs":"X"},"action":"harvest","summary":"good-harvest","bonus":0.9800000000000011},{"rt":439,"stimulus":"\n                    <p><b>Action: <em>harvest</em></b></p>\n                    <p>This is the bee that you just saw.</p>\n                    <img src=\"bees-with-color/bee-B1SF.svg\" width=\"200\">\n                    <p><span class=\"greenText\"><b>Successful harvest!</b></span><br>Your pay has increased by $0.02. Your bonus pay is now $0.44.</p>\n            ","response":0,"trial_type":"html-button-response","trial_index":86,"time_elapsed":302940,"internal_node_id":"0.0-4.0-1.39","subject_id":"5c86303fc2ceec001719a6eb","study_id":"6197b3f67c2b5cd3b6d9596a","session_id":"619be9b6a7685e06ce5d929f","condition":"contingent","relevant_dimensions":["antennae","wings"],"bee_group":{"antennae":"A","wings":"1","pattern":"X","legs":"X"},"bonus":0.9800000000000011},{"rt":791.2000000476837,"stimulus":"bees-with-color/bee-A2DF.svg","response":1,"trial_type":"image-button-response","trial_index":87,"time_elapsed":303732,"internal_node_id":"0.0-4.0-0.40","subject_id":"5c86303fc2ceec001719a6eb","study_id":"6197b3f67c2b5cd3b6d9596a","session_id":"619be9b6a7685e06ce5d929f","condition":"contingent","relevant_dimensions":["antennae","wings"],"bee_group":{"antennae":"A","wings":"1","pattern":"X","legs":"X"},"action":"avoid","summary":"bad-avoid","bonus":0.9800000000000011},{"rt":463.10000002384186,"stimulus":"\n                    <p><b>Action: <em>avoid</em></b></p>\n                    <p>This is the bee that you just saw.</p>\n                    <img src=\"bees-with-color/bee-A2DF.svg\" width=\"200\">\n                    <p><br>Your bonus pay is unchanged, and remains at $0.44.</p>\n            ","response":0,"trial_type":"html-button-response","trial_index":88,"time_elapsed":304196,"internal_node_id":"0.0-4.0-1.40","subject_id":"5c86303fc2ceec001719a6eb","study_id":"6197b3f67c2b5cd3b6d9596a","session_id":"619be9b6a7685e06ce5d929f","condition":"contingent","relevant_dimensions":["antennae","wings"],"bee_group":{"antennae":"A","wings":"1","pattern":"X","legs":"X"},"bonus":0.9800000000000011},{"rt":831.3000000119209,"stimulus":"bees-with-color/bee-A2SF.svg","response":1,"trial_type":"image-button-response","trial_index":89,"time_elapsed":305028,"internal_node_id":"0.0-4.0-0.41","subject_id":"5c86303fc2ceec001719a6eb","study_id":"6197b3f67c2b5cd3b6d9596a","session_id":"619be9b6a7685e06ce5d929f","condition":"contingent","relevant_dimensions":["antennae","wings"],"bee_group":{"antennae":"A","wings":"1","pattern":"X","legs":"X"},"action":"avoid","summary":"bad-avoid","bonus":0.9800000000000011},{"rt":758.9000000357628,"stimulus":"\n                    <p><b>Action: <em>avoid</em></b></p>\n                    <p>This is the bee that you just saw.</p>\n                    <img src=\"bees-with-color/bee-A2SF.svg\" width=\"200\">\n                    <p><br>Your bonus pay is unchanged, and remains at $0.44.</p>\n            ","response":0,"trial_type":"html-button-response","trial_index":90,"time_elapsed":305788,"internal_node_id":"0.0-4.0-1.41","subject_id":"5c86303fc2ceec001719a6eb","study_id":"6197b3f67c2b5cd3b6d9596a","session_id":"619be9b6a7685e06ce5d929f","condition":"contingent","relevant_dimensions":["antennae","wings"],"bee_group":{"antennae":"A","wings":"1","pattern":"X","legs":"X"},"bonus":0.9800000000000011},{"rt":862.9000000357628,"stimulus":"bees-with-color/bee-A2DM.svg","response":1,"trial_type":"image-button-response","trial_index":91,"time_elapsed":306652,"internal_node_id":"0.0-4.0-0.42","subject_id":"5c86303fc2ceec001719a6eb","study_id":"6197b3f67c2b5cd3b6d9596a","session_id":"619be9b6a7685e06ce5d929f","condition":"contingent","relevant_dimensions":["antennae","wings"],"bee_group":{"antennae":"A","wings":"1","pattern":"X","legs":"X"},"action":"avoid","summary":"bad-avoid","bonus":0.9800000000000011},{"rt":359.10000002384186,"stimulus":"\n                    <p><b>Action: <em>avoid</em></b></p>\n                    <p>This is the bee that you just saw.</p>\n                    <img src=\"bees-with-color/bee-A2DM.svg\" width=\"200\">\n                    <p><br>Your bonus pay is unchanged, and remains at $0.44.</p>\n            ","response":0,"trial_type":"html-button-response","trial_index":92,"time_elapsed":307012,"internal_node_id":"0.0-4.0-1.42","subject_id":"5c86303fc2ceec001719a6eb","study_id":"6197b3f67c2b5cd3b6d9596a","session_id":"619be9b6a7685e06ce5d929f","condition":"contingent","relevant_dimensions":["antennae","wings"],"bee_group":{"antennae":"A","wings":"1","pattern":"X","legs":"X"},"bonus":0.9800000000000011},{"rt":767.2000000476837,"stimulus":"bees-with-color/bee-B2SF.svg","response":0,"trial_type":"image-button-response","trial_index":93,"time_elapsed":307780,"internal_node_id":"0.0-4.0-0.43","subject_id":"5c86303fc2ceec001719a6eb","study_id":"6197b3f67c2b5cd3b6d9596a","session_id":"619be9b6a7685e06ce5d929f","condition":"contingent","relevant_dimensions":["antennae","wings"],"bee_group":{"antennae":"A","wings":"1","pattern":"X","legs":"X"},"action":"harvest","summary":"good-harvest","bonus":0.9800000000000011},{"rt":551,"stimulus":"\n                    <p><b>Action: <em>harvest</em></b></p>\n                    <p>This is the bee that you just saw.</p>\n                    <img src=\"bees-with-color/bee-B2SF.svg\" width=\"200\">\n                    <p><span class=\"greenText\"><b>Successful harvest!</b></span><br>Your pay has increased by $0.02. Your bonus pay is now $0.46.</p>\n            ","response":0,"trial_type":"html-button-response","trial_index":94,"time_elapsed":308332,"internal_node_id":"0.0-4.0-1.43","subject_id":"5c86303fc2ceec001719a6eb","study_id":"6197b3f67c2b5cd3b6d9596a","session_id":"619be9b6a7685e06ce5d929f","condition":"contingent","relevant_dimensions":["antennae","wings"],"bee_group":{"antennae":"A","wings":"1","pattern":"X","legs":"X"},"bonus":0.9800000000000011},{"rt":719.1000000238419,"stimulus":"bees-with-color/bee-B2DF.svg","response":0,"trial_type":"image-button-response","trial_index":95,"time_elapsed":309052,"internal_node_id":"0.0-4.0-0.44","subject_id":"5c86303fc2ceec001719a6eb","study_id":"6197b3f67c2b5cd3b6d9596a","session_id":"619be9b6a7685e06ce5d929f","condition":"contingent","relevant_dimensions":["antennae","wings"],"bee_group":{"antennae":"A","wings":"1","pattern":"X","legs":"X"},"action":"harvest","summary":"good-harvest","bonus":0.9800000000000011},{"rt":1366.8999999761581,"stimulus":"\n                    <p><b>Action: <em>harvest</em></b></p>\n                    <p>This is the bee that you just saw.</p>\n                    <img src=\"bees-with-color/bee-B2DF.svg\" width=\"200\">\n                    <p><span class=\"greenText\"><b>Successful harvest!</b></span><br>Your pay has increased by $0.02. Your bonus pay is now $0.48.</p>\n            ","response":0,"trial_type":"html-button-response","trial_index":96,"time_elapsed":310420,"internal_node_id":"0.0-4.0-1.44","subject_id":"5c86303fc2ceec001719a6eb","study_id":"6197b3f67c2b5cd3b6d9596a","session_id":"619be9b6a7685e06ce5d929f","condition":"contingent","relevant_dimensions":["antennae","wings"],"bee_group":{"antennae":"A","wings":"1","pattern":"X","legs":"X"},"bonus":0.9800000000000011},{"rt":647.2000000476837,"stimulus":"bees-with-color/bee-B1DM.svg","response":0,"trial_type":"image-button-response","trial_index":97,"time_elapsed":311068,"internal_node_id":"0.0-4.0-0.45","subject_id":"5c86303fc2ceec001719a6eb","study_id":"6197b3f67c2b5cd3b6d9596a","session_id":"619be9b6a7685e06ce5d929f","condition":"contingent","relevant_dimensions":["antennae","wings"],"bee_group":{"antennae":"A","wings":"1","pattern":"X","legs":"X"},"action":"harvest","summary":"good-harvest","bonus":0.9800000000000011},{"rt":943.0999999642372,"stimulus":"\n                    <p><b>Action: <em>harvest</em></b></p>\n                    <p>This is the bee that you just saw.</p>\n                    <img src=\"bees-with-color/bee-B1DM.svg\" width=\"200\">\n                    <p><span class=\"greenText\"><b>Successful harvest!</b></span><br>Your pay has increased by $0.02. Your bonus pay is now $0.50.</p>\n            ","response":0,"trial_type":"html-button-response","trial_index":98,"time_elapsed":312012,"internal_node_id":"0.0-4.0-1.45","subject_id":"5c86303fc2ceec001719a6eb","study_id":"6197b3f67c2b5cd3b6d9596a","session_id":"619be9b6a7685e06ce5d929f","condition":"contingent","relevant_dimensions":["antennae","wings"],"bee_group":{"antennae":"A","wings":"1","pattern":"X","legs":"X"},"bonus":0.9800000000000011},{"rt":911.1000000238419,"stimulus":"bees-with-color/bee-A1SF.svg","response":1,"trial_type":"image-button-response","trial_index":99,"time_elapsed":312924,"internal_node_id":"0.0-4.0-0.46","subject_id":"5c86303fc2ceec001719a6eb","study_id":"6197b3f67c2b5cd3b6d9596a","session_id":"619be9b6a7685e06ce5d929f","condition":"contingent","relevant_dimensions":["antennae","wings"],"bee_group":{"antennae":"A","wings":"1","pattern":"X","legs":"X"},"action":"avoid","summary":"good-avoid","bonus":0.9800000000000011},{"rt":511.0999999642372,"stimulus":"\n                    <p><b>Action: <em>avoid</em></b></p>\n                    <p>This is the bee that you just saw.</p>\n                    <img src=\"bees-with-color/bee-A1SF.svg\" width=\"200\">\n                    <p><br>Your bonus pay is unchanged, and remains at $0.50.</p>\n            ","response":0,"trial_type":"html-button-response","trial_index":100,"time_elapsed":313436,"internal_node_id":"0.0-4.0-1.46","subject_id":"5c86303fc2ceec001719a6eb","study_id":"6197b3f67c2b5cd3b6d9596a","session_id":"619be9b6a7685e06ce5d929f","condition":"contingent","relevant_dimensions":["antennae","wings"],"bee_group":{"antennae":"A","wings":"1","pattern":"X","legs":"X"},"bonus":0.9800000000000011},{"rt":895,"stimulus":"bees-with-color/bee-A1DF.svg","response":1,"trial_type":"image-button-response","trial_index":101,"time_elapsed":314332,"internal_node_id":"0.0-4.0-0.47","subject_id":"5c86303fc2ceec001719a6eb","study_id":"6197b3f67c2b5cd3b6d9596a","session_id":"619be9b6a7685e06ce5d929f","condition":"contingent","relevant_dimensions":["antennae","wings"],"bee_group":{"antennae":"A","wings":"1","pattern":"X","legs":"X"},"action":"avoid","summary":"good-avoid","bonus":0.9800000000000011},{"rt":439,"stimulus":"\n                    <p><b>Action: <em>avoid</em></b></p>\n                    <p>This is the bee that you just saw.</p>\n                    <img src=\"bees-with-color/bee-A1DF.svg\" width=\"200\">\n                    <p><br>Your bonus pay is unchanged, and remains at $0.50.</p>\n            ","response":0,"trial_type":"html-button-response","trial_index":102,"time_elapsed":314772,"internal_node_id":"0.0-4.0-1.47","subject_id":"5c86303fc2ceec001719a6eb","study_id":"6197b3f67c2b5cd3b6d9596a","session_id":"619be9b6a7685e06ce5d929f","condition":"contingent","relevant_dimensions":["antennae","wings"],"bee_group":{"antennae":"A","wings":"1","pattern":"X","legs":"X"},"bonus":0.9800000000000011},{"rt":1463.2000000476837,"stimulus":"bees-with-color/bee-A2SF.svg","response":1,"trial_type":"image-button-response","trial_index":103,"time_elapsed":316236,"internal_node_id":"0.0-4.0-0.48","subject_id":"5c86303fc2ceec001719a6eb","study_id":"6197b3f67c2b5cd3b6d9596a","session_id":"619be9b6a7685e06ce5d929f","condition":"contingent","relevant_dimensions":["antennae","wings"],"bee_group":{"antennae":"A","wings":"1","pattern":"X","legs":"X"},"action":"avoid","summary":"bad-avoid","bonus":0.9800000000000011},{"rt":391.0999999642372,"stimulus":"\n                    <p><b>Action: <em>avoid</em></b></p>\n                    <p>This is the bee that you just saw.</p>\n                    <img src=\"bees-with-color/bee-A2SF.svg\" width=\"200\">\n                    <p><br>Your bonus pay is unchanged, and remains at $0.50.</p>\n            ","response":0,"trial_type":"html-button-response","trial_index":104,"time_elapsed":316628,"internal_node_id":"0.0-4.0-1.48","subject_id":"5c86303fc2ceec001719a6eb","study_id":"6197b3f67c2b5cd3b6d9596a","session_id":"619be9b6a7685e06ce5d929f","condition":"contingent","relevant_dimensions":["antennae","wings"],"bee_group":{"antennae":"A","wings":"1","pattern":"X","legs":"X"},"bonus":0.9800000000000011},{"rt":703.1000000238419,"stimulus":"bees-with-color/bee-B2DF.svg","response":0,"trial_type":"image-button-response","trial_index":105,"time_elapsed":317332,"internal_node_id":"0.0-4.0-0.49","subject_id":"5c86303fc2ceec001719a6eb","study_id":"6197b3f67c2b5cd3b6d9596a","session_id":"619be9b6a7685e06ce5d929f","condition":"contingent","relevant_dimensions":["antennae","wings"],"bee_group":{"antennae":"A","wings":"1","pattern":"X","legs":"X"},"action":"harvest","summary":"good-harvest","bonus":0.9800000000000011},{"rt":438.9000000357628,"stimulus":"\n                    <p><b>Action: <em>harvest</em></b></p>\n                    <p>This is the bee that you just saw.</p>\n                    <img src=\"bees-with-color/bee-B2DF.svg\" width=\"200\">\n                    <p><span class=\"greenText\"><b>Successful harvest!</b></span><br>Your pay has increased by $0.02. Your bonus pay is now $0.52.</p>\n            ","response":0,"trial_type":"html-button-response","trial_index":106,"time_elapsed":317772,"internal_node_id":"0.0-4.0-1.49","subject_id":"5c86303fc2ceec001719a6eb","study_id":"6197b3f67c2b5cd3b6d9596a","session_id":"619be9b6a7685e06ce5d929f","condition":"contingent","relevant_dimensions":["antennae","wings"],"bee_group":{"antennae":"A","wings":"1","pattern":"X","legs":"X"},"bonus":0.9800000000000011},{"rt":599.2000000476837,"stimulus":"bees-with-color/bee-B1DM.svg","response":0,"trial_type":"image-button-response","trial_index":107,"time_elapsed":318372,"internal_node_id":"0.0-4.0-0.50","subject_id":"5c86303fc2ceec001719a6eb","study_id":"6197b3f67c2b5cd3b6d9596a","session_id":"619be9b6a7685e06ce5d929f","condition":"contingent","relevant_dimensions":["antennae","wings"],"bee_group":{"antennae":"A","wings":"1","pattern":"X","legs":"X"},"action":"harvest","summary":"good-harvest","bonus":0.9800000000000011},{"rt":415,"stimulus":"\n                    <p><b>Action: <em>harvest</em></b></p>\n                    <p>This is the bee that you just saw.</p>\n                    <img src=\"bees-with-color/bee-B1DM.svg\" width=\"200\">\n                    <p><span class=\"greenText\"><b>Successful harvest!</b></span><br>Your pay has increased by $0.02. Your bonus pay is now $0.54.</p>\n            ","response":0,"trial_type":"html-button-response","trial_index":108,"time_elapsed":318788,"internal_node_id":"0.0-4.0-1.50","subject_id":"5c86303fc2ceec001719a6eb","study_id":"6197b3f67c2b5cd3b6d9596a","session_id":"619be9b6a7685e06ce5d929f","condition":"contingent","relevant_dimensions":["antennae","wings"],"bee_group":{"antennae":"A","wings":"1","pattern":"X","legs":"X"},"bonus":0.9800000000000011},{"rt":878.7999999523163,"stimulus":"bees-with-color/bee-A2DM.svg","response":1,"trial_type":"image-button-response","trial_index":109,"time_elapsed":319667,"internal_node_id":"0.0-4.0-0.51","subject_id":"5c86303fc2ceec001719a6eb","study_id":"6197b3f67c2b5cd3b6d9596a","session_id":"619be9b6a7685e06ce5d929f","condition":"contingent","relevant_dimensions":["antennae","wings"],"bee_group":{"antennae":"A","wings":"1","pattern":"X","legs":"X"},"action":"avoid","summary":"bad-avoid","bonus":0.9800000000000011},{"rt":415.2000000476837,"stimulus":"\n                    <p><b>Action: <em>avoid</em></b></p>\n                    <p>This is the bee that you just saw.</p>\n                    <img src=\"bees-with-color/bee-A2DM.svg\" width=\"200\">\n                    <p><br>Your bonus pay is unchanged, and remains at $0.54.</p>\n            ","response":0,"trial_type":"html-button-response","trial_index":110,"time_elapsed":320084,"internal_node_id":"0.0-4.0-1.51","subject_id":"5c86303fc2ceec001719a6eb","study_id":"6197b3f67c2b5cd3b6d9596a","session_id":"619be9b6a7685e06ce5d929f","condition":"contingent","relevant_dimensions":["antennae","wings"],"bee_group":{"antennae":"A","wings":"1","pattern":"X","legs":"X"},"bonus":0.9800000000000011},{"rt":767.1000000238419,"stimulus":"bees-with-color/bee-A1DM.svg","response":1,"trial_type":"image-button-response","trial_index":111,"time_elapsed":320852,"internal_node_id":"0.0-4.0-0.52","subject_id":"5c86303fc2ceec001719a6eb","study_id":"6197b3f67c2b5cd3b6d9596a","session_id":"619be9b6a7685e06ce5d929f","condition":"contingent","relevant_dimensions":["antennae","wings"],"bee_group":{"antennae":"A","wings":"1","pattern":"X","legs":"X"},"action":"avoid","summary":"good-avoid","bonus":0.9800000000000011},{"rt":342.9000000357628,"stimulus":"\n                    <p><b>Action: <em>avoid</em></b></p>\n                    <p>This is the bee that you just saw.</p>\n                    <img src=\"bees-with-color/bee-A1DM.svg\" width=\"200\">\n                    <p><br>Your bonus pay is unchanged, and remains at $0.54.</p>\n            ","response":0,"trial_type":"html-button-response","trial_index":112,"time_elapsed":321195,"internal_node_id":"0.0-4.0-1.52","subject_id":"5c86303fc2ceec001719a6eb","study_id":"6197b3f67c2b5cd3b6d9596a","session_id":"619be9b6a7685e06ce5d929f","condition":"contingent","relevant_dimensions":["antennae","wings"],"bee_group":{"antennae":"A","wings":"1","pattern":"X","legs":"X"},"bonus":0.9800000000000011},{"rt":671.3000000119209,"stimulus":"bees-with-color/bee-A1SM.svg","response":1,"trial_type":"image-button-response","trial_index":113,"time_elapsed":321868,"internal_node_id":"0.0-4.0-0.53","subject_id":"5c86303fc2ceec001719a6eb","study_id":"6197b3f67c2b5cd3b6d9596a","session_id":"619be9b6a7685e06ce5d929f","condition":"contingent","relevant_dimensions":["antennae","wings"],"bee_group":{"antennae":"A","wings":"1","pattern":"X","legs":"X"},"action":"avoid","summary":"good-avoid","bonus":0.9800000000000011},{"rt":311.10000002384186,"stimulus":"\n                    <p><b>Action: <em>avoid</em></b></p>\n                    <p>This is the bee that you just saw.</p>\n                    <img src=\"bees-with-color/bee-A1SM.svg\" width=\"200\">\n                    <p><br>Your bonus pay is unchanged, and remains at $0.54.</p>\n            ","response":0,"trial_type":"html-button-response","trial_index":114,"time_elapsed":322179,"internal_node_id":"0.0-4.0-1.53","subject_id":"5c86303fc2ceec001719a6eb","study_id":"6197b3f67c2b5cd3b6d9596a","session_id":"619be9b6a7685e06ce5d929f","condition":"contingent","relevant_dimensions":["antennae","wings"],"bee_group":{"antennae":"A","wings":"1","pattern":"X","legs":"X"},"bonus":0.9800000000000011},{"rt":743.3000000119209,"stimulus":"bees-with-color/bee-B1SM.svg","response":0,"trial_type":"image-button-response","trial_index":115,"time_elapsed":322923,"internal_node_id":"0.0-4.0-0.54","subject_id":"5c86303fc2ceec001719a6eb","study_id":"6197b3f67c2b5cd3b6d9596a","session_id":"619be9b6a7685e06ce5d929f","condition":"contingent","relevant_dimensions":["antennae","wings"],"bee_group":{"antennae":"A","wings":"1","pattern":"X","legs":"X"},"action":"harvest","summary":"good-harvest","bonus":0.9800000000000011},{"rt":1159.2000000476837,"stimulus":"\n                    <p><b>Action: <em>harvest</em></b></p>\n                    <p>This is the bee that you just saw.</p>\n                    <img src=\"bees-with-color/bee-B1SM.svg\" width=\"200\">\n                    <p><span class=\"greenText\"><b>Successful harvest!</b></span><br>Your pay has increased by $0.02. Your bonus pay is now $0.56.</p>\n            ","response":0,"trial_type":"html-button-response","trial_index":116,"time_elapsed":324083,"internal_node_id":"0.0-4.0-1.54","subject_id":"5c86303fc2ceec001719a6eb","study_id":"6197b3f67c2b5cd3b6d9596a","session_id":"619be9b6a7685e06ce5d929f","condition":"contingent","relevant_dimensions":["antennae","wings"],"bee_group":{"antennae":"A","wings":"1","pattern":"X","legs":"X"},"bonus":0.9800000000000011},{"rt":1055.2000000476837,"stimulus":"bees-with-color/bee-B1DF.svg","response":0,"trial_type":"image-button-response","trial_index":117,"time_elapsed":325139,"internal_node_id":"0.0-4.0-0.55","subject_id":"5c86303fc2ceec001719a6eb","study_id":"6197b3f67c2b5cd3b6d9596a","session_id":"619be9b6a7685e06ce5d929f","condition":"contingent","relevant_dimensions":["antennae","wings"],"bee_group":{"antennae":"A","wings":"1","pattern":"X","legs":"X"},"action":"harvest","summary":"good-harvest","bonus":0.9800000000000011},{"rt":383.2000000476837,"stimulus":"\n                    <p><b>Action: <em>harvest</em></b></p>\n                    <p>This is the bee that you just saw.</p>\n                    <img src=\"bees-with-color/bee-B1DF.svg\" width=\"200\">\n                    <p><span class=\"greenText\"><b>Successful harvest!</b></span><br>Your pay has increased by $0.02. Your bonus pay is now $0.58.</p>\n            ","response":0,"trial_type":"html-button-response","trial_index":118,"time_elapsed":325524,"internal_node_id":"0.0-4.0-1.55","subject_id":"5c86303fc2ceec001719a6eb","study_id":"6197b3f67c2b5cd3b6d9596a","session_id":"619be9b6a7685e06ce5d929f","condition":"contingent","relevant_dimensions":["antennae","wings"],"bee_group":{"antennae":"A","wings":"1","pattern":"X","legs":"X"},"bonus":0.9800000000000011},{"rt":775.2000000476837,"stimulus":"bees-with-color/bee-B2SM.svg","response":0,"trial_type":"image-button-response","trial_index":119,"time_elapsed":326300,"internal_node_id":"0.0-4.0-0.56","subject_id":"5c86303fc2ceec001719a6eb","study_id":"6197b3f67c2b5cd3b6d9596a","session_id":"619be9b6a7685e06ce5d929f","condition":"contingent","relevant_dimensions":["antennae","wings"],"bee_group":{"antennae":"A","wings":"1","pattern":"X","legs":"X"},"action":"harvest","summary":"good-harvest","bonus":0.9800000000000011},{"rt":503.10000002384186,"stimulus":"\n                    <p><b>Action: <em>harvest</em></b></p>\n                    <p>This is the bee that you just saw.</p>\n                    <img src=\"bees-with-color/bee-B2SM.svg\" width=\"200\">\n                    <p><span class=\"greenText\"><b>Successful harvest!</b></span><br>Your pay has increased by $0.02. Your bonus pay is now $0.60.</p>\n            ","response":0,"trial_type":"html-button-response","trial_index":120,"time_elapsed":326803,"internal_node_id":"0.0-4.0-1.56","subject_id":"5c86303fc2ceec001719a6eb","study_id":"6197b3f67c2b5cd3b6d9596a","session_id":"619be9b6a7685e06ce5d929f","condition":"contingent","relevant_dimensions":["antennae","wings"],"bee_group":{"antennae":"A","wings":"1","pattern":"X","legs":"X"},"bonus":0.9800000000000011},{"rt":887.2000000476837,"stimulus":"bees-with-color/bee-A2SM.svg","response":1,"trial_type":"image-button-response","trial_index":121,"time_elapsed":327691,"internal_node_id":"0.0-4.0-0.57","subject_id":"5c86303fc2ceec001719a6eb","study_id":"6197b3f67c2b5cd3b6d9596a","session_id":"619be9b6a7685e06ce5d929f","condition":"contingent","relevant_dimensions":["antennae","wings"],"bee_group":{"antennae":"A","wings":"1","pattern":"X","legs":"X"},"action":"avoid","summary":"bad-avoid","bonus":0.9800000000000011},{"rt":423.19999998807907,"stimulus":"\n                    <p><b>Action: <em>avoid</em></b></p>\n                    <p>This is the bee that you just saw.</p>\n                    <img src=\"bees-with-color/bee-A2SM.svg\" width=\"200\">\n                    <p><br>Your bonus pay is unchanged, and remains at $0.60.</p>\n            ","response":0,"trial_type":"html-button-response","trial_index":122,"time_elapsed":328116,"internal_node_id":"0.0-4.0-1.57","subject_id":"5c86303fc2ceec001719a6eb","study_id":"6197b3f67c2b5cd3b6d9596a","session_id":"619be9b6a7685e06ce5d929f","condition":"contingent","relevant_dimensions":["antennae","wings"],"bee_group":{"antennae":"A","wings":"1","pattern":"X","legs":"X"},"bonus":0.9800000000000011},{"rt":647.2000000476837,"stimulus":"bees-with-color/bee-B2DM.svg","response":0,"trial_type":"image-button-response","trial_index":123,"time_elapsed":328763,"internal_node_id":"0.0-4.0-0.58","subject_id":"5c86303fc2ceec001719a6eb","study_id":"6197b3f67c2b5cd3b6d9596a","session_id":"619be9b6a7685e06ce5d929f","condition":"contingent","relevant_dimensions":["antennae","wings"],"bee_group":{"antennae":"A","wings":"1","pattern":"X","legs":"X"},"action":"harvest","summary":"good-harvest","bonus":0.9800000000000011},{"rt":519.2000000476837,"stimulus":"\n                    <p><b>Action: <em>harvest</em></b></p>\n                    <p>This is the bee that you just saw.</p>\n                    <img src=\"bees-with-color/bee-B2DM.svg\" width=\"200\">\n                    <p><span class=\"greenText\"><b>Successful harvest!</b></span><br>Your pay has increased by $0.02. Your bonus pay is now $0.62.</p>\n            ","response":0,"trial_type":"html-button-response","trial_index":124,"time_elapsed":329284,"internal_node_id":"0.0-4.0-1.58","subject_id":"5c86303fc2ceec001719a6eb","study_id":"6197b3f67c2b5cd3b6d9596a","session_id":"619be9b6a7685e06ce5d929f","condition":"contingent","relevant_dimensions":["antennae","wings"],"bee_group":{"antennae":"A","wings":"1","pattern":"X","legs":"X"},"bonus":0.9800000000000011},{"rt":871.2000000476837,"stimulus":"bees-with-color/bee-B1SF.svg","response":0,"trial_type":"image-button-response","trial_index":125,"time_elapsed":330156,"internal_node_id":"0.0-4.0-0.59","subject_id":"5c86303fc2ceec001719a6eb","study_id":"6197b3f67c2b5cd3b6d9596a","session_id":"619be9b6a7685e06ce5d929f","condition":"contingent","relevant_dimensions":["antennae","wings"],"bee_group":{"antennae":"A","wings":"1","pattern":"X","legs":"X"},"action":"harvest","summary":"good-harvest","bonus":0.9800000000000011},{"rt":431.2000000476837,"stimulus":"\n                    <p><b>Action: <em>harvest</em></b></p>\n                    <p>This is the bee that you just saw.</p>\n                    <img src=\"bees-with-color/bee-B1SF.svg\" width=\"200\">\n                    <p><span class=\"greenText\"><b>Successful harvest!</b></span><br>Your pay has increased by $0.02. Your bonus pay is now $0.64.</p>\n            ","response":0,"trial_type":"html-button-response","trial_index":126,"time_elapsed":330588,"internal_node_id":"0.0-4.0-1.59","subject_id":"5c86303fc2ceec001719a6eb","study_id":"6197b3f67c2b5cd3b6d9596a","session_id":"619be9b6a7685e06ce5d929f","condition":"contingent","relevant_dimensions":["antennae","wings"],"bee_group":{"antennae":"A","wings":"1","pattern":"X","legs":"X"},"bonus":0.9800000000000011},{"rt":759.1000000238419,"stimulus":"bees-with-color/bee-A1DF.svg","response":1,"trial_type":"image-button-response","trial_index":127,"time_elapsed":331347,"internal_node_id":"0.0-4.0-0.60","subject_id":"5c86303fc2ceec001719a6eb","study_id":"6197b3f67c2b5cd3b6d9596a","session_id":"619be9b6a7685e06ce5d929f","condition":"contingent","relevant_dimensions":["antennae","wings"],"bee_group":{"antennae":"A","wings":"1","pattern":"X","legs":"X"},"action":"avoid","summary":"good-avoid","bonus":0.9800000000000011},{"rt":415,"stimulus":"\n                    <p><b>Action: <em>avoid</em></b></p>\n                    <p>This is the bee that you just saw.</p>\n                    <img src=\"bees-with-color/bee-A1DF.svg\" width=\"200\">\n                    <p><br>Your bonus pay is unchanged, and remains at $0.64.</p>\n            ","response":0,"trial_type":"html-button-response","trial_index":128,"time_elapsed":331763,"internal_node_id":"0.0-4.0-1.60","subject_id":"5c86303fc2ceec001719a6eb","study_id":"6197b3f67c2b5cd3b6d9596a","session_id":"619be9b6a7685e06ce5d929f","condition":"contingent","relevant_dimensions":["antennae","wings"],"bee_group":{"antennae":"A","wings":"1","pattern":"X","legs":"X"},"bonus":0.9800000000000011},{"rt":607.2000000476837,"stimulus":"bees-with-color/bee-B2SF.svg","response":0,"trial_type":"image-button-response","trial_index":129,"time_elapsed":332372,"internal_node_id":"0.0-4.0-0.61","subject_id":"5c86303fc2ceec001719a6eb","study_id":"6197b3f67c2b5cd3b6d9596a","session_id":"619be9b6a7685e06ce5d929f","condition":"contingent","relevant_dimensions":["antennae","wings"],"bee_group":{"antennae":"A","wings":"1","pattern":"X","legs":"X"},"action":"harvest","summary":"good-harvest","bonus":0.9800000000000011},{"rt":431,"stimulus":"\n                    <p><b>Action: <em>harvest</em></b></p>\n                    <p>This is the bee that you just saw.</p>\n                    <img src=\"bees-with-color/bee-B2SF.svg\" width=\"200\">\n                    <p><span class=\"greenText\"><b>Successful harvest!</b></span><br>Your pay has increased by $0.02. Your bonus pay is now $0.66.</p>\n            ","response":0,"trial_type":"html-button-response","trial_index":130,"time_elapsed":332803,"internal_node_id":"0.0-4.0-1.61","subject_id":"5c86303fc2ceec001719a6eb","study_id":"6197b3f67c2b5cd3b6d9596a","session_id":"619be9b6a7685e06ce5d929f","condition":"contingent","relevant_dimensions":["antennae","wings"],"bee_group":{"antennae":"A","wings":"1","pattern":"X","legs":"X"},"bonus":0.9800000000000011},{"rt":871.1000000238419,"stimulus":"bees-with-color/bee-A2DF.svg","response":1,"trial_type":"image-button-response","trial_index":131,"time_elapsed":333676,"internal_node_id":"0.0-4.0-0.62","subject_id":"5c86303fc2ceec001719a6eb","study_id":"6197b3f67c2b5cd3b6d9596a","session_id":"619be9b6a7685e06ce5d929f","condition":"contingent","relevant_dimensions":["antennae","wings"],"bee_group":{"antennae":"A","wings":"1","pattern":"X","legs":"X"},"action":"avoid","summary":"bad-avoid","bonus":0.9800000000000011},{"rt":351,"stimulus":"\n                    <p><b>Action: <em>avoid</em></b></p>\n                    <p>This is the bee that you just saw.</p>\n                    <img src=\"bees-with-color/bee-A2DF.svg\" width=\"200\">\n                    <p><br>Your bonus pay is unchanged, and remains at $0.66.</p>\n            ","response":0,"trial_type":"html-button-response","trial_index":132,"time_elapsed":334028,"internal_node_id":"0.0-4.0-1.62","subject_id":"5c86303fc2ceec001719a6eb","study_id":"6197b3f67c2b5cd3b6d9596a","session_id":"619be9b6a7685e06ce5d929f","condition":"contingent","relevant_dimensions":["antennae","wings"],"bee_group":{"antennae":"A","wings":"1","pattern":"X","legs":"X"},"bonus":0.9800000000000011},{"rt":1095.1000000238419,"stimulus":"bees-with-color/bee-A1SF.svg","response":1,"trial_type":"image-button-response","trial_index":133,"time_elapsed":335124,"internal_node_id":"0.0-4.0-0.63","subject_id":"5c86303fc2ceec001719a6eb","study_id":"6197b3f67c2b5cd3b6d9596a","session_id":"619be9b6a7685e06ce5d929f","condition":"contingent","relevant_dimensions":["antennae","wings"],"bee_group":{"antennae":"A","wings":"1","pattern":"X","legs":"X"},"action":"avoid","summary":"good-avoid","bonus":0.9800000000000011},{"rt":647,"stimulus":"\n                    <p><b>Action: <em>avoid</em></b></p>\n                    <p>This is the bee that you just saw.</p>\n                    <img src=\"bees-with-color/bee-A1SF.svg\" width=\"200\">\n                    <p><br>Your bonus pay is unchanged, and remains at $0.66.</p>\n            ","response":0,"trial_type":"html-button-response","trial_index":134,"time_elapsed":335771,"internal_node_id":"0.0-4.0-1.63","subject_id":"5c86303fc2ceec001719a6eb","study_id":"6197b3f67c2b5cd3b6d9596a","session_id":"619be9b6a7685e06ce5d929f","condition":"contingent","relevant_dimensions":["antennae","wings"],"bee_group":{"antennae":"A","wings":"1","pattern":"X","legs":"X"},"bonus":0.9800000000000011},{"rt":4175.699999988079,"stimulus":"You have completed the first part of this experiment.<br><br>You will now begin a shorter second part, in which you will receive no feedback.<br>The same rules regarding bonus pay apply.<br><br>Press any key to begin.","response":" ","trial_type":"html-keyboard-response","trial_index":135,"time_elapsed":339948,"internal_node_id":"0.0-5.0","subject_id":"5c86303fc2ceec001719a6eb","study_id":"6197b3f67c2b5cd3b6d9596a","session_id":"619be9b6a7685e06ce5d929f","condition":"contingent","relevant_dimensions":["antennae","wings"],"bee_group":{"antennae":"A","wings":"1","pattern":"X","legs":"X"},"bonus":0.9800000000000011},{"rt":2466.100000023842,"stimulus":"bees-with-color/bee-B1SM.svg","response":0,"trial_type":"image-button-response","trial_index":136,"time_elapsed":342420,"internal_node_id":"0.0-6.0-0.0","subject_id":"5c86303fc2ceec001719a6eb","study_id":"6197b3f67c2b5cd3b6d9596a","session_id":"619be9b6a7685e06ce5d929f","condition":"contingent","relevant_dimensions":["antennae","wings"],"bee_group":{"antennae":"A","wings":"1","pattern":"X","legs":"X"},"bonus":0.9800000000000011},{"rt":846.7000000476837,"stimulus":"bees-with-color/bee-B2DF.svg","response":0,"trial_type":"image-button-response","trial_index":137,"time_elapsed":343268,"internal_node_id":"0.0-6.0-0.1","subject_id":"5c86303fc2ceec001719a6eb","study_id":"6197b3f67c2b5cd3b6d9596a","session_id":"619be9b6a7685e06ce5d929f","condition":"contingent","relevant_dimensions":["antennae","wings"],"bee_group":{"antennae":"A","wings":"1","pattern":"X","legs":"X"},"bonus":0.9800000000000011},{"rt":614.6000000238419,"stimulus":"bees-with-color/bee-B1DF.svg","response":0,"trial_type":"image-button-response","trial_index":138,"time_elapsed":343884,"internal_node_id":"0.0-6.0-0.2","subject_id":"5c86303fc2ceec001719a6eb","study_id":"6197b3f67c2b5cd3b6d9596a","session_id":"619be9b6a7685e06ce5d929f","condition":"contingent","relevant_dimensions":["antennae","wings"],"bee_group":{"antennae":"A","wings":"1","pattern":"X","legs":"X"},"bonus":0.9800000000000011},{"rt":798.7000000476837,"stimulus":"bees-with-color/bee-A1DF.svg","response":1,"trial_type":"image-button-response","trial_index":139,"time_elapsed":344684,"internal_node_id":"0.0-6.0-0.3","subject_id":"5c86303fc2ceec001719a6eb","study_id":"6197b3f67c2b5cd3b6d9596a","session_id":"619be9b6a7685e06ce5d929f","condition":"contingent","relevant_dimensions":["antennae","wings"],"bee_group":{"antennae":"A","wings":"1","pattern":"X","legs":"X"},"bonus":0.9800000000000011},{"rt":678.7000000476837,"stimulus":"bees-with-color/bee-B2SM.svg","response":0,"trial_type":"image-button-response","trial_index":140,"time_elapsed":345364,"internal_node_id":"0.0-6.0-0.4","subject_id":"5c86303fc2ceec001719a6eb","study_id":"6197b3f67c2b5cd3b6d9596a","session_id":"619be9b6a7685e06ce5d929f","condition":"contingent","relevant_dimensions":["antennae","wings"],"bee_group":{"antennae":"A","wings":"1","pattern":"X","legs":"X"},"bonus":0.9800000000000011},{"rt":742.7000000476837,"stimulus":"bees-with-color/bee-A2SM.svg","response":1,"trial_type":"image-button-response","trial_index":141,"time_elapsed":346108,"internal_node_id":"0.0-6.0-0.5","subject_id":"5c86303fc2ceec001719a6eb","study_id":"6197b3f67c2b5cd3b6d9596a","session_id":"619be9b6a7685e06ce5d929f","condition":"contingent","relevant_dimensions":["antennae","wings"],"bee_group":{"antennae":"A","wings":"1","pattern":"X","legs":"X"},"bonus":0.9800000000000011},{"rt":710.6000000238419,"stimulus":"bees-with-color/bee-A1DM.svg","response":1,"trial_type":"image-button-response","trial_index":142,"time_elapsed":346820,"internal_node_id":"0.0-6.0-0.6","subject_id":"5c86303fc2ceec001719a6eb","study_id":"6197b3f67c2b5cd3b6d9596a","session_id":"619be9b6a7685e06ce5d929f","condition":"contingent","relevant_dimensions":["antennae","wings"],"bee_group":{"antennae":"A","wings":"1","pattern":"X","legs":"X"},"bonus":0.9800000000000011},{"rt":614.5,"stimulus":"bees-with-color/bee-B1DM.svg","response":0,"trial_type":"image-button-response","trial_index":143,"time_elapsed":347436,"internal_node_id":"0.0-6.0-0.7","subject_id":"5c86303fc2ceec001719a6eb","study_id":"6197b3f67c2b5cd3b6d9596a","session_id":"619be9b6a7685e06ce5d929f","condition":"contingent","relevant_dimensions":["antennae","wings"],"bee_group":{"antennae":"A","wings":"1","pattern":"X","legs":"X"},"bonus":0.9800000000000011},{"rt":670.9000000357628,"stimulus":"bees-with-color/bee-A2DM.svg","response":1,"trial_type":"image-button-response","trial_index":144,"time_elapsed":348108,"internal_node_id":"0.0-6.0-0.8","subject_id":"5c86303fc2ceec001719a6eb","study_id":"6197b3f67c2b5cd3b6d9596a","session_id":"619be9b6a7685e06ce5d929f","condition":"contingent","relevant_dimensions":["antennae","wings"],"bee_group":{"antennae":"A","wings":"1","pattern":"X","legs":"X"},"bonus":0.9800000000000011},{"rt":526.1999999880791,"stimulus":"bees-with-color/bee-B2DM.svg","response":0,"trial_type":"image-button-response","trial_index":145,"time_elapsed":348636,"internal_node_id":"0.0-6.0-0.9","subject_id":"5c86303fc2ceec001719a6eb","study_id":"6197b3f67c2b5cd3b6d9596a","session_id":"619be9b6a7685e06ce5d929f","condition":"contingent","relevant_dimensions":["antennae","wings"],"bee_group":{"antennae":"A","wings":"1","pattern":"X","legs":"X"},"bonus":0.9800000000000011},{"rt":694.6000000238419,"stimulus":"bees-with-color/bee-A1SM.svg","response":1,"trial_type":"image-button-response","trial_index":146,"time_elapsed":349331,"internal_node_id":"0.0-6.0-0.10","subject_id":"5c86303fc2ceec001719a6eb","study_id":"6197b3f67c2b5cd3b6d9596a","session_id":"619be9b6a7685e06ce5d929f","condition":"contingent","relevant_dimensions":["antennae","wings"],"bee_group":{"antennae":"A","wings":"1","pattern":"X","legs":"X"},"bonus":0.9800000000000011},{"rt":902.8999999761581,"stimulus":"bees-with-color/bee-A2SF.svg","response":1,"trial_type":"image-button-response","trial_index":147,"time_elapsed":350236,"internal_node_id":"0.0-6.0-0.11","subject_id":"5c86303fc2ceec001719a6eb","study_id":"6197b3f67c2b5cd3b6d9596a","session_id":"619be9b6a7685e06ce5d929f","condition":"contingent","relevant_dimensions":["antennae","wings"],"bee_group":{"antennae":"A","wings":"1","pattern":"X","legs":"X"},"bonus":0.9800000000000011},{"rt":870.8000000119209,"stimulus":"bees-with-color/bee-A1SF.svg","response":1,"trial_type":"image-button-response","trial_index":148,"time_elapsed":351108,"internal_node_id":"0.0-6.0-0.12","subject_id":"5c86303fc2ceec001719a6eb","study_id":"6197b3f67c2b5cd3b6d9596a","session_id":"619be9b6a7685e06ce5d929f","condition":"contingent","relevant_dimensions":["antennae","wings"],"bee_group":{"antennae":"A","wings":"1","pattern":"X","legs":"X"},"bonus":0.9800000000000011},{"rt":502.80000001192093,"stimulus":"bees-with-color/bee-B2SF.svg","response":0,"trial_type":"image-button-response","trial_index":149,"time_elapsed":351612,"internal_node_id":"0.0-6.0-0.13","subject_id":"5c86303fc2ceec001719a6eb","study_id":"6197b3f67c2b5cd3b6d9596a","session_id":"619be9b6a7685e06ce5d929f","condition":"contingent","relevant_dimensions":["antennae","wings"],"bee_group":{"antennae":"A","wings":"1","pattern":"X","legs":"X"},"bonus":0.9800000000000011},{"rt":462.7000000476837,"stimulus":"bees-with-color/bee-B1SF.svg","response":0,"trial_type":"image-button-response","trial_index":150,"time_elapsed":352075,"internal_node_id":"0.0-6.0-0.14","subject_id":"5c86303fc2ceec001719a6eb","study_id":"6197b3f67c2b5cd3b6d9596a","session_id":"619be9b6a7685e06ce5d929f","condition":"contingent","relevant_dimensions":["antennae","wings"],"bee_group":{"antennae":"A","wings":"1","pattern":"X","legs":"X"},"bonus":0.9800000000000011},{"rt":686.8000000119209,"stimulus":"bees-with-color/bee-A2DF.svg","response":1,"trial_type":"image-button-response","trial_index":151,"time_elapsed":352764,"internal_node_id":"0.0-6.0-0.15","subject_id":"5c86303fc2ceec001719a6eb","study_id":"6197b3f67c2b5cd3b6d9596a","session_id":"619be9b6a7685e06ce5d929f","condition":"contingent","relevant_dimensions":["antennae","wings"],"bee_group":{"antennae":"A","wings":"1","pattern":"X","legs":"X"},"bonus":0.9800000000000011},{"rt":662.9000000357628,"stimulus":"bees-with-color/bee-A1DF.svg","response":1,"trial_type":"image-button-response","trial_index":152,"time_elapsed":353427,"internal_node_id":"0.0-6.0-0.16","subject_id":"5c86303fc2ceec001719a6eb","study_id":"6197b3f67c2b5cd3b6d9596a","session_id":"619be9b6a7685e06ce5d929f","condition":"contingent","relevant_dimensions":["antennae","wings"],"bee_group":{"antennae":"A","wings":"1","pattern":"X","legs":"X"},"bonus":0.9800000000000011},{"rt":647,"stimulus":"bees-with-color/bee-B2SM.svg","response":0,"trial_type":"image-button-response","trial_index":153,"time_elapsed":354076,"internal_node_id":"0.0-6.0-0.17","subject_id":"5c86303fc2ceec001719a6eb","study_id":"6197b3f67c2b5cd3b6d9596a","session_id":"619be9b6a7685e06ce5d929f","condition":"contingent","relevant_dimensions":["antennae","wings"],"bee_group":{"antennae":"A","wings":"1","pattern":"X","legs":"X"},"bonus":0.9800000000000011},{"rt":519.0999999642372,"stimulus":"bees-with-color/bee-B1SM.svg","response":0,"trial_type":"image-button-response","trial_index":154,"time_elapsed":354596,"internal_node_id":"0.0-6.0-0.18","subject_id":"5c86303fc2ceec001719a6eb","study_id":"6197b3f67c2b5cd3b6d9596a","session_id":"619be9b6a7685e06ce5d929f","condition":"contingent","relevant_dimensions":["antennae","wings"],"bee_group":{"antennae":"A","wings":"1","pattern":"X","legs":"X"},"bonus":0.9800000000000011},{"rt":727,"stimulus":"bees-with-color/bee-B1DF.svg","response":0,"trial_type":"image-button-response","trial_index":155,"time_elapsed":355324,"internal_node_id":"0.0-6.0-0.19","subject_id":"5c86303fc2ceec001719a6eb","study_id":"6197b3f67c2b5cd3b6d9596a","session_id":"619be9b6a7685e06ce5d929f","condition":"contingent","relevant_dimensions":["antennae","wings"],"bee_group":{"antennae":"A","wings":"1","pattern":"X","legs":"X"},"bonus":0.9800000000000011},{"rt":862.9000000357628,"stimulus":"bees-with-color/bee-A2DM.svg","response":1,"trial_type":"image-button-response","trial_index":156,"time_elapsed":356188,"internal_node_id":"0.0-6.0-0.20","subject_id":"5c86303fc2ceec001719a6eb","study_id":"6197b3f67c2b5cd3b6d9596a","session_id":"619be9b6a7685e06ce5d929f","condition":"contingent","relevant_dimensions":["antennae","wings"],"bee_group":{"antennae":"A","wings":"1","pattern":"X","legs":"X"},"bonus":0.9800000000000011},{"rt":654.9000000357628,"stimulus":"bees-with-color/bee-A1SF.svg","response":1,"trial_type":"image-button-response","trial_index":157,"time_elapsed":356844,"internal_node_id":"0.0-6.0-0.21","subject_id":"5c86303fc2ceec001719a6eb","study_id":"6197b3f67c2b5cd3b6d9596a","session_id":"619be9b6a7685e06ce5d929f","condition":"contingent","relevant_dimensions":["antennae","wings"],"bee_group":{"antennae":"A","wings":"1","pattern":"X","legs":"X"},"bonus":0.9800000000000011},{"rt":583,"stimulus":"bees-with-color/bee-B1DM.svg","response":0,"trial_type":"image-button-response","trial_index":158,"time_elapsed":357427,"internal_node_id":"0.0-6.0-0.22","subject_id":"5c86303fc2ceec001719a6eb","study_id":"6197b3f67c2b5cd3b6d9596a","session_id":"619be9b6a7685e06ce5d929f","condition":"contingent","relevant_dimensions":["antennae","wings"],"bee_group":{"antennae":"A","wings":"1","pattern":"X","legs":"X"},"bonus":0.9800000000000011},{"rt":679,"stimulus":"bees-with-color/bee-A2SM.svg","response":1,"trial_type":"image-button-response","trial_index":159,"time_elapsed":358108,"internal_node_id":"0.0-6.0-0.23","subject_id":"5c86303fc2ceec001719a6eb","study_id":"6197b3f67c2b5cd3b6d9596a","session_id":"619be9b6a7685e06ce5d929f","condition":"contingent","relevant_dimensions":["antennae","wings"],"bee_group":{"antennae":"A","wings":"1","pattern":"X","legs":"X"},"bonus":0.9800000000000011},{"rt":551.1000000238419,"stimulus":"bees-with-color/bee-B1SF.svg","response":0,"trial_type":"image-button-response","trial_index":160,"time_elapsed":358660,"internal_node_id":"0.0-6.0-0.24","subject_id":"5c86303fc2ceec001719a6eb","study_id":"6197b3f67c2b5cd3b6d9596a","session_id":"619be9b6a7685e06ce5d929f","condition":"contingent","relevant_dimensions":["antennae","wings"],"bee_group":{"antennae":"A","wings":"1","pattern":"X","legs":"X"},"bonus":0.9800000000000011},{"rt":574.8000000119209,"stimulus":"bees-with-color/bee-A1SM.svg","response":1,"trial_type":"image-button-response","trial_index":161,"time_elapsed":359236,"internal_node_id":"0.0-6.0-0.25","subject_id":"5c86303fc2ceec001719a6eb","study_id":"6197b3f67c2b5cd3b6d9596a","session_id":"619be9b6a7685e06ce5d929f","condition":"contingent","relevant_dimensions":["antennae","wings"],"bee_group":{"antennae":"A","wings":"1","pattern":"X","legs":"X"},"bonus":0.9800000000000011},{"rt":726.9000000357628,"stimulus":"bees-with-color/bee-A2SF.svg","response":1,"trial_type":"image-button-response","trial_index":162,"time_elapsed":359964,"internal_node_id":"0.0-6.0-0.26","subject_id":"5c86303fc2ceec001719a6eb","study_id":"6197b3f67c2b5cd3b6d9596a","session_id":"619be9b6a7685e06ce5d929f","condition":"contingent","relevant_dimensions":["antennae","wings"],"bee_group":