[{"success":true,"trial_type":"fullscreen","trial_index":0,"time_elapsed":11499,"internal_node_id":"0.0-0.0","subject_id":"5b9d6deeb5662700015e98dd","study_id":"6197b3f67c2b5cd3b6d9596a","session_id":"619be31bdee16bf5d847f552","condition":"full-information","relevant_dimensions":["antennae","wings"],"bee_group":{"antennae":"A","wings":"2","pattern":"X","legs":"X"},"bonus":0.6000000000000013},{"success":true,"timeout":false,"failed_images":[],"failed_audio":[],"failed_video":[],"trial_type":"preload","trial_index":1,"time_elapsed":16264,"internal_node_id":"0.0-1.0","subject_id":"5b9d6deeb5662700015e98dd","study_id":"6197b3f67c2b5cd3b6d9596a","session_id":"619be31bdee16bf5d847f552","condition":"full-information","relevant_dimensions":["antennae","wings"],"bee_group":{"antennae":"A","wings":"2","pattern":"X","legs":"X"},"bonus":0.6000000000000013},{"rt":1982,"stimulus":"Welcome! Press any key to begin.","response":" ","trial_type":"html-keyboard-response","trial_index":2,"time_elapsed":18247,"internal_node_id":"0.0-2.0","subject_id":"5b9d6deeb5662700015e98dd","study_id":"6197b3f67c2b5cd3b6d9596a","session_id":"619be31bdee16bf5d847f552","condition":"full-information","relevant_dimensions":["antennae","wings"],"bee_group":{"antennae":"A","wings":"2","pattern":"X","legs":"X"},"bonus":0.6000000000000013},{"view_history":[{"page_index":0,"viewing_time":11636},{"page_index":1,"viewing_time":24158},{"page_index":2,"viewing_time":108845},{"page_index":3,"viewing_time":23384},{"page_index":4,"viewing_time":8792},{"page_index":5,"viewing_time":9716},{"page_index":6,"viewing_time":20495},{"page_index":7,"viewing_time":12180},{"page_index":8,"viewing_time":11294},{"page_index":7,"viewing_time":19707},{"page_index":8,"viewing_time":5532},{"page_index":9,"viewing_time":7588},{"page_index":10,"viewing_time":6799},{"page_index":11,"viewing_time":12159},{"page_index":12,"viewing_time":28782},{"page_index":13,"viewing_time":1960},{"page_index":14,"viewing_time":2600}],"rt":315627,"trial_type":"instructions","trial_index":3,"time_elapsed":333875,"internal_node_id":"0.0-3.0-0.0","subject_id":"5b9d6deeb5662700015e98dd","study_id":"6197b3f67c2b5cd3b6d9596a","session_id":"619be31bdee16bf5d847f552","condition":"full-information","relevant_dimensions":["antennae","wings"],"bee_group":{"antennae":"A","wings":"2","pattern":"X","legs":"X"},"bonus":0.6000000000000013},{"rt":18020,"response":{"Q0":["Two or six legs","Stripes or spots on body","Single or double wings","Antennae or no antennae"]},"question_order":[0],"trial_type":"survey-multi-select","trial_index":4,"time_elapsed":351904,"internal_node_id":"0.0-3.0-1.0","subject_id":"5b9d6deeb5662700015e98dd","study_id":"6197b3f67c2b5cd3b6d9596a","session_id":"619be31bdee16bf5d847f552","condition":"full-information","relevant_dimensions":["antennae","wings"],"bee_group":{"antennae":"A","wings":"2","pattern":"X","legs":"X"},"correct":true,"bonus":0.6000000000000013},{"rt":56628,"response":{"Q1":"No.","Q2":"Based on the four features of the bee.","Q3":"You learn if it was friendly or dangerous, but do not alter your bonus."},"question_order":[0,1,2],"trial_type":"survey-multi-choice","trial_index":5,"time_elapsed":408537,"internal_node_id":"0.0-3.0-2.0","subject_id":"5b9d6deeb5662700015e98dd","study_id":"6197b3f67c2b5cd3b6d9596a","session_id":"619be31bdee16bf5d847f552","condition":"full-information","relevant_dimensions":["antennae","wings"],"bee_group":{"antennae":"A","wings":"2","pattern":"X","legs":"X"},"correct":true,"bonus":0.6000000000000013},{"rt":6899,"stimulus":"<p>Congrats, you got everything right<br>When you're ready, click the button below to continue to the experiment.</p>","response":0,"trial_type":"html-button-response","trial_index":6,"time_elapsed":415438,"internal_node_id":"0.0-3.0-3.0","subject_id":"5b9d6deeb5662700015e98dd","study_id":"6197b3f67c2b5cd3b6d9596a","session_id":"619be31bdee16bf5d847f552","condition":"full-information","relevant_dimensions":["antennae","wings"],"bee_group":{"antennae":"A","wings":"2","pattern":"X","legs":"X"},"bonus":0.6000000000000013},{"rt":8650,"stimulus":"bees-with-color/bee-A2DM.svg","response":0,"trial_type":"image-button-response","trial_index":7,"time_elapsed":424093,"internal_node_id":"0.0-4.0-0.0","subject_id":"5b9d6deeb5662700015e98dd","study_id":"6197b3f67c2b5cd3b6d9596a","session_id":"619be31bdee16bf5d847f552","condition":"full-information","relevant_dimensions":["antennae","wings"],"bee_group":{"antennae":"A","wings":"2","pattern":"X","legs":"X"},"action":"harvest","summary":"bad-harvest","bonus":0.6000000000000013},{"rt":35268,"stimulus":"\n                    <p><b>Action: <em>harvest</em></b></p>\n                    <p>This is the bee that you just saw.</p>\n                    <img src=\"bees-with-color/bee-A2DM.svg\" width=\"200\">\n                    <p><span class=\"redText\">Bad choice, the bee was angry.</span><br><b>You have been stung!</b><br>Your pay has been decreased by $0.10. Your bonus pay is now $0.44.</p>\n            ","response":0,"trial_type":"html-button-response","trial_index":8,"time_elapsed":459391,"internal_node_id":"0.0-4.0-1.0","subject_id":"5b9d6deeb5662700015e98dd","study_id":"6197b3f67c2b5cd3b6d9596a","session_id":"619be31bdee16bf5d847f552","condition":"full-information","relevant_dimensions":["antennae","wings"],"bee_group":{"antennae":"A","wings":"2","pattern":"X","legs":"X"},"bonus":0.6000000000000013},{"rt":4486,"stimulus":"bees-with-color/bee-B2SF.svg","response":0,"trial_type":"image-button-response","trial_index":9,"time_elapsed":463880,"internal_node_id":"0.0-4.0-0.1","subject_id":"5b9d6deeb5662700015e98dd","study_id":"6197b3f67c2b5cd3b6d9596a","session_id":"619be31bdee16bf5d847f552","condition":"full-information","relevant_dimensions":["antennae","wings"],"bee_group":{"antennae":"A","wings":"2","pattern":"X","legs":"X"},"action":"harvest","summary":"good-harvest","bonus":0.6000000000000013},{"rt":45681,"stimulus":"\n                    <p><b>Action: <em>harvest</em></b></p>\n                    <p>This is the bee that you just saw.</p>\n                    <img src=\"bees-with-color/bee-B2SF.svg\" width=\"200\">\n                    <p><span class=\"greenText\"><b>Successful harvest!</b></span><br>Your pay has increased by $0.02. Your bonus pay is now $0.46.</p>\n            ","response":0,"trial_type":"html-button-response","trial_index":10,"time_elapsed":509564,"internal_node_id":"0.0-4.0-1.1","subject_id":"5b9d6deeb5662700015e98dd","study_id":"6197b3f67c2b5cd3b6d9596a","session_id":"619be31bdee16bf5d847f552","condition":"full-information","relevant_dimensions":["antennae","wings"],"bee_group":{"antennae":"A","wings":"2","pattern":"X","legs":"X"},"bonus":0.6000000000000013},{"rt":8551,"stimulus":"bees-with-color/bee-A1DM.svg","response":1,"trial_type":"image-button-response","trial_index":11,"time_elapsed":518118,"internal_node_id":"0.0-4.0-0.2","subject_id":"5b9d6deeb5662700015e98dd","study_id":"6197b3f67c2b5cd3b6d9596a","session_id":"619be31bdee16bf5d847f552","condition":"full-information","relevant_dimensions":["antennae","wings"],"bee_group":{"antennae":"A","wings":"2","pattern":"X","legs":"X"},"action":"avoid","summary":"bad-avoid","bonus":0.6000000000000013},{"rt":31195,"stimulus":"\n                    <p><b>Action: <em>avoid</em></b></p>\n                    <p>This is the bee that you just saw.</p>\n                    <img src=\"bees-with-color/bee-A1DM.svg\" width=\"200\">\n                    <p><span class=\"redText\">Bad choice,</span> the bee was friendly.<br>Your bonus pay is unchanged, and remains at $0.46.</p>\n            ","response":0,"trial_type":"html-button-response","trial_index":12,"time_elapsed":549316,"internal_node_id":"0.0-4.0-1.2","subject_id":"5b9d6deeb5662700015e98dd","study_id":"6197b3f67c2b5cd3b6d9596a","session_id":"619be31bdee16bf5d847f552","condition":"full-information","relevant_dimensions":["antennae","wings"],"bee_group":{"antennae":"A","wings":"2","pattern":"X","legs":"X"},"bonus":0.6000000000000013},{"rt":4524,"stimulus":"bees-with-color/bee-B1DF.svg","response":0,"trial_type":"image-button-response","trial_index":13,"time_elapsed":553842,"internal_node_id":"0.0-4.0-0.3","subject_id":"5b9d6deeb5662700015e98dd","study_id":"6197b3f67c2b5cd3b6d9596a","session_id":"619be31bdee16bf5d847f552","condition":"full-information","relevant_dimensions":["antennae","wings"],"bee_group":{"antennae":"A","wings":"2","pattern":"X","legs":"X"},"action":"harvest","summary":"good-harvest","bonus":0.6000000000000013},{"rt":3931,"stimulus":"\n                    <p><b>Action: <em>harvest</em></b></p>\n                    <p>This is the bee that you just saw.</p>\n                    <img src=\"bees-with-color/bee-B1DF.svg\" width=\"200\">\n                    <p><span class=\"greenText\"><b>Successful harvest!</b></span><br>Your pay has increased by $0.02. Your bonus pay is now $0.48.</p>\n            ","response":0,"trial_type":"html-button-response","trial_index":14,"time_elapsed":557777,"internal_node_id":"0.0-4.0-1.3","subject_id":"5b9d6deeb5662700015e98dd","study_id":"6197b3f67c2b5cd3b6d9596a","session_id":"619be31bdee16bf5d847f552","condition":"full-information","relevant_dimensions":["antennae","wings"],"bee_group":{"antennae":"A","wings":"2","pattern":"X","legs":"X"},"bonus":0.6000000000000013},{"rt":5684,"stimulus":"bees-with-color/bee-A1DF.svg","response":0,"trial_type":"image-button-response","trial_index":15,"time_elapsed":563462,"internal_node_id":"0.0-4.0-0.4","subject_id":"5b9d6deeb5662700015e98dd","study_id":"6197b3f67c2b5cd3b6d9596a","session_id":"619be31bdee16bf5d847f552","condition":"full-information","relevant_dimensions":["antennae","wings"],"bee_group":{"antennae":"A","wings":"2","pattern":"X","legs":"X"},"action":"harvest","summary":"good-harvest","bonus":0.6000000000000013},{"rt":2241,"stimulus":"\n                    <p><b>Action: <em>harvest</em></b></p>\n                    <p>This is the bee that you just saw.</p>\n                    <img src=\"bees-with-color/bee-A1DF.svg\" width=\"200\">\n                    <p><span class=\"greenText\"><b>Successful harvest!</b></span><br>Your pay has increased by $0.02. Your bonus pay is now $0.50.</p>\n            ","response":0,"trial_type":"html-button-response","trial_index":16,"time_elapsed":565706,"internal_node_id":"0.0-4.0-1.4","subject_id":"5b9d6deeb5662700015e98dd","study_id":"6197b3f67c2b5cd3b6d9596a","session_id":"619be31bdee16bf5d847f552","condition":"full-information","relevant_dimensions":["antennae","wings"],"bee_group":{"antennae":"A","wings":"2","pattern":"X","legs":"X"},"bonus":0.6000000000000013},{"rt":5536,"stimulus":"bees-with-color/bee-B2DM.svg","response":1,"trial_type":"image-button-response","trial_index":17,"time_elapsed":571244,"internal_node_id":"0.0-4.0-0.5","subject_id":"5b9d6deeb5662700015e98dd","study_id":"6197b3f67c2b5cd3b6d9596a","session_id":"619be31bdee16bf5d847f552","condition":"full-information","relevant_dimensions":["antennae","wings"],"bee_group":{"antennae":"A","wings":"2","pattern":"X","legs":"X"},"action":"avoid","summary":"bad-avoid","bonus":0.6000000000000013},{"rt":2146,"stimulus":"\n                    <p><b>Action: <em>avoid</em></b></p>\n                    <p>This is the bee that you just saw.</p>\n                    <img src=\"bees-with-color/bee-B2DM.svg\" width=\"200\">\n                    <p><span class=\"redText\">Bad choice,</span> the bee was friendly.<br>Your bonus pay is unchanged, and remains at $0.50.</p>\n            ","response":0,"trial_type":"html-button-response","trial_index":18,"time_elapsed":573391,"internal_node_id":"0.0-4.0-1.5","subject_id":"5b9d6deeb5662700015e98dd","study_id":"6197b3f67c2b5cd3b6d9596a","session_id":"619be31bdee16bf5d847f552","condition":"full-information","relevant_dimensions":["antennae","wings"],"bee_group":{"antennae":"A","wings":"2","pattern":"X","legs":"X"},"bonus":0.6000000000000013},{"rt":5620,"stimulus":"bees-with-color/bee-A2SM.svg","response":0,"trial_type":"image-button-response","trial_index":19,"time_elapsed":579013,"internal_node_id":"0.0-4.0-0.6","subject_id":"5b9d6deeb5662700015e98dd","study_id":"6197b3f67c2b5cd3b6d9596a","session_id":"619be31bdee16bf5d847f552","condition":"full-information","relevant_dimensions":["antennae","wings"],"bee_group":{"antennae":"A","wings":"2","pattern":"X","legs":"X"},"action":"harvest","summary":"bad-harvest","bonus":0.6000000000000013},{"rt":2698,"stimulus":"\n                    <p><b>Action: <em>harvest</em></b></p>\n                    <p>This is the bee that you just saw.</p>\n                    <img src=\"bees-with-color/bee-A2SM.svg\" width=\"200\">\n                    <p><span class=\"redText\">Bad choice, the bee was angry.</span><br><b>You have been stung!</b><br>Your pay has been decreased by $0.10. Your bonus pay is now $0.40.</p>\n            ","response":0,"trial_type":"html-button-response","trial_index":20,"time_elapsed":581714,"internal_node_id":"0.0-4.0-1.6","subject_id":"5b9d6deeb5662700015e98dd","study_id":"6197b3f67c2b5cd3b6d9596a","session_id":"619be31bdee16bf5d847f552","condition":"full-information","relevant_dimensions":["antennae","wings"],"bee_group":{"antennae":"A","wings":"2","pattern":"X","legs":"X"},"bonus":0.6000000000000013},{"rt":5203,"stimulus":"bees-with-color/bee-B2DF.svg","response":0,"trial_type":"image-button-response","trial_index":21,"time_elapsed":586919,"internal_node_id":"0.0-4.0-0.7","subject_id":"5b9d6deeb5662700015e98dd","study_id":"6197b3f67c2b5cd3b6d9596a","session_id":"619be31bdee16bf5d847f552","condition":"full-information","relevant_dimensions":["antennae","wings"],"bee_group":{"antennae":"A","wings":"2","pattern":"X","legs":"X"},"action":"harvest","summary":"good-harvest","bonus":0.6000000000000013},{"rt":1761,"stimulus":"\n                    <p><b>Action: <em>harvest</em></b></p>\n                    <p>This is the bee that you just saw.</p>\n                    <img src=\"bees-with-color/bee-B2DF.svg\" width=\"200\">\n                    <p><span class=\"greenText\"><b>Successful harvest!</b></span><br>Your pay has increased by $0.02. Your bonus pay is now $0.42.</p>\n            ","response":0,"trial_type":"html-button-response","trial_index":22,"time_elapsed":588683,"internal_node_id":"0.0-4.0-1.7","subject_id":"5b9d6deeb5662700015e98dd","study_id":"6197b3f67c2b5cd3b6d9596a","session_id":"619be31bdee16bf5d847f552","condition":"full-information","relevant_dimensions":["antennae","wings"],"bee_group":{"antennae":"A","wings":"2","pattern":"X","legs":"X"},"bonus":0.6000000000000013},{"rt":4648,"stimulus":"bees-with-color/bee-B2SM.svg","response":0,"trial_type":"image-button-response","trial_index":23,"time_elapsed":593333,"internal_node_id":"0.0-4.0-0.8","subject_id":"5b9d6deeb5662700015e98dd","study_id":"6197b3f67c2b5cd3b6d9596a","session_id":"619be31bdee16bf5d847f552","condition":"full-information","relevant_dimensions":["antennae","wings"],"bee_group":{"antennae":"A","wings":"2","pattern":"X","legs":"X"},"action":"harvest","summary":"good-harvest","bonus":0.6000000000000013},{"rt":1799,"stimulus":"\n                    <p><b>Action: <em>harvest</em></b></p>\n                    <p>This is the bee that you just saw.</p>\n                    <img src=\"bees-with-color/bee-B2SM.svg\" width=\"200\">\n                    <p><span class=\"greenText\"><b>Successful harvest!</b></span><br>Your pay has increased by $0.02. Your bonus pay is now $0.44.</p>\n            ","response":0,"trial_type":"html-button-response","trial_index":24,"time_elapsed":595133,"internal_node_id":"0.0-4.0-1.8","subject_id":"5b9d6deeb5662700015e98dd","study_id":"6197b3f67c2b5cd3b6d9596a","session_id":"619be31bdee16bf5d847f552","condition":"full-information","relevant_dimensions":["antennae","wings"],"bee_group":{"antennae":"A","wings":"2","pattern":"X","legs":"X"},"bonus":0.6000000000000013},{"rt":2083,"stimulus":"bees-with-color/bee-B1SF.svg","response":0,"trial_type":"image-button-response","trial_index":25,"time_elapsed":597218,"internal_node_id":"0.0-4.0-0.9","subject_id":"5b9d6deeb5662700015e98dd","study_id":"6197b3f67c2b5cd3b6d9596a","session_id":"619be31bdee16bf5d847f552","condition":"full-information","relevant_dimensions":["antennae","wings"],"bee_group":{"antennae":"A","wings":"2","pattern":"X","legs":"X"},"action":"harvest","summary":"good-harvest","bonus":0.6000000000000013},{"rt":1552,"stimulus":"\n                    <p><b>Action: <em>harvest</em></b></p>\n                    <p>This is the bee that you just saw.</p>\n                    <img src=\"bees-with-color/bee-B1SF.svg\" width=\"200\">\n                    <p><span class=\"greenText\"><b>Successful harvest!</b></span><br>Your pay has increased by $0.02. Your bonus pay is now $0.46.</p>\n            ","response":0,"trial_type":"html-button-response","trial_index":26,"time_elapsed":598772,"internal_node_id":"0.0-4.0-1.9","subject_id":"5b9d6deeb5662700015e98dd","study_id":"6197b3f67c2b5cd3b6d9596a","session_id":"619be31bdee16bf5d847f552","condition":"full-information","relevant_dimensions":["antennae","wings"],"bee_group":{"antennae":"A","wings":"2","pattern":"X","legs":"X"},"bonus":0.6000000000000013},{"rt":4166,"stimulus":"bees-with-color/bee-B1DM.svg","response":0,"trial_type":"image-button-response","trial_index":27,"time_elapsed":602941,"internal_node_id":"0.0-4.0-0.10","subject_id":"5b9d6deeb5662700015e98dd","study_id":"6197b3f67c2b5cd3b6d9596a","session_id":"619be31bdee16bf5d847f552","condition":"full-information","relevant_dimensions":["antennae","wings"],"bee_group":{"antennae":"A","wings":"2","pattern":"X","legs":"X"},"action":"harvest","summary":"good-harvest","bonus":0.6000000000000013},{"rt":1614,"stimulus":"\n                    <p><b>Action: <em>harvest</em></b></p>\n                    <p>This is the bee that you just saw.</p>\n                    <img src=\"bees-with-color/bee-B1DM.svg\" width=\"200\">\n                    <p><span class=\"greenText\"><b>Successful harvest!</b></span><br>Your pay has increased by $0.02. Your bonus pay is now $0.48.</p>\n            ","response":0,"trial_type":"html-button-response","trial_index":28,"time_elapsed":604558,"internal_node_id":"0.0-4.0-1.10","subject_id":"5b9d6deeb5662700015e98dd","study_id":"6197b3f67c2b5cd3b6d9596a","session_id":"619be31bdee16bf5d847f552","condition":"full-information","relevant_dimensions":["antennae","wings"],"bee_group":{"antennae":"A","wings":"2","pattern":"X","legs":"X"},"bonus":0.6000000000000013},{"rt":2464,"stimulus":"bees-with-color/bee-A1SM.svg","response":0,"trial_type":"image-button-response","trial_index":29,"time_elapsed":607024,"internal_node_id":"0.0-4.0-0.11","subject_id":"5b9d6deeb5662700015e98dd","study_id":"6197b3f67c2b5cd3b6d9596a","session_id":"619be31bdee16bf5d847f552","condition":"full-information","relevant_dimensions":["antennae","wings"],"bee_group":{"antennae":"A","wings":"2","pattern":"X","legs":"X"},"action":"harvest","summary":"good-harvest","bonus":0.6000000000000013},{"rt":1578,"stimulus":"\n                    <p><b>Action: <em>harvest</em></b></p>\n                    <p>This is the bee that you just saw.</p>\n                    <img src=\"bees-with-color/bee-A1SM.svg\" width=\"200\">\n                    <p><span class=\"greenText\"><b>Successful harvest!</b></span><br>Your pay has increased by $0.02. Your bonus pay is now $0.50.</p>\n            ","response":0,"trial_type":"html-button-response","trial_index":30,"time_elapsed":608603,"internal_node_id":"0.0-4.0-1.11","subject_id":"5b9d6deeb5662700015e98dd","study_id":"6197b3f67c2b5cd3b6d9596a","session_id":"619be31bdee16bf5d847f552","condition":"full-information","relevant_dimensions":["antennae","wings"],"bee_group":{"antennae":"A","wings":"2","pattern":"X","legs":"X"},"bonus":0.6000000000000013},{"rt":8151,"stimulus":"bees-with-color/bee-A2DF.svg","response":1,"trial_type":"image-button-response","trial_index":31,"time_elapsed":616757,"internal_node_id":"0.0-4.0-0.12","subject_id":"5b9d6deeb5662700015e98dd","study_id":"6197b3f67c2b5cd3b6d9596a","session_id":"619be31bdee16bf5d847f552","condition":"full-information","relevant_dimensions":["antennae","wings"],"bee_group":{"antennae":"A","wings":"2","pattern":"X","legs":"X"},"action":"avoid","summary":"good-avoid","bonus":0.6000000000000013},{"rt":4771,"stimulus":"\n                    <p><b>Action: <em>avoid</em></b></p>\n                    <p>This is the bee that you just saw.</p>\n                    <img src=\"bees-with-color/bee-A2DF.svg\" width=\"200\">\n                    <p><span class=\"greenText\">Good choice!</span>  This bee would have stung you.<br>Your bonus pay is unchanged, and remains at $0.50.</p>\n            ","response":0,"trial_type":"html-button-response","trial_index":32,"time_elapsed":621529,"internal_node_id":"0.0-4.0-1.12","subject_id":"5b9d6deeb5662700015e98dd","study_id":"6197b3f67c2b5cd3b6d9596a","session_id":"619be31bdee16bf5d847f552","condition":"full-information","relevant_dimensions":["antennae","wings"],"bee_group":{"antennae":"A","wings":"2","pattern":"X","legs":"X"},"bonus":0.6000000000000013},{"rt":2749,"stimulus":"bees-with-color/bee-A2SF.svg","response":0,"trial_type":"image-button-response","trial_index":33,"time_elapsed":624280,"internal_node_id":"0.0-4.0-0.13","subject_id":"5b9d6deeb5662700015e98dd","study_id":"6197b3f67c2b5cd3b6d9596a","session_id":"619be31bdee16bf5d847f552","condition":"full-information","relevant_dimensions":["antennae","wings"],"bee_group":{"antennae":"A","wings":"2","pattern":"X","legs":"X"},"action":"harvest","summary":"bad-harvest","bonus":0.6000000000000013},{"rt":1886,"stimulus":"\n                    <p><b>Action: <em>harvest</em></b></p>\n                    <p>This is the bee that you just saw.</p>\n                    <img src=\"bees-with-color/bee-A2SF.svg\" width=\"200\">\n                    <p><span class=\"redText\">Bad choice, the bee was angry.</span><br><b>You have been stung!</b><br>Your pay has been decreased by $0.10. Your bonus pay is now $0.40.</p>\n            ","response":0,"trial_type":"html-button-response","trial_index":34,"time_elapsed":626167,"internal_node_id":"0.0-4.0-1.13","subject_id":"5b9d6deeb5662700015e98dd","study_id":"6197b3f67c2b5cd3b6d9596a","session_id":"619be31bdee16bf5d847f552","condition":"full-information","relevant_dimensions":["antennae","wings"],"bee_group":{"antennae":"A","wings":"2","pattern":"X","legs":"X"},"bonus":0.6000000000000013},{"rt":1702,"stimulus":"bees-with-color/bee-A1SF.svg","response":0,"trial_type":"image-button-response","trial_index":35,"time_elapsed":627870,"internal_node_id":"0.0-4.0-0.14","subject_id":"5b9d6deeb5662700015e98dd","study_id":"6197b3f67c2b5cd3b6d9596a","session_id":"619be31bdee16bf5d847f552","condition":"full-information","relevant_dimensions":["antennae","wings"],"bee_group":{"antennae":"A","wings":"2","pattern":"X","legs":"X"},"action":"harvest","summary":"good-harvest","bonus":0.6000000000000013},{"rt":1614,"stimulus":"\n                    <p><b>Action: <em>harvest</em></b></p>\n                    <p>This is the bee that you just saw.</p>\n                    <img src=\"bees-with-color/bee-A1SF.svg\" width=\"200\">\n                    <p><span class=\"greenText\"><b>Successful harvest!</b></span><br>Your pay has increased by $0.02. Your bonus pay is now $0.42.</p>\n            ","response":0,"trial_type":"html-button-response","trial_index":36,"time_elapsed":629486,"internal_node_id":"0.0-4.0-1.14","subject_id":"5b9d6deeb5662700015e98dd","study_id":"6197b3f67c2b5cd3b6d9596a","session_id":"619be31bdee16bf5d847f552","condition":"full-information","relevant_dimensions":["antennae","wings"],"bee_group":{"antennae":"A","wings":"2","pattern":"X","legs":"X"},"bonus":0.6000000000000013},{"rt":2404,"stimulus":"bees-with-color/bee-B1SM.svg","response":0,"trial_type":"image-button-response","trial_index":37,"time_elapsed":631891,"internal_node_id":"0.0-4.0-0.15","subject_id":"5b9d6deeb5662700015e98dd","study_id":"6197b3f67c2b5cd3b6d9596a","session_id":"619be31bdee16bf5d847f552","condition":"full-information","relevant_dimensions":["antennae","wings"],"bee_group":{"antennae":"A","wings":"2","pattern":"X","legs":"X"},"action":"harvest","summary":"good-harvest","bonus":0.6000000000000013},{"rt":1526,"stimulus":"\n                    <p><b>Action: <em>harvest</em></b></p>\n                    <p>This is the bee that you just saw.</p>\n                    <img src=\"bees-with-color/bee-B1SM.svg\" width=\"200\">\n                    <p><span class=\"greenText\"><b>Successful harvest!</b></span><br>Your pay has increased by $0.02. Your bonus pay is now $0.44.</p>\n            ","response":0,"trial_type":"html-button-response","trial_index":38,"time_elapsed":633422,"internal_node_id":"0.0-4.0-1.15","subject_id":"5b9d6deeb5662700015e98dd","study_id":"6197b3f67c2b5cd3b6d9596a","session_id":"619be31bdee16bf5d847f552","condition":"full-information","relevant_dimensions":["antennae","wings"],"bee_group":{"antennae":"A","wings":"2","pattern":"X","legs":"X"},"bonus":0.6000000000000013},{"rt":4697,"stimulus":"bees-with-color/bee-A2DF.svg","response":1,"trial_type":"image-button-response","trial_index":39,"time_elapsed":638121,"internal_node_id":"0.0-4.0-0.16","subject_id":"5b9d6deeb5662700015e98dd","study_id":"6197b3f67c2b5cd3b6d9596a","session_id":"619be31bdee16bf5d847f552","condition":"full-information","relevant_dimensions":["antennae","wings"],"bee_group":{"antennae":"A","wings":"2","pattern":"X","legs":"X"},"action":"avoid","summary":"good-avoid","bonus":0.6000000000000013},{"rt":2182,"stimulus":"\n                    <p><b>Action: <em>avoid</em></b></p>\n                    <p>This is the bee that you just saw.</p>\n                    <img src=\"bees-with-color/bee-A2DF.svg\" width=\"200\">\n                    <p><span class=\"greenText\">Good choice!</span>  This bee would have stung you.<br>Your bonus pay is unchanged, and remains at $0.44.</p>\n            ","response":0,"trial_type":"html-button-response","trial_index":40,"time_elapsed":640305,"internal_node_id":"0.0-4.0-1.16","subject_id":"5b9d6deeb5662700015e98dd","study_id":"6197b3f67c2b5cd3b6d9596a","session_id":"619be31bdee16bf5d847f552","condition":"full-information","relevant_dimensions":["antennae","wings"],"bee_group":{"antennae":"A","wings":"2","pattern":"X","legs":"X"},"bonus":0.6000000000000013},{"rt":5230,"stimulus":"bees-with-color/bee-B2DM.svg","response":1,"trial_type":"image-button-response","trial_index":41,"time_elapsed":645537,"internal_node_id":"0.0-4.0-0.17","subject_id":"5b9d6deeb5662700015e98dd","study_id":"6197b3f67c2b5cd3b6d9596a","session_id":"619be31bdee16bf5d847f552","condition":"full-information","relevant_dimensions":["antennae","wings"],"bee_group":{"antennae":"A","wings":"2","pattern":"X","legs":"X"},"action":"avoid","summary":"bad-avoid","bonus":0.6000000000000013},{"rt":1712,"stimulus":"\n                    <p><b>Action: <em>avoid</em></b></p>\n                    <p>This is the bee that you just saw.</p>\n                    <img src=\"bees-with-color/bee-B2DM.svg\" width=\"200\">\n                    <p><span class=\"redText\">Bad choice,</span> the bee was friendly.<br>Your bonus pay is unchanged, and remains at $0.44.</p>\n            ","response":0,"trial_type":"html-button-response","trial_index":42,"time_elapsed":647251,"internal_node_id":"0.0-4.0-1.17","subject_id":"5b9d6deeb5662700015e98dd","study_id":"6197b3f67c2b5cd3b6d9596a","session_id":"619be31bdee16bf5d847f552","condition":"full-information","relevant_dimensions":["antennae","wings"],"bee_group":{"antennae":"A","wings":"2","pattern":"X","legs":"X"},"bonus":0.6000000000000013},{"rt":1947,"stimulus":"bees-with-color/bee-A1SM.svg","response":0,"trial_type":"image-button-response","trial_index":43,"time_elapsed":649201,"internal_node_id":"0.0-4.0-0.18","subject_id":"5b9d6deeb5662700015e98dd","study_id":"6197b3f67c2b5cd3b6d9596a","session_id":"619be31bdee16bf5d847f552","condition":"full-information","relevant_dimensions":["antennae","wings"],"bee_group":{"antennae":"A","wings":"2","pattern":"X","legs":"X"},"action":"harvest","summary":"good-harvest","bonus":0.6000000000000013},{"rt":1503,"stimulus":"\n                    <p><b>Action: <em>harvest</em></b></p>\n                    <p>This is the bee that you just saw.</p>\n                    <img src=\"bees-with-color/bee-A1SM.svg\" width=\"200\">\n                    <p><span class=\"greenText\"><b>Successful harvest!</b></span><br>Your pay has increased by $0.02. Your bonus pay is now $0.46.</p>\n            ","response":0,"trial_type":"html-button-response","trial_index":44,"time_elapsed":650705,"internal_node_id":"0.0-4.0-1.18","subject_id":"5b9d6deeb5662700015e98dd","study_id":"6197b3f67c2b5cd3b6d9596a","session_id":"619be31bdee16bf5d847f552","condition":"full-information","relevant_dimensions":["antennae","wings"],"bee_group":{"antennae":"A","wings":"2","pattern":"X","legs":"X"},"bonus":0.6000000000000013},{"rt":1676,"stimulus":"bees-with-color/bee-A1DF.svg","response":0,"trial_type":"image-button-response","trial_index":45,"time_elapsed":652383,"internal_node_id":"0.0-4.0-0.19","subject_id":"5b9d6deeb5662700015e98dd","study_id":"6197b3f67c2b5cd3b6d9596a","session_id":"619be31bdee16bf5d847f552","condition":"full-information","relevant_dimensions":["antennae","wings"],"bee_group":{"antennae":"A","wings":"2","pattern":"X","legs":"X"},"action":"harvest","summary":"good-harvest","bonus":0.6000000000000013},{"rt":1614,"stimulus":"\n                    <p><b>Action: <em>harvest</em></b></p>\n                    <p>This is the bee that you just saw.</p>\n                    <img src=\"bees-with-color/bee-A1DF.svg\" width=\"200\">\n                    <p><span class=\"greenText\"><b>Successful harvest!</b></span><br>Your pay has increased by $0.02. Your bonus pay is now $0.48.</p>\n            ","response":0,"trial_type":"html-button-response","trial_index":46,"time_elapsed":654000,"internal_node_id":"0.0-4.0-1.19","subject_id":"5b9d6deeb5662700015e98dd","study_id":"6197b3f67c2b5cd3b6d9596a","session_id":"619be31bdee16bf5d847f552","condition":"full-information","relevant_dimensions":["antennae","wings"],"bee_group":{"antennae":"A","wings":"2","pattern":"X","legs":"X"},"bonus":0.6000000000000013},{"rt":3985,"stimulus":"bees-with-color/bee-A2SF.svg","response":1,"trial_type":"image-button-response","trial_index":47,"time_elapsed":657986,"internal_node_id":"0.0-4.0-0.20","subject_id":"5b9d6deeb5662700015e98dd","study_id":"6197b3f67c2b5cd3b6d9596a","session_id":"619be31bdee16bf5d847f552","condition":"full-information","relevant_dimensions":["antennae","wings"],"bee_group":{"antennae":"A","wings":"2","pattern":"X","legs":"X"},"action":"avoid","summary":"good-avoid","bonus":0.6000000000000013},{"rt":8894,"stimulus":"\n                    <p><b>Action: <em>avoid</em></b></p>\n                    <p>This is the bee that you just saw.</p>\n                    <img src=\"bees-with-color/bee-A2SF.svg\" width=\"200\">\n                    <p><span class=\"greenText\">Good choice!</span>  This bee would have stung you.<br>Your bonus pay is unchanged, and remains at $0.48.</p>\n            ","response":0,"trial_type":"html-button-response","trial_index":48,"time_elapsed":666881,"internal_node_id":"0.0-4.0-1.20","subject_id":"5b9d6deeb5662700015e98dd","study_id":"6197b3f67c2b5cd3b6d9596a","session_id":"619be31bdee16bf5d847f552","condition":"full-information","relevant_dimensions":["antennae","wings"],"bee_group":{"antennae":"A","wings":"2","pattern":"X","legs":"X"},"bonus":0.6000000000000013},{"rt":1838,"stimulus":"bees-with-color/bee-A1SF.svg","response":0,"trial_type":"image-button-response","trial_index":49,"time_elapsed":668721,"internal_node_id":"0.0-4.0-0.21","subject_id":"5b9d6deeb5662700015e98dd","study_id":"6197b3f67c2b5cd3b6d9596a","session_id":"619be31bdee16bf5d847f552","condition":"full-information","relevant_dimensions":["antennae","wings"],"bee_group":{"antennae":"A","wings":"2","pattern":"X","legs":"X"},"action":"harvest","summary":"good-harvest","bonus":0.6000000000000013},{"rt":1924,"stimulus":"\n                    <p><b>Action: <em>harvest</em></b></p>\n                    <p>This is the bee that you just saw.</p>\n                    <img src=\"bees-with-color/bee-A1SF.svg\" width=\"200\">\n                    <p><span class=\"greenText\"><b>Successful harvest!</b></span><br>Your pay has increased by $0.02. Your bonus pay is now $0.50.</p>\n            ","response":0,"trial_type":"html-button-response","trial_index":50,"time_elapsed":670645,"internal_node_id":"0.0-4.0-1.21","subject_id":"5b9d6deeb5662700015e98dd","study_id":"6197b3f67c2b5cd3b6d9596a","session_id":"619be31bdee16bf5d847f552","condition":"full-information","relevant_dimensions":["antennae","wings"],"bee_group":{"antennae":"A","wings":"2","pattern":"X","legs":"X"},"bonus":0.6000000000000013},{"rt":2232,"stimulus":"bees-with-color/bee-B1DF.svg","response":1,"trial_type":"image-button-response","trial_index":51,"time_elapsed":672879,"internal_node_id":"0.0-4.0-0.22","subject_id":"5b9d6deeb5662700015e98dd","study_id":"6197b3f67c2b5cd3b6d9596a","session_id":"619be31bdee16bf5d847f552","condition":"full-information","relevant_dimensions":["antennae","wings"],"bee_group":{"antennae":"A","wings":"2","pattern":"X","legs":"X"},"action":"avoid","summary":"bad-avoid","bonus":0.6000000000000013},{"rt":1713,"stimulus":"\n                    <p><b>Action: <em>avoid</em></b></p>\n                    <p>This is the bee that you just saw.</p>\n                    <img src=\"bees-with-color/bee-B1DF.svg\" width=\"200\">\n                    <p><span class=\"redText\">Bad choice,</span> the bee was friendly.<br>Your bonus pay is unchanged, and remains at $0.50.</p>\n            ","response":0,"trial_type":"html-button-response","trial_index":52,"time_elapsed":674594,"internal_node_id":"0.0-4.0-1.22","subject_id":"5b9d6deeb5662700015e98dd","study_id":"6197b3f67c2b5cd3b6d9596a","session_id":"619be31bdee16bf5d847f552","condition":"full-information","relevant_dimensions":["antennae","wings"],"bee_group":{"antennae":"A","wings":"2","pattern":"X","legs":"X"},"bonus":0.6000000000000013},{"rt":1750,"stimulus":"bees-with-color/bee-B2DF.svg","response":1,"trial_type":"image-button-response","trial_index":53,"time_elapsed":676346,"internal_node_id":"0.0-4.0-0.23","subject_id":"5b9d6deeb5662700015e98dd","study_id":"6197b3f67c2b5cd3b6d9596a","session_id":"619be31bdee16bf5d847f552","condition":"full-information","relevant_dimensions":["antennae","wings"],"bee_group":{"antennae":"A","wings":"2","pattern":"X","legs":"X"},"action":"avoid","summary":"bad-avoid","bonus":0.6000000000000013},{"rt":2158,"stimulus":"\n                    <p><b>Action: <em>avoid</em></b></p>\n                    <p>This is the bee that you just saw.</p>\n                    <img src=\"bees-with-color/bee-B2DF.svg\" width=\"200\">\n                    <p><span class=\"redText\">Bad choice,</span> the bee was friendly.<br>Your bonus pay is unchanged, and remains at $0.50.</p>\n            ","response":0,"trial_type":"html-button-response","trial_index":54,"time_elapsed":678505,"internal_node_id":"0.0-4.0-1.23","subject_id":"5b9d6deeb5662700015e98dd","study_id":"6197b3f67c2b5cd3b6d9596a","session_id":"619be31bdee16bf5d847f552","condition":"full-information","relevant_dimensions":["antennae","wings"],"bee_group":{"antennae":"A","wings":"2","pattern":"X","legs":"X"},"bonus":0.6000000000000013},{"rt":2677,"stimulus":"bees-with-color/bee-A2DM.svg","response":1,"trial_type":"image-button-response","trial_index":55,"time_elapsed":681184,"internal_node_id":"0.0-4.0-0.24","subject_id":"5b9d6deeb5662700015e98dd","study_id":"6197b3f67c2b5cd3b6d9596a","session_id":"619be31bdee16bf5d847f552","condition":"full-information","relevant_dimensions":["antennae","wings"],"bee_group":{"antennae":"A","wings":"2","pattern":"X","legs":"X"},"action":"avoid","summary":"good-avoid","bonus":0.6000000000000013},{"rt":6008,"stimulus":"\n                    <p><b>Action: <em>avoid</em></b></p>\n                    <p>This is the bee that you just saw.</p>\n                    <img src=\"bees-with-color/bee-A2DM.svg\" width=\"200\">\n                    <p><span class=\"greenText\">Good choice!</span>  This bee would have stung you.<br>Your bonus pay is unchanged, and remains at $0.50.</p>\n            ","response":0,"trial_type":"html-button-response","trial_index":56,"time_elapsed":687194,"internal_node_id":"0.0-4.0-1.24","subject_id":"5b9d6deeb5662700015e98dd","study_id":"6197b3f67c2b5cd3b6d9596a","session_id":"619be31bdee16bf5d847f552","condition":"full-information","relevant_dimensions":["antennae","wings"],"bee_group":{"antennae":"A","wings":"2","pattern":"X","legs":"X"},"bonus":0.6000000000000013},{"rt":1638,"stimulus":"bees-with-color/bee-B2SF.svg","response":0,"trial_type":"image-button-response","trial_index":57,"time_elapsed":688834,"internal_node_id":"0.0-4.0-0.25","subject_id":"5b9d6deeb5662700015e98dd","study_id":"6197b3f67c2b5cd3b6d9596a","session_id":"619be31bdee16bf5d847f552","condition":"full-information","relevant_dimensions":["antennae","wings"],"bee_group":{"antennae":"A","wings":"2","pattern":"X","legs":"X"},"action":"harvest","summary":"good-harvest","bonus":0.6000000000000013},{"rt":1751,"stimulus":"\n                    <p><b>Action: <em>harvest</em></b></p>\n                    <p>This is the bee that you just saw.</p>\n                    <img src=\"bees-with-color/bee-B2SF.svg\" width=\"200\">\n                    <p><span class=\"greenText\"><b>Successful harvest!</b></span><br>Your pay has increased by $0.02. Your bonus pay is now $0.52.</p>\n            ","response":0,"trial_type":"html-button-response","trial_index":58,"time_elapsed":690587,"internal_node_id":"0.0-4.0-1.25","subject_id":"5b9d6deeb5662700015e98dd","study_id":"6197b3f67c2b5cd3b6d9596a","session_id":"619be31bdee16bf5d847f552","condition":"full-information","relevant_dimensions":["antennae","wings"],"bee_group":{"antennae":"A","wings":"2","pattern":"X","legs":"X"},"bonus":0.6000000000000013},{"rt":2072,"stimulus":"bees-with-color/bee-A2SM.svg","response":0,"trial_type":"image-button-response","trial_index":59,"time_elapsed":692660,"internal_node_id":"0.0-4.0-0.26","subject_id":"5b9d6deeb5662700015e98dd","study_id":"6197b3f67c2b5cd3b6d9596a","session_id":"619be31bdee16bf5d847f552","condition":"full-information","relevant_dimensions":["antennae","wings"],"bee_group":{"antennae":"A","wings":"2","pattern":"X","legs":"X"},"action":"harvest","summary":"bad-harvest","bonus":0.6000000000000013},{"rt":26988,"stimulus":"\n                    <p><b>Action: <em>harvest</em></b></p>\n                    <p>This is the bee that you just saw.</p>\n                    <img src=\"bees-with-color/bee-A2SM.svg\" width=\"200\">\n                    <p><span class=\"redText\">Bad choice, the bee was angry.</span><br><b>You have been stung!</b><br>Your pay has been decreased by $0.10. Your bonus pay is now $0.42.</p>\n            ","response":0,"trial_type":"html-button-response","trial_index":60,"time_elapsed":719650,"internal_node_id":"0.0-4.0-1.26","subject_id":"5b9d6deeb5662700015e98dd","study_id":"6197b3f67c2b5cd3b6d9596a","session_id":"619be31bdee16bf5d847f552","condition":"full-information","relevant_dimensions":["antennae","wings"],"bee_group":{"antennae":"A","wings":"2","pattern":"X","legs":"X"},"bonus":0.6000000000000013},{"rt":1690,"stimulus":"bees-with-color/bee-B1SM.svg","response":0,"trial_type":"image-button-response","trial_index":61,"time_elapsed":721342,"internal_node_id":"0.0-4.0-0.27","subject_id":"5b9d6deeb5662700015e98dd","study_id":"6197b3f67c2b5cd3b6d9596a","session_id":"619be31bdee16bf5d847f552","condition":"full-information","relevant_dimensions":["antennae","wings"],"bee_group":{"antennae":"A","wings":"2","pattern":"X","legs":"X"},"action":"harvest","summary":"good-harvest","bonus":0.6000000000000013},{"rt":1824,"stimulus":"\n                    <p><b>Action: <em>harvest</em></b></p>\n                    <p>This is the bee that you just saw.</p>\n                    <img src=\"bees-with-color/bee-B1SM.svg\" width=\"200\">\n                    <p><span class=\"greenText\"><b>Successful harvest!</b></span><br>Your pay has increased by $0.02. Your bonus pay is now $0.44.</p>\n            ","response":0,"trial_type":"html-button-response","trial_index":62,"time_elapsed":723168,"internal_node_id":"0.0-4.0-1.27","subject_id":"5b9d6deeb5662700015e98dd","study_id":"6197b3f67c2b5cd3b6d9596a","session_id":"619be31bdee16bf5d847f552","condition":"full-information","relevant_dimensions":["antennae","wings"],"bee_group":{"antennae":"A","wings":"2","pattern":"X","legs":"X"},"bonus":0.6000000000000013},{"rt":2593,"stimulus":"bees-with-color/bee-A1DM.svg","response":0,"trial_type":"image-button-response","trial_index":63,"time_elapsed":725761,"internal_node_id":"0.0-4.0-0.28","subject_id":"5b9d6deeb5662700015e98dd","study_id":"6197b3f67c2b5cd3b6d9596a","session_id":"619be31bdee16bf5d847f552","condition":"full-information","relevant_dimensions":["antennae","wings"],"bee_group":{"antennae":"A","wings":"2","pattern":"X","legs":"X"},"action":"harvest","summary":"good-harvest","bonus":0.6000000000000013},{"rt":1972,"stimulus":"\n                    <p><b>Action: <em>harvest</em></b></p>\n                    <p>This is the bee that you just saw.</p>\n                    <img src=\"bees-with-color/bee-A1DM.svg\" width=\"200\">\n                    <p><span class=\"greenText\"><b>Successful harvest!</b></span><br>Your pay has increased by $0.02. Your bonus pay is now $0.46.</p>\n            ","response":0,"trial_type":"html-button-response","trial_index":64,"time_elapsed":727736,"internal_node_id":"0.0-4.0-1.28","subject_id":"5b9d6deeb5662700015e98dd","study_id":"6197b3f67c2b5cd3b6d9596a","session_id":"619be31bdee16bf5d847f552","condition":"full-information","relevant_dimensions":["antennae","wings"],"bee_group":{"antennae":"A","wings":"2","pattern":"X","legs":"X"},"bonus":0.6000000000000013},{"rt":5343,"stimulus":"bees-with-color/bee-B1DM.svg","response":0,"trial_type":"image-button-response","trial_index":65,"time_elapsed":733080,"internal_node_id":"0.0-4.0-0.29","subject_id":"5b9d6deeb5662700015e98dd","study_id":"6197b3f67c2b5cd3b6d9596a","session_id":"619be31bdee16bf5d847f552","condition":"full-information","relevant_dimensions":["antennae","wings"],"bee_group":{"antennae":"A","wings":"2","pattern":"X","legs":"X"},"action":"harvest","summary":"good-harvest","bonus":0.6000000000000013},{"rt":3184,"stimulus":"\n                    <p><b>Action: <em>harvest</em></b></p>\n                    <p>This is the bee that you just saw.</p>\n                    <img src=\"bees-with-color/bee-B1DM.svg\" width=\"200\">\n                    <p><span class=\"greenText\"><b>Successful harvest!</b></span><br>Your pay has increased by $0.02. Your bonus pay is now $0.48.</p>\n            ","response":0,"trial_type":"html-button-response","trial_index":66,"time_elapsed":736266,"internal_node_id":"0.0-4.0-1.29","subject_id":"5b9d6deeb5662700015e98dd","study_id":"6197b3f67c2b5cd3b6d9596a","session_id":"619be31bdee16bf5d847f552","condition":"full-information","relevant_dimensions":["antennae","wings"],"bee_group":{"antennae":"A","wings":"2","pattern":"X","legs":"X"},"bonus":0.6000000000000013},{"rt":4454,"stimulus":"bees-with-color/bee-B2SM.svg","response":1,"trial_type":"image-button-response","trial_index":67,"time_elapsed":740722,"internal_node_id":"0.0-4.0-0.30","subject_id":"5b9d6deeb5662700015e98dd","study_id":"6197b3f67c2b5cd3b6d9596a","session_id":"619be31bdee16bf5d847f552","condition":"full-information","relevant_dimensions":["antennae","wings"],"bee_group":{"antennae":"A","wings":"2","pattern":"X","legs":"X"},"action":"avoid","summary":"bad-avoid","bonus":0.6000000000000013},{"rt":1716,"stimulus":"\n                    <p><b>Action: <em>avoid</em></b></p>\n                    <p>This is the bee that you just saw.</p>\n                    <img src=\"bees-with-color/bee-B2SM.svg\" width=\"200\">\n                    <p><span class=\"redText\">Bad choice,</span> the bee was friendly.<br>Your bonus pay is unchanged, and remains at $0.48.</p>\n            ","response":0,"trial_type":"html-button-response","trial_index":68,"time_elapsed":742439,"internal_node_id":"0.0-4.0-1.30","subject_id":"5b9d6deeb5662700015e98dd","study_id":"6197b3f67c2b5cd3b6d9596a","session_id":"619be31bdee16bf5d847f552","condition":"full-information","relevant_dimensions":["antennae","wings"],"bee_group":{"antennae":"A","wings":"2","pattern":"X","legs":"X"},"bonus":0.6000000000000013},{"rt":3146,"stimulus":"bees-with-color/bee-B1SF.svg","response":0,"trial_type":"image-button-response","trial_index":69,"time_elapsed":745585,"internal_node_id":"0.0-4.0-0.31","subject_id":"5b9d6deeb5662700015e98dd","study_id":"6197b3f67c2b5cd3b6d9596a","session_id":"619be31bdee16bf5d847f552","condition":"full-information","relevant_dimensions":["antennae","wings"],"bee_group":{"antennae":"A","wings":"2","pattern":"X","legs":"X"},"action":"harvest","summary":"good-harvest","bonus":0.6000000000000013},{"rt":2503,"stimulus":"\n                    <p><b>Action: <em>harvest</em></b></p>\n                    <p>This is the bee that you just saw.</p>\n                    <img src=\"bees-with-color/bee-B1SF.svg\" width=\"200\">\n                    <p><span class=\"greenText\"><b>Successful harvest!</b></span><br>Your pay has increased by $0.02. Your bonus pay is now $0.50.</p>\n            ","response":0,"trial_type":"html-button-response","trial_index":70,"time_elapsed":748091,"internal_node_id":"0.0-4.0-1.31","subject_id":"5b9d6deeb5662700015e98dd","study_id":"6197b3f67c2b5cd3b6d9596a","session_id":"619be31bdee16bf5d847f552","condition":"full-information","relevant_dimensions":["antennae","wings"],"bee_group":{"antennae":"A","wings":"2","pattern":"X","legs":"X"},"bonus":0.6000000000000013},{"rt":1665,"stimulus":"bees-with-color/bee-B1SF.svg","response":0,"trial_type":"image-button-response","trial_index":71,"time_elapsed":749757,"internal_node_id":"0.0-4.0-0.32","subject_id":"5b9d6deeb5662700015e98dd","study_id":"6197b3f67c2b5cd3b6d9596a","session_id":"619be31bdee16bf5d847f552","condition":"full-information","relevant_dimensions":["antennae","wings"],"bee_group":{"antennae":"A","wings":"2","pattern":"X","legs":"X"},"action":"harvest","summary":"good-harvest","bonus":0.6000000000000013},{"rt":1655,"stimulus":"\n                    <p><b>Action: <em>harvest</em></b></p>\n                    <p>This is the bee that you just saw.</p>\n                    <img src=\"bees-with-color/bee-B1SF.svg\" width=\"200\">\n                    <p><span class=\"greenText\"><b>Successful harvest!</b></span><br>Your pay has increased by $0.02. Your bonus pay is now $0.52.</p>\n            ","response":0,"trial_type":"html-button-response","trial_index":72,"time_elapsed":751414,"internal_node_id":"0.0-4.0-1.32","subject_id":"5b9d6deeb5662700015e98dd","study_id":"6197b3f67c2b5cd3b6d9596a","session_id":"619be31bdee16bf5d847f552","condition":"full-information","relevant_dimensions":["antennae","wings"],"bee_group":{"antennae":"A","wings":"2","pattern":"X","legs":"X"},"bonus":0.6000000000000013},{"rt":2478,"stimulus":"bees-with-color/bee-B2SM.svg","response":0,"trial_type":"image-button-response","trial_index":73,"time_elapsed":753893,"internal_node_id":"0.0-4.0-0.33","subject_id":"5b9d6deeb5662700015e98dd","study_id":"6197b3f67c2b5cd3b6d9596a","session_id":"619be31bdee16bf5d847f552","condition":"full-information","relevant_dimensions":["antennae","wings"],"bee_group":{"antennae":"A","wings":"2","pattern":"X","legs":"X"},"action":"harvest","summary":"good-harvest","bonus":0.6000000000000013},{"rt":9831,"stimulus":"\n                    <p><b>Action: <em>harvest</em></b></p>\n                    <p>This is the bee that you just saw.</p>\n                    <img src=\"bees-with-color/bee-B2SM.svg\" width=\"200\">\n                    <p><span class=\"greenText\"><b>Successful harvest!</b></span><br>Your pay has increased by $0.02. Your bonus pay is now $0.54.</p>\n            ","response":0,"trial_type":"html-button-response","trial_index":74,"time_elapsed":763726,"internal_node_id":"0.0-4.0-1.33","subject_id":"5b9d6deeb5662700015e98dd","study_id":"6197b3f67c2b5cd3b6d9596a","session_id":"619be31bdee16bf5d847f552","condition":"full-information","relevant_dimensions":["antennae","wings"],"bee_group":{"antennae":"A","wings":"2","pattern":"X","legs":"X"},"bonus":0.6000000000000013},{"rt":3379,"stimulus":"bees-with-color/bee-A2DM.svg","response":1,"trial_type":"image-button-response","trial_index":75,"time_elapsed":767108,"internal_node_id":"0.0-4.0-0.34","subject_id":"5b9d6deeb5662700015e98dd","study_id":"6197b3f67c2b5cd3b6d9596a","session_id":"619be31bdee16bf5d847f552","condition":"full-information","relevant_dimensions":["antennae","wings"],"bee_group":{"antennae":"A","wings":"2","pattern":"X","legs":"X"},"action":"avoid","summary":"good-avoid","bonus":0.6000000000000013},{"rt":2171,"stimulus":"\n                    <p><b>Action: <em>avoid</em></b></p>\n                    <p>This is the bee that you just saw.</p>\n                    <img src=\"bees-with-color/bee-A2DM.svg\" width=\"200\">\n                    <p><span class=\"greenText\">Good choice!</span>  This bee would have stung you.<br>Your bonus pay is unchanged, and remains at $0.54.</p>\n            ","response":0,"trial_type":"html-button-response","trial_index":76,"time_elapsed":769281,"internal_node_id":"0.0-4.0-1.34","subject_id":"5b9d6deeb5662700015e98dd","study_id":"6197b3f67c2b5cd3b6d9596a","session_id":"619be31bdee16bf5d847f552","condition":"full-information","relevant_dimensions":["antennae","wings"],"bee_group":{"antennae":"A","wings":"2","pattern":"X","legs":"X"},"bonus":0.6000000000000013},{"rt":2628,"stimulus":"bees-with-color/bee-A1DM.svg","response":0,"trial_type":"image-button-response","trial_index":77,"time_elapsed":771910,"internal_node_id":"0.0-4.0-0.35","subject_id":"5b9d6deeb5662700015e98dd","study_id":"6197b3f67c2b5cd3b6d9596a","session_id":"619be31bdee16bf5d847f552","condition":"full-information","relevant_dimensions":["antennae","wings"],"bee_group":{"antennae":"A","wings":"2","pattern":"X","legs":"X"},"action":"harvest","summary":"good-harvest","bonus":0.6000000000000013},{"rt":1998,"stimulus":"\n                    <p><b>Action: <em>harvest</em></b></p>\n                    <p>This is the bee that you just saw.</p>\n                    <img src=\"bees-with-color/bee-A1DM.svg\" width=\"200\">\n                    <p><span class=\"greenText\"><b>Successful harvest!</b></span><br>Your pay has increased by $0.02. Your bonus pay is now $0.56.</p>\n            ","response":0,"trial_type":"html-button-response","trial_index":78,"time_elapsed":773909,"internal_node_id":"0.0-4.0-1.35","subject_id":"5b9d6deeb5662700015e98dd","study_id":"6197b3f67c2b5cd3b6d9596a","session_id":"619be31bdee16bf5d847f552","condition":"full-information","relevant_dimensions":["antennae","wings"],"bee_group":{"antennae":"A","wings":"2","pattern":"X","legs":"X"},"bonus":0.6000000000000013},{"rt":2440,"stimulus":"bees-with-color/bee-A2SF.svg","response":0,"trial_type":"image-button-response","trial_index":79,"time_elapsed":776351,"internal_node_id":"0.0-4.0-0.36","subject_id":"5b9d6deeb5662700015e98dd","study_id":"6197b3f67c2b5cd3b6d9596a","session_id":"619be31bdee16bf5d847f552","condition":"full-information","relevant_dimensions":["antennae","wings"],"bee_group":{"antennae":"A","wings":"2","pattern":"X","legs":"X"},"action":"harvest","summary":"bad-harvest","bonus":0.6000000000000013},{"rt":5577,"stimulus":"\n                    <p><b>Action: <em>harvest</em></b></p>\n                    <p>This is the bee that you just saw.</p>\n                    <img src=\"bees-with-color/bee-A2SF.svg\" width=\"200\">\n                    <p><span class=\"redText\">Bad choice, the bee was angry.</span><br><b>You have been stung!</b><br>Your pay has been decreased by $0.10. Your bonus pay is now $0.46.</p>\n            ","response":0,"trial_type":"html-button-response","trial_index":80,"time_elapsed":781931,"internal_node_id":"0.0-4.0-1.36","subject_id":"5b9d6deeb5662700015e98dd","study_id":"6197b3f67c2b5cd3b6d9596a","session_id":"619be31bdee16bf5d847f552","condition":"full-information","relevant_dimensions":["antennae","wings"],"bee_group":{"antennae":"A","wings":"2","pattern":"X","legs":"X"},"bonus":0.6000000000000013},{"rt":2958,"stimulus":"bees-with-color/bee-A1SM.svg","response":0,"trial_type":"image-button-response","trial_index":81,"time_elapsed":784891,"internal_node_id":"0.0-4.0-0.37","subject_id":"5b9d6deeb5662700015e98dd","study_id":"6197b3f67c2b5cd3b6d9596a","session_id":"619be31bdee16bf5d847f552","condition":"full-information","relevant_dimensions":["antennae","wings"],"bee_group":{"antennae":"A","wings":"2","pattern":"X","legs":"X"},"action":"harvest","summary":"good-harvest","bonus":0.6000000000000013},{"rt":1615,"stimulus":"\n                    <p><b>Action: <em>harvest</em></b></p>\n                    <p>This is the bee that you just saw.</p>\n                    <img src=\"bees-with-color/bee-A1SM.svg\" width=\"200\">\n                    <p><span class=\"greenText\"><b>Successful harvest!</b></span><br>Your pay has increased by $0.02. Your bonus pay is now $0.48.</p>\n            ","response":0,"trial_type":"html-button-response","trial_index":82,"time_elapsed":786508,"internal_node_id":"0.0-4.0-1.37","subject_id":"5b9d6deeb5662700015e98dd","study_id":"6197b3f67c2b5cd3b6d9596a","session_id":"619be31bdee16bf5d847f552","condition":"full-information","relevant_dimensions":["antennae","wings"],"bee_group":{"antennae":"A","wings":"2","pattern":"X","legs":"X"},"bonus":0.6000000000000013},{"rt":2467,"stimulus":"bees-with-color/bee-B2DM.svg","response":0,"trial_type":"image-button-response","trial_index":83,"time_elapsed":788976,"internal_node_id":"0.0-4.0-0.38","subject_id":"5b9d6deeb5662700015e98dd","study_id":"6197b3f67c2b5cd3b6d9596a","session_id":"619be31bdee16bf5d847f552","condition":"full-information","relevant_dimensions":["antennae","wings"],"bee_group":{"antennae":"A","wings":"2","pattern":"X","legs":"X"},"action":"harvest","summary":"good-harvest","bonus":0.6000000000000013},{"rt":1627,"stimulus":"\n                    <p><b>Action: <em>harvest</em></b></p>\n                    <p>This is the bee that you just saw.</p>\n                    <img src=\"bees-with-color/bee-B2DM.svg\" width=\"200\">\n                    <p><span class=\"greenText\"><b>Successful harvest!</b></span><br>Your pay has increased by $0.02. Your bonus pay is now $0.50.</p>\n            ","response":0,"trial_type":"html-button-response","trial_index":84,"time_elapsed":790604,"internal_node_id":"0.0-4.0-1.38","subject_id":"5b9d6deeb5662700015e98dd","study_id":"6197b3f67c2b5cd3b6d9596a","session_id":"619be31bdee16bf5d847f552","condition":"full-information","relevant_dimensions":["antennae","wings"],"bee_group":{"antennae":"A","wings":"2","pattern":"X","legs":"X"},"bonus":0.6000000000000013},{"rt":1927,"stimulus":"bees-with-color/bee-A1SF.svg","response":0,"trial_type":"image-button-response","trial_index":85,"time_elapsed":792531,"internal_node_id":"0.0-4.0-0.39","subject_id":"5b9d6deeb5662700015e98dd","study_id":"6197b3f67c2b5cd3b6d9596a","session_id":"619be31bdee16bf5d847f552","condition":"full-information","relevant_dimensions":["antennae","wings"],"bee_group":{"antennae":"A","wings":"2","pattern":"X","legs":"X"},"action":"harvest","summary":"good-harvest","bonus":0.6000000000000013},{"rt":1477,"stimulus":"\n                    <p><b>Action: <em>harvest</em></b></p>\n                    <p>This is the bee that you just saw.</p>\n                    <img src=\"bees-with-color/bee-A1SF.svg\" width=\"200\">\n                    <p><span class=\"greenText\"><b>Successful harvest!</b></span><br>Your pay has increased by $0.02. Your bonus pay is now $0.52.</p>\n            ","response":0,"trial_type":"html-button-response","trial_index":86,"time_elapsed":794011,"internal_node_id":"0.0-4.0-1.39","subject_id":"5b9d6deeb5662700015e98dd","study_id":"6197b3f67c2b5cd3b6d9596a","session_id":"619be31bdee16bf5d847f552","condition":"full-information","relevant_dimensions":["antennae","wings"],"bee_group":{"antennae":"A","wings":"2","pattern":"X","legs":"X"},"bonus":0.6000000000000013},{"rt":3280,"stimulus":"bees-with-color/bee-B2SF.svg","response":0,"trial_type":"image-button-response","trial_index":87,"time_elapsed":797292,"internal_node_id":"0.0-4.0-0.40","subject_id":"5b9d6deeb5662700015e98dd","study_id":"6197b3f67c2b5cd3b6d9596a","session_id":"619be31bdee16bf5d847f552","condition":"full-information","relevant_dimensions":["antennae","wings"],"bee_group":{"antennae":"A","wings":"2","pattern":"X","legs":"X"},"action":"harvest","summary":"good-harvest","bonus":0.6000000000000013},{"rt":1504,"stimulus":"\n                    <p><b>Action: <em>harvest</em></b></p>\n                    <p>This is the bee that you just saw.</p>\n                    <img src=\"bees-with-color/bee-B2SF.svg\" width=\"200\">\n                    <p><span class=\"greenText\"><b>Successful harvest!</b></span><br>Your pay has increased by $0.02. Your bonus pay is now $0.54.</p>\n            ","response":0,"trial_type":"html-button-response","trial_index":88,"time_elapsed":798799,"internal_node_id":"0.0-4.0-1.40","subject_id":"5b9d6deeb5662700015e98dd","study_id":"6197b3f67c2b5cd3b6d9596a","session_id":"619be31bdee16bf5d847f552","condition":"full-information","relevant_dimensions":["antennae","wings"],"bee_group":{"antennae":"A","wings":"2","pattern":"X","legs":"X"},"bonus":0.6000000000000013},{"rt":2676,"stimulus":"bees-with-color/bee-A2DF.svg","response":1,"trial_type":"image-button-response","trial_index":89,"time_elapsed":801476,"internal_node_id":"0.0-4.0-0.41","subject_id":"5b9d6deeb5662700015e98dd","study_id":"6197b3f67c2b5cd3b6d9596a","session_id":"619be31bdee16bf5d847f552","condition":"full-information","relevant_dimensions":["antennae","wings"],"bee_group":{"antennae":"A","wings":"2","pattern":"X","legs":"X"},"action":"avoid","summary":"good-avoid","bonus":0.6000000000000013},{"rt":2008,"stimulus":"\n                    <p><b>Action: <em>avoid</em></b></p>\n                    <p>This is the bee that you just saw.</p>\n                    <img src=\"bees-with-color/bee-A2DF.svg\" width=\"200\">\n                    <p><span class=\"greenText\">Good choice!</span>  This bee would have stung you.<br>Your bonus pay is unchanged, and remains at $0.54.</p>\n            ","response":0,"trial_type":"html-button-response","trial_index":90,"time_elapsed":803486,"internal_node_id":"0.0-4.0-1.41","subject_id":"5b9d6deeb5662700015e98dd","study_id":"6197b3f67c2b5cd3b6d9596a","session_id":"619be31bdee16bf5d847f552","condition":"full-information","relevant_dimensions":["antennae","wings"],"bee_group":{"antennae":"A","wings":"2","pattern":"X","legs":"X"},"bonus":0.6000000000000013},{"rt":2281,"stimulus":"bees-with-color/bee-B1DM.svg","response":0,"trial_type":"image-button-response","trial_index":91,"time_elapsed":805769,"internal_node_id":"0.0-4.0-0.42","subject_id":"5b9d6deeb5662700015e98dd","study_id":"6197b3f67c2b5cd3b6d9596a","session_id":"619be31bdee16bf5d847f552","condition":"full-information","relevant_dimensions":["antennae","wings"],"bee_group":{"antennae":"A","wings":"2","pattern":"X","legs":"X"},"action":"harvest","summary":"good-harvest","bonus":0.6000000000000013},{"rt":1677,"stimulus":"\n                    <p><b>Action: <em>harvest</em></b></p>\n                    <p>This is the bee that you just saw.</p>\n                    <img src=\"bees-with-color/bee-B1DM.svg\" width=\"200\">\n                    <p><span class=\"greenText\"><b>Successful harvest!</b></span><br>Your pay has increased by $0.02. Your bonus pay is now $0.56.</p>\n            ","response":0,"trial_type":"html-button-response","trial_index":92,"time_elapsed":807449,"internal_node_id":"0.0-4.0-1.42","subject_id":"5b9d6deeb5662700015e98dd","study_id":"6197b3f67c2b5cd3b6d9596a","session_id":"619be31bdee16bf5d847f552","condition":"full-information","relevant_dimensions":["antennae","wings"],"bee_group":{"antennae":"A","wings":"2","pattern":"X","legs":"X"},"bonus":0.6000000000000013},{"rt":2207,"stimulus":"bees-with-color/bee-B1SM.svg","response":0,"trial_type":"image-button-response","trial_index":93,"time_elapsed":809657,"internal_node_id":"0.0-4.0-0.43","subject_id":"5b9d6deeb5662700015e98dd","study_id":"6197b3f67c2b5cd3b6d9596a","session_id":"619be31bdee16bf5d847f552","condition":"full-information","relevant_dimensions":["antennae","wings"],"bee_group":{"antennae":"A","wings":"2","pattern":"X","legs":"X"},"action":"harvest","summary":"good-harvest","bonus":0.6000000000000013},{"rt":1455,"stimulus":"\n                    <p><b>Action: <em>harvest</em></b></p>\n                    <p>This is the bee that you just saw.</p>\n                    <img src=\"bees-with-color/bee-B1SM.svg\" width=\"200\">\n                    <p><span class=\"greenText\"><b>Successful harvest!</b></span><br>Your pay has increased by $0.02. Your bonus pay is now $0.58.</p>\n            ","response":0,"trial_type":"html-button-response","trial_index":94,"time_elapsed":811114,"internal_node_id":"0.0-4.0-1.43","subject_id":"5b9d6deeb5662700015e98dd","study_id":"6197b3f67c2b5cd3b6d9596a","session_id":"619be31bdee16bf5d847f552","condition":"full-information","relevant_dimensions":["antennae","wings"],"bee_group":{"antennae":"A","wings":"2","pattern":"X","legs":"X"},"bonus":0.6000000000000013},{"rt":2452,"stimulus":"bees-with-color/bee-B2DF.svg","response":0,"trial_type":"image-button-response","trial_index":95,"time_elapsed":813569,"internal_node_id":"0.0-4.0-0.44","subject_id":"5b9d6deeb5662700015e98dd","study_id":"6197b3f67c2b5cd3b6d9596a","session_id":"619be31bdee16bf5d847f552","condition":"full-information","relevant_dimensions":["antennae","wings"],"bee_group":{"antennae":"A","wings":"2","pattern":"X","legs":"X"},"action":"harvest","summary":"good-harvest","bonus":0.6000000000000013},{"rt":1493,"stimulus":"\n                    <p><b>Action: <em>harvest</em></b></p>\n                    <p>This is the bee that you just saw.</p>\n                    <img src=\"bees-with-color/bee-B2DF.svg\" width=\"200\">\n                    <p><span class=\"greenText\"><b>Successful harvest!</b></span><br>Your pay has increased by $0.02. Your bonus pay is now $0.60.</p>\n            ","response":0,"trial_type":"html-button-response","trial_index":96,"time_elapsed":815064,"internal_node_id":"0.0-4.0-1.44","subject_id":"5b9d6deeb5662700015e98dd","study_id":"6197b3f67c2b5cd3b6d9596a","session_id":"619be31bdee16bf5d847f552","condition":"full-information","relevant_dimensions":["antennae","wings"],"bee_group":{"antennae":"A","wings":"2","pattern":"X","legs":"X"},"bonus":0.6000000000000013},{"rt":2305,"stimulus":"bees-with-color/bee-A1DF.svg","response":0,"trial_type":"image-button-response","trial_index":97,"time_elapsed":817371,"internal_node_id":"0.0-4.0-0.45","subject_id":"5b9d6deeb5662700015e98dd","study_id":"6197b3f67c2b5cd3b6d9596a","session_id":"619be31bdee16bf5d847f552","condition":"full-information","relevant_dimensions":["antennae","wings"],"bee_group":{"antennae":"A","wings":"2","pattern":"X","legs":"X"},"action":"harvest","summary":"good-harvest","bonus":0.6000000000000013},{"rt":1576,"stimulus":"\n                    <p><b>Action: <em>harvest</em></b></p>\n                    <p>This is the bee that you just saw.</p>\n                    <img src=\"bees-with-color/bee-A1DF.svg\" width=\"200\">\n                    <p><span class=\"greenText\"><b>Successful harvest!</b></span><br>Your pay has increased by $0.02. Your bonus pay is now $0.62.</p>\n            ","response":0,"trial_type":"html-button-response","trial_index":98,"time_elapsed":818949,"internal_node_id":"0.0-4.0-1.45","subject_id":"5b9d6deeb5662700015e98dd","study_id":"6197b3f67c2b5cd3b6d9596a","session_id":"619be31bdee16bf5d847f552","condition":"full-information","relevant_dimensions":["antennae","wings"],"bee_group":{"antennae":"A","wings":"2","pattern":"X","legs":"X"},"bonus":0.6000000000000013},{"rt":2208,"stimulus":"bees-with-color/bee-A2SM.svg","response":1,"trial_type":"image-button-response","trial_index":99,"time_elapsed":821159,"internal_node_id":"0.0-4.0-0.46","subject_id":"5b9d6deeb5662700015e98dd","study_id":"6197b3f67c2b5cd3b6d9596a","session_id":"619be31bdee16bf5d847f552","condition":"full-information","relevant_dimensions":["antennae","wings"],"bee_group":{"antennae":"A","wings":"2","pattern":"X","legs":"X"},"action":"avoid","summary":"good-avoid","bonus":0.6000000000000013},{"rt":1849,"stimulus":"\n                    <p><b>Action: <em>avoid</em></b></p>\n                    <p>This is the bee that you just saw.</p>\n                    <img src=\"bees-with-color/bee-A2SM.svg\" width=\"200\">\n                    <p><span class=\"greenText\">Good choice!</span>  This bee would have stung you.<br>Your bonus pay is unchanged, and remains at $0.62.</p>\n            ","response":0,"trial_type":"html-button-response","trial_index":100,"time_elapsed":823011,"internal_node_id":"0.0-4.0-1.46","subject_id":"5b9d6deeb5662700015e98dd","study_id":"6197b3f67c2b5cd3b6d9596a","session_id":"619be31bdee16bf5d847f552","condition":"full-information","relevant_dimensions":["antennae","wings"],"bee_group":{"antennae":"A","wings":"2","pattern":"X","legs":"X"},"bonus":0.6000000000000013},{"rt":2135,"stimulus":"bees-with-color/bee-B1DF.svg","response":0,"trial_type":"image-button-response","trial_index":101,"time_elapsed":825147,"internal_node_id":"0.0-4.0-0.47","subject_id":"5b9d6deeb5662700015e98dd","study_id":"6197b3f67c2b5cd3b6d9596a","session_id":"619be31bdee16bf5d847f552","condition":"full-information","relevant_dimensions":["antennae","wings"],"bee_group":{"antennae":"A","wings":"2","pattern":"X","legs":"X"},"action":"harvest","summary":"good-harvest","bonus":0.6000000000000013},{"rt":1947,"stimulus":"\n                    <p><b>Action: <em>harvest</em></b></p>\n                    <p>This is the bee that you just saw.</p>\n                    <img src=\"bees-with-color/bee-B1DF.svg\" width=\"200\">\n                    <p><span class=\"greenText\"><b>Successful harvest!</b></span><br>Your pay has increased by $0.02. Your bonus pay is now $0.64.</p>\n            ","response":0,"trial_type":"html-button-response","trial_index":102,"time_elapsed":827095,"internal_node_id":"0.0-4.0-1.47","subject_id":"5b9d6deeb5662700015e98dd","study_id":"6197b3f67c2b5cd3b6d9596a","session_id":"619be31bdee16bf5d847f552","condition":"full-information","relevant_dimensions":["antennae","wings"],"bee_group":{"antennae":"A","wings":"2","pattern":"X","legs":"X"},"bonus":0.6000000000000013},{"rt":2589,"stimulus":"bees-with-color/bee-B1DM.svg","response":0,"trial_type":"image-button-response","trial_index":103,"time_elapsed":829686,"internal_node_id":"0.0-4.0-0.48","subject_id":"5b9d6deeb5662700015e98dd","study_id":"6197b3f67c2b5cd3b6d9596a","session_id":"619be31bdee16bf5d847f552","condition":"full-information","relevant_dimensions":["antennae","wings"],"bee_group":{"antennae":"A","wings":"2","pattern":"X","legs":"X"},"action":"harvest","summary":"good-harvest","bonus":0.6000000000000013},{"rt":1516,"stimulus":"\n                    <p><b>Action: <em>harvest</em></b></p>\n                    <p>This is the bee that you just saw.</p>\n                    <img src=\"bees-with-color/bee-B1DM.svg\" width=\"200\">\n                    <p><span class=\"greenText\"><b>Successful harvest!</b></span><br>Your pay has increased by $0.02. Your bonus pay is now $0.66.</p>\n            ","response":0,"trial_type":"html-button-response","trial_index":104,"time_elapsed":831204,"internal_node_id":"0.0-4.0-1.48","subject_id":"5b9d6deeb5662700015e98dd","study_id":"6197b3f67c2b5cd3b6d9596a","session_id":"619be31bdee16bf5d847f552","condition":"full-information","relevant_dimensions":["antennae","wings"],"bee_group":{"antennae":"A","wings":"2","pattern":"X","legs":"X"},"bonus":0.6000000000000013},{"rt":2319,"stimulus":"bees-with-color/bee-A2DM.svg","response":1,"trial_type":"image-button-response","trial_index":105,"time_elapsed":833526,"internal_node_id":"0.0-4.0-0.49","subject_id":"5b9d6deeb5662700015e98dd","study_id":"6197b3f67c2b5cd3b6d9596a","session_id":"619be31bdee16bf5d847f552","condition":"full-information","relevant_dimensions":["antennae","wings"],"bee_group":{"antennae":"A","wings":"2","pattern":"X","legs":"X"},"action":"avoid","summary":"good-avoid","bonus":0.6000000000000013},{"rt":1565,"stimulus":"\n                    <p><b>Action: <em>avoid</em></b></p>\n                    <p>This is the bee that you just saw.</p>\n                    <img src=\"bees-with-color/bee-A2DM.svg\" width=\"200\">\n                    <p><span class=\"greenText\">Good choice!</span>  This bee would have stung you.<br>Your bonus pay is unchanged, and remains at $0.66.</p>\n            ","response":0,"trial_type":"html-button-response","trial_index":106,"time_elapsed":835092,"internal_node_id":"0.0-4.0-1.49","subject_id":"5b9d6deeb5662700015e98dd","study_id":"6197b3f67c2b5cd3b6d9596a","session_id":"619be31bdee16bf5d847f552","condition":"full-information","relevant_dimensions":["antennae","wings"],"bee_group":{"antennae":"A","wings":"2","pattern":"X","legs":"X"},"bonus":0.6000000000000013},{"rt":2145,"stimulus":"bees-with-color/bee-B1SF.svg","response":0,"trial_type":"image-button-response","trial_index":107,"time_elapsed":837240,"internal_node_id":"0.0-4.0-0.50","subject_id":"5b9d6deeb5662700015e98dd","study_id":"6197b3f67c2b5cd3b6d9596a","session_id":"619be31bdee16bf5d847f552","condition":"full-information","relevant_dimensions":["antennae","wings"],"bee_group":{"antennae":"A","wings":"2","pattern":"X","legs":"X"},"action":"harvest","summary":"good-harvest","bonus":0.6000000000000013},{"rt":1738,"stimulus":"\n                    <p><b>Action: <em>harvest</em></b></p>\n                    <p>This is the bee that you just saw.</p>\n                    <img src=\"bees-with-color/bee-B1SF.svg\" width=\"200\">\n                    <p><span class=\"greenText\"><b>Successful harvest!</b></span><br>Your pay has increased by $0.02. Your bonus pay is now $0.68.</p>\n            ","response":0,"trial_type":"html-button-response","trial_index":108,"time_elapsed":838980,"internal_node_id":"0.0-4.0-1.50","subject_id":"5b9d6deeb5662700015e98dd","study_id":"6197b3f67c2b5cd3b6d9596a","session_id":"619be31bdee16bf5d847f552","condition":"full-information","relevant_dimensions":["antennae","wings"],"bee_group":{"antennae":"A","wings":"2","pattern":"X","legs":"X"},"bonus":0.6000000000000013},{"rt":2947,"stimulus":"bees-with-color/bee-A1DM.svg","response":1,"trial_type":"image-button-response","trial_index":109,"time_elapsed":841929,"internal_node_id":"0.0-4.0-0.51","subject_id":"5b9d6deeb5662700015e98dd","study_id":"6197b3f67c2b5cd3b6d9596a","session_id":"619be31bdee16bf5d847f552","condition":"full-information","relevant_dimensions":["antennae","wings"],"bee_group":{"antennae":"A","wings":"2","pattern":"X","legs":"X"},"action":"avoid","summary":"bad-avoid","bonus":0.6000000000000013},{"rt":1554,"stimulus":"\n                    <p><b>Action: <em>avoid</em></b></p>\n                    <p>This is the bee that you just saw.</p>\n                    <img src=\"bees-with-color/bee-A1DM.svg\" width=\"200\">\n                    <p><span class=\"redText\">Bad choice,</span> the bee was friendly.<br>Your bonus pay is unchanged, and remains at $0.68.</p>\n            ","response":0,"trial_type":"html-button-response","trial_index":110,"time_elapsed":843484,"internal_node_id":"0.0-4.0-1.51","subject_id":"5b9d6deeb5662700015e98dd","study_id":"6197b3f67c2b5cd3b6d9596a","session_id":"619be31bdee16bf5d847f552","condition":"full-information","relevant_dimensions":["antennae","wings"],"bee_group":{"antennae":"A","wings":"2","pattern":"X","legs":"X"},"bonus":0.6000000000000013},{"rt":2072,"stimulus":"bees-with-color/bee-B1DF.svg","response":0,"trial_type":"image-button-response","trial_index":111,"time_elapsed":845557,"internal_node_id":"0.0-4.0-0.52","subject_id":"5b9d6deeb5662700015e98dd","study_id":"6197b3f67c2b5cd3b6d9596a","session_id":"619be31bdee16bf5d847f552","condition":"full-information","relevant_dimensions":["antennae","wings"],"bee_group":{"antennae":"A","wings":"2","pattern":"X","legs":"X"},"action":"harvest","summary":"good-harvest","bonus":0.6000000000000013},{"rt":1838,"stimulus":"\n                    <p><b>Action: <em>harvest</em></b></p>\n                    <p>This is the bee that you just saw.</p>\n                    <img src=\"bees-with-color/bee-B1DF.svg\" width=\"200\">\n                    <p><span class=\"greenText\"><b>Successful harvest!</b></span><br>Your pay has increased by $0.02. Your bonus pay is now $0.70.</p>\n            ","response":0,"trial_type":"html-button-response","trial_index":112,"time_elapsed":847396,"internal_node_id":"0.0-4.0-1.52","subject_id":"5b9d6deeb5662700015e98dd","study_id":"6197b3f67c2b5cd3b6d9596a","session_id":"619be31bdee16bf5d847f552","condition":"full-information","relevant_dimensions":["antennae","wings"],"bee_group":{"antennae":"A","wings":"2","pattern":"X","legs":"X"},"bonus":0.6000000000000013},{"rt":2480,"stimulus":"bees-with-color/bee-A1DF.svg","response":0,"trial_type":"image-button-response","trial_index":113,"time_elapsed":849877,"internal_node_id":"0.0-4.0-0.53","subject_id":"5b9d6deeb5662700015e98dd","study_id":"6197b3f67c2b5cd3b6d9596a","session_id":"619be31bdee16bf5d847f552","condition":"full-information","relevant_dimensions":["antennae","wings"],"bee_group":{"antennae":"A","wings":"2","pattern":"X","legs":"X"},"action":"harvest","summary":"good-harvest","bonus":0.6000000000000013},{"rt":1516,"stimulus":"\n                    <p><b>Action: <em>harvest</em></b></p>\n                    <p>This is the bee that you just saw.</p>\n                    <img src=\"bees-with-color/bee-A1DF.svg\" width=\"200\">\n                    <p><span class=\"greenText\"><b>Successful harvest!</b></span><br>Your pay has increased by $0.02. Your bonus pay is now $0.72.</p>\n            ","response":0,"trial_type":"html-button-response","trial_index":114,"time_elapsed":851396,"internal_node_id":"0.0-4.0-1.53","subject_id":"5b9d6deeb5662700015e98dd","study_id":"6197b3f67c2b5cd3b6d9596a","session_id":"619be31bdee16bf5d847f552","condition":"full-information","relevant_dimensions":["antennae","wings"],"bee_group":{"antennae":"A","wings":"2","pattern":"X","legs":"X"},"bonus":0.6000000000000013},{"rt":2492,"stimulus":"bees-with-color/bee-A2SF.svg","response":1,"trial_type":"image-button-response","trial_index":115,"time_elapsed":853890,"internal_node_id":"0.0-4.0-0.54","subject_id":"5b9d6deeb5662700015e98dd","study_id":"6197b3f67c2b5cd3b6d9596a","session_id":"619be31bdee16bf5d847f552","condition":"full-information","relevant_dimensions":["antennae","wings"],"bee_group":{"antennae":"A","wings":"2","pattern":"X","legs":"X"},"action":"avoid","summary":"good-avoid","bonus":0.6000000000000013},{"rt":1665,"stimulus":"\n                    <p><b>Action: <em>avoid</em></b></p>\n                    <p>This is the bee that you just saw.</p>\n                    <img src=\"bees-with-color/bee-A2SF.svg\" width=\"200\">\n                    <p><span class=\"greenText\">Good choice!</span>  This bee would have stung you.<br>Your bonus pay is unchanged, and remains at $0.72.</p>\n            ","response":0,"trial_type":"html-button-response","trial_index":116,"time_elapsed":855557,"internal_node_id":"0.0-4.0-1.54","subject_id":"5b9d6deeb5662700015e98dd","study_id":"6197b3f67c2b5cd3b6d9596a","session_id":"619be31bdee16bf5d847f552","condition":"full-information","relevant_dimensions":["antennae","wings"],"bee_group":{"antennae":"A","wings":"2","pattern":"X","legs":"X"},"bonus":0.6000000000000013},{"rt":1530,"stimulus":"bees-with-color/bee-A1SF.svg","response":0,"trial_type":"image-button-response","trial_index":117,"time_elapsed":857087,"internal_node_id":"0.0-4.0-0.55","subject_id":"5b9d6deeb5662700015e98dd","study_id":"6197b3f67c2b5cd3b6d9596a","session_id":"619be31bdee16bf5d847f552","condition":"full-information","relevant_dimensions":["antennae","wings"],"bee_group":{"antennae":"A","wings":"2","pattern":"X","legs":"X"},"action":"harvest","summary":"good-harvest","bonus":0.6000000000000013},{"rt":1788,"stimulus":"\n                    <p><b>Action: <em>harvest</em></b></p>\n                    <p>This is the bee that you just saw.</p>\n                    <img src=\"bees-with-color/bee-A1SF.svg\" width=\"200\">\n                    <p><span class=\"greenText\"><b>Successful harvest!</b></span><br>Your pay has increased by $0.02. Your bonus pay is now $0.74.</p>\n            ","response":0,"trial_type":"html-button-response","trial_index":118,"time_elapsed":858878,"internal_node_id":"0.0-4.0-1.55","subject_id":"5b9d6deeb5662700015e98dd","study_id":"6197b3f67c2b5cd3b6d9596a","session_id":"619be31bdee16bf5d847f552","condition":"full-information","relevant_dimensions":["antennae","wings"],"bee_group":{"antennae":"A","wings":"2","pattern":"X","legs":"X"},"bonus":0.6000000000000013},{"rt":2639,"stimulus":"bees-with-color/bee-B2SF.svg","response":0,"trial_type":"image-button-response","trial_index":119,"time_elapsed":861519,"internal_node_id":"0.0-4.0-0.56","subject_id":"5b9d6deeb5662700015e98dd","study_id":"6197b3f67c2b5cd3b6d9596a","session_id":"619be31bdee16bf5d847f552","condition":"full-information","relevant_dimensions":["antennae","wings"],"bee_group":{"antennae":"A","wings":"2","pattern":"X","legs":"X"},"action":"harvest","summary":"good-harvest","bonus":0.6000000000000013},{"rt":1492,"stimulus":"\n                    <p><b>Action: <em>harvest</em></b></p>\n                    <p>This is the bee that you just saw.</p>\n                    <img src=\"bees-with-color/bee-B2SF.svg\" width=\"200\">\n                    <p><span class=\"greenText\"><b>Successful harvest!</b></span><br>Your pay has increased by $0.02. Your bonus pay is now $0.76.</p>\n            ","response":0,"trial_type":"html-button-response","trial_index":120,"time_elapsed":863013,"internal_node_id":"0.0-4.0-1.56","subject_id":"5b9d6deeb5662700015e98dd","study_id":"6197b3f67c2b5cd3b6d9596a","session_id":"619be31bdee16bf5d847f552","condition":"full-information","relevant_dimensions":["antennae","wings"],"bee_group":{"antennae":"A","wings":"2","pattern":"X","legs":"X"},"bonus":0.6000000000000013},{"rt":2306,"stimulus":"bees-with-color/bee-B2DM.svg","response":0,"trial_type":"image-button-response","trial_index":121,"time_elapsed":865322,"internal_node_id":"0.0-4.0-0.57","subject_id":"5b9d6deeb5662700015e98dd","study_id":"6197b3f67c2b5cd3b6d9596a","session_id":"619be31bdee16bf5d847f552","condition":"full-information","relevant_dimensions":["antennae","wings"],"bee_group":{"antennae":"A","wings":"2","pattern":"X","legs":"X"},"action":"harvest","summary":"good-harvest","bonus":0.6000000000000013},{"rt":1578,"stimulus":"\n                    <p><b>Action: <em>harvest</em></b></p>\n                    <p>This is the bee that you just saw.</p>\n                    <img src=\"bees-with-color/bee-B2DM.svg\" width=\"200\">\n                    <p><span class=\"greenText\"><b>Successful harvest!</b></span><br>Your pay has increased by $0.02. Your bonus pay is now $0.78.</p>\n            ","response":0,"trial_type":"html-button-response","trial_index":122,"time_elapsed":866902,"internal_node_id":"0.0-4.0-1.57","subject_id":"5b9d6deeb5662700015e98dd","study_id":"6197b3f67c2b5cd3b6d9596a","session_id":"619be31bdee16bf5d847f552","condition":"full-information","relevant_dimensions":["antennae","wings"],"bee_group":{"antennae":"A","wings":"2","pattern":"X","legs":"X"},"bonus":0.6000000000000013},{"rt":3171,"stimulus":"bees-with-color/bee-A2DF.svg","response":1,"trial_type":"image-button-response","trial_index":123,"time_elapsed":870076,"internal_node_id":"0.0-4.0-0.58","subject_id":"5b9d6deeb5662700015e98dd","study_id":"6197b3f67c2b5cd3b6d9596a","session_id":"619be31bdee16bf5d847f552","condition":"full-information","relevant_dimensions":["antennae","wings"],"bee_group":{"antennae":"A","wings":"2","pattern":"X","legs":"X"},"action":"avoid","summary":"good-avoid","bonus":0.6000000000000013},{"rt":1947,"stimulus":"\n                    <p><b>Action: <em>avoid</em></b></p>\n                    <p>This is the bee that you just saw.</p>\n                    <img src=\"bees-with-color/bee-A2DF.svg\" width=\"200\">\n                    <p><span class=\"greenText\">Good choice!</span>  This bee would have stung you.<br>Your bonus pay is unchanged, and remains at $0.78.</p>\n            ","response":0,"trial_type":"html-button-response","trial_index":124,"time_elapsed":872026,"internal_node_id":"0.0-4.0-1.58","subject_id":"5b9d6deeb5662700015e98dd","study_id":"6197b3f67c2b5cd3b6d9596a","session_id":"619be31bdee16bf5d847f552","condition":"full-information","relevant_dimensions":["antennae","wings"],"bee_group":{"antennae":"A","wings":"2","pattern":"X","legs":"X"},"bonus":0.6000000000000013},{"rt":2567,"stimulus":"bees-with-color/bee-A2SM.svg","response":1,"trial_type":"image-button-response","trial_index":125,"time_elapsed":874594,"internal_node_id":"0.0-4.0-0.59","subject_id":"5b9d6deeb5662700015e98dd","study_id":"6197b3f67c2b5cd3b6d9596a","session_id":"619be31bdee16bf5d847f552","condition":"full-information","relevant_dimensions":["antennae","wings"],"bee_group":{"antennae":"A","wings":"2","pattern":"X","legs":"X"},"action":"avoid","summary":"good-avoid","bonus":0.6000000000000013},{"rt":1442,"stimulus":"\n                    <p><b>Action: <em>avoid</em></b></p>\n                    <p>This is the bee that you just saw.</p>\n                    <img src=\"bees-with-color/bee-A2SM.svg\" width=\"200\">\n                    <p><span class=\"greenText\">Good choice!</span>  This bee would have stung you.<br>Your bonus pay is unchanged, and remains at $0.78.</p>\n            ","response":0,"trial_type":"html-button-response","trial_index":126,"time_elapsed":876038,"internal_node_id":"0.0-4.0-1.59","subject_id":"5b9d6deeb5662700015e98dd","study_id":"6197b3f67c2b5cd3b6d9596a","session_id":"619be31bdee16bf5d847f552","condition":"full-information","relevant_dimensions":["antennae","wings"],"bee_group":{"antennae":"A","wings":"2","pattern":"X","legs":"X"},"bonus":0.6000000000000013},{"rt":2850,"stimulus":"bees-with-color/bee-A1SM.svg","response":0,"trial_type":"image-button-response","trial_index":127,"time_elapsed":878890,"internal_node_id":"0.0-4.0-0.60","subject_id":"5b9d6deeb5662700015e98dd","study_id":"6197b3f67c2b5cd3b6d9596a","session_id":"619be31bdee16bf5d847f552","condition":"full-information","relevant_dimensions":["antennae","wings"],"bee_group":{"antennae":"A","wings":"2","pattern":"X","legs":"X"},"action":"harvest","summary":"good-harvest","bonus":0.6000000000000013},{"rt":2552,"stimulus":"\n                    <p><b>Action: <em>harvest</em></b></p>\n                    <p>This is the bee that you just saw.</p>\n                    <img src=\"bees-with-color/bee-A1SM.svg\" width=\"200\">\n                    <p><span class=\"greenText\"><b>Successful harvest!</b></span><br>Your pay has increased by $0.02. Your bonus pay is now $0.80.</p>\n            ","response":0,"trial_type":"html-button-response","trial_index":128,"time_elapsed":881445,"internal_node_id":"0.0-4.0-1.60","subject_id":"5b9d6deeb5662700015e98dd","study_id":"6197b3f67c2b5cd3b6d9596a","session_id":"619be31bdee16bf5d847f552","condition":"full-information","relevant_dimensions":["antennae","wings"],"bee_group":{"antennae":"A","wings":"2","pattern":"X","legs":"X"},"bonus":0.6000000000000013},{"rt":2654,"stimulus":"bees-with-color/bee-B2DF.svg","response":0,"trial_type":"image-button-response","trial_index":129,"time_elapsed":884100,"internal_node_id":"0.0-4.0-0.61","subject_id":"5b9d6deeb5662700015e98dd","study_id":"6197b3f67c2b5cd3b6d9596a","session_id":"619be31bdee16bf5d847f552","condition":"full-information","relevant_dimensions":["antennae","wings"],"bee_group":{"antennae":"A","wings":"2","pattern":"X","legs":"X"},"action":"harvest","summary":"good-harvest","bonus":0.6000000000000013},{"rt":1319,"stimulus":"\n                    <p><b>Action: <em>harvest</em></b></p>\n                    <p>This is the bee that you just saw.</p>\n                    <img src=\"bees-with-color/bee-B2DF.svg\" width=\"200\">\n                    <p><span class=\"greenText\"><b>Successful harvest!</b></span><br>Your pay has increased by $0.02. Your bonus pay is now $0.82.</p>\n            ","response":0,"trial_type":"html-button-response","trial_index":130,"time_elapsed":885421,"internal_node_id":"0.0-4.0-1.61","subject_id":"5b9d6deeb5662700015e98dd","study_id":"6197b3f67c2b5cd3b6d9596a","session_id":"619be31bdee16bf5d847f552","condition":"full-information","relevant_dimensions":["antennae","wings"],"bee_group":{"antennae":"A","wings":"2","pattern":"X","legs":"X"},"bonus":0.6000000000000013},{"rt":1764,"stimulus":"bees-with-color/bee-B1SM.svg","response":0,"trial_type":"image-button-response","trial_index":131,"time_elapsed":887187,"internal_node_id":"0.0-4.0-0.62","subject_id":"5b9d6deeb5662700015e98dd","study_id":"6197b3f67c2b5cd3b6d9596a","session_id":"619be31bdee16bf5d847f552","condition":"full-information","relevant_dimensions":["antennae","wings"],"bee_group":{"antennae":"A","wings":"2","pattern":"X","legs":"X"},"action":"harvest","summary":"good-harvest","bonus":0.6000000000000013},{"rt":1431,"stimulus":"\n                    <p><b>Action: <em>harvest</em></b></p>\n                    <p>This is the bee that you just saw.</p>\n                    <img src=\"bees-with-color/bee-B1SM.svg\" width=\"200\">\n                    <p><span class=\"greenText\"><b>Successful harvest!</b></span><br>Your pay has increased by $0.02. Your bonus pay is now $0.84.</p>\n            ","response":0,"trial_type":"html-button-response","trial_index":132,"time_elapsed":888619,"internal_node_id":"0.0-4.0-1.62","subject_id":"5b9d6deeb5662700015e98dd","study_id":"6197b3f67c2b5cd3b6d9596a","session_id":"619be31bdee16bf5d847f552","condition":"full-information","relevant_dimensions":["antennae","wings"],"bee_group":{"antennae":"A","wings":"2","pattern":"X","legs":"X"},"bonus":0.6000000000000013},{"rt":2579,"stimulus":"bees-with-color/bee-B2SM.svg","response":0,"trial_type":"image-button-response","trial_index":133,"time_elapsed":891200,"internal_node_id":"0.0-4.0-0.63","subject_id":"5b9d6deeb5662700015e98dd","study_id":"6197b3f67c2b5cd3b6d9596a","session_id":"619be31bdee16bf5d847f552","condition":"full-information","relevant_dimensions":["antennae","wings"],"bee_group":{"antennae":"A","wings":"2","pattern":"X","legs":"X"},"action":"harvest","summary":"good-harvest","bonus":0.6000000000000013},{"rt":1542,"stimulus":"\n                    <p><b>Action: <em>harvest</em></b></p>\n                    <p>This is the bee that you just saw.</p>\n                    <img src=\"bees-with-color/bee-B2SM.svg\" width=\"200\">\n                    <p><span class=\"greenText\"><b>Successful harvest!</b></span><br>Your pay has increased by $0.02. Your bonus pay is now $0.86.</p>\n            ","response":0,"trial_type":"html-button-response","trial_index":134,"time_elapsed":892744,"internal_node_id":"0.0-4.0-1.63","subject_id":"5b9d6deeb5662700015e98dd","study_id":"6197b3f67c2b5cd3b6d9596a","session_id":"619be31bdee16bf5d847f552","condition":"full-information","relevant_dimensions":["antennae","wings"],"bee_group":{"antennae":"A","wings":"2","pattern":"X","legs":"X"},"bonus":0.6000000000000013},{"rt":12537,"stimulus":"You have completed the first part of this experiment.<br><br>You will now begin a shorter second part, in which you will receive no feedback.<br>The same rules regarding bonus pay apply.<br><br>Press any key to begin.","response":" ","trial_type":"html-keyboard-response","trial_index":135,"time_elapsed":905283,"internal_node_id":"0.0-5.0","subject_id":"5b9d6deeb5662700015e98dd","study_id":"6197b3f67c2b5cd3b6d9596a","session_id":"619be31bdee16bf5d847f552","condition":"full-information","relevant_dimensions":["antennae","wings"],"bee_group":{"antennae":"A","wings":"2","pattern":"X","legs":"X"},"bonus":0.6000000000000013},{"rt":6014,"stimulus":"bees-with-color/bee-A1SM.svg","response":0,"trial_type":"image-button-response","trial_index":136,"time_elapsed":911300,"internal_node_id":"0.0-6.0-0.0","subject_id":"5b9d6deeb5662700015e98dd","study_id":"6197b3f67c2b5cd3b6d9596a","session_id":"619be31bdee16bf5d847f552","condition":"full-information","relevant_dimensions":["antennae","wings"],"bee_group":{"antennae":"A","wings":"2","pattern":"X","legs":"X"},"bonus":0.6000000000000013},{"rt":1528,"stimulus":"bees-with-color/bee-A2SM.svg","response":0,"trial_type":"image-button-response","trial_index":137,"time_elapsed":912831,"internal_node_id":"0.0-6.0-0.1","subject_id":"5b9d6deeb5662700015e98dd","study_id":"6197b3f67c2b5cd3b6d9596a","session_id":"619be31bdee16bf5d847f552","condition":"full-information","relevant_dimensions":["antennae","wings"],"bee_group":{"antennae":"A","wings":"2","pattern":"X","legs":"X"},"bonus":0.6000000000000013},{"rt":2801,"stimulus":"bees-with-color/bee-A1DM.svg","response":1,"trial_type":"image-button-response","trial_index":138,"time_elapsed":915633,"internal_node_id":"0.0-6.0-0.2","subject_id":"5b9d6deeb5662700015e98dd","study_id":"6197b3f67c2b5cd3b6d9596a","session_id":"619be31bdee16bf5d847f552","condition":"full-information","relevant_dimensions":["antennae","wings"],"bee_group":{"antennae":"A","wings":"2","pattern":"X","legs":"X"},"bonus":0.6000000000000013},{"rt":2849,"stimulus":"bees-with-color/bee-B2SF.svg","response":1,"trial_type":"image-button-response","trial_index":139,"time_elapsed":918484,"internal_node_id":"0.0-6.0-0.3","subject_id":"5b9d6deeb5662700015e98dd","study_id":"6197b3f67c2b5cd3b6d9596a","session_id":"619be31bdee16bf5d847f552","condition":"full-information","relevant_dimensions":["antennae","wings"],"bee_group":{"antennae":"A","wings":"2","pattern":"X","legs":"X"},"bonus":0.6000000000000013},{"rt":1813,"stimulus":"bees-with-color/bee-B1SF.svg","response":0,"trial_type":"image-button-response","trial_index":140,"time_elapsed":920299,"internal_node_id":"0.0-6.0-0.4","subject_id":"5b9d6deeb5662700015e98dd","study_id":"6197b3f67c2b5cd3b6d9596a","session_id":"619be31bdee16bf5d847f552","condition":"full-information","relevant_dimensions":["antennae","wings"],"bee_group":{"antennae":"A","wings":"2","pattern":"X","legs":"X"},"bonus":0.6000000000000013},{"rt":1418,"stimulus":"bees-with-color/bee-A1SF.svg","response":0,"trial_type":"image-button-response","trial_index":141,"time_elapsed":921718,"internal_node_id":"0.0-6.0-0.5","subject_id":"5b9d6deeb5662700015e98dd","study_id":"6197b3f67c2b5cd3b6d9596a","session_id":"619be31bdee16bf5d847f552","condition":"full-information","relevant_dimensions":["antennae","wings"],"bee_group":{"antennae":"A","wings":"2","pattern":"X","legs":"X"},"bonus":0.6000000000000013},{"rt":2122,"stimulus":"bees-with-color/bee-A2DM.svg","response":1,"trial_type":"image-button-response","trial_index":142,"time_elapsed":923843,"internal_node_id":"0.0-6.0-0.6","subject_id":"5b9d6deeb5662700015e98dd","study_id":"6197b3f67c2b5cd3b6d9596a","session_id":"619be31bdee16bf5d847f552","condition":"full-information","relevant_dimensions":["antennae","wings"],"bee_group":{"antennae":"A","wings":"2","pattern":"X","legs":"X"},"bonus":0.6000000000000013},{"rt":1638,"stimulus":"bees-with-color/bee-B2SM.svg","response":1,"trial_type":"image-button-response","trial_index":143,"time_elapsed":925483,"internal_node_id":"0.0-6.0-0.7","subject_id":"5b9d6deeb5662700015e98dd","study_id":"6197b3f67c2b5cd3b6d9596a","session_id":"619be31bdee16bf5d847f552","condition":"full-information","relevant_dimensions":["antennae","wings"],"bee_group":{"antennae":"A","wings":"2","pattern":"X","legs":"X"},"bonus":0.6000000000000013},{"rt":1145,"stimulus":"bees-with-color/bee-B1DF.svg","response":1,"trial_type":"image-button-response","trial_index":144,"time_elapsed":926631,"internal_node_id":"0.0-6.0-0.8","subject_id":"5b9d6deeb5662700015e98dd","study_id":"6197b3f67c2b5cd3b6d9596a","session_id":"619be31bdee16bf5d847f552","condition":"full-information","relevant_dimensions":["antennae","wings"],"bee_group":{"antennae":"A","wings":"2","pattern":"X","legs":"X"},"bonus":0.6000000000000013},{"rt":1355,"stimulus":"bees-with-color/bee-B2DM.svg","response":0,"trial_type":"image-button-response","trial_index":145,"time_elapsed":927988,"internal_node_id":"0.0-6.0-0.9","subject_id":"5b9d6deeb5662700015e98dd","study_id":"6197b3f67c2b5cd3b6d9596a","session_id":"619be31bdee16bf5d847f552","condition":"full-information","relevant_dimensions":["antennae","wings"],"bee_group":{"antennae":"A","wings":"2","pattern":"X","legs":"X"},"bonus":0.6000000000000013},{"rt":1295,"stimulus":"bees-with-color/bee-A1DF.svg","response":0,"trial_type":"image-button-response","trial_index":146,"time_elapsed":929285,"internal_node_id":"0.0-6.0-0.10","subject_id":"5b9d6deeb5662700015e98dd","study_id":"6197b3f67c2b5cd3b6d9596a","session_id":"619be31bdee16bf5d847f552","condition":"full-information","relevant_dimensions":["antennae","wings"],"bee_group":{"antennae":"A","wings":"2","pattern":"X","legs":"X"},"bonus":0.6000000000000013},{"rt":972,"stimulus":"bees-with-color/bee-B1DM.svg","response":0,"trial_type":"image-button-response","trial_index":147,"time_elapsed":930260,"internal_node_id":"0.0-6.0-0.11","subject_id":"5b9d6deeb5662700015e98dd","study_id":"6197b3f67c2b5cd3b6d9596a","session_id":"619be31bdee16bf5d847f552","condition":"full-information","relevant_dimensions":["antennae","wings"],"bee_group":{"antennae":"A","wings":"2","pattern":"X","legs":"X"},"bonus":0.6000000000000013},{"rt":1270,"stimulus":"bees-with-color/bee-A2SF.svg","response":1,"trial_type":"image-button-response","trial_index":148,"time_elapsed":931532,"internal_node_id":"0.0-6.0-0.12","subject_id":"5b9d6deeb5662700015e98dd","study_id":"6197b3f67c2b5cd3b6d9596a","session_id":"619be31bdee16bf5d847f552","condition":"full-information","relevant_dimensions":["antennae","wings"],"bee_group":{"antennae":"A","wings":"2","pattern":"X","legs":"X"},"bonus":0.6000000000000013},{"rt":1085,"stimulus":"bees-with-color/bee-A2DF.svg","response":0,"trial_type":"image-button-response","trial_index":149,"time_elapsed":932619,"internal_node_id":"0.0-6.0-0.13","subject_id":"5b9d6deeb5662700015e98dd","study_id":"6197b3f67c2b5cd3b6d9596a","session_id":"619be31bdee16bf5d847f552","condition":"full-information","relevant_dimensions":["antennae","wings"],"bee_group":{"antennae":"A","wings":"2","pattern":"X","legs":"X"},"bonus":0.6000000000000013},{"rt":1021,"stimulus":"bees-with-color/bee-B2DF.svg","response":0,"trial_type":"image-button-response","trial_index":150,"time_elapsed":933642,"internal_node_id":"0.0-6.0-0.14","subject_id":"5b9d6deeb5662700015e98dd","study_id":"6197b3f67c2b5cd3b6d9596a","session_id":"619be31bdee16bf5d847f552","condition":"full-information","relevant_dimensions":["antennae","wings"],"bee_group":{"antennae":"A","wings":"2","pattern":"X","legs":"X"},"bonus":0.6000000000000013},{"rt":1579,"stimulus":"bees-with-color/bee-B1SM.svg","response":0,"trial_type":"image-button-response","trial_index":151,"time_elapsed":935222,"internal_node_id":"0.0-6.0-0.15","subject_id":"5b9d6deeb5662700015e98dd","study_id":"6197b3f67c2b5cd3b6d9596a","session_id":"619be31bdee16bf5d847f552","condition":"full-information","relevant_dimensions":["antennae","wings"],"bee_group":{"antennae":"A","wings":"2","pattern":"X","legs":"X"},"bonus":0.6000000000000013},{"rt":678,"stimulus":"bees-with-color/bee-A1SF.svg","response":0,"trial_type":"image-button-response","trial_index":152,"time_elapsed":935902,"internal_node_id":"0.0-6.0-0.16","subject_id":"5b9d6deeb5662700015e98dd","study_id":"6197b3f67c2b5cd3b6d9596a","session_id":"619be31bdee16bf5d847f552","condition":"full-information","relevant_dimensions":["antennae","wings"],"bee_group":{"antennae":"A","wings":"2","pattern":"X","legs":"X"},"bonus":0.6000000000000013},{"rt":1256,"stimulus":"bees-with-color/bee-A1DM.svg","response":1,"trial_type":"image-button-response","trial_index":153,"time_elapsed":937160,"internal_node_id":"0.0-6.0-0.17","subject_id":"5b9d6deeb5662700015e98dd","study_id":"6197b3f67c2b5cd3b6d9596a","session_id":"619be31bdee16bf5d847f552","condition":"full-information","relevant_dimensions":["antennae","wings"],"bee_group":{"antennae":"A","wings":"2","pattern":"X","legs":"X"},"bonus":0.6000000000000013},{"rt":1974,"stimulus":"bees-with-color/bee-A2SM.svg","response":0,"trial_type":"image-button-response","trial_index":154,"time_elapsed":939135,"internal_node_id":"0.0-6.0-0.18","subject_id":"5b9d6deeb5662700015e98dd","study_id":"6197b3f67c2b5cd3b6d9596a","session_id":"619be31bdee16bf5d847f552","condition":"full-information","relevant_dimensions":["antennae","wings"],"bee_group":{"antennae":"A","wings":"2","pattern":"X","legs":"X"},"bonus":0.6000000000000013},{"rt":948,"stimulus":"bees-with-color/bee-B1DM.svg","response":0,"trial_type":"image-button-response","trial_index":155,"time_elapsed":940084,"internal_node_id":"0.0-6.0-0.19","subject_id":"5b9d6deeb5662700015e98dd","study_id":"6197b3f67c2b5cd3b6d9596a","session_id":"619be31bdee16bf5d847f552","condition":"full-information","relevant_dimensions":["antennae","wings"],"bee_group":{"antennae":"A","wings":"2","pattern":"X","legs":"X"},"bonus":0.6000000000000013},{"rt":1169,"stimulus":"bees-with-color/bee-A2DF.svg","response":0,"trial_type":"image-button-response","trial_index":156,"time_elapsed":941257,"internal_node_id":"0.0-6.0-0.20","subject_id":"5b9d6deeb5662700015e98dd","study_id":"6197b3f67c2b5cd3b6d9596a","session_id":"619be31bdee16bf5d847f552","condition":"full-information","relevant_dimensions":["antennae","wings"],"bee_group":{"antennae":"A","wings":"2","pattern":"X","legs":"X"},"bonus":0.6000000000000013},{"rt":431,"stimulus":"bees-with-color/bee-A1SM.svg","response":0,"trial_type":"image-button-response","trial_index":157,"time_elapsed":941689,"internal_node_id":"0.0-6.0-0.21","subject_id":"5b9d6deeb5662700015e98dd","study_id":"6197b3f67c2b5cd3b6d9596a","session_id":"619be31bdee16bf5d847f552","condition":"full-information","relevant_dimensions":["antennae","wings"],"bee_group":{"antennae":"A","wings":"2","pattern":"X","legs":"X"},"bonus":0.6000000000000013},{"rt":479,"stimulus":"bees-with-color/bee-B2SF.svg","response":0,"trial_type":"image-button-response","trial_index":158,"time_elapsed":942170,"internal_node_id":"0.0-6.0-0.22","subject_id":"5b9d6deeb5662700015e98dd","study_id":"6197b3f67c2b5cd3b6d9596a","session_id":"619be31bdee16bf5d847f552","condition":"full-information","relevant_dimensions":["antennae","wings"],"bee_group":{"antennae":"A","wings":"2","pattern":"X","legs":"X"},"bonus":0.6000000000000013},{"rt":1343,"stimulus":"bees-with-color/bee-B2DM.svg","response":1,"trial_type":"image-button-response","trial_index":159,"time_elapsed":943516,"internal_node_id":"0.0-6.0-0.23","subject_id":"5b9d6deeb5662700015e98dd","study_id":"6197b3f67c2b5cd3b6d9596a","session_id":"619be31bdee16bf5d847f552","condition":"full-information","relevant_dimensions":["antennae","wings"],"bee_group":{"antennae":"A","wings":"2","pattern":"X","legs":"X"},"bonus":0.6000000000000013},{"rt":1368,"stimulus":"bees-with-color/bee-A1DF.svg","response":0,"trial_type":"image-button-response","trial_index":160,"time_elapsed":944886,"internal_node_id":"0.0-6.0-0.24","subject_id":"5b9d6deeb5662700015e98dd","study_id":"6197b3f67c2b5cd3b6d9596a","session_id":"619be31bdee16bf5d847f552","condition":"full-information","relevant_dimensions":["antennae","wings"],"bee_group":{"antennae":"A","wings":"2