[{"success":true,"trial_type":"fullscreen","trial_index":0,"time_elapsed":3056,"internal_node_id":"0.0-0.0","subject_id":"606781fa7584b511b845d52c","study_id":"6197b3f67c2b5cd3b6d9596a","session_id":"619be786fd5f1cd6c8f8021e","condition":"full-information","relevant_dimensions":["antennae","legs"],"bee_group":{"antennae":"A","wings":"X","pattern":"X","legs":"F"},"bonus":0.8200000000000011},{"success":true,"timeout":false,"failed_images":[],"failed_audio":[],"failed_video":[],"trial_type":"preload","trial_index":1,"time_elapsed":4677,"internal_node_id":"0.0-1.0","subject_id":"606781fa7584b511b845d52c","study_id":"6197b3f67c2b5cd3b6d9596a","session_id":"619be786fd5f1cd6c8f8021e","condition":"full-information","relevant_dimensions":["antennae","legs"],"bee_group":{"antennae":"A","wings":"X","pattern":"X","legs":"F"},"bonus":0.8200000000000011},{"rt":3262.9000000003725,"stimulus":"Welcome! Press any key to begin.","response":" ","trial_type":"html-keyboard-response","trial_index":2,"time_elapsed":7941,"internal_node_id":"0.0-2.0","subject_id":"606781fa7584b511b845d52c","study_id":"6197b3f67c2b5cd3b6d9596a","session_id":"619be786fd5f1cd6c8f8021e","condition":"full-information","relevant_dimensions":["antennae","legs"],"bee_group":{"antennae":"A","wings":"X","pattern":"X","legs":"F"},"bonus":0.8200000000000011},{"view_history":[{"page_index":0,"viewing_time":2782.5999999996275},{"page_index":1,"viewing_time":6777.9000000003725},{"page_index":2,"viewing_time":7480.0999999996275},{"page_index":3,"viewing_time":10692},{"page_index":4,"viewing_time":5325.9000000003725},{"page_index":5,"viewing_time":4790.0999999996275},{"page_index":6,"viewing_time":7188},{"page_index":7,"viewing_time":3906},{"page_index":8,"viewing_time":4996.10000000149},{"page_index":9,"viewing_time":3519.89999999851},{"page_index":10,"viewing_time":17906},{"page_index":11,"viewing_time":7543.800000000745},{"page_index":12,"viewing_time":9776.199999999255},{"page_index":13,"viewing_time":1982.2000000011176},{"page_index":14,"viewing_time":10217.699999999255}],"rt":104884.80000000075,"trial_type":"instructions","trial_index":3,"time_elapsed":112828,"internal_node_id":"0.0-3.0-0.0","subject_id":"606781fa7584b511b845d52c","study_id":"6197b3f67c2b5cd3b6d9596a","session_id":"619be786fd5f1cd6c8f8021e","condition":"full-information","relevant_dimensions":["antennae","legs"],"bee_group":{"antennae":"A","wings":"X","pattern":"X","legs":"F"},"bonus":0.8200000000000011},{"rt":9455.300000000745,"response":{"Q0":["Stripes or spots on body","Single or double wings","Antennae or no antennae"]},"question_order":[0],"trial_type":"survey-multi-select","trial_index":4,"time_elapsed":122289,"internal_node_id":"0.0-3.0-1.0","subject_id":"606781fa7584b511b845d52c","study_id":"6197b3f67c2b5cd3b6d9596a","session_id":"619be786fd5f1cd6c8f8021e","condition":"full-information","relevant_dimensions":["antennae","legs"],"bee_group":{"antennae":"A","wings":"X","pattern":"X","legs":"F"},"correct":false,"bonus":0.8200000000000011},{"rt":15424,"response":{"Q1":"No.","Q2":"Based on the four features of the bee.","Q3":"You learn if it was friendly or dangerous, but do not alter your bonus."},"question_order":[0,1,2],"trial_type":"survey-multi-choice","trial_index":5,"time_elapsed":137714,"internal_node_id":"0.0-3.0-2.0","subject_id":"606781fa7584b511b845d52c","study_id":"6197b3f67c2b5cd3b6d9596a","session_id":"619be786fd5f1cd6c8f8021e","condition":"full-information","relevant_dimensions":["antennae","legs"],"bee_group":{"antennae":"A","wings":"X","pattern":"X","legs":"F"},"correct":true,"bonus":0.8200000000000011},{"rt":3060.5,"stimulus":"<p>You did not answer all comprehension questions correctly.<br>Press <b>continue</b> to review the instructions again.</p>","response":0,"trial_type":"html-button-response","trial_index":6,"time_elapsed":140776,"internal_node_id":"0.0-3.0-3.0","subject_id":"606781fa7584b511b845d52c","study_id":"6197b3f67c2b5cd3b6d9596a","session_id":"619be786fd5f1cd6c8f8021e","condition":"full-information","relevant_dimensions":["antennae","legs"],"bee_group":{"antennae":"A","wings":"X","pattern":"X","legs":"F"},"bonus":0.8200000000000011},{"view_history":[{"page_index":0,"viewing_time":1434.5999999996275},{"page_index":1,"viewing_time":5382.0999999996275},{"page_index":2,"viewing_time":6667.9000000003725},{"page_index":3,"viewing_time":9058.099999999627},{"page_index":4,"viewing_time":6928.200000001118},{"page_index":5,"viewing_time":6247.799999998882},{"page_index":6,"viewing_time":5270.0999999996275},{"page_index":7,"viewing_time":1168.6000000014901},{"page_index":8,"viewing_time":3763.2999999988824},{"page_index":7,"viewing_time":1269.9000000003725},{"page_index":8,"viewing_time":844.1999999992549},{"page_index":9,"viewing_time":1451.9000000003725},{"page_index":10,"viewing_time":924.0999999996275},{"page_index":11,"viewing_time":1151.9000000003725},{"page_index":12,"viewing_time":962},{"page_index":13,"viewing_time":803.9000000003725},{"page_index":14,"viewing_time":710.4000000003725}],"rt":54039.199999999255,"trial_type":"instructions","trial_index":7,"time_elapsed":194816,"internal_node_id":"0.0-3.0-4.0-0.0","subject_id":"606781fa7584b511b845d52c","study_id":"6197b3f67c2b5cd3b6d9596a","session_id":"619be786fd5f1cd6c8f8021e","condition":"full-information","relevant_dimensions":["antennae","legs"],"bee_group":{"antennae":"A","wings":"X","pattern":"X","legs":"F"},"bonus":0.8200000000000011},{"rt":6822.5999999996275,"response":{"Q0":["Two or six legs","Stripes or spots on body","Single or double wings","Antennae or no antennae"]},"question_order":[0],"trial_type":"survey-multi-select","trial_index":8,"time_elapsed":201642,"internal_node_id":"0.0-3.0-4.0-1.0","subject_id":"606781fa7584b511b845d52c","study_id":"6197b3f67c2b5cd3b6d9596a","session_id":"619be786fd5f1cd6c8f8021e","condition":"full-information","relevant_dimensions":["antennae","legs"],"bee_group":{"antennae":"A","wings":"X","pattern":"X","legs":"F"},"correct":true,"bonus":0.8200000000000011},{"rt":11786.299999998882,"response":{"Q1":"No.","Q2":"Based on the four features of the bee.","Q3":"You learn if it was friendly or dangerous, but do not alter your bonus."},"question_order":[0,1,2],"trial_type":"survey-multi-choice","trial_index":9,"time_elapsed":213430,"internal_node_id":"0.0-3.0-4.0-2.0","subject_id":"606781fa7584b511b845d52c","study_id":"6197b3f67c2b5cd3b6d9596a","session_id":"619be786fd5f1cd6c8f8021e","condition":"full-information","relevant_dimensions":["antennae","legs"],"bee_group":{"antennae":"A","wings":"X","pattern":"X","legs":"F"},"correct":true,"bonus":0.8200000000000011},{"rt":3091.4000000003725,"stimulus":"<p>Congrats, you got everything right<br>When you're ready, click the button below to continue to the experiment.</p>","response":0,"trial_type":"html-button-response","trial_index":10,"time_elapsed":216522,"internal_node_id":"0.0-3.0-4.0-3.0","subject_id":"606781fa7584b511b845d52c","study_id":"6197b3f67c2b5cd3b6d9596a","session_id":"619be786fd5f1cd6c8f8021e","condition":"full-information","relevant_dimensions":["antennae","legs"],"bee_group":{"antennae":"A","wings":"X","pattern":"X","legs":"F"},"bonus":0.8200000000000011},{"rt":7849.700000001118,"stimulus":"bees-with-color/bee-A2SM.svg","response":1,"trial_type":"image-button-response","trial_index":11,"time_elapsed":224374,"internal_node_id":"0.0-4.0-0.0","subject_id":"606781fa7584b511b845d52c","study_id":"6197b3f67c2b5cd3b6d9596a","session_id":"619be786fd5f1cd6c8f8021e","condition":"full-information","relevant_dimensions":["antennae","legs"],"bee_group":{"antennae":"A","wings":"X","pattern":"X","legs":"F"},"action":"avoid","summary":"bad-avoid","bonus":0.8200000000000011},{"rt":12377.699999999255,"stimulus":"\n                    <p><b>Action: <em>avoid</em></b></p>\n                    <p>This is the bee that you just saw.</p>\n                    <img src=\"bees-with-color/bee-A2SM.svg\" width=\"200\">\n                    <p><span class=\"redText\">Bad choice,</span> the bee was friendly.<br>Your bonus pay is unchanged, and remains at $0.54.</p>\n            ","response":0,"trial_type":"html-button-response","trial_index":12,"time_elapsed":236754,"internal_node_id":"0.0-4.0-1.0","subject_id":"606781fa7584b511b845d52c","study_id":"6197b3f67c2b5cd3b6d9596a","session_id":"619be786fd5f1cd6c8f8021e","condition":"full-information","relevant_dimensions":["antennae","legs"],"bee_group":{"antennae":"A","wings":"X","pattern":"X","legs":"F"},"bonus":0.8200000000000011},{"rt":3968.5,"stimulus":"bees-with-color/bee-A2DM.svg","response":1,"trial_type":"image-button-response","trial_index":13,"time_elapsed":240724,"internal_node_id":"0.0-4.0-0.1","subject_id":"606781fa7584b511b845d52c","study_id":"6197b3f67c2b5cd3b6d9596a","session_id":"619be786fd5f1cd6c8f8021e","condition":"full-information","relevant_dimensions":["antennae","legs"],"bee_group":{"antennae":"A","wings":"X","pattern":"X","legs":"F"},"action":"avoid","summary":"bad-avoid","bonus":0.8200000000000011},{"rt":6600.699999999255,"stimulus":"\n                    <p><b>Action: <em>avoid</em></b></p>\n                    <p>This is the bee that you just saw.</p>\n                    <img src=\"bees-with-color/bee-A2DM.svg\" width=\"200\">\n                    <p><span class=\"redText\">Bad choice,</span> the bee was friendly.<br>Your bonus pay is unchanged, and remains at $0.54.</p>\n            ","response":0,"trial_type":"html-button-response","trial_index":14,"time_elapsed":247326,"internal_node_id":"0.0-4.0-1.1","subject_id":"606781fa7584b511b845d52c","study_id":"6197b3f67c2b5cd3b6d9596a","session_id":"619be786fd5f1cd6c8f8021e","condition":"full-information","relevant_dimensions":["antennae","legs"],"bee_group":{"antennae":"A","wings":"X","pattern":"X","legs":"F"},"bonus":0.8200000000000011},{"rt":4646.5,"stimulus":"bees-with-color/bee-B1DM.svg","response":1,"trial_type":"image-button-response","trial_index":15,"time_elapsed":251974,"internal_node_id":"0.0-4.0-0.2","subject_id":"606781fa7584b511b845d52c","study_id":"6197b3f67c2b5cd3b6d9596a","session_id":"619be786fd5f1cd6c8f8021e","condition":"full-information","relevant_dimensions":["antennae","legs"],"bee_group":{"antennae":"A","wings":"X","pattern":"X","legs":"F"},"action":"avoid","summary":"bad-avoid","bonus":0.8200000000000011},{"rt":7984.799999998882,"stimulus":"\n                    <p><b>Action: <em>avoid</em></b></p>\n                    <p>This is the bee that you just saw.</p>\n                    <img src=\"bees-with-color/bee-B1DM.svg\" width=\"200\">\n                    <p><span class=\"redText\">Bad choice,</span> the bee was friendly.<br>Your bonus pay is unchanged, and remains at $0.54.</p>\n            ","response":0,"trial_type":"html-button-response","trial_index":16,"time_elapsed":259960,"internal_node_id":"0.0-4.0-1.2","subject_id":"606781fa7584b511b845d52c","study_id":"6197b3f67c2b5cd3b6d9596a","session_id":"619be786fd5f1cd6c8f8021e","condition":"full-information","relevant_dimensions":["antennae","legs"],"bee_group":{"antennae":"A","wings":"X","pattern":"X","legs":"F"},"bonus":0.8200000000000011},{"rt":4368.800000000745,"stimulus":"bees-with-color/bee-B2SM.svg","response":1,"trial_type":"image-button-response","trial_index":17,"time_elapsed":264330,"internal_node_id":"0.0-4.0-0.3","subject_id":"606781fa7584b511b845d52c","study_id":"6197b3f67c2b5cd3b6d9596a","session_id":"619be786fd5f1cd6c8f8021e","condition":"full-information","relevant_dimensions":["antennae","legs"],"bee_group":{"antennae":"A","wings":"X","pattern":"X","legs":"F"},"action":"avoid","summary":"bad-avoid","bonus":0.8200000000000011},{"rt":4388.700000001118,"stimulus":"\n                    <p><b>Action: <em>avoid</em></b></p>\n                    <p>This is the bee that you just saw.</p>\n                    <img src=\"bees-with-color/bee-B2SM.svg\" width=\"200\">\n                    <p><span class=\"redText\">Bad choice,</span> the bee was friendly.<br>Your bonus pay is unchanged, and remains at $0.54.</p>\n            ","response":0,"trial_type":"html-button-response","trial_index":18,"time_elapsed":268720,"internal_node_id":"0.0-4.0-1.3","subject_id":"606781fa7584b511b845d52c","study_id":"6197b3f67c2b5cd3b6d9596a","session_id":"619be786fd5f1cd6c8f8021e","condition":"full-information","relevant_dimensions":["antennae","legs"],"bee_group":{"antennae":"A","wings":"X","pattern":"X","legs":"F"},"bonus":0.8200000000000011},{"rt":3420.7999999988824,"stimulus":"bees-with-color/bee-B1SF.svg","response":1,"trial_type":"image-button-response","trial_index":19,"time_elapsed":272142,"internal_node_id":"0.0-4.0-0.4","subject_id":"606781fa7584b511b845d52c","study_id":"6197b3f67c2b5cd3b6d9596a","session_id":"619be786fd5f1cd6c8f8021e","condition":"full-information","relevant_dimensions":["antennae","legs"],"bee_group":{"antennae":"A","wings":"X","pattern":"X","legs":"F"},"action":"avoid","summary":"bad-avoid","bonus":0.8200000000000011},{"rt":3210.699999999255,"stimulus":"\n                    <p><b>Action: <em>avoid</em></b></p>\n                    <p>This is the bee that you just saw.</p>\n                    <img src=\"bees-with-color/bee-B1SF.svg\" width=\"200\">\n                    <p><span class=\"redText\">Bad choice,</span> the bee was friendly.<br>Your bonus pay is unchanged, and remains at $0.54.</p>\n            ","response":0,"trial_type":"html-button-response","trial_index":20,"time_elapsed":275354,"internal_node_id":"0.0-4.0-1.4","subject_id":"606781fa7584b511b845d52c","study_id":"6197b3f67c2b5cd3b6d9596a","session_id":"619be786fd5f1cd6c8f8021e","condition":"full-information","relevant_dimensions":["antennae","legs"],"bee_group":{"antennae":"A","wings":"X","pattern":"X","legs":"F"},"bonus":0.8200000000000011},{"rt":1686.699999999255,"stimulus":"bees-with-color/bee-A2SF.svg","response":1,"trial_type":"image-button-response","trial_index":21,"time_elapsed":277042,"internal_node_id":"0.0-4.0-0.5","subject_id":"606781fa7584b511b845d52c","study_id":"6197b3f67c2b5cd3b6d9596a","session_id":"619be786fd5f1cd6c8f8021e","condition":"full-information","relevant_dimensions":["antennae","legs"],"bee_group":{"antennae":"A","wings":"X","pattern":"X","legs":"F"},"action":"avoid","summary":"good-avoid","bonus":0.8200000000000011},{"rt":8416.800000000745,"stimulus":"\n                    <p><b>Action: <em>avoid</em></b></p>\n                    <p>This is the bee that you just saw.</p>\n                    <img src=\"bees-with-color/bee-A2SF.svg\" width=\"200\">\n                    <p><span class=\"greenText\">Good choice!</span>  This bee would have stung you.<br>Your bonus pay is unchanged, and remains at $0.54.</p>\n            ","response":0,"trial_type":"html-button-response","trial_index":22,"time_elapsed":285460,"internal_node_id":"0.0-4.0-1.5","subject_id":"606781fa7584b511b845d52c","study_id":"6197b3f67c2b5cd3b6d9596a","session_id":"619be786fd5f1cd6c8f8021e","condition":"full-information","relevant_dimensions":["antennae","legs"],"bee_group":{"antennae":"A","wings":"X","pattern":"X","legs":"F"},"bonus":0.8200000000000011},{"rt":3012.0999999996275,"stimulus":"bees-with-color/bee-B2DF.svg","response":1,"trial_type":"image-button-response","trial_index":23,"time_elapsed":288474,"internal_node_id":"0.0-4.0-0.6","subject_id":"606781fa7584b511b845d52c","study_id":"6197b3f67c2b5cd3b6d9596a","session_id":"619be786fd5f1cd6c8f8021e","condition":"full-information","relevant_dimensions":["antennae","legs"],"bee_group":{"antennae":"A","wings":"X","pattern":"X","legs":"F"},"action":"avoid","summary":"bad-avoid","bonus":0.8200000000000011},{"rt":3305.0999999996275,"stimulus":"\n                    <p><b>Action: <em>avoid</em></b></p>\n                    <p>This is the bee that you just saw.</p>\n                    <img src=\"bees-with-color/bee-B2DF.svg\" width=\"200\">\n                    <p><span class=\"redText\">Bad choice,</span> the bee was friendly.<br>Your bonus pay is unchanged, and remains at $0.54.</p>\n            ","response":0,"trial_type":"html-button-response","trial_index":24,"time_elapsed":291780,"internal_node_id":"0.0-4.0-1.6","subject_id":"606781fa7584b511b845d52c","study_id":"6197b3f67c2b5cd3b6d9596a","session_id":"619be786fd5f1cd6c8f8021e","condition":"full-information","relevant_dimensions":["antennae","legs"],"bee_group":{"antennae":"A","wings":"X","pattern":"X","legs":"F"},"bonus":0.8200000000000011},{"rt":3154.199999999255,"stimulus":"bees-with-color/bee-A1DF.svg","response":0,"trial_type":"image-button-response","trial_index":25,"time_elapsed":294936,"internal_node_id":"0.0-4.0-0.7","subject_id":"606781fa7584b511b845d52c","study_id":"6197b3f67c2b5cd3b6d9596a","session_id":"619be786fd5f1cd6c8f8021e","condition":"full-information","relevant_dimensions":["antennae","legs"],"bee_group":{"antennae":"A","wings":"X","pattern":"X","legs":"F"},"action":"harvest","summary":"bad-harvest","bonus":0.8200000000000011},{"rt":7936.699999999255,"stimulus":"\n                    <p><b>Action: <em>harvest</em></b></p>\n                    <p>This is the bee that you just saw.</p>\n                    <img src=\"bees-with-color/bee-A1DF.svg\" width=\"200\">\n                    <p><span class=\"redText\">Bad choice, the bee was angry.</span><br><b>You have been stung!</b><br>Your pay has been decreased by $0.10. Your bonus pay is now $0.44.</p>\n            ","response":0,"trial_type":"html-button-response","trial_index":26,"time_elapsed":302875,"internal_node_id":"0.0-4.0-1.7","subject_id":"606781fa7584b511b845d52c","study_id":"6197b3f67c2b5cd3b6d9596a","session_id":"619be786fd5f1cd6c8f8021e","condition":"full-information","relevant_dimensions":["antennae","legs"],"bee_group":{"antennae":"A","wings":"X","pattern":"X","legs":"F"},"bonus":0.8200000000000011},{"rt":4298.0999999996275,"stimulus":"bees-with-color/bee-B1DF.svg","response":1,"trial_type":"image-button-response","trial_index":27,"time_elapsed":307175,"internal_node_id":"0.0-4.0-0.8","subject_id":"606781fa7584b511b845d52c","study_id":"6197b3f67c2b5cd3b6d9596a","session_id":"619be786fd5f1cd6c8f8021e","condition":"full-information","relevant_dimensions":["antennae","legs"],"bee_group":{"antennae":"A","wings":"X","pattern":"X","legs":"F"},"action":"avoid","summary":"bad-avoid","bonus":0.8200000000000011},{"rt":4210.5,"stimulus":"\n                    <p><b>Action: <em>avoid</em></b></p>\n                    <p>This is the bee that you just saw.</p>\n                    <img src=\"bees-with-color/bee-B1DF.svg\" width=\"200\">\n                    <p><span class=\"redText\">Bad choice,</span> the bee was friendly.<br>Your bonus pay is unchanged, and remains at $0.44.</p>\n            ","response":0,"trial_type":"html-button-response","trial_index":28,"time_elapsed":311386,"internal_node_id":"0.0-4.0-1.8","subject_id":"606781fa7584b511b845d52c","study_id":"6197b3f67c2b5cd3b6d9596a","session_id":"619be786fd5f1cd6c8f8021e","condition":"full-information","relevant_dimensions":["antennae","legs"],"bee_group":{"antennae":"A","wings":"X","pattern":"X","legs":"F"},"bonus":0.8200000000000011},{"rt":3754.5,"stimulus":"bees-with-color/bee-A1SM.svg","response":1,"trial_type":"image-button-response","trial_index":29,"time_elapsed":315143,"internal_node_id":"0.0-4.0-0.9","subject_id":"606781fa7584b511b845d52c","study_id":"6197b3f67c2b5cd3b6d9596a","session_id":"619be786fd5f1cd6c8f8021e","condition":"full-information","relevant_dimensions":["antennae","legs"],"bee_group":{"antennae":"A","wings":"X","pattern":"X","legs":"F"},"action":"avoid","summary":"bad-avoid","bonus":0.8200000000000011},{"rt":3832.5,"stimulus":"\n                    <p><b>Action: <em>avoid</em></b></p>\n                    <p>This is the bee that you just saw.</p>\n                    <img src=\"bees-with-color/bee-A1SM.svg\" width=\"200\">\n                    <p><span class=\"redText\">Bad choice,</span> the bee was friendly.<br>Your bonus pay is unchanged, and remains at $0.44.</p>\n            ","response":0,"trial_type":"html-button-response","trial_index":30,"time_elapsed":318976,"internal_node_id":"0.0-4.0-1.9","subject_id":"606781fa7584b511b845d52c","study_id":"6197b3f67c2b5cd3b6d9596a","session_id":"619be786fd5f1cd6c8f8021e","condition":"full-information","relevant_dimensions":["antennae","legs"],"bee_group":{"antennae":"A","wings":"X","pattern":"X","legs":"F"},"bonus":0.8200000000000011},{"rt":1970.5999999996275,"stimulus":"bees-with-color/bee-A1DM.svg","response":1,"trial_type":"image-button-response","trial_index":31,"time_elapsed":320949,"internal_node_id":"0.0-4.0-0.10","subject_id":"606781fa7584b511b845d52c","study_id":"6197b3f67c2b5cd3b6d9596a","session_id":"619be786fd5f1cd6c8f8021e","condition":"full-information","relevant_dimensions":["antennae","legs"],"bee_group":{"antennae":"A","wings":"X","pattern":"X","legs":"F"},"action":"avoid","summary":"bad-avoid","bonus":0.8200000000000011},{"rt":5276.4000000003725,"stimulus":"\n                    <p><b>Action: <em>avoid</em></b></p>\n                    <p>This is the bee that you just saw.</p>\n                    <img src=\"bees-with-color/bee-A1DM.svg\" width=\"200\">\n                    <p><span class=\"redText\">Bad choice,</span> the bee was friendly.<br>Your bonus pay is unchanged, and remains at $0.44.</p>\n            ","response":0,"trial_type":"html-button-response","trial_index":32,"time_elapsed":326226,"internal_node_id":"0.0-4.0-1.10","subject_id":"606781fa7584b511b845d52c","study_id":"6197b3f67c2b5cd3b6d9596a","session_id":"619be786fd5f1cd6c8f8021e","condition":"full-information","relevant_dimensions":["antennae","legs"],"bee_group":{"antennae":"A","wings":"X","pattern":"X","legs":"F"},"bonus":0.8200000000000011},{"rt":2564.4000000003725,"stimulus":"bees-with-color/bee-B1SM.svg","response":0,"trial_type":"image-button-response","trial_index":33,"time_elapsed":328792,"internal_node_id":"0.0-4.0-0.11","subject_id":"606781fa7584b511b845d52c","study_id":"6197b3f67c2b5cd3b6d9596a","session_id":"619be786fd5f1cd6c8f8021e","condition":"full-information","relevant_dimensions":["antennae","legs"],"bee_group":{"antennae":"A","wings":"X","pattern":"X","legs":"F"},"action":"harvest","summary":"good-harvest","bonus":0.8200000000000011},{"rt":1585,"stimulus":"\n                    <p><b>Action: <em>harvest</em></b></p>\n                    <p>This is the bee that you just saw.</p>\n                    <img src=\"bees-with-color/bee-B1SM.svg\" width=\"200\">\n                    <p><span class=\"greenText\"><b>Successful harvest!</b></span><br>Your pay has increased by $0.02. Your bonus pay is now $0.46.</p>\n            ","response":0,"trial_type":"html-button-response","trial_index":34,"time_elapsed":330379,"internal_node_id":"0.0-4.0-1.11","subject_id":"606781fa7584b511b845d52c","study_id":"6197b3f67c2b5cd3b6d9596a","session_id":"619be786fd5f1cd6c8f8021e","condition":"full-information","relevant_dimensions":["antennae","legs"],"bee_group":{"antennae":"A","wings":"X","pattern":"X","legs":"F"},"bonus":0.8200000000000011},{"rt":2364.39999999851,"stimulus":"bees-with-color/bee-B2DM.svg","response":0,"trial_type":"image-button-response","trial_index":35,"time_elapsed":332745,"internal_node_id":"0.0-4.0-0.12","subject_id":"606781fa7584b511b845d52c","study_id":"6197b3f67c2b5cd3b6d9596a","session_id":"619be786fd5f1cd6c8f8021e","condition":"full-information","relevant_dimensions":["antennae","legs"],"bee_group":{"antennae":"A","wings":"X","pattern":"X","legs":"F"},"action":"harvest","summary":"good-harvest","bonus":0.8200000000000011},{"rt":1356.5,"stimulus":"\n                    <p><b>Action: <em>harvest</em></b></p>\n                    <p>This is the bee that you just saw.</p>\n                    <img src=\"bees-with-color/bee-B2DM.svg\" width=\"200\">\n                    <p><span class=\"greenText\"><b>Successful harvest!</b></span><br>Your pay has increased by $0.02. Your bonus pay is now $0.48.</p>\n            ","response":0,"trial_type":"html-button-response","trial_index":36,"time_elapsed":334102,"internal_node_id":"0.0-4.0-1.12","subject_id":"606781fa7584b511b845d52c","study_id":"6197b3f67c2b5cd3b6d9596a","session_id":"619be786fd5f1cd6c8f8021e","condition":"full-information","relevant_dimensions":["antennae","legs"],"bee_group":{"antennae":"A","wings":"X","pattern":"X","legs":"F"},"bonus":0.8200000000000011},{"rt":3801,"stimulus":"bees-with-color/bee-A1SF.svg","response":0,"trial_type":"image-button-response","trial_index":37,"time_elapsed":337904,"internal_node_id":"0.0-4.0-0.13","subject_id":"606781fa7584b511b845d52c","study_id":"6197b3f67c2b5cd3b6d9596a","session_id":"619be786fd5f1cd6c8f8021e","condition":"full-information","relevant_dimensions":["antennae","legs"],"bee_group":{"antennae":"A","wings":"X","pattern":"X","legs":"F"},"action":"harvest","summary":"bad-harvest","bonus":0.8200000000000011},{"rt":6509,"stimulus":"\n                    <p><b>Action: <em>harvest</em></b></p>\n                    <p>This is the bee that you just saw.</p>\n                    <img src=\"bees-with-color/bee-A1SF.svg\" width=\"200\">\n                    <p><span class=\"redText\">Bad choice, the bee was angry.</span><br><b>You have been stung!</b><br>Your pay has been decreased by $0.10. Your bonus pay is now $0.38.</p>\n            ","response":0,"trial_type":"html-button-response","trial_index":38,"time_elapsed":344414,"internal_node_id":"0.0-4.0-1.13","subject_id":"606781fa7584b511b845d52c","study_id":"6197b3f67c2b5cd3b6d9596a","session_id":"619be786fd5f1cd6c8f8021e","condition":"full-information","relevant_dimensions":["antennae","legs"],"bee_group":{"antennae":"A","wings":"X","pattern":"X","legs":"F"},"bonus":0.8200000000000011},{"rt":1378.699999999255,"stimulus":"bees-with-color/bee-B2SF.svg","response":0,"trial_type":"image-button-response","trial_index":39,"time_elapsed":345794,"internal_node_id":"0.0-4.0-0.14","subject_id":"606781fa7584b511b845d52c","study_id":"6197b3f67c2b5cd3b6d9596a","session_id":"619be786fd5f1cd6c8f8021e","condition":"full-information","relevant_dimensions":["antennae","legs"],"bee_group":{"antennae":"A","wings":"X","pattern":"X","legs":"F"},"action":"harvest","summary":"good-harvest","bonus":0.8200000000000011},{"rt":821,"stimulus":"\n                    <p><b>Action: <em>harvest</em></b></p>\n                    <p>This is the bee that you just saw.</p>\n                    <img src=\"bees-with-color/bee-B2SF.svg\" width=\"200\">\n                    <p><span class=\"greenText\"><b>Successful harvest!</b></span><br>Your pay has increased by $0.02. Your bonus pay is now $0.40.</p>\n            ","response":0,"trial_type":"html-button-response","trial_index":40,"time_elapsed":346616,"internal_node_id":"0.0-4.0-1.14","subject_id":"606781fa7584b511b845d52c","study_id":"6197b3f67c2b5cd3b6d9596a","session_id":"619be786fd5f1cd6c8f8021e","condition":"full-information","relevant_dimensions":["antennae","legs"],"bee_group":{"antennae":"A","wings":"X","pattern":"X","legs":"F"},"bonus":0.8200000000000011},{"rt":3787,"stimulus":"bees-with-color/bee-A2DF.svg","response":0,"trial_type":"image-button-response","trial_index":41,"time_elapsed":350404,"internal_node_id":"0.0-4.0-0.15","subject_id":"606781fa7584b511b845d52c","study_id":"6197b3f67c2b5cd3b6d9596a","session_id":"619be786fd5f1cd6c8f8021e","condition":"full-information","relevant_dimensions":["antennae","legs"],"bee_group":{"antennae":"A","wings":"X","pattern":"X","legs":"F"},"action":"harvest","summary":"bad-harvest","bonus":0.8200000000000011},{"rt":77225,"stimulus":"\n                    <p><b>Action: <em>harvest</em></b></p>\n                    <p>This is the bee that you just saw.</p>\n                    <img src=\"bees-with-color/bee-A2DF.svg\" width=\"200\">\n                    <p><span class=\"redText\">Bad choice, the bee was angry.</span><br><b>You have been stung!</b><br>Your pay has been decreased by $0.10. Your bonus pay is now $0.30.</p>\n            ","response":0,"trial_type":"html-button-response","trial_index":42,"time_elapsed":427630,"internal_node_id":"0.0-4.0-1.15","subject_id":"606781fa7584b511b845d52c","study_id":"6197b3f67c2b5cd3b6d9596a","session_id":"619be786fd5f1cd6c8f8021e","condition":"full-information","relevant_dimensions":["antennae","legs"],"bee_group":{"antennae":"A","wings":"X","pattern":"X","legs":"F"},"bonus":0.8200000000000011},{"rt":3318.89999999851,"stimulus":"bees-with-color/bee-A2SM.svg","response":1,"trial_type":"image-button-response","trial_index":43,"time_elapsed":430950,"internal_node_id":"0.0-4.0-0.16","subject_id":"606781fa7584b511b845d52c","study_id":"6197b3f67c2b5cd3b6d9596a","session_id":"619be786fd5f1cd6c8f8021e","condition":"full-information","relevant_dimensions":["antennae","legs"],"bee_group":{"antennae":"A","wings":"X","pattern":"X","legs":"F"},"action":"avoid","summary":"bad-avoid","bonus":0.8200000000000011},{"rt":1246.7000000011176,"stimulus":"\n                    <p><b>Action: <em>avoid</em></b></p>\n                    <p>This is the bee that you just saw.</p>\n                    <img src=\"bees-with-color/bee-A2SM.svg\" width=\"200\">\n                    <p><span class=\"redText\">Bad choice,</span> the bee was friendly.<br>Your bonus pay is unchanged, and remains at $0.30.</p>\n            ","response":0,"trial_type":"html-button-response","trial_index":44,"time_elapsed":432198,"internal_node_id":"0.0-4.0-1.16","subject_id":"606781fa7584b511b845d52c","study_id":"6197b3f67c2b5cd3b6d9596a","session_id":"619be786fd5f1cd6c8f8021e","condition":"full-information","relevant_dimensions":["antennae","legs"],"bee_group":{"antennae":"A","wings":"X","pattern":"X","legs":"F"},"bonus":0.8200000000000011},{"rt":2293.2999999988824,"stimulus":"bees-with-color/bee-B2DM.svg","response":0,"trial_type":"image-button-response","trial_index":45,"time_elapsed":434492,"internal_node_id":"0.0-4.0-0.17","subject_id":"606781fa7584b511b845d52c","study_id":"6197b3f67c2b5cd3b6d9596a","session_id":"619be786fd5f1cd6c8f8021e","condition":"full-information","relevant_dimensions":["antennae","legs"],"bee_group":{"antennae":"A","wings":"X","pattern":"X","legs":"F"},"action":"harvest","summary":"good-harvest","bonus":0.8200000000000011},{"rt":828.7999999988824,"stimulus":"\n                    <p><b>Action: <em>harvest</em></b></p>\n                    <p>This is the bee that you just saw.</p>\n                    <img src=\"bees-with-color/bee-B2DM.svg\" width=\"200\">\n                    <p><span class=\"greenText\"><b>Successful harvest!</b></span><br>Your pay has increased by $0.02. Your bonus pay is now $0.32.</p>\n            ","response":0,"trial_type":"html-button-response","trial_index":46,"time_elapsed":435322,"internal_node_id":"0.0-4.0-1.17","subject_id":"606781fa7584b511b845d52c","study_id":"6197b3f67c2b5cd3b6d9596a","session_id":"619be786fd5f1cd6c8f8021e","condition":"full-information","relevant_dimensions":["antennae","legs"],"bee_group":{"antennae":"A","wings":"X","pattern":"X","legs":"F"},"bonus":0.8200000000000011},{"rt":3351.0999999996275,"stimulus":"bees-with-color/bee-A1DM.svg","response":0,"trial_type":"image-button-response","trial_index":47,"time_elapsed":438674,"internal_node_id":"0.0-4.0-0.18","subject_id":"606781fa7584b511b845d52c","study_id":"6197b3f67c2b5cd3b6d9596a","session_id":"619be786fd5f1cd6c8f8021e","condition":"full-information","relevant_dimensions":["antennae","legs"],"bee_group":{"antennae":"A","wings":"X","pattern":"X","legs":"F"},"action":"harvest","summary":"good-harvest","bonus":0.8200000000000011},{"rt":708.9000000003725,"stimulus":"\n                    <p><b>Action: <em>harvest</em></b></p>\n                    <p>This is the bee that you just saw.</p>\n                    <img src=\"bees-with-color/bee-A1DM.svg\" width=\"200\">\n                    <p><span class=\"greenText\"><b>Successful harvest!</b></span><br>Your pay has increased by $0.02. Your bonus pay is now $0.34.</p>\n            ","response":0,"trial_type":"html-button-response","trial_index":48,"time_elapsed":439384,"internal_node_id":"0.0-4.0-1.18","subject_id":"606781fa7584b511b845d52c","study_id":"6197b3f67c2b5cd3b6d9596a","session_id":"619be786fd5f1cd6c8f8021e","condition":"full-information","relevant_dimensions":["antennae","legs"],"bee_group":{"antennae":"A","wings":"X","pattern":"X","legs":"F"},"bonus":0.8200000000000011},{"rt":3082.7999999988824,"stimulus":"bees-with-color/bee-B2SF.svg","response":0,"trial_type":"image-button-response","trial_index":49,"time_elapsed":442468,"internal_node_id":"0.0-4.0-0.19","subject_id":"606781fa7584b511b845d52c","study_id":"6197b3f67c2b5cd3b6d9596a","session_id":"619be786fd5f1cd6c8f8021e","condition":"full-information","relevant_dimensions":["antennae","legs"],"bee_group":{"antennae":"A","wings":"X","pattern":"X","legs":"F"},"action":"harvest","summary":"good-harvest","bonus":0.8200000000000011},{"rt":789,"stimulus":"\n                    <p><b>Action: <em>harvest</em></b></p>\n                    <p>This is the bee that you just saw.</p>\n                    <img src=\"bees-with-color/bee-B2SF.svg\" width=\"200\">\n                    <p><span class=\"greenText\"><b>Successful harvest!</b></span><br>Your pay has increased by $0.02. Your bonus pay is now $0.36.</p>\n            ","response":0,"trial_type":"html-button-response","trial_index":50,"time_elapsed":443258,"internal_node_id":"0.0-4.0-1.19","subject_id":"606781fa7584b511b845d52c","study_id":"6197b3f67c2b5cd3b6d9596a","session_id":"619be786fd5f1cd6c8f8021e","condition":"full-information","relevant_dimensions":["antennae","legs"],"bee_group":{"antennae":"A","wings":"X","pattern":"X","legs":"F"},"bonus":0.8200000000000011},{"rt":1678.6000000014901,"stimulus":"bees-with-color/bee-A2SF.svg","response":1,"trial_type":"image-button-response","trial_index":51,"time_elapsed":444938,"internal_node_id":"0.0-4.0-0.20","subject_id":"606781fa7584b511b845d52c","study_id":"6197b3f67c2b5cd3b6d9596a","session_id":"619be786fd5f1cd6c8f8021e","condition":"full-information","relevant_dimensions":["antennae","legs"],"bee_group":{"antennae":"A","wings":"X","pattern":"X","legs":"F"},"action":"avoid","summary":"good-avoid","bonus":0.8200000000000011},{"rt":2176.7999999988824,"stimulus":"\n                    <p><b>Action: <em>avoid</em></b></p>\n                    <p>This is the bee that you just saw.</p>\n                    <img src=\"bees-with-color/bee-A2SF.svg\" width=\"200\">\n                    <p><span class=\"greenText\">Good choice!</span>  This bee would have stung you.<br>Your bonus pay is unchanged, and remains at $0.36.</p>\n            ","response":0,"trial_type":"html-button-response","trial_index":52,"time_elapsed":447116,"internal_node_id":"0.0-4.0-1.20","subject_id":"606781fa7584b511b845d52c","study_id":"6197b3f67c2b5cd3b6d9596a","session_id":"619be786fd5f1cd6c8f8021e","condition":"full-information","relevant_dimensions":["antennae","legs"],"bee_group":{"antennae":"A","wings":"X","pattern":"X","legs":"F"},"bonus":0.8200000000000011},{"rt":2412.5999999996275,"stimulus":"bees-with-color/bee-B1DM.svg","response":0,"trial_type":"image-button-response","trial_index":53,"time_elapsed":449530,"internal_node_id":"0.0-4.0-0.21","subject_id":"606781fa7584b511b845d52c","study_id":"6197b3f67c2b5cd3b6d9596a","session_id":"619be786fd5f1cd6c8f8021e","condition":"full-information","relevant_dimensions":["antennae","legs"],"bee_group":{"antennae":"A","wings":"X","pattern":"X","legs":"F"},"action":"harvest","summary":"good-harvest","bonus":0.8200000000000011},{"rt":810.8000000007451,"stimulus":"\n                    <p><b>Action: <em>harvest</em></b></p>\n                    <p>This is the bee that you just saw.</p>\n                    <img src=\"bees-with-color/bee-B1DM.svg\" width=\"200\">\n                    <p><span class=\"greenText\"><b>Successful harvest!</b></span><br>Your pay has increased by $0.02. Your bonus pay is now $0.38.</p>\n            ","response":0,"trial_type":"html-button-response","trial_index":54,"time_elapsed":450342,"internal_node_id":"0.0-4.0-1.21","subject_id":"606781fa7584b511b845d52c","study_id":"6197b3f67c2b5cd3b6d9596a","session_id":"619be786fd5f1cd6c8f8021e","condition":"full-information","relevant_dimensions":["antennae","legs"],"bee_group":{"antennae":"A","wings":"X","pattern":"X","legs":"F"},"bonus":0.8200000000000011},{"rt":1506.7000000011176,"stimulus":"bees-with-color/bee-A1SF.svg","response":1,"trial_type":"image-button-response","trial_index":55,"time_elapsed":451850,"internal_node_id":"0.0-4.0-0.22","subject_id":"606781fa7584b511b845d52c","study_id":"6197b3f67c2b5cd3b6d9596a","session_id":"619be786fd5f1cd6c8f8021e","condition":"full-information","relevant_dimensions":["antennae","legs"],"bee_group":{"antennae":"A","wings":"X","pattern":"X","legs":"F"},"action":"avoid","summary":"good-avoid","bonus":0.8200000000000011},{"rt":922.6999999992549,"stimulus":"\n                    <p><b>Action: <em>avoid</em></b></p>\n                    <p>This is the bee that you just saw.</p>\n                    <img src=\"bees-with-color/bee-A1SF.svg\" width=\"200\">\n                    <p><span class=\"greenText\">Good choice!</span>  This bee would have stung you.<br>Your bonus pay is unchanged, and remains at $0.38.</p>\n            ","response":0,"trial_type":"html-button-response","trial_index":56,"time_elapsed":452774,"internal_node_id":"0.0-4.0-1.22","subject_id":"606781fa7584b511b845d52c","study_id":"6197b3f67c2b5cd3b6d9596a","session_id":"619be786fd5f1cd6c8f8021e","condition":"full-information","relevant_dimensions":["antennae","legs"],"bee_group":{"antennae":"A","wings":"X","pattern":"X","legs":"F"},"bonus":0.8200000000000011},{"rt":1338.9000000003725,"stimulus":"bees-with-color/bee-B1SF.svg","response":0,"trial_type":"image-button-response","trial_index":57,"time_elapsed":454114,"internal_node_id":"0.0-4.0-0.23","subject_id":"606781fa7584b511b845d52c","study_id":"6197b3f67c2b5cd3b6d9596a","session_id":"619be786fd5f1cd6c8f8021e","condition":"full-information","relevant_dimensions":["antennae","legs"],"bee_group":{"antennae":"A","wings":"X","pattern":"X","legs":"F"},"action":"harvest","summary":"good-harvest","bonus":0.8200000000000011},{"rt":810.7999999988824,"stimulus":"\n                    <p><b>Action: <em>harvest</em></b></p>\n                    <p>This is the bee that you just saw.</p>\n                    <img src=\"bees-with-color/bee-B1SF.svg\" width=\"200\">\n                    <p><span class=\"greenText\"><b>Successful harvest!</b></span><br>Your pay has increased by $0.02. Your bonus pay is now $0.40.</p>\n            ","response":0,"trial_type":"html-button-response","trial_index":58,"time_elapsed":454926,"internal_node_id":"0.0-4.0-1.23","subject_id":"606781fa7584b511b845d52c","study_id":"6197b3f67c2b5cd3b6d9596a","session_id":"619be786fd5f1cd6c8f8021e","condition":"full-information","relevant_dimensions":["antennae","legs"],"bee_group":{"antennae":"A","wings":"X","pattern":"X","legs":"F"},"bonus":0.8200000000000011},{"rt":1536.7000000011176,"stimulus":"bees-with-color/bee-A2DF.svg","response":1,"trial_type":"image-button-response","trial_index":59,"time_elapsed":456464,"internal_node_id":"0.0-4.0-0.24","subject_id":"606781fa7584b511b845d52c","study_id":"6197b3f67c2b5cd3b6d9596a","session_id":"619be786fd5f1cd6c8f8021e","condition":"full-information","relevant_dimensions":["antennae","legs"],"bee_group":{"antennae":"A","wings":"X","pattern":"X","legs":"F"},"action":"avoid","summary":"good-avoid","bonus":0.8200000000000011},{"rt":2816.9000000003725,"stimulus":"\n                    <p><b>Action: <em>avoid</em></b></p>\n                    <p>This is the bee that you just saw.</p>\n                    <img src=\"bees-with-color/bee-A2DF.svg\" width=\"200\">\n                    <p><span class=\"greenText\">Good choice!</span>  This bee would have stung you.<br>Your bonus pay is unchanged, and remains at $0.40.</p>\n            ","response":0,"trial_type":"html-button-response","trial_index":60,"time_elapsed":459282,"internal_node_id":"0.0-4.0-1.24","subject_id":"606781fa7584b511b845d52c","study_id":"6197b3f67c2b5cd3b6d9596a","session_id":"619be786fd5f1cd6c8f8021e","condition":"full-information","relevant_dimensions":["antennae","legs"],"bee_group":{"antennae":"A","wings":"X","pattern":"X","legs":"F"},"bonus":0.8200000000000011},{"rt":1205,"stimulus":"bees-with-color/bee-A1DF.svg","response":0,"trial_type":"image-button-response","trial_index":61,"time_elapsed":460488,"internal_node_id":"0.0-4.0-0.25","subject_id":"606781fa7584b511b845d52c","study_id":"6197b3f67c2b5cd3b6d9596a","session_id":"619be786fd5f1cd6c8f8021e","condition":"full-information","relevant_dimensions":["antennae","legs"],"bee_group":{"antennae":"A","wings":"X","pattern":"X","legs":"F"},"action":"harvest","summary":"bad-harvest","bonus":0.8200000000000011},{"rt":1300.7999999988824,"stimulus":"\n                    <p><b>Action: <em>harvest</em></b></p>\n                    <p>This is the bee that you just saw.</p>\n                    <img src=\"bees-with-color/bee-A1DF.svg\" width=\"200\">\n                    <p><span class=\"redText\">Bad choice, the bee was angry.</span><br><b>You have been stung!</b><br>Your pay has been decreased by $0.10. Your bonus pay is now $0.30.</p>\n            ","response":0,"trial_type":"html-button-response","trial_index":62,"time_elapsed":461790,"internal_node_id":"0.0-4.0-1.25","subject_id":"606781fa7584b511b845d52c","study_id":"6197b3f67c2b5cd3b6d9596a","session_id":"619be786fd5f1cd6c8f8021e","condition":"full-information","relevant_dimensions":["antennae","legs"],"bee_group":{"antennae":"A","wings":"X","pattern":"X","legs":"F"},"bonus":0.8200000000000011},{"rt":1086.800000000745,"stimulus":"bees-with-color/bee-B2SM.svg","response":0,"trial_type":"image-button-response","trial_index":63,"time_elapsed":462879,"internal_node_id":"0.0-4.0-0.26","subject_id":"606781fa7584b511b845d52c","study_id":"6197b3f67c2b5cd3b6d9596a","session_id":"619be786fd5f1cd6c8f8021e","condition":"full-information","relevant_dimensions":["antennae","legs"],"bee_group":{"antennae":"A","wings":"X","pattern":"X","legs":"F"},"action":"harvest","summary":"good-harvest","bonus":0.8200000000000011},{"rt":764.7000000011176,"stimulus":"\n                    <p><b>Action: <em>harvest</em></b></p>\n                    <p>This is the bee that you just saw.</p>\n                    <img src=\"bees-with-color/bee-B2SM.svg\" width=\"200\">\n                    <p><span class=\"greenText\"><b>Successful harvest!</b></span><br>Your pay has increased by $0.02. Your bonus pay is now $0.32.</p>\n            ","response":0,"trial_type":"html-button-response","trial_index":64,"time_elapsed":463645,"internal_node_id":"0.0-4.0-1.26","subject_id":"606781fa7584b511b845d52c","study_id":"6197b3f67c2b5cd3b6d9596a","session_id":"619be786fd5f1cd6c8f8021e","condition":"full-information","relevant_dimensions":["antennae","legs"],"bee_group":{"antennae":"A","wings":"X","pattern":"X","legs":"F"},"bonus":0.8200000000000011},{"rt":1370.5999999996275,"stimulus":"bees-with-color/bee-A1SM.svg","response":0,"trial_type":"image-button-response","trial_index":65,"time_elapsed":465016,"internal_node_id":"0.0-4.0-0.27","subject_id":"606781fa7584b511b845d52c","study_id":"6197b3f67c2b5cd3b6d9596a","session_id":"619be786fd5f1cd6c8f8021e","condition":"full-information","relevant_dimensions":["antennae","legs"],"bee_group":{"antennae":"A","wings":"X","pattern":"X","legs":"F"},"action":"harvest","summary":"good-harvest","bonus":0.8200000000000011},{"rt":716.4000000003725,"stimulus":"\n                    <p><b>Action: <em>harvest</em></b></p>\n                    <p>This is the bee that you just saw.</p>\n                    <img src=\"bees-with-color/bee-A1SM.svg\" width=\"200\">\n                    <p><span class=\"greenText\"><b>Successful harvest!</b></span><br>Your pay has increased by $0.02. Your bonus pay is now $0.34.</p>\n            ","response":0,"trial_type":"html-button-response","trial_index":66,"time_elapsed":465734,"internal_node_id":"0.0-4.0-1.27","subject_id":"606781fa7584b511b845d52c","study_id":"6197b3f67c2b5cd3b6d9596a","session_id":"619be786fd5f1cd6c8f8021e","condition":"full-information","relevant_dimensions":["antennae","legs"],"bee_group":{"antennae":"A","wings":"X","pattern":"X","legs":"F"},"bonus":0.8200000000000011},{"rt":1418.8999999985099,"stimulus":"bees-with-color/bee-B2DF.svg","response":1,"trial_type":"image-button-response","trial_index":67,"time_elapsed":467154,"internal_node_id":"0.0-4.0-0.28","subject_id":"606781fa7584b511b845d52c","study_id":"6197b3f67c2b5cd3b6d9596a","session_id":"619be786fd5f1cd6c8f8021e","condition":"full-information","relevant_dimensions":["antennae","legs"],"bee_group":{"antennae":"A","wings":"X","pattern":"X","legs":"F"},"action":"avoid","summary":"bad-avoid","bonus":0.8200000000000011},{"rt":976.5999999996275,"stimulus":"\n                    <p><b>Action: <em>avoid</em></b></p>\n                    <p>This is the bee that you just saw.</p>\n                    <img src=\"bees-with-color/bee-B2DF.svg\" width=\"200\">\n                    <p><span class=\"redText\">Bad choice,</span> the bee was friendly.<br>Your bonus pay is unchanged, and remains at $0.34.</p>\n            ","response":0,"trial_type":"html-button-response","trial_index":68,"time_elapsed":468132,"internal_node_id":"0.0-4.0-1.28","subject_id":"606781fa7584b511b845d52c","study_id":"6197b3f67c2b5cd3b6d9596a","session_id":"619be786fd5f1cd6c8f8021e","condition":"full-information","relevant_dimensions":["antennae","legs"],"bee_group":{"antennae":"A","wings":"X","pattern":"X","legs":"F"},"bonus":0.8200000000000011},{"rt":2034.8999999985099,"stimulus":"bees-with-color/bee-B1SM.svg","response":0,"trial_type":"image-button-response","trial_index":69,"time_elapsed":470169,"internal_node_id":"0.0-4.0-0.29","subject_id":"606781fa7584b511b845d52c","study_id":"6197b3f67c2b5cd3b6d9596a","session_id":"619be786fd5f1cd6c8f8021e","condition":"full-information","relevant_dimensions":["antennae","legs"],"bee_group":{"antennae":"A","wings":"X","pattern":"X","legs":"F"},"action":"harvest","summary":"good-harvest","bonus":0.8200000000000011},{"rt":930.5,"stimulus":"\n                    <p><b>Action: <em>harvest</em></b></p>\n                    <p>This is the bee that you just saw.</p>\n                    <img src=\"bees-with-color/bee-B1SM.svg\" width=\"200\">\n                    <p><span class=\"greenText\"><b>Successful harvest!</b></span><br>Your pay has increased by $0.02. Your bonus pay is now $0.36.</p>\n            ","response":0,"trial_type":"html-button-response","trial_index":70,"time_elapsed":471100,"internal_node_id":"0.0-4.0-1.29","subject_id":"606781fa7584b511b845d52c","study_id":"6197b3f67c2b5cd3b6d9596a","session_id":"619be786fd5f1cd6c8f8021e","condition":"full-information","relevant_dimensions":["antennae","legs"],"bee_group":{"antennae":"A","wings":"X","pattern":"X","legs":"F"},"bonus":0.8200000000000011},{"rt":1063.2000000011176,"stimulus":"bees-with-color/bee-B1DF.svg","response":1,"trial_type":"image-button-response","trial_index":71,"time_elapsed":472165,"internal_node_id":"0.0-4.0-0.30","subject_id":"606781fa7584b511b845d52c","study_id":"6197b3f67c2b5cd3b6d9596a","session_id":"619be786fd5f1cd6c8f8021e","condition":"full-information","relevant_dimensions":["antennae","legs"],"bee_group":{"antennae":"A","wings":"X","pattern":"X","legs":"F"},"action":"avoid","summary":"bad-avoid","bonus":0.8200000000000011},{"rt":866.5,"stimulus":"\n                    <p><b>Action: <em>avoid</em></b></p>\n                    <p>This is the bee that you just saw.</p>\n                    <img src=\"bees-with-color/bee-B1DF.svg\" width=\"200\">\n                    <p><span class=\"redText\">Bad choice,</span> the bee was friendly.<br>Your bonus pay is unchanged, and remains at $0.36.</p>\n            ","response":0,"trial_type":"html-button-response","trial_index":72,"time_elapsed":473032,"internal_node_id":"0.0-4.0-1.30","subject_id":"606781fa7584b511b845d52c","study_id":"6197b3f67c2b5cd3b6d9596a","session_id":"619be786fd5f1cd6c8f8021e","condition":"full-information","relevant_dimensions":["antennae","legs"],"bee_group":{"antennae":"A","wings":"X","pattern":"X","legs":"F"},"bonus":0.8200000000000011},{"rt":1892.7999999988824,"stimulus":"bees-with-color/bee-A2DM.svg","response":0,"trial_type":"image-button-response","trial_index":73,"time_elapsed":474926,"internal_node_id":"0.0-4.0-0.31","subject_id":"606781fa7584b511b845d52c","study_id":"6197b3f67c2b5cd3b6d9596a","session_id":"619be786fd5f1cd6c8f8021e","condition":"full-information","relevant_dimensions":["antennae","legs"],"bee_group":{"antennae":"A","wings":"X","pattern":"X","legs":"F"},"action":"harvest","summary":"good-harvest","bonus":0.8200000000000011},{"rt":732.4000000003725,"stimulus":"\n                    <p><b>Action: <em>harvest</em></b></p>\n                    <p>This is the bee that you just saw.</p>\n                    <img src=\"bees-with-color/bee-A2DM.svg\" width=\"200\">\n                    <p><span class=\"greenText\"><b>Successful harvest!</b></span><br>Your pay has increased by $0.02. Your bonus pay is now $0.38.</p>\n            ","response":0,"trial_type":"html-button-response","trial_index":74,"time_elapsed":475660,"internal_node_id":"0.0-4.0-1.31","subject_id":"606781fa7584b511b845d52c","study_id":"6197b3f67c2b5cd3b6d9596a","session_id":"619be786fd5f1cd6c8f8021e","condition":"full-information","relevant_dimensions":["antennae","legs"],"bee_group":{"antennae":"A","wings":"X","pattern":"X","legs":"F"},"bonus":0.8200000000000011},{"rt":1395.5,"stimulus":"bees-with-color/bee-A2DM.svg","response":0,"trial_type":"image-button-response","trial_index":75,"time_elapsed":477056,"internal_node_id":"0.0-4.0-0.32","subject_id":"606781fa7584b511b845d52c","study_id":"6197b3f67c2b5cd3b6d9596a","session_id":"619be786fd5f1cd6c8f8021e","condition":"full-information","relevant_dimensions":["antennae","legs"],"bee_group":{"antennae":"A","wings":"X","pattern":"X","legs":"F"},"action":"harvest","summary":"good-harvest","bonus":0.8200000000000011},{"rt":859.2000000011176,"stimulus":"\n                    <p><b>Action: <em>harvest</em></b></p>\n                    <p>This is the bee that you just saw.</p>\n                    <img src=\"bees-with-color/bee-A2DM.svg\" width=\"200\">\n                    <p><span class=\"greenText\"><b>Successful harvest!</b></span><br>Your pay has increased by $0.02. Your bonus pay is now $0.40.</p>\n            ","response":0,"trial_type":"html-button-response","trial_index":76,"time_elapsed":477917,"internal_node_id":"0.0-4.0-1.32","subject_id":"606781fa7584b511b845d52c","study_id":"6197b3f67c2b5cd3b6d9596a","session_id":"619be786fd5f1cd6c8f8021e","condition":"full-information","relevant_dimensions":["antennae","legs"],"bee_group":{"antennae":"A","wings":"X","pattern":"X","legs":"F"},"bonus":0.8200000000000011},{"rt":1978.7999999988824,"stimulus":"bees-with-color/bee-A2SF.svg","response":1,"trial_type":"image-button-response","trial_index":77,"time_elapsed":479896,"internal_node_id":"0.0-4.0-0.33","subject_id":"606781fa7584b511b845d52c","study_id":"6197b3f67c2b5cd3b6d9596a","session_id":"619be786fd5f1cd6c8f8021e","condition":"full-information","relevant_dimensions":["antennae","legs"],"bee_group":{"antennae":"A","wings":"X","pattern":"X","legs":"F"},"action":"avoid","summary":"good-avoid","bonus":0.8200000000000011},{"rt":922.8000000007451,"stimulus":"\n                    <p><b>Action: <em>avoid</em></b></p>\n                    <p>This is the bee that you just saw.</p>\n                    <img src=\"bees-with-color/bee-A2SF.svg\" width=\"200\">\n                    <p><span class=\"greenText\">Good choice!</span>  This bee would have stung you.<br>Your bonus pay is unchanged, and remains at $0.40.</p>\n            ","response":0,"trial_type":"html-button-response","trial_index":78,"time_elapsed":480820,"internal_node_id":"0.0-4.0-1.33","subject_id":"606781fa7584b511b845d52c","study_id":"6197b3f67c2b5cd3b6d9596a","session_id":"619be786fd5f1cd6c8f8021e","condition":"full-information","relevant_dimensions":["antennae","legs"],"bee_group":{"antennae":"A","wings":"X","pattern":"X","legs":"F"},"bonus":0.8200000000000011},{"rt":3201.199999999255,"stimulus":"bees-with-color/bee-B1SF.svg","response":0,"trial_type":"image-button-response","trial_index":79,"time_elapsed":484022,"internal_node_id":"0.0-4.0-0.34","subject_id":"606781fa7584b511b845d52c","study_id":"6197b3f67c2b5cd3b6d9596a","session_id":"619be786fd5f1cd6c8f8021e","condition":"full-information","relevant_dimensions":["antennae","legs"],"bee_group":{"antennae":"A","wings":"X","pattern":"X","legs":"F"},"action":"harvest","summary":"good-harvest","bonus":0.8200000000000011},{"rt":732.8000000007451,"stimulus":"\n                    <p><b>Action: <em>harvest</em></b></p>\n                    <p>This is the bee that you just saw.</p>\n                    <img src=\"bees-with-color/bee-B1SF.svg\" width=\"200\">\n                    <p><span class=\"greenText\"><b>Successful harvest!</b></span><br>Your pay has increased by $0.02. Your bonus pay is now $0.42.</p>\n            ","response":0,"trial_type":"html-button-response","trial_index":80,"time_elapsed":484756,"internal_node_id":"0.0-4.0-1.34","subject_id":"606781fa7584b511b845d52c","study_id":"6197b3f67c2b5cd3b6d9596a","session_id":"619be786fd5f1cd6c8f8021e","condition":"full-information","relevant_dimensions":["antennae","legs"],"bee_group":{"antennae":"A","wings":"X","pattern":"X","legs":"F"},"bonus":0.8200000000000011},{"rt":6112.799999998882,"stimulus":"bees-with-color/bee-B2SF.svg","response":0,"trial_type":"image-button-response","trial_index":81,"time_elapsed":490870,"internal_node_id":"0.0-4.0-0.35","subject_id":"606781fa7584b511b845d52c","study_id":"6197b3f67c2b5cd3b6d9596a","session_id":"619be786fd5f1cd6c8f8021e","condition":"full-information","relevant_dimensions":["antennae","legs"],"bee_group":{"antennae":"A","wings":"X","pattern":"X","legs":"F"},"action":"harvest","summary":"good-harvest","bonus":0.8200000000000011},{"rt":693,"stimulus":"\n                    <p><b>Action: <em>harvest</em></b></p>\n                    <p>This is the bee that you just saw.</p>\n                    <img src=\"bees-with-color/bee-B2SF.svg\" width=\"200\">\n                    <p><span class=\"greenText\"><b>Successful harvest!</b></span><br>Your pay has increased by $0.02. Your bonus pay is now $0.44.</p>\n            ","response":0,"trial_type":"html-button-response","trial_index":82,"time_elapsed":491564,"internal_node_id":"0.0-4.0-1.35","subject_id":"606781fa7584b511b845d52c","study_id":"6197b3f67c2b5cd3b6d9596a","session_id":"619be786fd5f1cd6c8f8021e","condition":"full-information","relevant_dimensions":["antennae","legs"],"bee_group":{"antennae":"A","wings":"X","pattern":"X","legs":"F"},"bonus":0.8200000000000011},{"rt":3030.0999999996275,"stimulus":"bees-with-color/bee-B2DM.svg","response":1,"trial_type":"image-button-response","trial_index":83,"time_elapsed":494596,"internal_node_id":"0.0-4.0-0.36","subject_id":"606781fa7584b511b845d52c","study_id":"6197b3f67c2b5cd3b6d9596a","session_id":"619be786fd5f1cd6c8f8021e","condition":"full-information","relevant_dimensions":["antennae","legs"],"bee_group":{"antennae":"A","wings":"X","pattern":"X","legs":"F"},"action":"avoid","summary":"bad-avoid","bonus":0.8200000000000011},{"rt":2941.5999999996275,"stimulus":"\n                    <p><b>Action: <em>avoid</em></b></p>\n                    <p>This is the bee that you just saw.</p>\n                    <img src=\"bees-with-color/bee-B2DM.svg\" width=\"200\">\n                    <p><span class=\"redText\">Bad choice,</span> the bee was friendly.<br>Your bonus pay is unchanged, and remains at $0.44.</p>\n            ","response":0,"trial_type":"html-button-response","trial_index":84,"time_elapsed":497538,"internal_node_id":"0.0-4.0-1.36","subject_id":"606781fa7584b511b845d52c","study_id":"6197b3f67c2b5cd3b6d9596a","session_id":"619be786fd5f1cd6c8f8021e","condition":"full-information","relevant_dimensions":["antennae","legs"],"bee_group":{"antennae":"A","wings":"X","pattern":"X","legs":"F"},"bonus":0.8200000000000011},{"rt":1670.5999999996275,"stimulus":"bees-with-color/bee-A1DM.svg","response":0,"trial_type":"image-button-response","trial_index":85,"time_elapsed":499210,"internal_node_id":"0.0-4.0-0.37","subject_id":"606781fa7584b511b845d52c","study_id":"6197b3f67c2b5cd3b6d9596a","session_id":"619be786fd5f1cd6c8f8021e","condition":"full-information","relevant_dimensions":["antennae","legs"],"bee_group":{"antennae":"A","wings":"X","pattern":"X","legs":"F"},"action":"harvest","summary":"good-harvest","bonus":0.8200000000000011},{"rt":1311.3999999985099,"stimulus":"\n                    <p><b>Action: <em>harvest</em></b></p>\n                    <p>This is the bee that you just saw.</p>\n                    <img src=\"bees-with-color/bee-A1DM.svg\" width=\"200\">\n                    <p><span class=\"greenText\"><b>Successful harvest!</b></span><br>Your pay has increased by $0.02. Your bonus pay is now $0.46.</p>\n            ","response":0,"trial_type":"html-button-response","trial_index":86,"time_elapsed":500522,"internal_node_id":"0.0-4.0-1.37","subject_id":"606781fa7584b511b845d52c","study_id":"6197b3f67c2b5cd3b6d9596a","session_id":"619be786fd5f1cd6c8f8021e","condition":"full-information","relevant_dimensions":["antennae","legs"],"bee_group":{"antennae":"A","wings":"X","pattern":"X","legs":"F"},"bonus":0.8200000000000011},{"rt":3437,"stimulus":"bees-with-color/bee-A1DF.svg","response":0,"trial_type":"image-button-response","trial_index":87,"time_elapsed":503960,"internal_node_id":"0.0-4.0-0.38","subject_id":"606781fa7584b511b845d52c","study_id":"6197b3f67c2b5cd3b6d9596a","session_id":"619be786fd5f1cd6c8f8021e","condition":"full-information","relevant_dimensions":["antennae","legs"],"bee_group":{"antennae":"A","wings":"X","pattern":"X","legs":"F"},"action":"harvest","summary":"bad-harvest","bonus":0.8200000000000011},{"rt":3541,"stimulus":"\n                    <p><b>Action: <em>harvest</em></b></p>\n                    <p>This is the bee that you just saw.</p>\n                    <img src=\"bees-with-color/bee-A1DF.svg\" width=\"200\">\n                    <p><span class=\"redText\">Bad choice, the bee was angry.</span><br><b>You have been stung!</b><br>Your pay has been decreased by $0.10. Your bonus pay is now $0.36.</p>\n            ","response":0,"trial_type":"html-button-response","trial_index":88,"time_elapsed":507502,"internal_node_id":"0.0-4.0-1.38","subject_id":"606781fa7584b511b845d52c","study_id":"6197b3f67c2b5cd3b6d9596a","session_id":"619be786fd5f1cd6c8f8021e","condition":"full-information","relevant_dimensions":["antennae","legs"],"bee_group":{"antennae":"A","wings":"X","pattern":"X","legs":"F"},"bonus":0.8200000000000011},{"rt":2648.5999999996275,"stimulus":"bees-with-color/bee-B2SM.svg","response":0,"trial_type":"image-button-response","trial_index":89,"time_elapsed":510152,"internal_node_id":"0.0-4.0-0.39","subject_id":"606781fa7584b511b845d52c","study_id":"6197b3f67c2b5cd3b6d9596a","session_id":"619be786fd5f1cd6c8f8021e","condition":"full-information","relevant_dimensions":["antennae","legs"],"bee_group":{"antennae":"A","wings":"X","pattern":"X","legs":"F"},"action":"harvest","summary":"good-harvest","bonus":0.8200000000000011},{"rt":647,"stimulus":"\n                    <p><b>Action: <em>harvest</em></b></p>\n                    <p>This is the bee that you just saw.</p>\n                    <img src=\"bees-with-color/bee-B2SM.svg\" width=\"200\">\n                    <p><span class=\"greenText\"><b>Successful harvest!</b></span><br>Your pay has increased by $0.02. Your bonus pay is now $0.38.</p>\n            ","response":0,"trial_type":"html-button-response","trial_index":90,"time_elapsed":510800,"internal_node_id":"0.0-4.0-1.39","subject_id":"606781fa7584b511b845d52c","study_id":"6197b3f67c2b5cd3b6d9596a","session_id":"619be786fd5f1cd6c8f8021e","condition":"full-information","relevant_dimensions":["antennae","legs"],"bee_group":{"antennae":"A","wings":"X","pattern":"X","legs":"F"},"bonus":0.8200000000000011},{"rt":3910.4000000003725,"stimulus":"bees-with-color/bee-A2SM.svg","response":0,"trial_type":"image-button-response","trial_index":91,"time_elapsed":514711,"internal_node_id":"0.0-4.0-0.40","subject_id":"606781fa7584b511b845d52c","study_id":"6197b3f67c2b5cd3b6d9596a","session_id":"619be786fd5f1cd6c8f8021e","condition":"full-information","relevant_dimensions":["antennae","legs"],"bee_group":{"antennae":"A","wings":"X","pattern":"X","legs":"F"},"action":"harvest","summary":"good-harvest","bonus":0.8200000000000011},{"rt":883.2999999988824,"stimulus":"\n                    <p><b>Action: <em>harvest</em></b></p>\n                    <p>This is the bee that you just saw.</p>\n                    <img src=\"bees-with-color/bee-A2SM.svg\" width=\"200\">\n                    <p><span class=\"greenText\"><b>Successful harvest!</b></span><br>Your pay has increased by $0.02. Your bonus pay is now $0.40.</p>\n            ","response":0,"trial_type":"html-button-response","trial_index":92,"time_elapsed":515596,"internal_node_id":"0.0-4.0-1.40","subject_id":"606781fa7584b511b845d52c","study_id":"6197b3f67c2b5cd3b6d9596a","session_id":"619be786fd5f1cd6c8f8021e","condition":"full-information","relevant_dimensions":["antennae","legs"],"bee_group":{"antennae":"A","wings":"X","pattern":"X","legs":"F"},"bonus":0.8200000000000011},{"rt":1868.4000000003725,"stimulus":"bees-with-color/bee-B2DF.svg","response":0,"trial_type":"image-button-response","trial_index":93,"time_elapsed":517465,"internal_node_id":"0.0-4.0-0.41","subject_id":"606781fa7584b511b845d52c","study_id":"6197b3f67c2b5cd3b6d9596a","session_id":"619be786fd5f1cd6c8f8021e","condition":"full-information","relevant_dimensions":["antennae","legs"],"bee_group":{"antennae":"A","wings":"X","pattern":"X","legs":"F"},"action":"harvest","summary":"good-harvest","bonus":0.8200000000000011},{"rt":1055.0999999996275,"stimulus":"\n                    <p><b>Action: <em>harvest</em></b></p>\n                    <p>This is the bee that you just saw.</p>\n                    <img src=\"bees-with-color/bee-B2DF.svg\" width=\"200\">\n                    <p><span class=\"greenText\"><b>Successful harvest!</b></span><br>Your pay has increased by $0.02. Your bonus pay is now $0.42.</p>\n            ","response":0,"trial_type":"html-button-response","trial_index":94,"time_elapsed":518522,"internal_node_id":"0.0-4.0-1.41","subject_id":"606781fa7584b511b845d52c","study_id":"6197b3f67c2b5cd3b6d9596a","session_id":"619be786fd5f1cd6c8f8021e","condition":"full-information","relevant_dimensions":["antennae","legs"],"bee_group":{"antennae":"A","wings":"X","pattern":"X","legs":"F"},"bonus":0.8200000000000011},{"rt":4276.699999999255,"stimulus":"bees-with-color/bee-B1SM.svg","response":0,"trial_type":"image-button-response","trial_index":95,"time_elapsed":522800,"internal_node_id":"0.0-4.0-0.42","subject_id":"606781fa7584b511b845d52c","study_id":"6197b3f67c2b5cd3b6d9596a","session_id":"619be786fd5f1cd6c8f8021e","condition":"full-information","relevant_dimensions":["antennae","legs"],"bee_group":{"antennae":"A","wings":"X","pattern":"X","legs":"F"},"action":"harvest","summary":"good-harvest","bonus":0.8200000000000011},{"rt":794.5999999996275,"stimulus":"\n                    <p><b>Action: <em>harvest</em></b></p>\n                    <p>This is the bee that you just saw.</p>\n                    <img src=\"bees-with-color/bee-B1SM.svg\" width=\"200\">\n                    <p><span class=\"greenText\"><b>Successful harvest!</b></span><br>Your pay has increased by $0.02. Your bonus pay is now $0.44.</p>\n            ","response":0,"trial_type":"html-button-response","trial_index":96,"time_elapsed":523595,"internal_node_id":"0.0-4.0-1.42","subject_id":"606781fa7584b511b845d52c","study_id":"6197b3f67c2b5cd3b6d9596a","session_id":"619be786fd5f1cd6c8f8021e","condition":"full-information","relevant_dimensions":["antennae","legs"],"bee_group":{"antennae":"A","wings":"X","pattern":"X","legs":"F"},"bonus":0.8200000000000011},{"rt":2706.9000000003725,"stimulus":"bees-with-color/bee-A1SM.svg","response":0,"trial_type":"image-button-response","trial_index":97,"time_elapsed":526303,"internal_node_id":"0.0-4.0-0.43","subject_id":"606781fa7584b511b845d52c","study_id":"6197b3f67c2b5cd3b6d9596a","session_id":"619be786fd5f1cd6c8f8021e","condition":"full-information","relevant_dimensions":["antennae","legs"],"bee_group":{"antennae":"A","wings":"X","pattern":"X","legs":"F"},"action":"harvest","summary":"good-harvest","bonus":0.8200000000000011},{"rt":961,"stimulus":"\n                    <p><b>Action: <em>harvest</em></b></p>\n                    <p>This is the bee that you just saw.</p>\n                    <img src=\"bees-with-color/bee-A1SM.svg\" width=\"200\">\n                    <p><span class=\"greenText\"><b>Successful harvest!</b></span><br>Your pay has increased by $0.02. Your bonus pay is now $0.46.</p>\n            ","response":0,"trial_type":"html-button-response","trial_index":98,"time_elapsed":527266,"internal_node_id":"0.0-4.0-1.43","subject_id":"606781fa7584b511b845d52c","study_id":"6197b3f67c2b5cd3b6d9596a","session_id":"619be786fd5f1cd6c8f8021e","condition":"full-information","relevant_dimensions":["antennae","legs"],"bee_group":{"antennae":"A","wings":"X","pattern":"X","legs":"F"},"bonus":0.8200000000000011},{"rt":2350.4000000003725,"stimulus":"bees-with-color/bee-B1DM.svg","response":0,"trial_type":"image-button-response","trial_index":99,"time_elapsed":529618,"internal_node_id":"0.0-4.0-0.44","subject_id":"606781fa7584b511b845d52c","study_id":"6197b3f67c2b5cd3b6d9596a","session_id":"619be786fd5f1cd6c8f8021e","condition":"full-information","relevant_dimensions":["antennae","legs"],"bee_group":{"antennae":"A","wings":"X","pattern":"X","legs":"F"},"action":"harvest","summary":"good-harvest","bonus":0.8200000000000011},{"rt":652.6999999992549,"stimulus":"\n                    <p><b>Action: <em>harvest</em></b></p>\n                    <p>This is the bee that you just saw.</p>\n                    <img src=\"bees-with-color/bee-B1DM.svg\" width=\"200\">\n                    <p><span class=\"greenText\"><b>Successful harvest!</b></span><br>Your pay has increased by $0.02. Your bonus pay is now $0.48.</p>\n            ","response":0,"trial_type":"html-button-response","trial_index":100,"time_elapsed":530272,"internal_node_id":"0.0-4.0-1.44","subject_id":"606781fa7584b511b845d52c","study_id":"6197b3f67c2b5cd3b6d9596a","session_id":"619be786fd5f1cd6c8f8021e","condition":"full-information","relevant_dimensions":["antennae","legs"],"bee_group":{"antennae":"A","wings":"X","pattern":"X","legs":"F"},"bonus":0.8200000000000011},{"rt":1498.699999999255,"stimulus":"bees-with-color/bee-A1SF.svg","response":1,"trial_type":"image-button-response","trial_index":101,"time_elapsed":531772,"internal_node_id":"0.0-4.0-0.45","subject_id":"606781fa7584b511b845d52c","study_id":"6197b3f67c2b5cd3b6d9596a","session_id":"619be786fd5f1cd6c8f8021e","condition":"full-information","relevant_dimensions":["antennae","legs"],"bee_group":{"antennae":"A","wings":"X","pattern":"X","legs":"F"},"action":"avoid","summary":"good-avoid","bonus":0.8200000000000011},{"rt":2562.5999999996275,"stimulus":"\n                    <p><b>Action: <em>avoid</em></b></p>\n                    <p>This is the bee that you just saw.</p>\n                    <img src=\"bees-with-color/bee-A1SF.svg\" width=\"200\">\n                    <p><span class=\"greenText\">Good choice!</span>  This bee would have stung you.<br>Your bonus pay is unchanged, and remains at $0.48.</p>\n            ","response":0,"trial_type":"html-button-response","trial_index":102,"time_elapsed":534336,"internal_node_id":"0.0-4.0-1.45","subject_id":"606781fa7584b511b845d52c","study_id":"6197b3f67c2b5cd3b6d9596a","session_id":"619be786fd5f1cd6c8f8021e","condition":"full-information","relevant_dimensions":["antennae","legs"],"bee_group":{"antennae":"A","wings":"X","pattern":"X","legs":"F"},"bonus":0.8200000000000011},{"rt":2334.5999999996275,"stimulus":"bees-with-color/bee-B1DF.svg","response":1,"trial_type":"image-button-response","trial_index":103,"time_elapsed":536672,"internal_node_id":"0.0-4.0-0.46","subject_id":"606781fa7584b511b845d52c","study_id":"6197b3f67c2b5cd3b6d9596a","session_id":"619be786fd5f1cd6c8f8021e","condition":"full-information","relevant_dimensions":["antennae","legs"],"bee_group":{"antennae":"A","wings":"X","pattern":"X","legs":"F"},"action":"avoid","summary":"bad-avoid","bonus":0.8200000000000011},{"rt":2272,"stimulus":"\n                    <p><b>Action: <em>avoid</em></b></p>\n                    <p>This is the bee that you just saw.</p>\n                    <img src=\"bees-with-color/bee-B1DF.svg\" width=\"200\">\n                    <p><span class=\"redText\">Bad choice,</span> the bee was friendly.<br>Your bonus pay is unchanged, and remains at $0.48.</p>\n            ","response":0,"trial_type":"html-button-response","trial_index":104,"time_elapsed":538945,"internal_node_id":"0.0-4.0-1.46","subject_id":"606781fa7584b511b845d52c","study_id":"6197b3f67c2b5cd3b6d9596a","session_id":"619be786fd5f1cd6c8f8021e","condition":"full-information","relevant_dimensions":["antennae","legs"],"bee_group":{"antennae":"A","wings":"X","pattern":"X","legs":"F"},"bonus":0.8200000000000011},{"rt":3659.5999999996275,"stimulus":"bees-with-color/bee-A2DF.svg","response":0,"trial_type":"image-button-response","trial_index":105,"time_elapsed":542606,"internal_node_id":"0.0-4.0-0.47","subject_id":"606781fa7584b511b845d52c","study_id":"6197b3f67c2b5cd3b6d9596a","session_id":"619be786fd5f1cd6c8f8021e","condition":"full-information","relevant_dimensions":["antennae","legs"],"bee_group":{"antennae":"A","wings":"X","pattern":"X","legs":"F"},"action":"harvest","summary":"bad-harvest","bonus":0.8200000000000011},{"rt":1268.699999999255,"stimulus":"\n                    <p><b>Action: <em>harvest</em></b></p>\n                    <p>This is the bee that you just saw.</p>\n                    <img src=\"bees-with-color/bee-A2DF.svg\" width=\"200\">\n                    <p><span class=\"redText\">Bad choice, the bee was angry.</span><br><b>You have been stung!</b><br>Your pay has been decreased by $0.10. Your bonus pay is now $0.38.</p>\n            ","response":0,"trial_type":"html-button-response","trial_index":106,"time_elapsed":543876,"internal_node_id":"0.0-4.0-1.47","subject_id":"606781fa7584b511b845d52c","study_id":"6197b3f67c2b5cd3b6d9596a","session_id":"619be786fd5f1cd6c8f8021e","condition":"full-information","relevant_dimensions":["antennae","legs"],"bee_group":{"antennae":"A","wings":"X","pattern":"X","legs":"F"},"bonus":0.8200000000000011},{"rt":1198.5999999996275,"stimulus":"bees-with-color/bee-A2DF.svg","response":1,"trial_type":"image-button-response","trial_index":107,"time_elapsed":545076,"internal_node_id":"0.0-4.0-0.48","subject_id":"606781fa7584b511b845d52c","study_id":"6197b3f67c2b5cd3b6d9596a","session_id":"619be786fd5f1cd6c8f8021e","condition":"full-information","relevant_dimensions":["antennae","legs"],"bee_group":{"antennae":"A","wings":"X","pattern":"X","legs":"F"},"action":"avoid","summary":"good-avoid","bonus":0.8200000000000011},{"rt":992.5,"stimulus":"\n                    <p><b>Action: <em>avoid</em></b></p>\n                    <p>This is the bee that you just saw.</p>\n                    <img src=\"bees-with-color/bee-A2DF.svg\" width=\"200\">\n                    <p><span class=\"greenText\">Good choice!</span>  This bee would have stung you.<br>Your bonus pay is unchanged, and remains at $0.38.</p>\n            ","response":0,"trial_type":"html-button-response","trial_index":108,"time_elapsed":546069,"internal_node_id":"0.0-4.0-1.48","subject_id":"606781fa7584b511b845d52c","study_id":"6197b3f67c2b5cd3b6d9596a","session_id":"619be786fd5f1cd6c8f8021e","condition":"full-information","relevant_dimensions":["antennae","legs"],"bee_group":{"antennae":"A","wings":"X","pattern":"X","legs":"F"},"bonus":0.8200000000000011},{"rt":1853.199999999255,"stimulus":"bees-with-color/bee-B2DM.svg","response":0,"trial_type":"image-button-response","trial_index":109,"time_elapsed":547923,"internal_node_id":"0.0-4.0-0.49","subject_id":"606781fa7584b511b845d52c","study_id":"6197b3f67c2b5cd3b6d9596a","session_id":"619be786fd5f1cd6c8f8021e","condition":"full-information","relevant_dimensions":["antennae","legs"],"bee_group":{"antennae":"A","wings":"X","pattern":"X","legs":"F"},"action":"harvest","summary":"good-harvest","bonus":0.8200000000000011},{"rt":709.0999999996275,"stimulus":"\n                    <p><b>Action: <em>harvest</em></b></p>\n                    <p>This is the bee that you just saw.</p>\n                    <img src=\"bees-with-color/bee-B2DM.svg\" width=\"200\">\n                    <p><span class=\"greenText\"><b>Successful harvest!</b></span><br>Your pay has increased by $0.02. Your bonus pay is now $0.40.</p>\n            ","response":0,"trial_type":"html-button-response","trial_index":110,"time_elapsed":548634,"internal_node_id":"0.0-4.0-1.49","subject_id":"606781fa7584b511b845d52c","study_id":"6197b3f67c2b5cd3b6d9596a","session_id":"619be786fd5f1cd6c8f8021e","condition":"full-information","relevant_dimensions":["antennae","legs"],"bee_group":{"antennae":"A","wings":"X","pattern":"X","legs":"F"},"bonus":0.8200000000000011},{"rt":1252.8999999985099,"stimulus":"bees-with-color/bee-B1SF.svg","response":1,"trial_type":"image-button-response","trial_index":111,"time_elapsed":549888,"internal_node_id":"0.0-4.0-0.50","subject_id":"606781fa7584b511b845d52c","study_id":"6197b3f67c2b5cd3b6d9596a","session_id":"619be786fd5f1cd6c8f8021e","condition":"full-information","relevant_dimensions":["antennae","legs"],"bee_group":{"antennae":"A","wings":"X","pattern":"X","legs":"F"},"action":"avoid","summary":"bad-avoid","bonus":0.8200000000000011},{"rt":708.5999999996275,"stimulus":"\n                    <p><b>Action: <em>avoid</em></b></p>\n                    <p>This is the bee that you just saw.</p>\n                    <img src=\"bees-with-color/bee-B1SF.svg\" width=\"200\">\n                    <p><span class=\"redText\">Bad choice,</span> the bee was friendly.<br>Your bonus pay is unchanged, and remains at $0.40.</p>\n            ","response":0,"trial_type":"html-button-response","trial_index":112,"time_elapsed":550598,"internal_node_id":"0.0-4.0-1.50","subject_id":"606781fa7584b511b845d52c","study_id":"6197b3f67c2b5cd3b6d9596a","session_id":"619be786fd5f1cd6c8f8021e","condition":"full-information","relevant_dimensions":["antennae","legs"],"bee_group":{"antennae":"A","wings":"X","pattern":"X","legs":"F"},"bonus":0.8200000000000011},{"rt":1228.7999999988824,"stimulus":"bees-with-color/bee-B1DF.svg","response":1,"trial_type":"image-button-response","trial_index":113,"time_elapsed":551827,"internal_node_id":"0.0-4.0-0.51","subject_id":"606781fa7584b511b845d52c","study_id":"6197b3f67c2b5cd3b6d9596a","session_id":"619be786fd5f1cd6c8f8021e","condition":"full-information","relevant_dimensions":["antennae","legs"],"bee_group":{"antennae":"A","wings":"X","pattern":"X","legs":"F"},"action":"avoid","summary":"bad-avoid","bonus":0.8200000000000011},{"rt":639,"stimulus":"\n                    <p><b>Action: <em>avoid</em></b></p>\n                    <p>This is the bee that you just saw.</p>\n                    <img src=\"bees-with-color/bee-B1DF.svg\" width=\"200\">\n                    <p><span class=\"redText\">Bad choice,</span> the bee was friendly.<br>Your bonus pay is unchanged, and remains at $0.40.</p>\n            ","response":0,"trial_type":"html-button-response","trial_index":114,"time_elapsed":552467,"internal_node_id":"0.0-4.0-1.51","subject_id":"606781fa7584b511b845d52c","study_id":"6197b3f67c2b5cd3b6d9596a","session_id":"619be786fd5f1cd6c8f8021e","condition":"full-information","relevant_dimensions":["antennae","legs"],"bee_group":{"antennae":"A","wings":"X","pattern":"X","legs":"F"},"bonus":0.8200000000000011},{"rt":1703,"stimulus":"bees-with-color/bee-A1SM.svg","response":0,"trial_type":"image-button-response","trial_index":115,"time_elapsed":554171,"internal_node_id":"0.0-4.0-0.52","subject_id":"606781fa7584b511b845d52c","study_id":"6197b3f67c2b5cd3b6d9596a","session_id":"619be786fd5f1cd6c8f8021e","condition":"full-information","relevant_dimensions":["antennae","legs"],"bee_group":{"antennae":"A","wings":"X","pattern":"X","legs":"F"},"action":"harvest","summary":"good-harvest","bonus":0.8200000000000011},{"rt":645.1999999992549,"stimulus":"\n                    <p><b>Action: <em>harvest</em></b></p>\n                    <p>This is the bee that you just saw.</p>\n                    <img src=\"bees-with-color/bee-A1SM.svg\" width=\"200\">\n                    <p><span class=\"greenText\"><b>Successful harvest!</b></span><br>Your pay has increased by $0.02. Your bonus pay is now $0.42.</p>\n            ","response":0,"trial_type":"html-button-response","trial_index":116,"time_elapsed":554817,"internal_node_id":"0.0-4.0-1.52","subject_id":"606781fa7584b511b845d52c","study_id":"6197b3f67c2b5cd3b6d9596a","session_id":"619be786fd5f1cd6c8f8021e","condition":"full-information","relevant_dimensions":["antennae","legs"],"bee_group":{"antennae":"A","wings":"X","pattern":"X","legs":"F"},"bonus":0.8200000000000011},{"rt":1909.0999999996275,"stimulus":"bees-with-color/bee-A2SM.svg","response":0,"trial_type":"image-button-response","trial_index":117,"time_elapsed":556727,"internal_node_id":"0.0-4.0-0.53","subject_id":"606781fa7584b511b845d52c","study_id":"6197b3f67c2b5cd3b6d9596a","session_id":"619be786fd5f1cd6c8f8021e","condition":"full-information","relevant_dimensions":["antennae","legs"],"bee_group":{"antennae":"A","wings":"X","pattern":"X","legs":"F"},"action":"harvest","summary":"good-harvest","bonus":0.8200000000000011},{"rt":835.1999999992549,"stimulus":"\n                    <p><b>Action: <em>harvest</em></b></p>\n                    <p>This is the bee that you just saw.</p>\n                    <img src=\"bees-with-color/bee-A2SM.svg\" width=\"200\">\n                    <p><span class=\"greenText\"><b>Successful harvest!</b></span><br>Your pay has increased by $0.02. Your bonus pay is now $0.44.</p>\n            ","response":0,"trial_type":"html-button-response","trial_index":118,"time_elapsed":557563,"internal_node_id":"0.0-4.0-1.53","subject_id":"606781fa7584b511b845d52c","study_id":"6197b3f67c2b5cd3b6d9596a","session_id":"619be786fd5f1cd6c8f8021e","condition":"full-information","relevant_dimensions":["antennae","legs"],"bee_group":{"antennae":"A","wings":"X","pattern":"X","legs":"F"},"bonus":0.8200000000000011},{"rt":1775.2000000011176,"stimulus":"bees-with-color/bee-B2DF.svg","response":0,"trial_type":"image-button-response","trial_index":119,"time_elapsed":559340,"internal_node_id":"0.0-4.0-0.54","subject_id":"606781fa7584b511b845d52c","study_id":"6197b3f67c2b5cd3b6d9596a","session_id":"619be786fd5f1cd6c8f8021e","condition":"full-information","relevant_dimensions":["antennae","legs"],"bee_group":{"antennae":"A","wings":"X","pattern":"X","legs":"F"},"action":"harvest","summary":"good-harvest","bonus":0.8200000000000011},{"rt":676.9000000003725,"stimulus":"\n                    <p><b>Action: <em>harvest</em></b></p>\n                    <p>This is the bee that you just saw.</p>\n                    <img src=\"bees-with-color/bee-B2DF.svg\" width=\"200\">\n                    <p><span class=\"greenText\"><b>Successful harvest!</b></span><br>Your pay has increased by $0.02. Your bonus pay is now $0.46.</p>\n            ","response":0,"trial_type":"html-button-response","trial_index":120,"time_elapsed":560017,"internal_node_id":"0.0-4.0-1.54","subject_id":"606781fa7584b511b845d52c","study_id":"6197b3f67c2b5cd3b6d9596a","session_id":"619be786fd5f1cd6c8f8021e","condition":"full-information","relevant_dimensions":["antennae","legs"],"bee_group":{"antennae":"A","wings":"X","pattern":"X","legs":"F"},"bonus":0.8200000000000011},{"rt":2018.7999999988824,"stimulus":"bees-with-color/bee-A1SF.svg","response":1,"trial_type":"image-button-response","trial_index":121,"time_elapsed":562038,"internal_node_id":"0.0-4.0-0.55","subject_id":"606781fa7584b511b845d52c","study_id":"6197b3f67c2b5cd3b6d9596a","session_id":"619be786fd5f1cd6c8f8021e","condition":"full-information","relevant_dimensions":["antennae","legs"],"bee_group":{"antennae":"A","wings":"X","pattern":"X","legs":"F"},"action":"avoid","summary":"good-avoid","bonus":0.8200000000000011},{"rt":1482.9000000003725,"stimulus":"\n                    <p><b>Action: <em>avoid</em></b></p>\n                    <p>This is the bee that you just saw.</p>\n                    <img src=\"bees-with-color/bee-A1SF.svg\" width=\"200\">\n                    <p><span class=\"greenText\">Good choice!</span>  This bee would have stung you.<br>Your bonus pay is unchanged, and remains at $0.46.</p>\n            ","response":0,"trial_type":"html-button-response","trial_index":122,"time_elapsed":563521,"internal_node_id":"0.0-4.0-1.55","subject_id":"606781fa7584b511b845d52c","study_id":"6197b3f67c2b5cd3b6d9596a","session_id":"619be786fd5f1cd6c8f8021e","condition":"full-information","relevant_dimensions":["antennae","legs"],"bee_group":{"antennae":"A","wings":"X","pattern":"X","legs":"F"},"bonus":0.8200000000000011},{"rt":1411.0999999996275,"stimulus":"bees-with-color/bee-A1DM.svg","response":0,"trial_type":"image-button-response","trial_index":123,"time_elapsed":564934,"internal_node_id":"0.0-4.0-0.56","subject_id":"606781fa7584b511b845d52c","study_id":"6197b3f67c2b5cd3b6d9596a","session_id":"619be786fd5f1cd6c8f8021e","condition":"full-information","relevant_dimensions":["antennae","legs"],"bee_group":{"antennae":"A","wings":"X","pattern":"X","legs":"F"},"action":"harvest","summary":"good-harvest","bonus":0.8200000000000011},{"rt":692.5999999996275,"stimulus":"\n                    <p><b>Action: <em>harvest</em></b></p>\n                    <p>This is the bee that you just saw.</p>\n                    <img src=\"bees-with-color/bee-A1DM.svg\" width=\"200\">\n                    <p><span class=\"greenText\"><b>Successful harvest!</b></span><br>Your pay has increased by $0.02. Your bonus pay is now $0.48.</p>\n            ","response":0,"trial_type":"html-button-response","trial_index":124,"time_elapsed":565627,"internal_node_id":"0.0-4.0-1.56","subject_id":"606781fa7584b511b845d52c","study_id":"6197b3f67c2b5cd3b6d9596a","session_id":"619be786fd5f1cd6c8f8021e","condition":"full-information","relevant_dimensions":["antennae","legs"],"bee_group":{"antennae":"A","wings":"X","pattern":"X","legs":"F"},"bonus":0.8200000000000011},{"rt":1497.5,"stimulus":"bees-with-color/bee-B2SM.svg","response":0,"trial_type":"image-button-response","trial_index":125,"time_elapsed":567126,"internal_node_id":"0.0-4.0-0.57","subject_id":"606781fa7584b511b845d52c","study_id":"6197b3f67c2b5cd3b6d9596a","session_id":"619be786fd5f1cd6c8f8021e","condition":"full-information","relevant_dimensions":["antennae","legs"],"bee_group":{"antennae":"A","wings":"X","pattern":"X","legs":"F"},"action":"harvest","summary":"good-harvest","bonus":0.8200000000000011},{"rt":724.6999999992549,"stimulus":"\n                    <p><b>Action: <em>harvest</em></b></p>\n                    <p>This is the bee that you just saw.</p>\n                    <img src=\"bees-with-color/bee-B2SM.svg\" width=\"200\">\n                    <p><span class=\"greenText\"><b>Successful harvest!</b></span><br>Your pay has increased by $0.02. Your bonus pay is now $0.50.</p>\n            ","response":0,"trial_type":"html-button-response","trial_index":126,"time_elapsed":567851,"internal_node_id":"0.0-4.0-1.57","subject_id":"606781fa7584b511b845d52c","study_id":"6197b3f67c2b5cd3b6d9596a","session_id":"619be786fd5f1cd6c8f8021e","condition":"full-information","relevant_dimensions":["antennae","legs"],"bee_group":{"antennae":"A","wings":"X","pattern":"X","legs":"F"},"bonus":0.8200000000000011},{"rt":2066.89999999851,"stimulus":"bees-with-color/bee-B2SF.svg","response":0,"trial_type":"image-button-response","trial_index":127,"time_elapsed":569920,"internal_node_id":"0.0-4.0-0.58","subject_id":"606781fa7584b511b845d52c","study_id":"6197b3f67c2b5cd3b6d9596a","session_id":"619be786fd5f1cd6c8f8021e","condition":"full-information","relevant_dimensions":["antennae","legs"],"bee_group":{"antennae":"A","wings":"X","pattern":"X","legs":"F"},"action":"harvest","summary":"good-harvest","bonus":0.8200000000000011},{"rt":882.7999999988824,"stimulus":"\n                    <p><b>Action: <em>harvest</em></b></p>\n                    <p>This is the bee that you just saw.</p>\n                    <img src=\"bees-with-color/bee-B2SF.svg\" width=\"200\">\n                    <p><span class=\"greenText\"><b>Successful harvest!</b></span><br>Your pay has increased by $0.02. Your bonus pay is now $0.52.</p>\n            ","response":0,"trial_type":"html-button-response","trial_index":128,"time_elapsed":570804,"internal_node_id":"0.0-4.0-1.58","subject_id":"606781fa7584b511b845d52c","study_id":"6197b3f67c2b5cd3b6d9596a","session_id":"619be786fd5f1cd6c8f8021e","condition":"full-information","relevant_dimensions":["antennae","legs"],"bee_group":{"antennae":"A","wings":"X","pattern":"X","legs":"F"},"bonus":0.8200000000000011},{"rt":4435,"stimulus":"bees-with-color/bee-B1SM.svg","response":0,"trial_type":"image-button-response","trial_index":129,"time_elapsed":575240,"internal_node_id":"0.0-4.0-0.59","subject_id":"606781fa7584b511b845d52c","study_id":"6197b3f67c2b5cd3b6d9596a","session_id":"619be786fd5f1cd6c8f8021e","condition":"full-information","relevant_dimensions":["antennae","legs"],"bee_group":{"antennae":"A","wings":"X","pattern":"X","legs":"F"},"action":"harvest","summary":"good-harvest","bonus":0.8200000000000011},{"rt":802.9000000003725,"stimulus":"\n                    <p><b>Action: <em>harvest</em></b></p>\n                    <p>This is the bee that you just saw.</p>\n                    <img src=\"bees-with-color/bee-B1SM.svg\" width=\"200\">\n                    <p><span class=\"greenText\"><b>Successful harvest!</b></span><br>Your pay has increased by $0.02. Your bonus pay is now $0.54.</p>\n            ","response":0,"trial_type":"html-button-response","trial_index":130,"time_elapsed":576044,"internal_node_id":"0.0-4.0-1.59","subject_id":"606781fa7584b511b845d52c","study_id":"6197b3f67c2b5cd3b6d9596a","session_id":"619be786fd5f1cd6c8f8021e","condition":"full-information","relevant_dimensions":["antennae","legs"],"bee_group":{"antennae":"A","wings":"X","pattern":"X","legs":"F"},"bonus":0.8200000000000011},{"rt":2010.699999999255,"stimulus":"bees-with-color/bee-A2SF.svg","response":1,"trial_type":"image-button-response","trial_index":131,"time_elapsed":578056,"internal_node_id":"0.0-4.0-0.60","subject_id":"606781fa7584b511b845d52c","study_id":"6197b3f67c2b5cd3b6d9596a","session_id":"619be786fd5f1cd6c8f8021e","condition":"full-information","relevant_dimensions":["antennae","legs"],"bee_group":{"antennae":"A","wings":"X","pattern":"X","legs":"F"},"action":"avoid","summary":"good-avoid","bonus":0.8200000000000011},{"rt":1884.5999999996275,"stimulus":"\n                    <p><b>Action: <em>avoid</em></b></p>\n                    <p>This is the bee that you just saw.</p>\n                    <img src=\"bees-with-color/bee-A2SF.svg\" width=\"200\">\n                    <p><span class=\"greenText\">Good choice!</span>  This bee would have stung you.<br>Your bonus pay is unchanged, and remains at $0.54.</p>\n            ","response":0,"trial_type":"html-button-response","trial_index":132,"time_elapsed":579941,"internal_node_id":"0.0-4.0-1.60","subject_id":"606781fa7584b511b845d52c","study_id":"6197b3f67c2b5cd3b6d9596a","session_id":"619be786fd5f1cd6c8f8021e","condition":"full-information","relevant_dimensions":["antennae","legs"],"bee_group":{"antennae":"A","wings":"X","pattern":"X","legs":"F"},"bonus":0.8200000000000011},{"rt":2809.0999999996275,"stimulus":"bees-with-color/bee-B1DM.svg","response":0,"trial_type":"image-button-response","trial_index":133,"time_elapsed":582752,"internal_node_id":"0.0-4.0-0.61","subject_id":"606781fa7584b511b845d52c","study_id":"6197b3f67c2b5cd3b6d9596a","session_id":"619be786fd5f1cd6c8f8021e","condition":"full-information","relevant_dimensions":["antennae","legs"],"bee_group":{"antennae":"A","wings":"X","pattern":"X","legs":"F"},"action":"harvest","summary":"good-harvest","bonus":0.8200000000000011},{"rt":802.7999999988824,"stimulus":"\n                    <p><b>Action: <em>harvest</em></b></p>\n                    <p>This is the bee that you just saw.</p>\n                    <img src=\"bees-with-color/bee-B1DM.svg\" width=\"200\">\n                    <p><span class=\"greenText\"><b>Successful harvest!</b></span><br>Your pay has increased by $0.02. Your bonus pay is now $0.56.</p>\n            ","response":0,"trial_type":"html-button-response","trial_index":134,"time_elapsed":583556,"internal_node_id":"0.0-4.0-1.61","subject_id":"606781fa7584b511b845d52c","study_id":"6197b3f67c2b5cd3b6d9596a","session_id":"619be786fd5f1cd6c8f8021e","condition":"full-information","relevant_dimensions":["antennae","legs"],"bee_group":{"antennae":"A","wings":"X","pattern":"X","legs":"F"},"bonus":0.8200000000000011},{"rt":1664.800000000745,"stimulus":"bees-with-color/bee-A1DF.svg","response":1,"trial_type":"image-button-response","trial_index":135,"time_elapsed":585221,"internal_node_id":"0.0-4.0-0.62","subject_id":"606781fa7584b511b845d52c","study_id":"6197b3f67c2b5cd3b6d9596a","session_id":"619be786fd5f1cd6c8f8021e","condition":"full-information","relevant_dimensions":["antennae","legs"],"bee_group":{"antennae":"A","wings":"X","pattern":"X","legs":"F"},"action":"avoid","summary":"good-avoid","bonus":0.8200000000000011},{"rt":993.1999999992549,"stimulus":"\n                    <p><b>Action: <em>avoid</em></b></p>\n                    <p>This is the bee that you just saw.</p>\n                    <img src=\"bees-with-color/bee-A1DF.svg\" width=\"200\">\n                    <p><span class=\"greenText\">Good choice!</span>  This bee would have stung you.<br>Your bonus pay is unchanged, and remains at $0.56.</p>\n            ","response":0,"trial_type":"html-button-response","trial_index":136,"time_elapsed":586216,"internal_node_id":"0.0-4.0-1.62","subject_id":"606781fa7584b511b845d52c","study_id":"6197b3f67c2b5cd3b6d9596a","session_id":"619be786fd5f1cd6c8f8021e","condition":"full-information","relevant_dimensions":["antennae","legs"],"bee_group":{"antennae":"A","wings":"X","pattern":"X","legs":"F"},"bonus":0.8200000000000011},{"rt":2238.7999999988824,"stimulus":"bees-with-color/bee-A2DM.svg","response":1,"trial_type":"image-button-response","trial_index":137,"time_elapsed":588456,"internal_node_id":"0.0-4.0-0.63","subject_id":"606781fa7584b511b845d52c","study_id":"6197b3f67c2b5cd3b6d9596a","session_id":"619be786fd5f1cd6c8f8021e","condition":"full-information","relevant_dimensions":["antennae","legs"],"bee_group":{"antennae":"A","wings":"X","pattern":"X","legs":"F"},"action":"avoid","summary":"bad-avoid","bonus":0.8200000000000011},{"rt":899,"stimulus":"\n                    <p><b>Action: <em>avoid</em></b></p>\n                    <p>This is the bee that you just saw.</p>\n                    <img src=\"bees-with-color/bee-A2DM.svg\" width=\"200\">\n                    <p><span class=\"redText\">Bad choice,</span> the bee was friendly.<br>Your bonus pay is unchanged, and remains at $0.56.</p>\n            ","response":0,"trial_type":"html-button-response","trial_index":138,"time_elapsed":589356,"internal_node_id":"0.0-4.0-1.63","subject_id":"606781fa7584b511b845d52c","study_id":"6197b3f67c2b5cd3b6d9596a","session_id":"619be786fd5f1cd6c8f8021e","condition":"full-information","relevant_dimensions":["antennae","legs"],"bee_group":{"antennae":"A","wings":"X","pattern":"X","legs":"F"},"bonus":0.8200000000000011},{"rt":5416.4000000003725,"stimulus":"You have completed the first part of this experiment.<br><br>You will now begin a shorter second part, in which you will receive no feedback.<br>The same rules regarding bonus pay apply.<br><br>Press any key to begin.","response":" ","trial_type":"html-keyboard-response","trial_index":139,"time_elapsed":594774,"internal_node_id":"0.0-5.0","subject_id":"606781fa7584b511b845d52c","study_id":"6197b3f67c2b5cd3b6d9596a","session_id":"619be786fd5f1cd6c8f8021e","condition":"full-information","relevant_dimensions":["antennae","legs"],"bee_group":{"antennae":"A","wings":"X","pattern":"X","legs":"F"},"bonus":0.8200000000000011},{"rt":9733.5,"stimulus":"bees-with-color/bee-A2DF.svg","response":1,"trial_type":"image-button-response","trial_index":140,"time_elapsed":604516,"internal_node_id":"0.0-6.0-0.0","subject_id":"606781fa7584b511b845d52c","study_id":"6197b3f67c2b5cd3b6d9596a","session_id":"619be786fd5f1cd6c8f8021e","condition":"full-information","relevant_dimensions":["antennae","legs"],"bee_group":{"antennae":"A","wings":"X","pattern":"X","legs":"F"},"bonus":0.8200000000000011},{"rt":3627.9000000003725,"stimulus":"bees-with-color/bee-A2DM.svg","response":0,"trial_type":"image-button-response","trial_index":141,"time_elapsed":608146,"internal_node_id":"0.0-6.0-0.1","subject_id":"606781fa7584b511b845d52c","study_id":"6197b3f67c2b5cd3b6d9596a","session_id":"619be786fd5f1cd6c8f8021e","condition":"full-information","relevant_dimensions":["antennae","legs"],"bee_group":{"antennae":"A","wings":"X","pattern":"X","legs":"F"},"bonus":0.8200000000000011},{"rt":3502.199999999255,"stimulus":"bees-with-color/bee-B1DF.svg","response":1,"trial_type":"image-button-response","trial_index":142,"time_elapsed":611650,"internal_node_id":"0.0-6.0-0.2","subject_id":"606781fa7584b511b845d52c","study_id":"6197b3f67c2b5cd3b6d9596a","session_id":"619be786fd5f1cd6c8f8021e","condition":"full-information","relevant_dimensions":["antennae","legs"],"bee_group":{"antennae":"A","wings":"X","pattern":"X","legs":"F"},"bonus":0.8200000000000011},{"rt":3202.300000000745,"stimulus":"bees-with-color/bee-A1SF.svg","response":1,"trial_type":"image-button-response","trial_index":143,"time_elapsed":614854,"internal_node_id":"0.0-6.0-0.3","subject_id":"606781fa7584b511b845d52c","study_id":"6197b3f67c2b5cd3b6d9596a","session_id":"619be786fd5f1cd6c8f8021e","condition":"full-information","relevant_dimensions":["antennae","legs"],"bee_group":{"antennae":"A","wings":"X","pattern":"X","legs":"F"},"bonus":0.8200000000000011},{"rt":1197.5999999996275,"stimulus":"bees-with-color/bee-B1DM.svg","response":0,"trial_type":"image-button-response","trial_index":144,"time_elapsed":616054,"internal_node_id":"0.0-6.0-0.4","subject_id":"606781fa7584b511b845d52c","study_id":"6197b3f67c2b5cd3b6d9596a","session_id":"619be786fd5f1cd6c8f8021e","condition":"full-information","relevant_dimensions":["antennae","legs"],"bee_group":{"antennae":"A","wings":"X","pattern":"X","legs":"F"},"bonus":0.8200000000000011},{"rt":2412.39999999851,"stimulus":"bees-with-color/bee-B2DM.svg","response":0,"trial_type":"image-button-response","trial_index":145,"time_elapsed":618468,"internal_node_id":"0.0-6.0-0.5","subject_id":"606781fa7584b511b845d52c","study_id":"6197b3f67c2b5cd3b6d9596a","session_id":"619be786fd5f1cd6c8f8021e","condition":"full-information","relevant_dimensions":["antennae","legs"],"bee_group":{"antennae":"A","wings":"X","pattern":"X","legs":"F"},"bonus":0.8200000000000011},{"rt":3014.0999999996275,"stimulus":"bees-with-color/bee-A1SM.svg","response":0,"trial_type":"image-button-response","trial_index":146,"time_elapsed":621484,"internal_node_id":"0.0-6.0-0.6","subject_id":"606781fa7584b511b845d52c","study_id":"6197b3f67c2b5cd3b6d9596a","session_id":"619be786fd5f1cd6c8f8021e","condition":"full-information","relevant_dimensions":["antennae","legs"],"bee_group":{"antennae":"A","wings":"X","pattern":"X","legs":"F"},"bonus":0.8200000000000011},{"rt":1284,"stimulus":"bees-with-color/bee-B1SF.svg","response":1,"trial_type":"image-button-response","trial_index":147,"time_elapsed":622770,"internal_node_id":"0.0-6.0-0.7","subject_id":"606781fa7584b511b845d52c","study_id":"6197b3f67c2b5cd3b6d9596a","session_id":"619be786fd5f1cd6c8f8021e","condition":"full-information","relevant_dimensions":["antennae","legs"],"bee_group":{"antennae":"A","wings":"X","pattern":"X","legs":"F"},"bonus":0.8200000000000011},{"rt":3052.2999999988824,"stimulus":"bees-with-color/bee-A1DF.svg","response":0,"trial_type":"image-button-response","trial_index":148,"time_elapsed":625824,"internal_node_id":"0.0-6.0-0.8","subject_id":"606781fa7584b511b845d52c","study_id":"6197b3f67c2b5cd3b6d9596a","session_id":"619be786fd5f1cd6c8f8021e","condition":"full-information","relevant_dimensions":["antennae","legs"],"bee_group":{"antennae":"A","wings":"X","pattern":"X","legs":"F"},"bonus":0.8200000000000011},{"rt":1222.199999999255,"stimulus":"bees-with-color/bee-B2DF.svg","response":0,"trial_type":"image-button-response","trial_index":149,"time_elapsed":627048,"internal_node_id":"0.0-6.0-0.9","subject_id":"606781fa7584b511b845d52c","study_id":"6197b3f67c2b5cd3b6d9596a","session_id":"619be786fd5f1cd6c8f8021e","condition":"full-information","relevant_dimensions":["antennae","legs"],"bee_group":{"antennae":"A","wings":"X","pattern":"X","legs":"F"},"bonus":0.8200000000000011},{"rt":1726.5999999996275,"stimulus":"bees-with-color/bee-B2SF.svg","response":0,"trial_type":"image-button-response","trial_index":150,"time_elapsed":628776,"internal_node_id":"0.0-6.0-0.10","subject_id":"606781fa7584b511b845d52c","study_id":"6197b3f67c2b5cd3b6d9596a","session_id":"619be786fd5f1cd6c8f8021e","condition":"full-information","relevant_dimensions":["antennae","legs"],"bee_group":{"antennae":"A","wings":"X","pattern":"X","legs":"F"},"bonus":0.8200000000000011},{"rt":3298.699999999255,"stimulus":"bees-with-color/bee-B1SM.svg","response":0,"trial_type":"image-button-response","trial_index":151,"time_elapsed":632076,"internal_node_id":"0.0-6.0-0.11","subject_id":"606781fa7584b511b845d52c","study_id":"6197b3f67c2b5cd3b6d9596a","session_id":"619be786fd5f1cd6c8f8021e","condition":"full-information","relevant_dimensions":["antennae","legs"],"bee_group":{"antennae":"A","wings":"X","pattern":"X","legs":"F"},"bonus":0.8200000000000011},{"rt":1946.7000000011176,"stimulus":"bees-with-color/bee-A1DM.svg","response":1,"trial_type":"image-button-response","trial_index":152,"time_elapsed":634024,"internal_node_id":"0.0-6.0-0.12","subject_id":"606781fa7584b511b845d52c","study_id":"6197b3f67c2b5cd3b6d9596a","session_id":"619be786fd5f1cd6c8f8021e","condition":"full-information","relevant_dimensions":["antennae","legs"],"bee_group":{"antennae":"A","wings":"X","pattern":"X","legs":"F"},"bonus":0.8200000000000011},{"rt":1584.2999999988824,"stimulus":"bees-with-color/bee-B2SM.svg","response":0,"trial_type":"image-button-response","trial_index":153,"time_elapsed":635610,"internal_node_id":"0.0-6.0-0.13","subject_id":"606781fa7584b511b845d52c","study_id":"6197b3f67c2b5cd3b6d9596a","session_id":"619be786fd5f1cd6c8f8021e","condition":"full-information","relevant_dimensions":["antennae","legs"],"bee_group":{"antennae":"A","wings":"X","pattern":"X","legs":"F"},"bonus":0.8200000000000011},{"rt":1294.5999999996275,"stimulus":"bees-with-color/bee-A2SF.svg","response":1,"trial_type":"image-button-response","trial_index":154,"time_elapsed":636906,"internal_node_id":"0.0-6.0-0.14","subject_id":"606781fa7584b511b845d52c","study_id":"6197b3f67c2b5cd3b6d9596a","session_id":"619be786fd5f1cd6c8f8021e","condition":"full-information","relevant_dimensions":["antennae","legs"],"bee_group":{"antennae":"A","wings":"X","pattern":"X","legs":"F"},"bonus":0.8200000000000011},{"rt":1410.5,"stimulus":"bees-with-color/bee-A2SM.svg","response":0,"trial_type":"image-button-response","trial_index":155,"time_elapsed":638318,"internal_