[{"success":true,"trial_type":"fullscreen","trial_index":0,"time_elapsed":6015,"internal_node_id":"0.0-0.0","subject_id":"5ec3b9e83f187802a6aa041e","study_id":"6197b3f67c2b5cd3b6d9596a","session_id":"619be78589b6e112a42aa99f","condition":"full-information","relevant_dimensions":["wings","pattern"],"bee_group":{"antennae":"X","wings":"2","pattern":"D","legs":"X"},"bonus":1.8200000000000012},{"success":true,"timeout":false,"failed_images":[],"failed_audio":[],"failed_video":[],"trial_type":"preload","trial_index":1,"time_elapsed":14194,"internal_node_id":"0.0-1.0","subject_id":"5ec3b9e83f187802a6aa041e","study_id":"6197b3f67c2b5cd3b6d9596a","session_id":"619be78589b6e112a42aa99f","condition":"full-information","relevant_dimensions":["wings","pattern"],"bee_group":{"antennae":"X","wings":"2","pattern":"D","legs":"X"},"bonus":1.8200000000000012},{"rt":32742,"stimulus":"Welcome! Press any key to begin.","response":" ","trial_type":"html-keyboard-response","trial_index":2,"time_elapsed":46937,"internal_node_id":"0.0-2.0","subject_id":"5ec3b9e83f187802a6aa041e","study_id":"6197b3f67c2b5cd3b6d9596a","session_id":"619be78589b6e112a42aa99f","condition":"full-information","relevant_dimensions":["wings","pattern"],"bee_group":{"antennae":"X","wings":"2","pattern":"D","legs":"X"},"bonus":1.8200000000000012},{"view_history":[{"page_index":0,"viewing_time":35029.200000047684},{"page_index":1,"viewing_time":25645.399999976158},{"page_index":2,"viewing_time":1267.8000000715256},{"page_index":3,"viewing_time":1483.2999999523163},{"page_index":4,"viewing_time":1499.8999999761581},{"page_index":5,"viewing_time":2999.5},{"page_index":6,"viewing_time":1533.3000000715256},{"page_index":7,"viewing_time":2700.7999999523163},{"page_index":8,"viewing_time":498.89999997615814},{"page_index":9,"viewing_time":466.89999997615814},{"page_index":10,"viewing_time":978.4000000953674},{"page_index":11,"viewing_time":1687.2999999523163},{"page_index":12,"viewing_time":1302.3999999761581},{"page_index":13,"viewing_time":1848.2000000476837},{"page_index":14,"viewing_time":2532.5}],"rt":81474.20000004768,"trial_type":"instructions","trial_index":3,"time_elapsed":128412,"internal_node_id":"0.0-3.0-0.0","subject_id":"5ec3b9e83f187802a6aa041e","study_id":"6197b3f67c2b5cd3b6d9596a","session_id":"619be78589b6e112a42aa99f","condition":"full-information","relevant_dimensions":["wings","pattern"],"bee_group":{"antennae":"X","wings":"2","pattern":"D","legs":"X"},"bonus":1.8200000000000012},{"rt":14645.399999976158,"response":{"Q0":["Two or six legs","Stripes or spots on body","Single or double wings","Antennae or no antennae"]},"question_order":[0],"trial_type":"survey-multi-select","trial_index":4,"time_elapsed":143061,"internal_node_id":"0.0-3.0-1.0","subject_id":"5ec3b9e83f187802a6aa041e","study_id":"6197b3f67c2b5cd3b6d9596a","session_id":"619be78589b6e112a42aa99f","condition":"full-information","relevant_dimensions":["wings","pattern"],"bee_group":{"antennae":"X","wings":"2","pattern":"D","legs":"X"},"correct":true,"bonus":1.8200000000000012},{"rt":23159.700000047684,"response":{"Q1":"No.","Q2":"Based on the four features of the bee.","Q3":"You learn if it was friendly or dangerous, but do not alter your bonus."},"question_order":[0,1,2],"trial_type":"survey-multi-choice","trial_index":5,"time_elapsed":166224,"internal_node_id":"0.0-3.0-2.0","subject_id":"5ec3b9e83f187802a6aa041e","study_id":"6197b3f67c2b5cd3b6d9596a","session_id":"619be78589b6e112a42aa99f","condition":"full-information","relevant_dimensions":["wings","pattern"],"bee_group":{"antennae":"X","wings":"2","pattern":"D","legs":"X"},"correct":true,"bonus":1.8200000000000012},{"rt":1848.5,"stimulus":"<p>Congrats, you got everything right<br>When you're ready, click the button below to continue to the experiment.</p>","response":0,"trial_type":"html-button-response","trial_index":6,"time_elapsed":168074,"internal_node_id":"0.0-3.0-3.0","subject_id":"5ec3b9e83f187802a6aa041e","study_id":"6197b3f67c2b5cd3b6d9596a","session_id":"619be78589b6e112a42aa99f","condition":"full-information","relevant_dimensions":["wings","pattern"],"bee_group":{"antennae":"X","wings":"2","pattern":"D","legs":"X"},"bonus":1.8200000000000012},{"rt":13162.100000023842,"stimulus":"bees-with-color/bee-B1SM.svg","response":1,"trial_type":"image-button-response","trial_index":7,"time_elapsed":181239,"internal_node_id":"0.0-4.0-0.0","subject_id":"5ec3b9e83f187802a6aa041e","study_id":"6197b3f67c2b5cd3b6d9596a","session_id":"619be78589b6e112a42aa99f","condition":"full-information","relevant_dimensions":["wings","pattern"],"bee_group":{"antennae":"X","wings":"2","pattern":"D","legs":"X"},"action":"avoid","summary":"bad-avoid","bonus":1.8200000000000012},{"rt":24961,"stimulus":"\n                    <p><b>Action: <em>avoid</em></b></p>\n                    <p>This is the bee that you just saw.</p>\n                    <img src=\"bees-with-color/bee-B1SM.svg\" width=\"200\">\n                    <p><span class=\"redText\">Bad choice,</span> the bee was friendly.<br>Your bonus pay is unchanged, and remains at $0.54.</p>\n            ","response":0,"trial_type":"html-button-response","trial_index":8,"time_elapsed":206204,"internal_node_id":"0.0-4.0-1.0","subject_id":"5ec3b9e83f187802a6aa041e","study_id":"6197b3f67c2b5cd3b6d9596a","session_id":"619be78589b6e112a42aa99f","condition":"full-information","relevant_dimensions":["wings","pattern"],"bee_group":{"antennae":"X","wings":"2","pattern":"D","legs":"X"},"bonus":1.8200000000000012},{"rt":22013.899999976158,"stimulus":"bees-with-color/bee-A1SM.svg","response":1,"trial_type":"image-button-response","trial_index":9,"time_elapsed":228220,"internal_node_id":"0.0-4.0-0.1","subject_id":"5ec3b9e83f187802a6aa041e","study_id":"6197b3f67c2b5cd3b6d9596a","session_id":"619be78589b6e112a42aa99f","condition":"full-information","relevant_dimensions":["wings","pattern"],"bee_group":{"antennae":"X","wings":"2","pattern":"D","legs":"X"},"action":"avoid","summary":"bad-avoid","bonus":1.8200000000000012},{"rt":4128.799999952316,"stimulus":"\n                    <p><b>Action: <em>avoid</em></b></p>\n                    <p>This is the bee that you just saw.</p>\n                    <img src=\"bees-with-color/bee-A1SM.svg\" width=\"200\">\n                    <p><span class=\"redText\">Bad choice,</span> the bee was friendly.<br>Your bonus pay is unchanged, and remains at $0.54.</p>\n            ","response":0,"trial_type":"html-button-response","trial_index":10,"time_elapsed":232351,"internal_node_id":"0.0-4.0-1.1","subject_id":"5ec3b9e83f187802a6aa041e","study_id":"6197b3f67c2b5cd3b6d9596a","session_id":"619be78589b6e112a42aa99f","condition":"full-information","relevant_dimensions":["wings","pattern"],"bee_group":{"antennae":"X","wings":"2","pattern":"D","legs":"X"},"bonus":1.8200000000000012},{"rt":11212.800000071526,"stimulus":"bees-with-color/bee-B2SM.svg","response":1,"trial_type":"image-button-response","trial_index":11,"time_elapsed":243567,"internal_node_id":"0.0-4.0-0.2","subject_id":"5ec3b9e83f187802a6aa041e","study_id":"6197b3f67c2b5cd3b6d9596a","session_id":"619be78589b6e112a42aa99f","condition":"full-information","relevant_dimensions":["wings","pattern"],"bee_group":{"antennae":"X","wings":"2","pattern":"D","legs":"X"},"action":"avoid","summary":"bad-avoid","bonus":1.8200000000000012},{"rt":2080.600000023842,"stimulus":"\n                    <p><b>Action: <em>avoid</em></b></p>\n                    <p>This is the bee that you just saw.</p>\n                    <img src=\"bees-with-color/bee-B2SM.svg\" width=\"200\">\n                    <p><span class=\"redText\">Bad choice,</span> the bee was friendly.<br>Your bonus pay is unchanged, and remains at $0.54.</p>\n            ","response":0,"trial_type":"html-button-response","trial_index":12,"time_elapsed":245649,"internal_node_id":"0.0-4.0-1.2","subject_id":"5ec3b9e83f187802a6aa041e","study_id":"6197b3f67c2b5cd3b6d9596a","session_id":"619be78589b6e112a42aa99f","condition":"full-information","relevant_dimensions":["wings","pattern"],"bee_group":{"antennae":"X","wings":"2","pattern":"D","legs":"X"},"bonus":1.8200000000000012},{"rt":15432.300000071526,"stimulus":"bees-with-color/bee-B2DF.svg","response":1,"trial_type":"image-button-response","trial_index":13,"time_elapsed":261083,"internal_node_id":"0.0-4.0-0.3","subject_id":"5ec3b9e83f187802a6aa041e","study_id":"6197b3f67c2b5cd3b6d9596a","session_id":"619be78589b6e112a42aa99f","condition":"full-information","relevant_dimensions":["wings","pattern"],"bee_group":{"antennae":"X","wings":"2","pattern":"D","legs":"X"},"action":"avoid","summary":"good-avoid","bonus":1.8200000000000012},{"rt":3379.6999999284744,"stimulus":"\n                    <p><b>Action: <em>avoid</em></b></p>\n                    <p>This is the bee that you just saw.</p>\n                    <img src=\"bees-with-color/bee-B2DF.svg\" width=\"200\">\n                    <p><span class=\"greenText\">Good choice!</span>  This bee would have stung you.<br>Your bonus pay is unchanged, and remains at $0.54.</p>\n            ","response":0,"trial_type":"html-button-response","trial_index":14,"time_elapsed":264464,"internal_node_id":"0.0-4.0-1.3","subject_id":"5ec3b9e83f187802a6aa041e","study_id":"6197b3f67c2b5cd3b6d9596a","session_id":"619be78589b6e112a42aa99f","condition":"full-information","relevant_dimensions":["wings","pattern"],"bee_group":{"antennae":"X","wings":"2","pattern":"D","legs":"X"},"bonus":1.8200000000000012},{"rt":15243.5,"stimulus":"bees-with-color/bee-A1DF.svg","response":1,"trial_type":"image-button-response","trial_index":15,"time_elapsed":279710,"internal_node_id":"0.0-4.0-0.4","subject_id":"5ec3b9e83f187802a6aa041e","study_id":"6197b3f67c2b5cd3b6d9596a","session_id":"619be78589b6e112a42aa99f","condition":"full-information","relevant_dimensions":["wings","pattern"],"bee_group":{"antennae":"X","wings":"2","pattern":"D","legs":"X"},"action":"avoid","summary":"bad-avoid","bonus":1.8200000000000012},{"rt":2749.100000023842,"stimulus":"\n                    <p><b>Action: <em>avoid</em></b></p>\n                    <p>This is the bee that you just saw.</p>\n                    <img src=\"bees-with-color/bee-A1DF.svg\" width=\"200\">\n                    <p><span class=\"redText\">Bad choice,</span> the bee was friendly.<br>Your bonus pay is unchanged, and remains at $0.54.</p>\n            ","response":0,"trial_type":"html-button-response","trial_index":16,"time_elapsed":282461,"internal_node_id":"0.0-4.0-1.4","subject_id":"5ec3b9e83f187802a6aa041e","study_id":"6197b3f67c2b5cd3b6d9596a","session_id":"619be78589b6e112a42aa99f","condition":"full-information","relevant_dimensions":["wings","pattern"],"bee_group":{"antennae":"X","wings":"2","pattern":"D","legs":"X"},"bonus":1.8200000000000012},{"rt":13347.300000071526,"stimulus":"bees-with-color/bee-A1SF.svg","response":1,"trial_type":"image-button-response","trial_index":17,"time_elapsed":295810,"internal_node_id":"0.0-4.0-0.5","subject_id":"5ec3b9e83f187802a6aa041e","study_id":"6197b3f67c2b5cd3b6d9596a","session_id":"619be78589b6e112a42aa99f","condition":"full-information","relevant_dimensions":["wings","pattern"],"bee_group":{"antennae":"X","wings":"2","pattern":"D","legs":"X"},"action":"avoid","summary":"bad-avoid","bonus":1.8200000000000012},{"rt":1299.1999999284744,"stimulus":"\n                    <p><b>Action: <em>avoid</em></b></p>\n                    <p>This is the bee that you just saw.</p>\n                    <img src=\"bees-with-color/bee-A1SF.svg\" width=\"200\">\n                    <p><span class=\"redText\">Bad choice,</span> the bee was friendly.<br>Your bonus pay is unchanged, and remains at $0.54.</p>\n            ","response":0,"trial_type":"html-button-response","trial_index":18,"time_elapsed":297110,"internal_node_id":"0.0-4.0-1.5","subject_id":"5ec3b9e83f187802a6aa041e","study_id":"6197b3f67c2b5cd3b6d9596a","session_id":"619be78589b6e112a42aa99f","condition":"full-information","relevant_dimensions":["wings","pattern"],"bee_group":{"antennae":"X","wings":"2","pattern":"D","legs":"X"},"bonus":1.8200000000000012},{"rt":15845.300000071526,"stimulus":"bees-with-color/bee-B1SF.svg","response":1,"trial_type":"image-button-response","trial_index":19,"time_elapsed":312959,"internal_node_id":"0.0-4.0-0.6","subject_id":"5ec3b9e83f187802a6aa041e","study_id":"6197b3f67c2b5cd3b6d9596a","session_id":"619be78589b6e112a42aa99f","condition":"full-information","relevant_dimensions":["wings","pattern"],"bee_group":{"antennae":"X","wings":"2","pattern":"D","legs":"X"},"action":"avoid","summary":"bad-avoid","bonus":1.8200000000000012},{"rt":2973,"stimulus":"\n                    <p><b>Action: <em>avoid</em></b></p>\n                    <p>This is the bee that you just saw.</p>\n                    <img src=\"bees-with-color/bee-B1SF.svg\" width=\"200\">\n                    <p><span class=\"redText\">Bad choice,</span> the bee was friendly.<br>Your bonus pay is unchanged, and remains at $0.54.</p>\n            ","response":0,"trial_type":"html-button-response","trial_index":20,"time_elapsed":315933,"internal_node_id":"0.0-4.0-1.6","subject_id":"5ec3b9e83f187802a6aa041e","study_id":"6197b3f67c2b5cd3b6d9596a","session_id":"619be78589b6e112a42aa99f","condition":"full-information","relevant_dimensions":["wings","pattern"],"bee_group":{"antennae":"X","wings":"2","pattern":"D","legs":"X"},"bonus":1.8200000000000012},{"rt":15836.699999928474,"stimulus":"bees-with-color/bee-A2DF.svg","response":1,"trial_type":"image-button-response","trial_index":21,"time_elapsed":331772,"internal_node_id":"0.0-4.0-0.7","subject_id":"5ec3b9e83f187802a6aa041e","study_id":"6197b3f67c2b5cd3b6d9596a","session_id":"619be78589b6e112a42aa99f","condition":"full-information","relevant_dimensions":["wings","pattern"],"bee_group":{"antennae":"X","wings":"2","pattern":"D","legs":"X"},"action":"avoid","summary":"good-avoid","bonus":1.8200000000000012},{"rt":5264,"stimulus":"\n                    <p><b>Action: <em>avoid</em></b></p>\n                    <p>This is the bee that you just saw.</p>\n                    <img src=\"bees-with-color/bee-A2DF.svg\" width=\"200\">\n                    <p><span class=\"greenText\">Good choice!</span>  This bee would have stung you.<br>Your bonus pay is unchanged, and remains at $0.54.</p>\n            ","response":0,"trial_type":"html-button-response","trial_index":22,"time_elapsed":337038,"internal_node_id":"0.0-4.0-1.7","subject_id":"5ec3b9e83f187802a6aa041e","study_id":"6197b3f67c2b5cd3b6d9596a","session_id":"619be78589b6e112a42aa99f","condition":"full-information","relevant_dimensions":["wings","pattern"],"bee_group":{"antennae":"X","wings":"2","pattern":"D","legs":"X"},"bonus":1.8200000000000012},{"rt":11046.799999952316,"stimulus":"bees-with-color/bee-B2DM.svg","response":1,"trial_type":"image-button-response","trial_index":23,"time_elapsed":348087,"internal_node_id":"0.0-4.0-0.8","subject_id":"5ec3b9e83f187802a6aa041e","study_id":"6197b3f67c2b5cd3b6d9596a","session_id":"619be78589b6e112a42aa99f","condition":"full-information","relevant_dimensions":["wings","pattern"],"bee_group":{"antennae":"X","wings":"2","pattern":"D","legs":"X"},"action":"avoid","summary":"good-avoid","bonus":1.8200000000000012},{"rt":6131,"stimulus":"\n                    <p><b>Action: <em>avoid</em></b></p>\n                    <p>This is the bee that you just saw.</p>\n                    <img src=\"bees-with-color/bee-B2DM.svg\" width=\"200\">\n                    <p><span class=\"greenText\">Good choice!</span>  This bee would have stung you.<br>Your bonus pay is unchanged, and remains at $0.54.</p>\n            ","response":0,"trial_type":"html-button-response","trial_index":24,"time_elapsed":354220,"internal_node_id":"0.0-4.0-1.8","subject_id":"5ec3b9e83f187802a6aa041e","study_id":"6197b3f67c2b5cd3b6d9596a","session_id":"619be78589b6e112a42aa99f","condition":"full-information","relevant_dimensions":["wings","pattern"],"bee_group":{"antennae":"X","wings":"2","pattern":"D","legs":"X"},"bonus":1.8200000000000012},{"rt":15730.600000023842,"stimulus":"bees-with-color/bee-B1DM.svg","response":1,"trial_type":"image-button-response","trial_index":25,"time_elapsed":369952,"internal_node_id":"0.0-4.0-0.9","subject_id":"5ec3b9e83f187802a6aa041e","study_id":"6197b3f67c2b5cd3b6d9596a","session_id":"619be78589b6e112a42aa99f","condition":"full-information","relevant_dimensions":["wings","pattern"],"bee_group":{"antennae":"X","wings":"2","pattern":"D","legs":"X"},"action":"avoid","summary":"bad-avoid","bonus":1.8200000000000012},{"rt":10413.5,"stimulus":"\n                    <p><b>Action: <em>avoid</em></b></p>\n                    <p>This is the bee that you just saw.</p>\n                    <img src=\"bees-with-color/bee-B1DM.svg\" width=\"200\">\n                    <p><span class=\"redText\">Bad choice,</span> the bee was friendly.<br>Your bonus pay is unchanged, and remains at $0.54.</p>\n            ","response":0,"trial_type":"html-button-response","trial_index":26,"time_elapsed":380368,"internal_node_id":"0.0-4.0-1.9","subject_id":"5ec3b9e83f187802a6aa041e","study_id":"6197b3f67c2b5cd3b6d9596a","session_id":"619be78589b6e112a42aa99f","condition":"full-information","relevant_dimensions":["wings","pattern"],"bee_group":{"antennae":"X","wings":"2","pattern":"D","legs":"X"},"bonus":1.8200000000000012},{"rt":12578.800000071526,"stimulus":"bees-with-color/bee-A2DM.svg","response":1,"trial_type":"image-button-response","trial_index":27,"time_elapsed":392948,"internal_node_id":"0.0-4.0-0.10","subject_id":"5ec3b9e83f187802a6aa041e","study_id":"6197b3f67c2b5cd3b6d9596a","session_id":"619be78589b6e112a42aa99f","condition":"full-information","relevant_dimensions":["wings","pattern"],"bee_group":{"antennae":"X","wings":"2","pattern":"D","legs":"X"},"action":"avoid","summary":"good-avoid","bonus":1.8200000000000012},{"rt":4148.100000023842,"stimulus":"\n                    <p><b>Action: <em>avoid</em></b></p>\n                    <p>This is the bee that you just saw.</p>\n                    <img src=\"bees-with-color/bee-A2DM.svg\" width=\"200\">\n                    <p><span class=\"greenText\">Good choice!</span>  This bee would have stung you.<br>Your bonus pay is unchanged, and remains at $0.54.</p>\n            ","response":0,"trial_type":"html-button-response","trial_index":28,"time_elapsed":397098,"internal_node_id":"0.0-4.0-1.10","subject_id":"5ec3b9e83f187802a6aa041e","study_id":"6197b3f67c2b5cd3b6d9596a","session_id":"619be78589b6e112a42aa99f","condition":"full-information","relevant_dimensions":["wings","pattern"],"bee_group":{"antennae":"X","wings":"2","pattern":"D","legs":"X"},"bonus":1.8200000000000012},{"rt":32342.600000023842,"stimulus":"bees-with-color/bee-B1DF.svg","response":1,"trial_type":"image-button-response","trial_index":29,"time_elapsed":429443,"internal_node_id":"0.0-4.0-0.11","subject_id":"5ec3b9e83f187802a6aa041e","study_id":"6197b3f67c2b5cd3b6d9596a","session_id":"619be78589b6e112a42aa99f","condition":"full-information","relevant_dimensions":["wings","pattern"],"bee_group":{"antennae":"X","wings":"2","pattern":"D","legs":"X"},"action":"avoid","summary":"bad-avoid","bonus":1.8200000000000012},{"rt":1482.8999999761581,"stimulus":"\n                    <p><b>Action: <em>avoid</em></b></p>\n                    <p>This is the bee that you just saw.</p>\n                    <img src=\"bees-with-color/bee-B1DF.svg\" width=\"200\">\n                    <p><span class=\"redText\">Bad choice,</span> the bee was friendly.<br>Your bonus pay is unchanged, and remains at $0.54.</p>\n            ","response":0,"trial_type":"html-button-response","trial_index":30,"time_elapsed":430927,"internal_node_id":"0.0-4.0-1.11","subject_id":"5ec3b9e83f187802a6aa041e","study_id":"6197b3f67c2b5cd3b6d9596a","session_id":"619be78589b6e112a42aa99f","condition":"full-information","relevant_dimensions":["wings","pattern"],"bee_group":{"antennae":"X","wings":"2","pattern":"D","legs":"X"},"bonus":1.8200000000000012},{"rt":23645.200000047684,"stimulus":"bees-with-color/bee-A2SF.svg","response":0,"trial_type":"image-button-response","trial_index":31,"time_elapsed":454575,"internal_node_id":"0.0-4.0-0.12","subject_id":"5ec3b9e83f187802a6aa041e","study_id":"6197b3f67c2b5cd3b6d9596a","session_id":"619be78589b6e112a42aa99f","condition":"full-information","relevant_dimensions":["wings","pattern"],"bee_group":{"antennae":"X","wings":"2","pattern":"D","legs":"X"},"action":"harvest","summary":"good-harvest","bonus":1.8200000000000012},{"rt":1631.7999999523163,"stimulus":"\n                    <p><b>Action: <em>harvest</em></b></p>\n                    <p>This is the bee that you just saw.</p>\n                    <img src=\"bees-with-color/bee-A2SF.svg\" width=\"200\">\n                    <p><span class=\"greenText\"><b>Successful harvest!</b></span><br>Your pay has increased by $0.02. Your bonus pay is now $0.56.</p>\n            ","response":0,"trial_type":"html-button-response","trial_index":32,"time_elapsed":456209,"internal_node_id":"0.0-4.0-1.12","subject_id":"5ec3b9e83f187802a6aa041e","study_id":"6197b3f67c2b5cd3b6d9596a","session_id":"619be78589b6e112a42aa99f","condition":"full-information","relevant_dimensions":["wings","pattern"],"bee_group":{"antennae":"X","wings":"2","pattern":"D","legs":"X"},"bonus":1.8200000000000012},{"rt":11293.299999952316,"stimulus":"bees-with-color/bee-B2SF.svg","response":0,"trial_type":"image-button-response","trial_index":33,"time_elapsed":467504,"internal_node_id":"0.0-4.0-0.13","subject_id":"5ec3b9e83f187802a6aa041e","study_id":"6197b3f67c2b5cd3b6d9596a","session_id":"619be78589b6e112a42aa99f","condition":"full-information","relevant_dimensions":["wings","pattern"],"bee_group":{"antennae":"X","wings":"2","pattern":"D","legs":"X"},"action":"harvest","summary":"good-harvest","bonus":1.8200000000000012},{"rt":1351.5,"stimulus":"\n                    <p><b>Action: <em>harvest</em></b></p>\n                    <p>This is the bee that you just saw.</p>\n                    <img src=\"bees-with-color/bee-B2SF.svg\" width=\"200\">\n                    <p><span class=\"greenText\"><b>Successful harvest!</b></span><br>Your pay has increased by $0.02. Your bonus pay is now $0.58.</p>\n            ","response":0,"trial_type":"html-button-response","trial_index":34,"time_elapsed":468857,"internal_node_id":"0.0-4.0-1.13","subject_id":"5ec3b9e83f187802a6aa041e","study_id":"6197b3f67c2b5cd3b6d9596a","session_id":"619be78589b6e112a42aa99f","condition":"full-information","relevant_dimensions":["wings","pattern"],"bee_group":{"antennae":"X","wings":"2","pattern":"D","legs":"X"},"bonus":1.8200000000000012},{"rt":10062.299999952316,"stimulus":"bees-with-color/bee-A2SM.svg","response":0,"trial_type":"image-button-response","trial_index":35,"time_elapsed":478921,"internal_node_id":"0.0-4.0-0.14","subject_id":"5ec3b9e83f187802a6aa041e","study_id":"6197b3f67c2b5cd3b6d9596a","session_id":"619be78589b6e112a42aa99f","condition":"full-information","relevant_dimensions":["wings","pattern"],"bee_group":{"antennae":"X","wings":"2","pattern":"D","legs":"X"},"action":"harvest","summary":"good-harvest","bonus":1.8200000000000012},{"rt":1200.2000000476837,"stimulus":"\n                    <p><b>Action: <em>harvest</em></b></p>\n                    <p>This is the bee that you just saw.</p>\n                    <img src=\"bees-with-color/bee-A2SM.svg\" width=\"200\">\n                    <p><span class=\"greenText\"><b>Successful harvest!</b></span><br>Your pay has increased by $0.02. Your bonus pay is now $0.60.</p>\n            ","response":0,"trial_type":"html-button-response","trial_index":36,"time_elapsed":480123,"internal_node_id":"0.0-4.0-1.14","subject_id":"5ec3b9e83f187802a6aa041e","study_id":"6197b3f67c2b5cd3b6d9596a","session_id":"619be78589b6e112a42aa99f","condition":"full-information","relevant_dimensions":["wings","pattern"],"bee_group":{"antennae":"X","wings":"2","pattern":"D","legs":"X"},"bonus":1.8200000000000012},{"rt":8247.100000023842,"stimulus":"bees-with-color/bee-A1DM.svg","response":0,"trial_type":"image-button-response","trial_index":37,"time_elapsed":488372,"internal_node_id":"0.0-4.0-0.15","subject_id":"5ec3b9e83f187802a6aa041e","study_id":"6197b3f67c2b5cd3b6d9596a","session_id":"619be78589b6e112a42aa99f","condition":"full-information","relevant_dimensions":["wings","pattern"],"bee_group":{"antennae":"X","wings":"2","pattern":"D","legs":"X"},"action":"harvest","summary":"good-harvest","bonus":1.8200000000000012},{"rt":1081.2000000476837,"stimulus":"\n                    <p><b>Action: <em>harvest</em></b></p>\n                    <p>This is the bee that you just saw.</p>\n                    <img src=\"bees-with-color/bee-A1DM.svg\" width=\"200\">\n                    <p><span class=\"greenText\"><b>Successful harvest!</b></span><br>Your pay has increased by $0.02. Your bonus pay is now $0.62.</p>\n            ","response":0,"trial_type":"html-button-response","trial_index":38,"time_elapsed":489454,"internal_node_id":"0.0-4.0-1.15","subject_id":"5ec3b9e83f187802a6aa041e","study_id":"6197b3f67c2b5cd3b6d9596a","session_id":"619be78589b6e112a42aa99f","condition":"full-information","relevant_dimensions":["wings","pattern"],"bee_group":{"antennae":"X","wings":"2","pattern":"D","legs":"X"},"bonus":1.8200000000000012},{"rt":7114.299999952316,"stimulus":"bees-with-color/bee-B2SM.svg","response":0,"trial_type":"image-button-response","trial_index":39,"time_elapsed":496571,"internal_node_id":"0.0-4.0-0.16","subject_id":"5ec3b9e83f187802a6aa041e","study_id":"6197b3f67c2b5cd3b6d9596a","session_id":"619be78589b6e112a42aa99f","condition":"full-information","relevant_dimensions":["wings","pattern"],"bee_group":{"antennae":"X","wings":"2","pattern":"D","legs":"X"},"action":"harvest","summary":"good-harvest","bonus":1.8200000000000012},{"rt":982.8999999761581,"stimulus":"\n                    <p><b>Action: <em>harvest</em></b></p>\n                    <p>This is the bee that you just saw.</p>\n                    <img src=\"bees-with-color/bee-B2SM.svg\" width=\"200\">\n                    <p><span class=\"greenText\"><b>Successful harvest!</b></span><br>Your pay has increased by $0.02. Your bonus pay is now $0.64.</p>\n            ","response":0,"trial_type":"html-button-response","trial_index":40,"time_elapsed":497555,"internal_node_id":"0.0-4.0-1.16","subject_id":"5ec3b9e83f187802a6aa041e","study_id":"6197b3f67c2b5cd3b6d9596a","session_id":"619be78589b6e112a42aa99f","condition":"full-information","relevant_dimensions":["wings","pattern"],"bee_group":{"antennae":"X","wings":"2","pattern":"D","legs":"X"},"bonus":1.8200000000000012},{"rt":8461.100000023842,"stimulus":"bees-with-color/bee-B1DM.svg","response":0,"trial_type":"image-button-response","trial_index":41,"time_elapsed":506018,"internal_node_id":"0.0-4.0-0.17","subject_id":"5ec3b9e83f187802a6aa041e","study_id":"6197b3f67c2b5cd3b6d9596a","session_id":"619be78589b6e112a42aa99f","condition":"full-information","relevant_dimensions":["wings","pattern"],"bee_group":{"antennae":"X","wings":"2","pattern":"D","legs":"X"},"action":"harvest","summary":"good-harvest","bonus":1.8200000000000012},{"rt":867.7000000476837,"stimulus":"\n                    <p><b>Action: <em>harvest</em></b></p>\n                    <p>This is the bee that you just saw.</p>\n                    <img src=\"bees-with-color/bee-B1DM.svg\" width=\"200\">\n                    <p><span class=\"greenText\"><b>Successful harvest!</b></span><br>Your pay has increased by $0.02. Your bonus pay is now $0.66.</p>\n            ","response":0,"trial_type":"html-button-response","trial_index":42,"time_elapsed":506887,"internal_node_id":"0.0-4.0-1.17","subject_id":"5ec3b9e83f187802a6aa041e","study_id":"6197b3f67c2b5cd3b6d9596a","session_id":"619be78589b6e112a42aa99f","condition":"full-information","relevant_dimensions":["wings","pattern"],"bee_group":{"antennae":"X","wings":"2","pattern":"D","legs":"X"},"bonus":1.8200000000000012},{"rt":11597,"stimulus":"bees-with-color/bee-A1SM.svg","response":0,"trial_type":"image-button-response","trial_index":43,"time_elapsed":518486,"internal_node_id":"0.0-4.0-0.18","subject_id":"5ec3b9e83f187802a6aa041e","study_id":"6197b3f67c2b5cd3b6d9596a","session_id":"619be78589b6e112a42aa99f","condition":"full-information","relevant_dimensions":["wings","pattern"],"bee_group":{"antennae":"X","wings":"2","pattern":"D","legs":"X"},"action":"harvest","summary":"good-harvest","bonus":1.8200000000000012},{"rt":1030.5,"stimulus":"\n                    <p><b>Action: <em>harvest</em></b></p>\n                    <p>This is the bee that you just saw.</p>\n                    <img src=\"bees-with-color/bee-A1SM.svg\" width=\"200\">\n                    <p><span class=\"greenText\"><b>Successful harvest!</b></span><br>Your pay has increased by $0.02. Your bonus pay is now $0.68.</p>\n            ","response":0,"trial_type":"html-button-response","trial_index":44,"time_elapsed":519518,"internal_node_id":"0.0-4.0-1.18","subject_id":"5ec3b9e83f187802a6aa041e","study_id":"6197b3f67c2b5cd3b6d9596a","session_id":"619be78589b6e112a42aa99f","condition":"full-information","relevant_dimensions":["wings","pattern"],"bee_group":{"antennae":"X","wings":"2","pattern":"D","legs":"X"},"bonus":1.8200000000000012},{"rt":5713.799999952316,"stimulus":"bees-with-color/bee-A2DF.svg","response":1,"trial_type":"image-button-response","trial_index":45,"time_elapsed":525234,"internal_node_id":"0.0-4.0-0.19","subject_id":"5ec3b9e83f187802a6aa041e","study_id":"6197b3f67c2b5cd3b6d9596a","session_id":"619be78589b6e112a42aa99f","condition":"full-information","relevant_dimensions":["wings","pattern"],"bee_group":{"antennae":"X","wings":"2","pattern":"D","legs":"X"},"action":"avoid","summary":"good-avoid","bonus":1.8200000000000012},{"rt":1582,"stimulus":"\n                    <p><b>Action: <em>avoid</em></b></p>\n                    <p>This is the bee that you just saw.</p>\n                    <img src=\"bees-with-color/bee-A2DF.svg\" width=\"200\">\n                    <p><span class=\"greenText\">Good choice!</span>  This bee would have stung you.<br>Your bonus pay is unchanged, and remains at $0.68.</p>\n            ","response":0,"trial_type":"html-button-response","trial_index":46,"time_elapsed":526817,"internal_node_id":"0.0-4.0-1.19","subject_id":"5ec3b9e83f187802a6aa041e","study_id":"6197b3f67c2b5cd3b6d9596a","session_id":"619be78589b6e112a42aa99f","condition":"full-information","relevant_dimensions":["wings","pattern"],"bee_group":{"antennae":"X","wings":"2","pattern":"D","legs":"X"},"bonus":1.8200000000000012},{"rt":18752.5,"stimulus":"bees-with-color/bee-A1DM.svg","response":0,"trial_type":"image-button-response","trial_index":47,"time_elapsed":545571,"internal_node_id":"0.0-4.0-0.20","subject_id":"5ec3b9e83f187802a6aa041e","study_id":"6197b3f67c2b5cd3b6d9596a","session_id":"619be78589b6e112a42aa99f","condition":"full-information","relevant_dimensions":["wings","pattern"],"bee_group":{"antennae":"X","wings":"2","pattern":"D","legs":"X"},"action":"harvest","summary":"good-harvest","bonus":1.8200000000000012},{"rt":1358.6000000238419,"stimulus":"\n                    <p><b>Action: <em>harvest</em></b></p>\n                    <p>This is the bee that you just saw.</p>\n                    <img src=\"bees-with-color/bee-A1DM.svg\" width=\"200\">\n                    <p><span class=\"greenText\"><b>Successful harvest!</b></span><br>Your pay has increased by $0.02. Your bonus pay is now $0.70.</p>\n            ","response":0,"trial_type":"html-button-response","trial_index":48,"time_elapsed":546932,"internal_node_id":"0.0-4.0-1.20","subject_id":"5ec3b9e83f187802a6aa041e","study_id":"6197b3f67c2b5cd3b6d9596a","session_id":"619be78589b6e112a42aa99f","condition":"full-information","relevant_dimensions":["wings","pattern"],"bee_group":{"antennae":"X","wings":"2","pattern":"D","legs":"X"},"bonus":1.8200000000000012},{"rt":1075,"stimulus":"bees-with-color/bee-B1SM.svg","response":0,"trial_type":"image-button-response","trial_index":49,"time_elapsed":548009,"internal_node_id":"0.0-4.0-0.21","subject_id":"5ec3b9e83f187802a6aa041e","study_id":"6197b3f67c2b5cd3b6d9596a","session_id":"619be78589b6e112a42aa99f","condition":"full-information","relevant_dimensions":["wings","pattern"],"bee_group":{"antennae":"X","wings":"2","pattern":"D","legs":"X"},"action":"harvest","summary":"good-harvest","bonus":1.8200000000000012},{"rt":592.1999999284744,"stimulus":"\n                    <p><b>Action: <em>harvest</em></b></p>\n                    <p>This is the bee that you just saw.</p>\n                    <img src=\"bees-with-color/bee-B1SM.svg\" width=\"200\">\n                    <p><span class=\"greenText\"><b>Successful harvest!</b></span><br>Your pay has increased by $0.02. Your bonus pay is now $0.72.</p>\n            ","response":0,"trial_type":"html-button-response","trial_index":50,"time_elapsed":548602,"internal_node_id":"0.0-4.0-1.21","subject_id":"5ec3b9e83f187802a6aa041e","study_id":"6197b3f67c2b5cd3b6d9596a","session_id":"619be78589b6e112a42aa99f","condition":"full-information","relevant_dimensions":["wings","pattern"],"bee_group":{"antennae":"X","wings":"2","pattern":"D","legs":"X"},"bonus":1.8200000000000012},{"rt":1290.7999999523163,"stimulus":"bees-with-color/bee-A2SM.svg","response":0,"trial_type":"image-button-response","trial_index":51,"time_elapsed":549894,"internal_node_id":"0.0-4.0-0.22","subject_id":"5ec3b9e83f187802a6aa041e","study_id":"6197b3f67c2b5cd3b6d9596a","session_id":"619be78589b6e112a42aa99f","condition":"full-information","relevant_dimensions":["wings","pattern"],"bee_group":{"antennae":"X","wings":"2","pattern":"D","legs":"X"},"action":"harvest","summary":"good-harvest","bonus":1.8200000000000012},{"rt":638,"stimulus":"\n                    <p><b>Action: <em>harvest</em></b></p>\n                    <p>This is the bee that you just saw.</p>\n                    <img src=\"bees-with-color/bee-A2SM.svg\" width=\"200\">\n                    <p><span class=\"greenText\"><b>Successful harvest!</b></span><br>Your pay has increased by $0.02. Your bonus pay is now $0.74.</p>\n            ","response":0,"trial_type":"html-button-response","trial_index":52,"time_elapsed":550534,"internal_node_id":"0.0-4.0-1.22","subject_id":"5ec3b9e83f187802a6aa041e","study_id":"6197b3f67c2b5cd3b6d9596a","session_id":"619be78589b6e112a42aa99f","condition":"full-information","relevant_dimensions":["wings","pattern"],"bee_group":{"antennae":"X","wings":"2","pattern":"D","legs":"X"},"bonus":1.8200000000000012},{"rt":1439.6999999284744,"stimulus":"bees-with-color/bee-A2DM.svg","response":1,"trial_type":"image-button-response","trial_index":53,"time_elapsed":551975,"internal_node_id":"0.0-4.0-0.23","subject_id":"5ec3b9e83f187802a6aa041e","study_id":"6197b3f67c2b5cd3b6d9596a","session_id":"619be78589b6e112a42aa99f","condition":"full-information","relevant_dimensions":["wings","pattern"],"bee_group":{"antennae":"X","wings":"2","pattern":"D","legs":"X"},"action":"avoid","summary":"good-avoid","bonus":1.8200000000000012},{"rt":953.2000000476837,"stimulus":"\n                    <p><b>Action: <em>avoid</em></b></p>\n                    <p>This is the bee that you just saw.</p>\n                    <img src=\"bees-with-color/bee-A2DM.svg\" width=\"200\">\n                    <p><span class=\"greenText\">Good choice!</span>  This bee would have stung you.<br>Your bonus pay is unchanged, and remains at $0.74.</p>\n            ","response":0,"trial_type":"html-button-response","trial_index":54,"time_elapsed":552930,"internal_node_id":"0.0-4.0-1.23","subject_id":"5ec3b9e83f187802a6aa041e","study_id":"6197b3f67c2b5cd3b6d9596a","session_id":"619be78589b6e112a42aa99f","condition":"full-information","relevant_dimensions":["wings","pattern"],"bee_group":{"antennae":"X","wings":"2","pattern":"D","legs":"X"},"bonus":1.8200000000000012},{"rt":960.8999999761581,"stimulus":"bees-with-color/bee-B1DF.svg","response":0,"trial_type":"image-button-response","trial_index":55,"time_elapsed":553892,"internal_node_id":"0.0-4.0-0.24","subject_id":"5ec3b9e83f187802a6aa041e","study_id":"6197b3f67c2b5cd3b6d9596a","session_id":"619be78589b6e112a42aa99f","condition":"full-information","relevant_dimensions":["wings","pattern"],"bee_group":{"antennae":"X","wings":"2","pattern":"D","legs":"X"},"action":"harvest","summary":"good-harvest","bonus":1.8200000000000012},{"rt":653.8999999761581,"stimulus":"\n                    <p><b>Action: <em>harvest</em></b></p>\n                    <p>This is the bee that you just saw.</p>\n                    <img src=\"bees-with-color/bee-B1DF.svg\" width=\"200\">\n                    <p><span class=\"greenText\"><b>Successful harvest!</b></span><br>Your pay has increased by $0.02. Your bonus pay is now $0.76.</p>\n            ","response":0,"trial_type":"html-button-response","trial_index":56,"time_elapsed":554548,"internal_node_id":"0.0-4.0-1.24","subject_id":"5ec3b9e83f187802a6aa041e","study_id":"6197b3f67c2b5cd3b6d9596a","session_id":"619be78589b6e112a42aa99f","condition":"full-information","relevant_dimensions":["wings","pattern"],"bee_group":{"antennae":"X","wings":"2","pattern":"D","legs":"X"},"bonus":1.8200000000000012},{"rt":1680.5,"stimulus":"bees-with-color/bee-B2DF.svg","response":1,"trial_type":"image-button-response","trial_index":57,"time_elapsed":556230,"internal_node_id":"0.0-4.0-0.25","subject_id":"5ec3b9e83f187802a6aa041e","study_id":"6197b3f67c2b5cd3b6d9596a","session_id":"619be78589b6e112a42aa99f","condition":"full-information","relevant_dimensions":["wings","pattern"],"bee_group":{"antennae":"X","wings":"2","pattern":"D","legs":"X"},"action":"avoid","summary":"good-avoid","bonus":1.8200000000000012},{"rt":736.7999999523163,"stimulus":"\n                    <p><b>Action: <em>avoid</em></b></p>\n                    <p>This is the bee that you just saw.</p>\n                    <img src=\"bees-with-color/bee-B2DF.svg\" width=\"200\">\n                    <p><span class=\"greenText\">Good choice!</span>  This bee would have stung you.<br>Your bonus pay is unchanged, and remains at $0.76.</p>\n            ","response":0,"trial_type":"html-button-response","trial_index":58,"time_elapsed":556968,"internal_node_id":"0.0-4.0-1.25","subject_id":"5ec3b9e83f187802a6aa041e","study_id":"6197b3f67c2b5cd3b6d9596a","session_id":"619be78589b6e112a42aa99f","condition":"full-information","relevant_dimensions":["wings","pattern"],"bee_group":{"antennae":"X","wings":"2","pattern":"D","legs":"X"},"bonus":1.8200000000000012},{"rt":824,"stimulus":"bees-with-color/bee-B1SF.svg","response":0,"trial_type":"image-button-response","trial_index":59,"time_elapsed":557794,"internal_node_id":"0.0-4.0-0.26","subject_id":"5ec3b9e83f187802a6aa041e","study_id":"6197b3f67c2b5cd3b6d9596a","session_id":"619be78589b6e112a42aa99f","condition":"full-information","relevant_dimensions":["wings","pattern"],"bee_group":{"antennae":"X","wings":"2","pattern":"D","legs":"X"},"action":"harvest","summary":"good-harvest","bonus":1.8200000000000012},{"rt":509.89999997615814,"stimulus":"\n                    <p><b>Action: <em>harvest</em></b></p>\n                    <p>This is the bee that you just saw.</p>\n                    <img src=\"bees-with-color/bee-B1SF.svg\" width=\"200\">\n                    <p><span class=\"greenText\"><b>Successful harvest!</b></span><br>Your pay has increased by $0.02. Your bonus pay is now $0.78.</p>\n            ","response":0,"trial_type":"html-button-response","trial_index":60,"time_elapsed":558306,"internal_node_id":"0.0-4.0-1.26","subject_id":"5ec3b9e83f187802a6aa041e","study_id":"6197b3f67c2b5cd3b6d9596a","session_id":"619be78589b6e112a42aa99f","condition":"full-information","relevant_dimensions":["wings","pattern"],"bee_group":{"antennae":"X","wings":"2","pattern":"D","legs":"X"},"bonus":1.8200000000000012},{"rt":1335.1000000238419,"stimulus":"bees-with-color/bee-B2DM.svg","response":1,"trial_type":"image-button-response","trial_index":61,"time_elapsed":559644,"internal_node_id":"0.0-4.0-0.27","subject_id":"5ec3b9e83f187802a6aa041e","study_id":"6197b3f67c2b5cd3b6d9596a","session_id":"619be78589b6e112a42aa99f","condition":"full-information","relevant_dimensions":["wings","pattern"],"bee_group":{"antennae":"X","wings":"2","pattern":"D","legs":"X"},"action":"avoid","summary":"good-avoid","bonus":1.8200000000000012},{"rt":780,"stimulus":"\n                    <p><b>Action: <em>avoid</em></b></p>\n                    <p>This is the bee that you just saw.</p>\n                    <img src=\"bees-with-color/bee-B2DM.svg\" width=\"200\">\n                    <p><span class=\"greenText\">Good choice!</span>  This bee would have stung you.<br>Your bonus pay is unchanged, and remains at $0.78.</p>\n            ","response":0,"trial_type":"html-button-response","trial_index":62,"time_elapsed":560425,"internal_node_id":"0.0-4.0-1.27","subject_id":"5ec3b9e83f187802a6aa041e","study_id":"6197b3f67c2b5cd3b6d9596a","session_id":"619be78589b6e112a42aa99f","condition":"full-information","relevant_dimensions":["wings","pattern"],"bee_group":{"antennae":"X","wings":"2","pattern":"D","legs":"X"},"bonus":1.8200000000000012},{"rt":1345.3000000715256,"stimulus":"bees-with-color/bee-B2SF.svg","response":0,"trial_type":"image-button-response","trial_index":63,"time_elapsed":561771,"internal_node_id":"0.0-4.0-0.28","subject_id":"5ec3b9e83f187802a6aa041e","study_id":"6197b3f67c2b5cd3b6d9596a","session_id":"619be78589b6e112a42aa99f","condition":"full-information","relevant_dimensions":["wings","pattern"],"bee_group":{"antennae":"X","wings":"2","pattern":"D","legs":"X"},"action":"harvest","summary":"good-harvest","bonus":1.8200000000000012},{"rt":524.6000000238419,"stimulus":"\n                    <p><b>Action: <em>harvest</em></b></p>\n                    <p>This is the bee that you just saw.</p>\n                    <img src=\"bees-with-color/bee-B2SF.svg\" width=\"200\">\n                    <p><span class=\"greenText\"><b>Successful harvest!</b></span><br>Your pay has increased by $0.02. Your bonus pay is now $0.80.</p>\n            ","response":0,"trial_type":"html-button-response","trial_index":64,"time_elapsed":562298,"internal_node_id":"0.0-4.0-1.28","subject_id":"5ec3b9e83f187802a6aa041e","study_id":"6197b3f67c2b5cd3b6d9596a","session_id":"619be78589b6e112a42aa99f","condition":"full-information","relevant_dimensions":["wings","pattern"],"bee_group":{"antennae":"X","wings":"2","pattern":"D","legs":"X"},"bonus":1.8200000000000012},{"rt":959.5,"stimulus":"bees-with-color/bee-A2SF.svg","response":0,"trial_type":"image-button-response","trial_index":65,"time_elapsed":563258,"internal_node_id":"0.0-4.0-0.29","subject_id":"5ec3b9e83f187802a6aa041e","study_id":"6197b3f67c2b5cd3b6d9596a","session_id":"619be78589b6e112a42aa99f","condition":"full-information","relevant_dimensions":["wings","pattern"],"bee_group":{"antennae":"X","wings":"2","pattern":"D","legs":"X"},"action":"harvest","summary":"good-harvest","bonus":1.8200000000000012},{"rt":525.7999999523163,"stimulus":"\n                    <p><b>Action: <em>harvest</em></b></p>\n                    <p>This is the bee that you just saw.</p>\n                    <img src=\"bees-with-color/bee-A2SF.svg\" width=\"200\">\n                    <p><span class=\"greenText\"><b>Successful harvest!</b></span><br>Your pay has increased by $0.02. Your bonus pay is now $0.82.</p>\n            ","response":0,"trial_type":"html-button-response","trial_index":66,"time_elapsed":563785,"internal_node_id":"0.0-4.0-1.29","subject_id":"5ec3b9e83f187802a6aa041e","study_id":"6197b3f67c2b5cd3b6d9596a","session_id":"619be78589b6e112a42aa99f","condition":"full-information","relevant_dimensions":["wings","pattern"],"bee_group":{"antennae":"X","wings":"2","pattern":"D","legs":"X"},"bonus":1.8200000000000012},{"rt":907.5,"stimulus":"bees-with-color/bee-A1DF.svg","response":0,"trial_type":"image-button-response","trial_index":67,"time_elapsed":564694,"internal_node_id":"0.0-4.0-0.30","subject_id":"5ec3b9e83f187802a6aa041e","study_id":"6197b3f67c2b5cd3b6d9596a","session_id":"619be78589b6e112a42aa99f","condition":"full-information","relevant_dimensions":["wings","pattern"],"bee_group":{"antennae":"X","wings":"2","pattern":"D","legs":"X"},"action":"harvest","summary":"good-harvest","bonus":1.8200000000000012},{"rt":510,"stimulus":"\n                    <p><b>Action: <em>harvest</em></b></p>\n                    <p>This is the bee that you just saw.</p>\n                    <img src=\"bees-with-color/bee-A1DF.svg\" width=\"200\">\n                    <p><span class=\"greenText\"><b>Successful harvest!</b></span><br>Your pay has increased by $0.02. Your bonus pay is now $0.84.</p>\n            ","response":0,"trial_type":"html-button-response","trial_index":68,"time_elapsed":565205,"internal_node_id":"0.0-4.0-1.30","subject_id":"5ec3b9e83f187802a6aa041e","study_id":"6197b3f67c2b5cd3b6d9596a","session_id":"619be78589b6e112a42aa99f","condition":"full-information","relevant_dimensions":["wings","pattern"],"bee_group":{"antennae":"X","wings":"2","pattern":"D","legs":"X"},"bonus":1.8200000000000012},{"rt":1900.1000000238419,"stimulus":"bees-with-color/bee-A1SF.svg","response":0,"trial_type":"image-button-response","trial_index":69,"time_elapsed":567106,"internal_node_id":"0.0-4.0-0.31","subject_id":"5ec3b9e83f187802a6aa041e","study_id":"6197b3f67c2b5cd3b6d9596a","session_id":"619be78589b6e112a42aa99f","condition":"full-information","relevant_dimensions":["wings","pattern"],"bee_group":{"antennae":"X","wings":"2","pattern":"D","legs":"X"},"action":"harvest","summary":"good-harvest","bonus":1.8200000000000012},{"rt":1015.0999999046326,"stimulus":"\n                    <p><b>Action: <em>harvest</em></b></p>\n                    <p>This is the bee that you just saw.</p>\n                    <img src=\"bees-with-color/bee-A1SF.svg\" width=\"200\">\n                    <p><span class=\"greenText\"><b>Successful harvest!</b></span><br>Your pay has increased by $0.02. Your bonus pay is now $0.86.</p>\n            ","response":0,"trial_type":"html-button-response","trial_index":70,"time_elapsed":568123,"internal_node_id":"0.0-4.0-1.31","subject_id":"5ec3b9e83f187802a6aa041e","study_id":"6197b3f67c2b5cd3b6d9596a","session_id":"619be78589b6e112a42aa99f","condition":"full-information","relevant_dimensions":["wings","pattern"],"bee_group":{"antennae":"X","wings":"2","pattern":"D","legs":"X"},"bonus":1.8200000000000012},{"rt":945.8999999761581,"stimulus":"bees-with-color/bee-B2DM.svg","response":1,"trial_type":"image-button-response","trial_index":71,"time_elapsed":569070,"internal_node_id":"0.0-4.0-0.32","subject_id":"5ec3b9e83f187802a6aa041e","study_id":"6197b3f67c2b5cd3b6d9596a","session_id":"619be78589b6e112a42aa99f","condition":"full-information","relevant_dimensions":["wings","pattern"],"bee_group":{"antennae":"X","wings":"2","pattern":"D","legs":"X"},"action":"avoid","summary":"good-avoid","bonus":1.8200000000000012},{"rt":643.9000000953674,"stimulus":"\n                    <p><b>Action: <em>avoid</em></b></p>\n                    <p>This is the bee that you just saw.</p>\n                    <img src=\"bees-with-color/bee-B2DM.svg\" width=\"200\">\n                    <p><span class=\"greenText\">Good choice!</span>  This bee would have stung you.<br>Your bonus pay is unchanged, and remains at $0.86.</p>\n            ","response":0,"trial_type":"html-button-response","trial_index":72,"time_elapsed":569715,"internal_node_id":"0.0-4.0-1.32","subject_id":"5ec3b9e83f187802a6aa041e","study_id":"6197b3f67c2b5cd3b6d9596a","session_id":"619be78589b6e112a42aa99f","condition":"full-information","relevant_dimensions":["wings","pattern"],"bee_group":{"antennae":"X","wings":"2","pattern":"D","legs":"X"},"bonus":1.8200000000000012},{"rt":1434.5,"stimulus":"bees-with-color/bee-B2SM.svg","response":0,"trial_type":"image-button-response","trial_index":73,"time_elapsed":571151,"internal_node_id":"0.0-4.0-0.33","subject_id":"5ec3b9e83f187802a6aa041e","study_id":"6197b3f67c2b5cd3b6d9596a","session_id":"619be78589b6e112a42aa99f","condition":"full-information","relevant_dimensions":["wings","pattern"],"bee_group":{"antennae":"X","wings":"2","pattern":"D","legs":"X"},"action":"harvest","summary":"good-harvest","bonus":1.8200000000000012},{"rt":541.7000000476837,"stimulus":"\n                    <p><b>Action: <em>harvest</em></b></p>\n                    <p>This is the bee that you just saw.</p>\n                    <img src=\"bees-with-color/bee-B2SM.svg\" width=\"200\">\n                    <p><span class=\"greenText\"><b>Successful harvest!</b></span><br>Your pay has increased by $0.02. Your bonus pay is now $0.88.</p>\n            ","response":0,"trial_type":"html-button-response","trial_index":74,"time_elapsed":571694,"internal_node_id":"0.0-4.0-1.33","subject_id":"5ec3b9e83f187802a6aa041e","study_id":"6197b3f67c2b5cd3b6d9596a","session_id":"619be78589b6e112a42aa99f","condition":"full-information","relevant_dimensions":["wings","pattern"],"bee_group":{"antennae":"X","wings":"2","pattern":"D","legs":"X"},"bonus":1.8200000000000012},{"rt":838.7999999523163,"stimulus":"bees-with-color/bee-A1SM.svg","response":0,"trial_type":"image-button-response","trial_index":75,"time_elapsed":572534,"internal_node_id":"0.0-4.0-0.34","subject_id":"5ec3b9e83f187802a6aa041e","study_id":"6197b3f67c2b5cd3b6d9596a","session_id":"619be78589b6e112a42aa99f","condition":"full-information","relevant_dimensions":["wings","pattern"],"bee_group":{"antennae":"X","wings":"2","pattern":"D","legs":"X"},"action":"harvest","summary":"good-harvest","bonus":1.8200000000000012},{"rt":1005.7999999523163,"stimulus":"\n                    <p><b>Action: <em>harvest</em></b></p>\n                    <p>This is the bee that you just saw.</p>\n                    <img src=\"bees-with-color/bee-A1SM.svg\" width=\"200\">\n                    <p><span class=\"greenText\"><b>Successful harvest!</b></span><br>Your pay has increased by $0.02. Your bonus pay is now $0.90.</p>\n            ","response":0,"trial_type":"html-button-response","trial_index":76,"time_elapsed":573540,"internal_node_id":"0.0-4.0-1.34","subject_id":"5ec3b9e83f187802a6aa041e","study_id":"6197b3f67c2b5cd3b6d9596a","session_id":"619be78589b6e112a42aa99f","condition":"full-information","relevant_dimensions":["wings","pattern"],"bee_group":{"antennae":"X","wings":"2","pattern":"D","legs":"X"},"bonus":1.8200000000000012},{"rt":1105.8999999761581,"stimulus":"bees-with-color/bee-B1SM.svg","response":0,"trial_type":"image-button-response","trial_index":77,"time_elapsed":574647,"internal_node_id":"0.0-4.0-0.35","subject_id":"5ec3b9e83f187802a6aa041e","study_id":"6197b3f67c2b5cd3b6d9596a","session_id":"619be78589b6e112a42aa99f","condition":"full-information","relevant_dimensions":["wings","pattern"],"bee_group":{"antennae":"X","wings":"2","pattern":"D","legs":"X"},"action":"harvest","summary":"good-harvest","bonus":1.8200000000000012},{"rt":953.5,"stimulus":"\n                    <p><b>Action: <em>harvest</em></b></p>\n                    <p>This is the bee that you just saw.</p>\n                    <img src=\"bees-with-color/bee-B1SM.svg\" width=\"200\">\n                    <p><span class=\"greenText\"><b>Successful harvest!</b></span><br>Your pay has increased by $0.02. Your bonus pay is now $0.92.</p>\n            ","response":0,"trial_type":"html-button-response","trial_index":78,"time_elapsed":575602,"internal_node_id":"0.0-4.0-1.35","subject_id":"5ec3b9e83f187802a6aa041e","study_id":"6197b3f67c2b5cd3b6d9596a","session_id":"619be78589b6e112a42aa99f","condition":"full-information","relevant_dimensions":["wings","pattern"],"bee_group":{"antennae":"X","wings":"2","pattern":"D","legs":"X"},"bonus":1.8200000000000012},{"rt":778.7000000476837,"stimulus":"bees-with-color/bee-A2DM.svg","response":1,"trial_type":"image-button-response","trial_index":79,"time_elapsed":576382,"internal_node_id":"0.0-4.0-0.36","subject_id":"5ec3b9e83f187802a6aa041e","study_id":"6197b3f67c2b5cd3b6d9596a","session_id":"619be78589b6e112a42aa99f","condition":"full-information","relevant_dimensions":["wings","pattern"],"bee_group":{"antennae":"X","wings":"2","pattern":"D","legs":"X"},"action":"avoid","summary":"good-avoid","bonus":1.8200000000000012},{"rt":616.7999999523163,"stimulus":"\n                    <p><b>Action: <em>avoid</em></b></p>\n                    <p>This is the bee that you just saw.</p>\n                    <img src=\"bees-with-color/bee-A2DM.svg\" width=\"200\">\n                    <p><span class=\"greenText\">Good choice!</span>  This bee would have stung you.<br>Your bonus pay is unchanged, and remains at $0.92.</p>\n            ","response":0,"trial_type":"html-button-response","trial_index":80,"time_elapsed":577000,"internal_node_id":"0.0-4.0-1.36","subject_id":"5ec3b9e83f187802a6aa041e","study_id":"6197b3f67c2b5cd3b6d9596a","session_id":"619be78589b6e112a42aa99f","condition":"full-information","relevant_dimensions":["wings","pattern"],"bee_group":{"antennae":"X","wings":"2","pattern":"D","legs":"X"},"bonus":1.8200000000000012},{"rt":780.3999999761581,"stimulus":"bees-with-color/bee-A1DF.svg","response":0,"trial_type":"image-button-response","trial_index":81,"time_elapsed":577782,"internal_node_id":"0.0-4.0-0.37","subject_id":"5ec3b9e83f187802a6aa041e","study_id":"6197b3f67c2b5cd3b6d9596a","session_id":"619be78589b6e112a42aa99f","condition":"full-information","relevant_dimensions":["wings","pattern"],"bee_group":{"antennae":"X","wings":"2","pattern":"D","legs":"X"},"action":"harvest","summary":"good-harvest","bonus":1.8200000000000012},{"rt":516.8999999761581,"stimulus":"\n                    <p><b>Action: <em>harvest</em></b></p>\n                    <p>This is the bee that you just saw.</p>\n                    <img src=\"bees-with-color/bee-A1DF.svg\" width=\"200\">\n                    <p><span class=\"greenText\"><b>Successful harvest!</b></span><br>Your pay has increased by $0.02. Your bonus pay is now $0.94.</p>\n            ","response":0,"trial_type":"html-button-response","trial_index":82,"time_elapsed":578300,"internal_node_id":"0.0-4.0-1.37","subject_id":"5ec3b9e83f187802a6aa041e","study_id":"6197b3f67c2b5cd3b6d9596a","session_id":"619be78589b6e112a42aa99f","condition":"full-information","relevant_dimensions":["wings","pattern"],"bee_group":{"antennae":"X","wings":"2","pattern":"D","legs":"X"},"bonus":1.8200000000000012},{"rt":869.6999999284744,"stimulus":"bees-with-color/bee-A2SF.svg","response":0,"trial_type":"image-button-response","trial_index":83,"time_elapsed":579171,"internal_node_id":"0.0-4.0-0.38","subject_id":"5ec3b9e83f187802a6aa041e","study_id":"6197b3f67c2b5cd3b6d9596a","session_id":"619be78589b6e112a42aa99f","condition":"full-information","relevant_dimensions":["wings","pattern"],"bee_group":{"antennae":"X","wings":"2","pattern":"D","legs":"X"},"action":"harvest","summary":"good-harvest","bonus":1.8200000000000012},{"rt":556.2999999523163,"stimulus":"\n                    <p><b>Action: <em>harvest</em></b></p>\n                    <p>This is the bee that you just saw.</p>\n                    <img src=\"bees-with-color/bee-A2SF.svg\" width=\"200\">\n                    <p><span class=\"greenText\"><b>Successful harvest!</b></span><br>Your pay has increased by $0.02. Your bonus pay is now $0.96.</p>\n            ","response":0,"trial_type":"html-button-response","trial_index":84,"time_elapsed":579729,"internal_node_id":"0.0-4.0-1.38","subject_id":"5ec3b9e83f187802a6aa041e","study_id":"6197b3f67c2b5cd3b6d9596a","session_id":"619be78589b6e112a42aa99f","condition":"full-information","relevant_dimensions":["wings","pattern"],"bee_group":{"antennae":"X","wings":"2","pattern":"D","legs":"X"},"bonus":1.8200000000000012},{"rt":982.3999999761581,"stimulus":"bees-with-color/bee-B1SF.svg","response":0,"trial_type":"image-button-response","trial_index":85,"time_elapsed":580713,"internal_node_id":"0.0-4.0-0.39","subject_id":"5ec3b9e83f187802a6aa041e","study_id":"6197b3f67c2b5cd3b6d9596a","session_id":"619be78589b6e112a42aa99f","condition":"full-information","relevant_dimensions":["wings","pattern"],"bee_group":{"antennae":"X","wings":"2","pattern":"D","legs":"X"},"action":"harvest","summary":"good-harvest","bonus":1.8200000000000012},{"rt":540,"stimulus":"\n                    <p><b>Action: <em>harvest</em></b></p>\n                    <p>This is the bee that you just saw.</p>\n                    <img src=\"bees-with-color/bee-B1SF.svg\" width=\"200\">\n                    <p><span class=\"greenText\"><b>Successful harvest!</b></span><br>Your pay has increased by $0.02. Your bonus pay is now $0.98.</p>\n            ","response":0,"trial_type":"html-button-response","trial_index":86,"time_elapsed":581254,"internal_node_id":"0.0-4.0-1.39","subject_id":"5ec3b9e83f187802a6aa041e","study_id":"6197b3f67c2b5cd3b6d9596a","session_id":"619be78589b6e112a42aa99f","condition":"full-information","relevant_dimensions":["wings","pattern"],"bee_group":{"antennae":"X","wings":"2","pattern":"D","legs":"X"},"bonus":1.8200000000000012},{"rt":734.7999999523163,"stimulus":"bees-with-color/bee-B2SF.svg","response":0,"trial_type":"image-button-response","trial_index":87,"time_elapsed":581990,"internal_node_id":"0.0-4.0-0.40","subject_id":"5ec3b9e83f187802a6aa041e","study_id":"6197b3f67c2b5cd3b6d9596a","session_id":"619be78589b6e112a42aa99f","condition":"full-information","relevant_dimensions":["wings","pattern"],"bee_group":{"antennae":"X","wings":"2","pattern":"D","legs":"X"},"action":"harvest","summary":"good-harvest","bonus":1.8200000000000012},{"rt":562.2999999523163,"stimulus":"\n                    <p><b>Action: <em>harvest</em></b></p>\n                    <p>This is the bee that you just saw.</p>\n                    <img src=\"bees-with-color/bee-B2SF.svg\" width=\"200\">\n                    <p><span class=\"greenText\"><b>Successful harvest!</b></span><br>Your pay has increased by $0.02. Your bonus pay is now $1.00.</p>\n            ","response":0,"trial_type":"html-button-response","trial_index":88,"time_elapsed":582554,"internal_node_id":"0.0-4.0-1.40","subject_id":"5ec3b9e83f187802a6aa041e","study_id":"6197b3f67c2b5cd3b6d9596a","session_id":"619be78589b6e112a42aa99f","condition":"full-information","relevant_dimensions":["wings","pattern"],"bee_group":{"antennae":"X","wings":"2","pattern":"D","legs":"X"},"bonus":1.8200000000000012},{"rt":1096.3999999761581,"stimulus":"bees-with-color/bee-A1DM.svg","response":0,"trial_type":"image-button-response","trial_index":89,"time_elapsed":583652,"internal_node_id":"0.0-4.0-0.41","subject_id":"5ec3b9e83f187802a6aa041e","study_id":"6197b3f67c2b5cd3b6d9596a","session_id":"619be78589b6e112a42aa99f","condition":"full-information","relevant_dimensions":["wings","pattern"],"bee_group":{"antennae":"X","wings":"2","pattern":"D","legs":"X"},"action":"harvest","summary":"good-harvest","bonus":1.8200000000000012},{"rt":531,"stimulus":"\n                    <p><b>Action: <em>harvest</em></b></p>\n                    <p>This is the bee that you just saw.</p>\n                    <img src=\"bees-with-color/bee-A1DM.svg\" width=\"200\">\n                    <p><span class=\"greenText\"><b>Successful harvest!</b></span><br>Your pay has increased by $0.02. Your bonus pay is now $1.02.</p>\n            ","response":0,"trial_type":"html-button-response","trial_index":90,"time_elapsed":584185,"internal_node_id":"0.0-4.0-1.41","subject_id":"5ec3b9e83f187802a6aa041e","study_id":"6197b3f67c2b5cd3b6d9596a","session_id":"619be78589b6e112a42aa99f","condition":"full-information","relevant_dimensions":["wings","pattern"],"bee_group":{"antennae":"X","wings":"2","pattern":"D","legs":"X"},"bonus":1.8200000000000012},{"rt":1072.5,"stimulus":"bees-with-color/bee-A2DF.svg","response":1,"trial_type":"image-button-response","trial_index":91,"time_elapsed":585259,"internal_node_id":"0.0-4.0-0.42","subject_id":"5ec3b9e83f187802a6aa041e","study_id":"6197b3f67c2b5cd3b6d9596a","session_id":"619be78589b6e112a42aa99f","condition":"full-information","relevant_dimensions":["wings","pattern"],"bee_group":{"antennae":"X","wings":"2","pattern":"D","legs":"X"},"action":"avoid","summary":"good-avoid","bonus":1.8200000000000012},{"rt":698.3000000715256,"stimulus":"\n                    <p><b>Action: <em>avoid</em></b></p>\n                    <p>This is the bee that you just saw.</p>\n                    <img src=\"bees-with-color/bee-A2DF.svg\" width=\"200\">\n                    <p><span class=\"greenText\">Good choice!</span>  This bee would have stung you.<br>Your bonus pay is unchanged, and remains at $1.02.</p>\n            ","response":0,"trial_type":"html-button-response","trial_index":92,"time_elapsed":585959,"internal_node_id":"0.0-4.0-1.42","subject_id":"5ec3b9e83f187802a6aa041e","study_id":"6197b3f67c2b5cd3b6d9596a","session_id":"619be78589b6e112a42aa99f","condition":"full-information","relevant_dimensions":["wings","pattern"],"bee_group":{"antennae":"X","wings":"2","pattern":"D","legs":"X"},"bonus":1.8200000000000012},{"rt":887.1000000238419,"stimulus":"bees-with-color/bee-A1SF.svg","response":0,"trial_type":"image-button-response","trial_index":93,"time_elapsed":586847,"internal_node_id":"0.0-4.0-0.43","subject_id":"5ec3b9e83f187802a6aa041e","study_id":"6197b3f67c2b5cd3b6d9596a","session_id":"619be78589b6e112a42aa99f","condition":"full-information","relevant_dimensions":["wings","pattern"],"bee_group":{"antennae":"X","wings":"2","pattern":"D","legs":"X"},"action":"harvest","summary":"good-harvest","bonus":1.8200000000000012},{"rt":554.8999999761581,"stimulus":"\n                    <p><b>Action: <em>harvest</em></b></p>\n                    <p>This is the bee that you just saw.</p>\n                    <img src=\"bees-with-color/bee-A1SF.svg\" width=\"200\">\n                    <p><span class=\"greenText\"><b>Successful harvest!</b></span><br>Your pay has increased by $0.02. Your bonus pay is now $1.04.</p>\n            ","response":0,"trial_type":"html-button-response","trial_index":94,"time_elapsed":587403,"internal_node_id":"0.0-4.0-1.43","subject_id":"5ec3b9e83f187802a6aa041e","study_id":"6197b3f67c2b5cd3b6d9596a","session_id":"619be78589b6e112a42aa99f","condition":"full-information","relevant_dimensions":["wings","pattern"],"bee_group":{"antennae":"X","wings":"2","pattern":"D","legs":"X"},"bonus":1.8200000000000012},{"rt":1351.3000000715256,"stimulus":"bees-with-color/bee-B2DF.svg","response":1,"trial_type":"image-button-response","trial_index":95,"time_elapsed":588756,"internal_node_id":"0.0-4.0-0.44","subject_id":"5ec3b9e83f187802a6aa041e","study_id":"6197b3f67c2b5cd3b6d9596a","session_id":"619be78589b6e112a42aa99f","condition":"full-information","relevant_dimensions":["wings","pattern"],"bee_group":{"antennae":"X","wings":"2","pattern":"D","legs":"X"},"action":"avoid","summary":"good-avoid","bonus":1.8200000000000012},{"rt":561.6000000238419,"stimulus":"\n                    <p><b>Action: <em>avoid</em></b></p>\n                    <p>This is the bee that you just saw.</p>\n                    <img src=\"bees-with-color/bee-B2DF.svg\" width=\"200\">\n                    <p><span class=\"greenText\">Good choice!</span>  This bee would have stung you.<br>Your bonus pay is unchanged, and remains at $1.04.</p>\n            ","response":0,"trial_type":"html-button-response","trial_index":96,"time_elapsed":589319,"internal_node_id":"0.0-4.0-1.44","subject_id":"5ec3b9e83f187802a6aa041e","study_id":"6197b3f67c2b5cd3b6d9596a","session_id":"619be78589b6e112a42aa99f","condition":"full-information","relevant_dimensions":["wings","pattern"],"bee_group":{"antennae":"X","wings":"2","pattern":"D","legs":"X"},"bonus":1.8200000000000012},{"rt":804.5999999046326,"stimulus":"bees-with-color/bee-B1DF.svg","response":0,"trial_type":"image-button-response","trial_index":97,"time_elapsed":590125,"internal_node_id":"0.0-4.0-0.45","subject_id":"5ec3b9e83f187802a6aa041e","study_id":"6197b3f67c2b5cd3b6d9596a","session_id":"619be78589b6e112a42aa99f","condition":"full-information","relevant_dimensions":["wings","pattern"],"bee_group":{"antennae":"X","wings":"2","pattern":"D","legs":"X"},"action":"harvest","summary":"good-harvest","bonus":1.8200000000000012},{"rt":477.7000000476837,"stimulus":"\n                    <p><b>Action: <em>harvest</em></b></p>\n                    <p>This is the bee that you just saw.</p>\n                    <img src=\"bees-with-color/bee-B1DF.svg\" width=\"200\">\n                    <p><span class=\"greenText\"><b>Successful harvest!</b></span><br>Your pay has increased by $0.02. Your bonus pay is now $1.06.</p>\n            ","response":0,"trial_type":"html-button-response","trial_index":98,"time_elapsed":590605,"internal_node_id":"0.0-4.0-1.45","subject_id":"5ec3b9e83f187802a6aa041e","study_id":"6197b3f67c2b5cd3b6d9596a","session_id":"619be78589b6e112a42aa99f","condition":"full-information","relevant_dimensions":["wings","pattern"],"bee_group":{"antennae":"X","wings":"2","pattern":"D","legs":"X"},"bonus":1.8200000000000012},{"rt":878,"stimulus":"bees-with-color/bee-B1DM.svg","response":0,"trial_type":"image-button-response","trial_index":99,"time_elapsed":591484,"internal_node_id":"0.0-4.0-0.46","subject_id":"5ec3b9e83f187802a6aa041e","study_id":"6197b3f67c2b5cd3b6d9596a","session_id":"619be78589b6e112a42aa99f","condition":"full-information","relevant_dimensions":["wings","pattern"],"bee_group":{"antennae":"X","wings":"2","pattern":"D","legs":"X"},"action":"harvest","summary":"good-harvest","bonus":1.8200000000000012},{"rt":487.39999997615814,"stimulus":"\n                    <p><b>Action: <em>harvest</em></b></p>\n                    <p>This is the bee that you just saw.</p>\n                    <img src=\"bees-with-color/bee-B1DM.svg\" width=\"200\">\n                    <p><span class=\"greenText\"><b>Successful harvest!</b></span><br>Your pay has increased by $0.02. Your bonus pay is now $1.08.</p>\n            ","response":0,"trial_type":"html-button-response","trial_index":100,"time_elapsed":591974,"internal_node_id":"0.0-4.0-1.46","subject_id":"5ec3b9e83f187802a6aa041e","study_id":"6197b3f67c2b5cd3b6d9596a","session_id":"619be78589b6e112a42aa99f","condition":"full-information","relevant_dimensions":["wings","pattern"],"bee_group":{"antennae":"X","wings":"2","pattern":"D","legs":"X"},"bonus":1.8200000000000012},{"rt":869.5999999046326,"stimulus":"bees-with-color/bee-A2SM.svg","response":0,"trial_type":"image-button-response","trial_index":101,"time_elapsed":592845,"internal_node_id":"0.0-4.0-0.47","subject_id":"5ec3b9e83f187802a6aa041e","study_id":"6197b3f67c2b5cd3b6d9596a","session_id":"619be78589b6e112a42aa99f","condition":"full-information","relevant_dimensions":["wings","pattern"],"bee_group":{"antennae":"X","wings":"2","pattern":"D","legs":"X"},"action":"harvest","summary":"good-harvest","bonus":1.8200000000000012},{"rt":502.2999999523163,"stimulus":"\n                    <p><b>Action: <em>harvest</em></b></p>\n                    <p>This is the bee that you just saw.</p>\n                    <img src=\"bees-with-color/bee-A2SM.svg\" width=\"200\">\n                    <p><span class=\"greenText\"><b>Successful harvest!</b></span><br>Your pay has increased by $0.02. Your bonus pay is now $1.10.</p>\n            ","response":0,"trial_type":"html-button-response","trial_index":102,"time_elapsed":593348,"internal_node_id":"0.0-4.0-1.47","subject_id":"5ec3b9e83f187802a6aa041e","study_id":"6197b3f67c2b5cd3b6d9596a","session_id":"619be78589b6e112a42aa99f","condition":"full-information","relevant_dimensions":["wings","pattern"],"bee_group":{"antennae":"X","wings":"2","pattern":"D","legs":"X"},"bonus":1.8200000000000012},{"rt":1150.5999999046326,"stimulus":"bees-with-color/bee-A1DM.svg","response":0,"trial_type":"image-button-response","trial_index":103,"time_elapsed":594500,"internal_node_id":"0.0-4.0-0.48","subject_id":"5ec3b9e83f187802a6aa041e","study_id":"6197b3f67c2b5cd3b6d9596a","session_id":"619be78589b6e112a42aa99f","condition":"full-information","relevant_dimensions":["wings","pattern"],"bee_group":{"antennae":"X","wings":"2","pattern":"D","legs":"X"},"action":"harvest","summary":"good-harvest","bonus":1.8200000000000012},{"rt":1185.5,"stimulus":"\n                    <p><b>Action: <em>harvest</em></b></p>\n                    <p>This is the bee that you just saw.</p>\n                    <img src=\"bees-with-color/bee-A1DM.svg\" width=\"200\">\n                    <p><span class=\"greenText\"><b>Successful harvest!</b></span><br>Your pay has increased by $0.02. Your bonus pay is now $1.12.</p>\n            ","response":0,"trial_type":"html-button-response","trial_index":104,"time_elapsed":595686,"internal_node_id":"0.0-4.0-1.48","subject_id":"5ec3b9e83f187802a6aa041e","study_id":"6197b3f67c2b5cd3b6d9596a","session_id":"619be78589b6e112a42aa99f","condition":"full-information","relevant_dimensions":["wings","pattern"],"bee_group":{"antennae":"X","wings":"2","pattern":"D","legs":"X"},"bonus":1.8200000000000012},{"rt":1270.3000000715256,"stimulus":"bees-with-color/bee-B2DM.svg","response":1,"trial_type":"image-button-response","trial_index":105,"time_elapsed":596958,"internal_node_id":"0.0-4.0-0.49","subject_id":"5ec3b9e83f187802a6aa041e","study_id":"6197b3f67c2b5cd3b6d9596a","session_id":"619be78589b6e112a42aa99f","condition":"full-information","relevant_dimensions":["wings","pattern"],"bee_group":{"antennae":"X","wings":"2","pattern":"D","legs":"X"},"action":"avoid","summary":"good-avoid","bonus":1.8200000000000012},{"rt":584,"stimulus":"\n                    <p><b>Action: <em>avoid</em></b></p>\n                    <p>This is the bee that you just saw.</p>\n                    <img src=\"bees-with-color/bee-B2DM.svg\" width=\"200\">\n                    <p><span class=\"greenText\">Good choice!</span>  This bee would have stung you.<br>Your bonus pay is unchanged, and remains at $1.12.</p>\n            ","response":0,"trial_type":"html-button-response","trial_index":106,"time_elapsed":597543,"internal_node_id":"0.0-4.0-1.49","subject_id":"5ec3b9e83f187802a6aa041e","study_id":"6197b3f67c2b5cd3b6d9596a","session_id":"619be78589b6e112a42aa99f","condition":"full-information","relevant_dimensions":["wings","pattern"],"bee_group":{"antennae":"X","wings":"2","pattern":"D","legs":"X"},"bonus":1.8200000000000012},{"rt":1119.3000000715256,"stimulus":"bees-with-color/bee-A2SF.svg","response":0,"trial_type":"image-button-response","trial_index":107,"time_elapsed":598664,"internal_node_id":"0.0-4.0-0.50","subject_id":"5ec3b9e83f187802a6aa041e","study_id":"6197b3f67c2b5cd3b6d9596a","session_id":"619be78589b6e112a42aa99f","condition":"full-information","relevant_dimensions":["wings","pattern"],"bee_group":{"antennae":"X","wings":"2","pattern":"D","legs":"X"},"action":"harvest","summary":"good-harvest","bonus":1.8200000000000012},{"rt":525.8000000715256,"stimulus":"\n                    <p><b>Action: <em>harvest</em></b></p>\n                    <p>This is the bee that you just saw.</p>\n                    <img src=\"bees-with-color/bee-A2SF.svg\" width=\"200\">\n                    <p><span class=\"greenText\"><b>Successful harvest!</b></span><br>Your pay has increased by $0.02. Your bonus pay is now $1.14.</p>\n            ","response":0,"trial_type":"html-button-response","trial_index":108,"time_elapsed":599191,"internal_node_id":"0.0-4.0-1.50","subject_id":"5ec3b9e83f187802a6aa041e","study_id":"6197b3f67c2b5cd3b6d9596a","session_id":"619be78589b6e112a42aa99f","condition":"full-information","relevant_dimensions":["wings","pattern"],"bee_group":{"antennae":"X","wings":"2","pattern":"D","legs":"X"},"bonus":1.8200000000000012},{"rt":830.8999999761581,"stimulus":"bees-with-color/bee-A1DF.svg","response":0,"trial_type":"image-button-response","trial_index":109,"time_elapsed":600023,"internal_node_id":"0.0-4.0-0.51","subject_id":"5ec3b9e83f187802a6aa041e","study_id":"6197b3f67c2b5cd3b6d9596a","session_id":"619be78589b6e112a42aa99f","condition":"full-information","relevant_dimensions":["wings","pattern"],"bee_group":{"antennae":"X","wings":"2","pattern":"D","legs":"X"},"action":"harvest","summary":"good-harvest","bonus":1.8200000000000012},{"rt":737.7999999523163,"stimulus":"\n                    <p><b>Action: <em>harvest</em></b></p>\n                    <p>This is the bee that you just saw.</p>\n                    <img src=\"bees-with-color/bee-A1DF.svg\" width=\"200\">\n                    <p><span class=\"greenText\"><b>Successful harvest!</b></span><br>Your pay has increased by $0.02. Your bonus pay is now $1.16.</p>\n            ","response":0,"trial_type":"html-button-response","trial_index":110,"time_elapsed":600762,"internal_node_id":"0.0-4.0-1.51","subject_id":"5ec3b9e83f187802a6aa041e","study_id":"6197b3f67c2b5cd3b6d9596a","session_id":"619be78589b6e112a42aa99f","condition":"full-information","relevant_dimensions":["wings","pattern"],"bee_group":{"antennae":"X","wings":"2","pattern":"D","legs":"X"},"bonus":1.8200000000000012},{"rt":1034.2999999523163,"stimulus":"bees-with-color/bee-B1DM.svg","response":0,"trial_type":"image-button-response","trial_index":111,"time_elapsed":601797,"internal_node_id":"0.0-4.0-0.52","subject_id":"5ec3b9e83f187802a6aa041e","study_id":"6197b3f67c2b5cd3b6d9596a","session_id":"619be78589b6e112a42aa99f","condition":"full-information","relevant_dimensions":["wings","pattern"],"bee_group":{"antennae":"X","wings":"2","pattern":"D","legs":"X"},"action":"harvest","summary":"good-harvest","bonus":1.8200000000000012},{"rt":675.3999999761581,"stimulus":"\n                    <p><b>Action: <em>harvest</em></b></p>\n                    <p>This is the bee that you just saw.</p>\n                    <img src=\"bees-with-color/bee-B1DM.svg\" width=\"200\">\n                    <p><span class=\"greenText\"><b>Successful harvest!</b></span><br>Your pay has increased by $0.02. Your bonus pay is now $1.18.</p>\n            ","response":0,"trial_type":"html-button-response","trial_index":112,"time_elapsed":602474,"internal_node_id":"0.0-4.0-1.52","subject_id":"5ec3b9e83f187802a6aa041e","study_id":"6197b3f67c2b5cd3b6d9596a","session_id":"619be78589b6e112a42aa99f","condition":"full-information","relevant_dimensions":["wings","pattern"],"bee_group":{"antennae":"X","wings":"2","pattern":"D","legs":"X"},"bonus":1.8200000000000012},{"rt":773.2999999523163,"stimulus":"bees-with-color/bee-B1SM.svg","response":0,"trial_type":"image-button-response","trial_index":113,"time_elapsed":603248,"internal_node_id":"0.0-4.0-0.53","subject_id":"5ec3b9e83f187802a6aa041e","study_id":"6197b3f67c2b5cd3b6d9596a","session_id":"619be78589b6e112a42aa99f","condition":"full-information","relevant_dimensions":["wings","pattern"],"bee_group":{"antennae":"X","wings":"2","pattern":"D","legs":"X"},"action":"harvest","summary":"good-harvest","bonus":1.8200000000000012},{"rt":496.5,"stimulus":"\n                    <p><b>Action: <em>harvest</em></b></p>\n                    <p>This is the bee that you just saw.</p>\n                    <img src=\"bees-with-color/bee-B1SM.svg\" width=\"200\">\n                    <p><span class=\"greenText\"><b>Successful harvest!</b></span><br>Your pay has increased by $0.02. Your bonus pay is now $1.20.</p>\n            ","response":0,"trial_type":"html-button-response","trial_index":114,"time_elapsed":603746,"internal_node_id":"0.0-4.0-1.53","subject_id":"5ec3b9e83f187802a6aa041e","study_id":"6197b3f67c2b5cd3b6d9596a","session_id":"619be78589b6e112a42aa99f","condition":"full-information","relevant_dimensions":["wings","pattern"],"bee_group":{"antennae":"X","wings":"2","pattern":"D","legs":"X"},"bonus":1.8200000000000012},{"rt":756.3999999761581,"stimulus":"bees-with-color/bee-A2DF.svg","response":1,"trial_type":"image-button-response","trial_index":115,"time_elapsed":604503,"internal_node_id":"0.0-4.0-0.54","subject_id":"5ec3b9e83f187802a6aa041e","study_id":"6197b3f67c2b5cd3b6d9596a","session_id":"619be78589b6e112a42aa99f","condition":"full-information","relevant_dimensions":["wings","pattern"],"bee_group":{"antennae":"X","wings":"2","pattern":"D","legs":"X"},"action":"avoid","summary":"good-avoid","bonus":1.8200000000000012},{"rt":571.7000000476837,"stimulus":"\n                    <p><b>Action: <em>avoid</em></b></p>\n                    <p>This is the bee that you just saw.</p>\n                    <img src=\"bees-with-color/bee-A2DF.svg\" width=\"200\">\n                    <p><span class=\"greenText\">Good choice!</span>  This bee would have stung you.<br>Your bonus pay is unchanged, and remains at $1.20.</p>\n            ","response":0,"trial_type":"html-button-response","trial_index":116,"time_elapsed":605076,"internal_node_id":"0.0-4.0-1.54","subject_id":"5ec3b9e83f187802a6aa041e","study_id":"6197b3f67c2b5cd3b6d9596a","session_id":"619be78589b6e112a42aa99f","condition":"full-information","relevant_dimensions":["wings","pattern"],"bee_group":{"antennae":"X","wings":"2","pattern":"D","legs":"X"},"bonus":1.8200000000000012},{"rt":771.2999999523163,"stimulus":"bees-with-color/bee-A1SM.svg","response":0,"trial_type":"image-button-response","trial_index":117,"time_elapsed":605849,"internal_node_id":"0.0-4.0-0.55","subject_id":"5ec3b9e83f187802a6aa041e","study_id":"6197b3f67c2b5cd3b6d9596a","session_id":"619be78589b6e112a42aa99f","condition":"full-information","relevant_dimensions":["wings","pattern"],"bee_group":{"antennae":"X","wings":"2","pattern":"D","legs":"X"},"action":"harvest","summary":"good-harvest","bonus":1.8200000000000012},{"rt":607.5,"stimulus":"\n                    <p><b>Action: <em>harvest</em></b></p>\n                    <p>This is the bee that you just saw.</p>\n                    <img src=\"bees-with-color/bee-A1SM.svg\" width=\"200\">\n                    <p><span class=\"greenText\"><b>Successful harvest!</b></span><br>Your pay has increased by $0.02. Your bonus pay is now $1.22.</p>\n            ","response":0,"trial_type":"html-button-response","trial_index":118,"time_elapsed":606458,"internal_node_id":"0.0-4.0-1.55","subject_id":"5ec3b9e83f187802a6aa041e","study_id":"6197b3f67c2b5cd3b6d9596a","session_id":"619be78589b6e112a42aa99f","condition":"full-information","relevant_dimensions":["wings","pattern"],"bee_group":{"antennae":"X","wings":"2","pattern":"D","legs":"X"},"bonus":1.8200000000000012},{"rt":758.6000000238419,"stimulus":"bees-with-color/bee-A1SF.svg","response":0,"trial_type":"image-button-response","trial_index":119,"time_elapsed":607217,"internal_node_id":"0.0-4.0-0.56","subject_id":"5ec3b9e83f187802a6aa041e","study_id":"6197b3f67c2b5cd3b6d9596a","session_id":"619be78589b6e112a42aa99f","condition":"full-information","relevant_dimensions":["wings","pattern"],"bee_group":{"antennae":"X","wings":"2","pattern":"D","legs":"X"},"action":"harvest","summary":"good-harvest","bonus":1.8200000000000012},{"rt":473.40000009536743,"stimulus":"\n                    <p><b>Action: <em>harvest</em></b></p>\n                    <p>This is the bee that you just saw.</p>\n                    <img src=\"bees-with-color/bee-A1SF.svg\" width=\"200\">\n                    <p><span class=\"greenText\"><b>Successful harvest!</b></span><br>Your pay has increased by $0.02. Your bonus pay is now $1.24.</p>\n            ","response":0,"trial_type":"html-button-response","trial_index":120,"time_elapsed":607692,"internal_node_id":"0.0-4.0-1.56","subject_id":"5ec3b9e83f187802a6aa041e","study_id":"6197b3f67c2b5cd3b6d9596a","session_id":"619be78589b6e112a42aa99f","condition":"full-information","relevant_dimensions":["wings","pattern"],"bee_group":{"antennae":"X","wings":"2","pattern":"D","legs":"X"},"bonus":1.8200000000000012},{"rt":982.6000000238419,"stimulus":"bees-with-color/bee-B1SF.svg","response":0,"trial_type":"image-button-response","trial_index":121,"time_elapsed":608676,"internal_node_id":"0.0-4.0-0.57","subject_id":"5ec3b9e83f187802a6aa041e","study_id":"6197b3f67c2b5cd3b6d9596a","session_id":"619be78589b6e112a42aa99f","condition":"full-information","relevant_dimensions":["wings","pattern"],"bee_group":{"antennae":"X","wings":"2","pattern":"D","legs":"X"},"action":"harvest","summary":"good-harvest","bonus":1.8200000000000012},{"rt":675.7999999523163,"stimulus":"\n                    <p><b>Action: <em>harvest</em></b></p>\n                    <p>This is the bee that you just saw.</p>\n                    <img src=\"bees-with-color/bee-B1SF.svg\" width=\"200\">\n                    <p><span class=\"greenText\"><b>Successful harvest!</b></span><br>Your pay has increased by $0.02. Your bonus pay is now $1.26.</p>\n            ","response":0,"trial_type":"html-button-response","trial_index":122,"time_elapsed":609354,"internal_node_id":"0.0-4.0-1.57","subject_id":"5ec3b9e83f187802a6aa041e","study_id":"6197b3f67c2b5cd3b6d9596a","session_id":"619be78589b6e112a42aa99f","condition":"full-information","relevant_dimensions":["wings","pattern"],"bee_group":{"antennae":"X","wings":"2","pattern":"D","legs":"X"},"bonus":1.8200000000000012},{"rt":1425.9000000953674,"stimulus":"bees-with-color/bee-B2SF.svg","response":0,"trial_type":"image-button-response","trial_index":123,"time_elapsed":610781,"internal_node_id":"0.0-4.0-0.58","subject_id":"5ec3b9e83f187802a6aa041e","study_id":"6197b3f67c2b5cd3b6d9596a","session_id":"619be78589b6e112a42aa99f","condition":"full-information","relevant_dimensions":["wings","pattern"],"bee_group":{"antennae":"X","wings":"2","pattern":"D","legs":"X"},"action":"harvest","summary":"good-harvest","bonus":1.8200000000000012},{"rt":593.6000000238419,"stimulus":"\n                    <p><b>Action: <em>harvest</em></b></p>\n                    <p>This is the bee that you just saw.</p>\n                    <img src=\"bees-with-color/bee-B2SF.svg\" width=\"200\">\n                    <p><span class=\"greenText\"><b>Successful harvest!</b></span><br>Your pay has increased by $0.02. Your bonus pay is now $1.28.</p>\n            ","response":0,"trial_type":"html-button-response","trial_index":124,"time_elapsed":611376,"internal_node_id":"0.0-4.0-1.58","subject_id":"5ec3b9e83f187802a6aa041e","study_id":"6197b3f67c2b5cd3b6d9596a","session_id":"619be78589b6e112a42aa99f","condition":"full-information","relevant_dimensions":["wings","pattern"],"bee_group":{"antennae":"X","wings":"2","pattern":"D","legs":"X"},"bonus":1.8200000000000012},{"rt":846.3999999761581,"stimulus":"bees-with-color/bee-A2SM.svg","response":0,"trial_type":"image-button-response","trial_index":125,"time_elapsed":612223,"internal_node_id":"0.0-4.0-0.59","subject_id":"5ec3b9e83f187802a6aa041e","study_id":"6197b3f67c2b5cd3b6d9596a","session_id":"619be78589b6e112a42aa99f","condition":"full-information","relevant_dimensions":["wings","pattern"],"bee_group":{"antennae":"X","wings":"2","pattern":"D","legs":"X"},"action":"harvest","summary":"good-harvest","bonus":1.8200000000000012},{"rt":728,"stimulus":"\n                    <p><b>Action: <em>harvest</em></b></p>\n                    <p>This is the bee that you just saw.</p>\n                    <img src=\"bees-with-color/bee-A2SM.svg\" width=\"200\">\n                    <p><span class=\"greenText\"><b>Successful harvest!</b></span><br>Your pay has increased by $0.02. Your bonus pay is now $1.30.</p>\n            ","response":0,"trial_type":"html-button-response","trial_index":126,"time_elapsed":612953,"internal_node_id":"0.0-4.0-1.59","subject_id":"5ec3b9e83f187802a6aa041e","study_id":"6197b3f67c2b5cd3b6d9596a","session_id":"619be78589b6e112a42aa99f","condition":"full-information","relevant_dimensions":["wings","pattern"],"bee_group":{"antennae":"X","wings":"2","pattern":"D","legs":"X"},"bonus":1.8200000000000012},{"rt":780.2000000476837,"stimulus":"bees-with-color/bee-B2SM.svg","response":0,"trial_type":"image-button-response","trial_index":127,"time_elapsed":613734,"internal_node_id":"0.0-4.0-0.60","subject_id":"5ec3b9e83f187802a6aa041e","study_id":"6197b3f67c2b5cd3b6d9596a","session_id":"619be78589b6e112a42aa99f","condition":"full-information","relevant_dimensions":["wings","pattern"],"bee_group":{"antennae":"X","wings":"2","pattern":"D","legs":"X"},"action":"harvest","summary":"good-harvest","bonus":1.8200000000000012},{"rt":541,"stimulus":"\n                    <p><b>Action: <em>harvest</em></b></p>\n                    <p>This is the bee that you just saw.</p>\n                    <img src=\"bees-with-color/bee-B2SM.svg\" width=\"200\">\n                    <p><span class=\"greenText\"><b>Successful harvest!</b></span><br>Your pay has increased by $0.02. Your bonus pay is now $1.32.</p>\n            ","response":0,"trial_type":"html-button-response","trial_index":128,"time_elapsed":614276,"internal_node_id":"0.0-4.0-1.60","subject_id":"5ec3b9e83f187802a6aa041e","study_id":"6197b3f67c2b5cd3b6d9596a","session_id":"619be78589b6e112a42aa99f","condition":"full-information","relevant_dimensions":["wings","pattern"],"bee_group":{"antennae":"X","wings":"2","pattern":"D","legs":"X"},"bonus":1.8200000000000012},{"rt":879,"stimulus":"bees-with-color/bee-B2DF.svg","response":1,"trial_type":"image-button-response","trial_index":129,"time_elapsed":615157,"internal_node_id":"0.0-4.0-0.61","subject_id":"5ec3b9e83f187802a6aa041e","study_id":"6197b3f67c2b5cd3b6d9596a","session_id":"619be78589b6e112a42aa99f","condition":"full-information","relevant_dimensions":["wings","pattern"],"bee_group":{"antennae":"X","wings":"2","pattern":"D","legs":"X"},"action":"avoid","summary":"good-avoid","bonus":1.8200000000000012},{"rt":704,"stimulus":"\n                    <p><b>Action: <em>avoid</em></b></p>\n                    <p>This is the bee that you just saw.</p>\n                    <img src=\"bees-with-color/bee-B2DF.svg\" width=\"200\">\n                    <p><span class=\"greenText\">Good choice!</span>  This bee would have stung you.<br>Your bonus pay is unchanged, and remains at $1.32.</p>\n            ","response":0,"trial_type":"html-button-response","trial_index":130,"time_elapsed":615863,"internal_node_id":"0.0-4.0-1.61","subject_id":"5ec3b9e83f187802a6aa041e","study_id":"6197b3f67c2b5cd3b6d9596a","session_id":"619be78589b6e112a42aa99f","condition":"full-information","relevant_dimensions":["wings","pattern"],"bee_group":{"antennae":"X","wings":"2","pattern":"D","legs":"X"},"bonus":1.8200000000000012},{"rt":908.7000000476837,"stimulus":"bees-with-color/bee-B1DF.svg","response":0,"trial_type":"image-button-response","trial_index":131,"time_elapsed":616773,"internal_node_id":"0.0-4.0-0.62","subject_id":"5ec3b9e83f187802a6aa041e","study_id":"6197b3f67c2b5cd3b6d9596a","session_id":"619be78589b6e112a42aa99f","condition":"full-information","relevant_dimensions":["wings","pattern"],"bee_group":{"antennae":"X","wings":"2","pattern":"D","legs":"X"},"action":"harvest","summary":"good-harvest","bonus":1.8200000000000012},{"rt":502.09999990463257,"stimulus":"\n                    <p><b>Action: <em>harvest</em></b></p>\n                    <p>This is the bee that you just saw.</p>\n                    <img src=\"bees-with-color/bee-B1DF.svg\" width=\"200\">\n                    <p><span class=\"greenText\"><b>Successful harvest!</b></span><br>Your pay has increased by $0.02. Your bonus pay is now $1.34.</p>\n            ","response":0,"trial_type":"html-button-response","trial_index":132,"time_elapsed":617276,"internal_node_id":"0.0-4.0-1.62","subject_id":"5ec3b9e83f187802a6aa041e","study_id":"6197b3f67c2b5cd3b6d9596a","session_id":"619be78589b6e112a42aa99f","condition":"full-information","relevant_dimensions":["wings","pattern"],"bee_group":{"antennae":"X","wings":"2","pattern":"D","legs":"X"},"bonus":1.8200000000000012},{"rt":824.5,"stimulus":"bees-with-color/bee-A2DM.svg","response":1,"trial_type":"image-button-response","trial_index":133,"time_elapsed":618102,"internal_node_id":"0.0-4.0-0.63","subject_id":"5ec3b9e83f187802a6aa041e","study_id":"6197b3f67c2b5cd3b6d9596a","session_id":"619be78589b6e112a42aa99f","condition":"full-information","relevant_dimensions":["wings","pattern"],"bee_group":{"antennae":"X","wings":"2","pattern":"D","legs":"X"},"action":"avoid","summary":"good-avoid","bonus":1.8200000000000012},{"rt":516.7000000476837,"stimulus":"\n                    <p><b>Action: <em>avoid</em></b></p>\n                    <p>This is the bee that you just saw.</p>\n                    <img src=\"bees-with-color/bee-A2DM.svg\" width=\"200\">\n                    <p><span class=\"greenText\">Good choice!</span>  This bee would have stung you.<br>Your bonus pay is unchanged, and remains at $1.34.</p>\n            ","response":0,"trial_type":"html-button-response","trial_index":134,"time_elapsed":618621,"internal_node_id":"0.0-4.0-1.63","subject_id":"5ec3b9e83f187802a6aa041e","study_id":"6197b3f67c2b5cd3b6d9596a","session_id":"619be78589b6e112a42aa99f","condition":"full-information","relevant_dimensions":["wings","pattern"],"bee_group":{"antennae":"X","wings":"2","pattern":"D","legs":"X"},"bonus":1.8200000000000012},{"rt":12158.699999928474,"stimulus":"You have completed the first part of this experiment.<br><br>You will now begin a shorter second part, in which you will receive no feedback.<br>The same rules regarding bonus pay apply.<br><br>Press any key to begin.","response":" ","trial_type":"html-keyboard-response","trial_index":135,"time_elapsed":630781,"internal_node_id":"0.0-5.0","subject_id":"5ec3b9e83f187802a6aa041e","study_id":"6197b3f67c2b5cd3b6d9596a","session_id":"619be78589b6e112a42aa99f","condition":"full-information","relevant_dimensions":["wings","pattern"],"bee_group":{"antennae":"X","wings":"2","pattern":"D","legs":"X"},"bonus":1.8200000000000012},{"rt":4624.800000071526,"stimulus":"bees-with-color/bee-B1SF.svg","response":0,"trial_type":"image-button-response","trial_index":136,"time_elapsed":635417,"internal_node_id":"0.0-6.0-0.0","subject_id":"5ec3b9e83f187802a6aa041e","study_id":"6197b3f67c2b5cd3b6d9596a","session_id":"619be78589b6e112a42aa99f","condition":"full-information","relevant_dimensions":["wings","pattern"],"bee_group":{"antennae":"X","wings":"2","pattern":"D","legs":"X"},"bonus":1.8200000000000012},{"rt":807.6999999284744,"stimulus":"bees-with-color/bee-A1SF.svg","response":0,"trial_type":"image-button-response","trial_index":137,"time_elapsed":636227,"internal_node_id":"0.0-6.0-0.1","subject_id":"5ec3b9e83f187802a6aa041e","study_id":"6197b3f67c2b5cd3b6d9596a","session_id":"619be78589b6e112a42aa99f","condition":"full-information","relevant_dimensions":["wings","pattern"],"bee_group":{"antennae":"X","wings":"2","pattern":"D","legs":"X"},"bonus":1.8200000000000012},{"rt":1389.2999999523163,"stimulus":"bees-with-color/bee-A2SM.svg","response":0,"trial_type":"image-button-response","trial_index":138,"time_elapsed":637619,"internal_node_id":"0.0-6.0-0.2","subject_id":"5ec3b9e83f187802a6aa041e","study_id":"6197b3f67c2b5cd3b6d9596a","session_id":"619be78589b6e112a42aa99f","condition":"full-information","relevant_dimensions":["wings","pattern"],"bee_group":{"antennae":"X","wings":"2","pattern":"D","legs":"X"},"bonus":1.8200000000000012},{"rt":878.2999999523163,"stimulus":"bees-with-color/bee-A1SM.svg","response":0,"trial_type":"image-button-response","trial_index":139,"time_elapsed":638499,"internal_node_id":"0.0-6.0-0.3","subject_id":"5ec3b9e83f187802a6aa041e","study_id":"6197b3f67c2b5cd3b6d9596a","session_id":"619be78589b6e112a42aa99f","condition":"full-information","relevant_dimensions":["wings","pattern"],"bee_group":{"antennae":"X","wings":"2","pattern":"D","legs":"X"},"bonus":1.8200000000000012},{"rt":1416.5999999046326,"stimulus":"bees-with-color/bee-A2SF.svg","response":0,"trial_type":"image-button-response","trial_index":140,"time_elapsed":639918,"internal_node_id":"0.0-6.0-0.4","subject_id":"5ec3b9e83f187802a6aa041e","study_id":"6197b3f67c2b5cd3b6d9596a","session_id":"619be78589b6e112a42aa99f","condition":"full-information","relevant_dimensions":["wings","pattern"],"bee_group":{"antennae":"X","wings":"2","pattern":"D","legs":"X"},"bonus":1.8200000000000012},{"rt":1668.3999999761581,"stimulus":"bees-with-color/bee-A2DF.svg","response":1,"trial_type":"image-button-response","trial_index":141,"time_elapsed":641589,"internal_node_id":"0.0-6.0-0.5","subject_id":"5ec3b9e83f187802a6aa041e","study_id":"6197b3f67c2b5cd3b6d9596a","session_id":"619be78589b6e112a42aa99f","condition":"full-information","relevant_dimensions":["wings","pattern"],"bee_group":{"antennae":"X","wings":"2","pattern":"D","legs":"X"},"bonus":1.8200000000000012},{"rt":1042.2999999523163,"stimulus":"bees-with-color/bee-A2DM.svg","response":1,"trial_type":"image-button-response","trial_index":142,"time_elapsed":642634,"internal_node_id":"0.0-6.0-0.6","subject_id":"5ec3b9e83f187802a6aa041e","study_id":"6197b3f67c2b5cd3b6d9596a","session_id":"619be78589b6e112a42aa99f","condition":"full-information","relevant_dimensions":["wings","pattern"],"bee_group":{"antennae":"X","wings":"2","pattern":"D","legs":"X"},"bonus":1.8200000000000012},{"rt":734.7000000476837,"stimulus":"bees-with-color/bee-B1DF.svg","response":0,"trial_type":"image-button-response","trial_index":143,"time_elapsed":643370,"internal_node_id":"0.0-6.0-0.7","subject_id":"5ec3b9e83f187802a6aa041e","study_id":"6197b3f67c2b5cd3b6d9596a","session_id":"619be78589b6e112a42aa99f","condition":"full-information","relevant_dimensions":["wings","pattern"],"bee_group":{"antennae":"X","wings":"2","pattern":"D","legs":"X"},"bonus":1.8200000000000012},{"rt":681.2000000476837,"stimulus":"bees-with-color/bee-B2SM.svg","response":0,"trial_type":"image-button-response","trial_index":144,"time_elapsed":644054,"internal_node_id":"0.0-6.0-0.8","subject_id":"5ec3b9e83f187802a6aa041e","study_id":"6197b3f67c2b5cd3b6d9596a","session_id":"619be78589b6e112a42aa99f","condition":"full-information","relevant_dimensions":["wings","pattern"],"bee_group":{"antennae":"X","wings":"2","pattern":"D","legs":"X"},"bonus":1.8200000000000012},{"rt":629.1000000238419,"stimulus":"bees-with-color/bee-B1DM.svg","response":0,"trial_type":"image-button-response","trial_index":145,"time_elapsed":644686,"internal_node_id":"0.0-6.0-0.9","subject_id":"5ec3b9e83f187802a6aa041e","study_id":"6197b3f67c2b5cd3b6d9596a","session_id":"619be78589b6e112a42aa99f","condition":"full-information","relevant_dimensions":["wings","pattern"],"bee_group":{"antennae":"X","wings":"2","pattern":"D","legs":"X"},"bonus":1.8200000000000012},{"rt":649.5,"stimulus":"bees-with-color/bee-B1SM.svg","response":0,"trial_type":"image-button-response","trial_index":146,"time_elapsed":645340,"internal_node_id":"0.0-6.0-0.10","subject_id":"5ec3b9e83f187802a6aa041e","study_id":"6197b3f67c2b5cd3b6d9596a","session_id":"619be78589b6e112a42aa99f","condition":"full-information","relevant_dimensions":["wings","pattern"],"bee_group":{"antennae":"X","wings":"2","pattern":"D","legs":"X"},"bonus":1.8200000000000012},{"rt":665.5,"stimulus":"bees-with-color/bee-B2SF.svg","response":0,"trial_type":"image-button-response","trial_index":147,"time_elapsed":646007,"internal_node_id":"0.0-6.0-0.11","subject_id":"5ec3b9e83f187802a6aa041e","study_id":"6197b3f67c2b5cd3b6d9596a","session_id":"619be78589b6e112a42aa99f","condition":"full-information","relevant_dimensions":["wings","pattern"],"bee_group":{"antennae":"X","wings":"2","pattern":"D","legs":"X"},"bonus":1.8200000000000012},{"rt":646.5,"stimulus":"bees-with-color/bee-A1DM.svg","response":0,"trial_type":"image-button-response","trial_index":148,"time_elapsed":646655,"internal_node_id":"0.0-6.0-0.12","subject_id":"5ec3b9e83f187802a6aa041e","study_id":"6197b3f67c2b5cd3b6d9596a","session_id":"619be78589b6e112a42aa99f","condition":"full-information","relevant_dimensions":["wings","pattern"],"bee_group":{"antennae":"X","wings":"2","pattern":"D","legs":"X"},"bonus":1.8200000000000012},{"rt":629.6000000238419,"stimulus":"bees-with-color/bee-A1DF.svg","response":0,"trial_type":"image-button-response","trial_index":149,"time_elapsed":647286,"internal_node_id":"0.0-6.0-0.13","subject_id":"5ec3b9e83f187802a6aa041e","study_id":"6197b3f67c2b5cd3b6d9596a","session_id":"619be78589b6e112a42aa99f","condition":"full-information","relevant_dimensions":["wings","pattern"],"bee_group":{"antennae":"X","wings":"2","pattern":"D","legs":"X"},"bonus":1.8200000000000012},{"rt":915.0999999046326,"stimulus":"bees-with-color/bee-B2DF.svg","response":1,"trial_type":"image-button-response","trial_index":150,"time_elapsed":648204,"internal_node_id":"0.0-6.0-0.14","subject_id":"5ec3b9e83f187802a6aa041e","study_id":"6197b3f67c2b5cd3b6d9596a","session_id":"619be78589b6e112a42aa99f","condition":"full-information","relevant_dimensions":["wings","pattern"],"bee_group":{"antennae":"X","wings":"2","pattern":"D","legs":"X"},"bonus":1.8200000000000012},{"rt":667.2000000476837,"stimulus":"bees-with-color/bee-B2DM.svg","response":1,"trial_type":"image-button-response","trial_index":151,"time_elapsed":648873,"internal_node_id":"0.0-6.0-0.15","subject_id":"5ec3b9e83f187802a6aa041e","study_id":"6197b3f67c2b5cd3b6d9596a","session_id":"619be78589b6e112a42aa99f","condition":"full-information","relevant_dimensions":["wings","pattern"],"bee_group":{"antennae":"X","wings":"2","pattern":"D","legs":"X"},"bonus":1.8200000000000012},{"rt":854.3999999761581,"stimulus":"bees-with-color/bee-A2DM.svg","response":1,"trial_type":"image-button-response","trial_index":152,"time_elapsed":649729,"internal_node_id":"0.0-6.0-0.16","subject_id":"5ec3b9e83f187802a6aa041e","study_id":"6197b3f67c2b5cd3b6d9596a","session_id":"619be78589b6e112a42aa99f","condition":"full-information","relevant_dimensions":["wings","pattern"],"bee_group":{"antennae":"X","wings":"2","pattern":"D","legs":"X"},"bonus":1.8200000000000012},{"rt":2703.100000023842,"stimulus":"bees-with-color/bee-A2SM.svg","response":0,"trial_type":"image-button-response","trial_index":153,"time_elapsed":652434,"internal_node_id":"0.0-6.0-0.17","subject_id":"5ec3b9e83f187802a6aa041e","study_id":"6197b3f67c2b5cd3b6d9596a","session_id":"619be78589b6e112a42aa99f","condition":"full-information","relevant_dimensions":["wings","pattern"],"bee_group":{"antennae":"X","wings":"2","pattern":"D","legs":"X"},"bonus":1.8200000000000012},{"rt":660.1000000238419,"stimulus":"bees-with-color/bee-B1DF.svg","response":0,"trial_type":"image-button-response","trial_index":154,"time_elapsed":653095,"internal_node_id":"0.0-6.0-0.18","subject_id":"5ec3b9e83f187802a6aa041e","study_id":"6197b3f67c2b5cd3b6d9596a","session_id":"619be78589b6e112a42aa99f","condition":"full-information","relevant_dimensions":["wings","pattern"],"bee_group":{"antennae":"X","wings":"2","pattern":"D","legs":"X"},"bonus":1.8200000000000012},{"rt":1262.6000000238419,"stimulus":"bees-with-color/bee-B2DF.svg","response":1,"trial_type":"image-button-response","trial_index":155,"time_elapsed":654359,"internal_node_id":"0.0-6.0-0.19","subject_id":"5ec3b9e83f187802a6aa041e","study_id":"6197b3f67c2b5cd3b6d9596a","session_id":"619be78589b6e112a42aa99f","condition":"full-information","relevant_dimensions":["wings","pattern"],"bee_group":{"antennae":"X","wings":"2","pattern":"D","legs":"X"},"bonus":1.8200000000000012},{"rt":758.2000000476837,"stimulus":"bees-with-color/bee-A1SM.svg","response":0,"trial_type":"image-button-response","trial_index":156,"time_elapsed":655119,"internal_node_id":"0.0-6.0-0.20","subject_id":"5ec3b9e83f187802a6aa041e","study_id":"6197b3f67c2b5cd3b6d9596a","session_id":"619be78589b6e112a42aa99f","condition":"full-information","relevant_dimensions":["wings","pattern"],"bee_group":{"antennae":"X","wings":"2","pattern":"D","legs":"X"},"bonus":1.8200000000000012},{"rt":673.1000000238419,"stimulus":"bees-with-color/bee-A1DF.svg","response":0,"trial_type":"image-button-response","trial_index":157,"time_elapsed":655794,"internal_node_id":"0.0-6.0-0.21","subject_id":"5ec3b9e83f187802a6aa041e","study_id":"6197b3f67c2b5cd3b6d9596a","session_id":"619be78589b6e112a42aa99f","condition":"full-information","relevant_dimensions":["wings","pattern"],"bee_group":{"antennae":"X","wings":"2","pattern":"D","legs":"X"},"bonus":1.820000000000001