[{"success":true,"trial_type":"fullscreen","trial_index":0,"time_elapsed":668569,"internal_node_id":"0.0-0.0","subject_id":"5e03ed9c6a5bffeccec824c3","study_id":"60edd13110225f80f9f3709b","session_id":"6196c1f7b4537bbb9c2fe7b7","condition":"contingent","relevant_dimensions":["antennae","pattern"],"bee_group":{"antennae":"A","wings":"X","pattern":"S","legs":"X"},"bonus":0.40000000000000013},{"success":true,"timeout":false,"failed_images":[],"failed_audio":[],"failed_video":[],"trial_type":"preload","trial_index":1,"time_elapsed":670359,"internal_node_id":"0.0-1.0","subject_id":"5e03ed9c6a5bffeccec824c3","study_id":"60edd13110225f80f9f3709b","session_id":"6196c1f7b4537bbb9c2fe7b7","condition":"contingent","relevant_dimensions":["antennae","pattern"],"bee_group":{"antennae":"A","wings":"X","pattern":"S","legs":"X"},"bonus":0.40000000000000013},{"rt":2316,"stimulus":"Welcome! Press any key to begin.","response":"enter","trial_type":"html-keyboard-response","trial_index":2,"time_elapsed":672676,"internal_node_id":"0.0-2.0","subject_id":"5e03ed9c6a5bffeccec824c3","study_id":"60edd13110225f80f9f3709b","session_id":"6196c1f7b4537bbb9c2fe7b7","condition":"contingent","relevant_dimensions":["antennae","pattern"],"bee_group":{"antennae":"A","wings":"X","pattern":"S","legs":"X"},"bonus":0.40000000000000013},{"view_history":[{"page_index":0,"viewing_time":1435.3999999761581},{"page_index":1,"viewing_time":11487.90000000596},{"page_index":2,"viewing_time":5601},{"page_index":3,"viewing_time":10427},{"page_index":4,"viewing_time":3137.2000000178814},{"page_index":5,"viewing_time":6245.899999976158},{"page_index":6,"viewing_time":14496.700000017881},{"page_index":7,"viewing_time":3508.5},{"page_index":8,"viewing_time":4920.9000000059605},{"page_index":9,"viewing_time":3331.7999999821186},{"page_index":10,"viewing_time":1960.0999999940395},{"page_index":11,"viewing_time":6079},{"page_index":12,"viewing_time":5235.100000023842},{"page_index":13,"viewing_time":1549},{"page_index":14,"viewing_time":1776.7999999821186}],"rt":81192.79999998212,"trial_type":"instructions","trial_index":3,"time_elapsed":753868,"internal_node_id":"0.0-3.0-0.0","subject_id":"5e03ed9c6a5bffeccec824c3","study_id":"60edd13110225f80f9f3709b","session_id":"6196c1f7b4537bbb9c2fe7b7","condition":"contingent","relevant_dimensions":["antennae","pattern"],"bee_group":{"antennae":"A","wings":"X","pattern":"S","legs":"X"},"bonus":0.40000000000000013},{"rt":8981.199999988079,"response":{"Q0":["Two or six legs","Stripes or spots on body","Single or double wings","Antennae or no antennae"]},"question_order":[0],"trial_type":"survey-multi-select","trial_index":4,"time_elapsed":762857,"internal_node_id":"0.0-3.0-1.0","subject_id":"5e03ed9c6a5bffeccec824c3","study_id":"60edd13110225f80f9f3709b","session_id":"6196c1f7b4537bbb9c2fe7b7","condition":"contingent","relevant_dimensions":["antennae","pattern"],"bee_group":{"antennae":"A","wings":"X","pattern":"S","legs":"X"},"correct":true,"bonus":0.40000000000000013},{"rt":11494.90000000596,"response":{"Q1":"No.","Q2":"Based on the four features of the bee.","Q3":"You do not learn if it was friendly or dangerous, and do not alter your bonus."},"question_order":[0,1,2],"trial_type":"survey-multi-choice","trial_index":5,"time_elapsed":774355,"internal_node_id":"0.0-3.0-2.0","subject_id":"5e03ed9c6a5bffeccec824c3","study_id":"60edd13110225f80f9f3709b","session_id":"6196c1f7b4537bbb9c2fe7b7","condition":"contingent","relevant_dimensions":["antennae","pattern"],"bee_group":{"antennae":"A","wings":"X","pattern":"S","legs":"X"},"correct":true,"bonus":0.40000000000000013},{"rt":1904.2999999821186,"stimulus":"<p>Congrats, you got everything right<br>When you're ready, click the button below to continue to the experiment.</p>","response":0,"trial_type":"html-button-response","trial_index":6,"time_elapsed":776261,"internal_node_id":"0.0-3.0-3.0","subject_id":"5e03ed9c6a5bffeccec824c3","study_id":"60edd13110225f80f9f3709b","session_id":"6196c1f7b4537bbb9c2fe7b7","condition":"contingent","relevant_dimensions":["antennae","pattern"],"bee_group":{"antennae":"A","wings":"X","pattern":"S","legs":"X"},"bonus":0.40000000000000013},{"rt":10405.800000011921,"stimulus":"bees-with-color/bee-A2SF.svg","response":0,"trial_type":"image-button-response","trial_index":7,"time_elapsed":786670,"internal_node_id":"0.0-4.0-0.0","subject_id":"5e03ed9c6a5bffeccec824c3","study_id":"60edd13110225f80f9f3709b","session_id":"6196c1f7b4537bbb9c2fe7b7","condition":"contingent","relevant_dimensions":["antennae","pattern"],"bee_group":{"antennae":"A","wings":"X","pattern":"S","legs":"X"},"action":"harvest","summary":"bad-harvest","bonus":0.40000000000000013},{"rt":3289.100000023842,"stimulus":"\n                    <p><b>Action: <em>harvest</em></b></p>\n                    <p>This is the bee that you just saw.</p>\n                    <img src=\"bees-with-color/bee-A2SF.svg\" width=\"200\">\n                    <p><span class=\"redText\">Bad choice, the bee was angry.</span><br><b>You have been stung!</b><br>Your pay has been decreased by $0.10. Your bonus pay is now $0.44.</p>\n            ","response":0,"trial_type":"html-button-response","trial_index":8,"time_elapsed":789962,"internal_node_id":"0.0-4.0-1.0","subject_id":"5e03ed9c6a5bffeccec824c3","study_id":"60edd13110225f80f9f3709b","session_id":"6196c1f7b4537bbb9c2fe7b7","condition":"contingent","relevant_dimensions":["antennae","pattern"],"bee_group":{"antennae":"A","wings":"X","pattern":"S","legs":"X"},"bonus":0.40000000000000013},{"rt":4919.5,"stimulus":"bees-with-color/bee-B1DF.svg","response":0,"trial_type":"image-button-response","trial_index":9,"time_elapsed":794884,"internal_node_id":"0.0-4.0-0.1","subject_id":"5e03ed9c6a5bffeccec824c3","study_id":"60edd13110225f80f9f3709b","session_id":"6196c1f7b4537bbb9c2fe7b7","condition":"contingent","relevant_dimensions":["antennae","pattern"],"bee_group":{"antennae":"A","wings":"X","pattern":"S","legs":"X"},"action":"harvest","summary":"good-harvest","bonus":0.40000000000000013},{"rt":1341.2999999821186,"stimulus":"\n                    <p><b>Action: <em>harvest</em></b></p>\n                    <p>This is the bee that you just saw.</p>\n                    <img src=\"bees-with-color/bee-B1DF.svg\" width=\"200\">\n                    <p><span class=\"greenText\"><b>Successful harvest!</b></span><br>Your pay has increased by $0.02. Your bonus pay is now $0.46.</p>\n            ","response":0,"trial_type":"html-button-response","trial_index":10,"time_elapsed":796228,"internal_node_id":"0.0-4.0-1.1","subject_id":"5e03ed9c6a5bffeccec824c3","study_id":"60edd13110225f80f9f3709b","session_id":"6196c1f7b4537bbb9c2fe7b7","condition":"contingent","relevant_dimensions":["antennae","pattern"],"bee_group":{"antennae":"A","wings":"X","pattern":"S","legs":"X"},"bonus":0.40000000000000013},{"rt":3041.800000011921,"stimulus":"bees-with-color/bee-A1SF.svg","response":0,"trial_type":"image-button-response","trial_index":11,"time_elapsed":799272,"internal_node_id":"0.0-4.0-0.2","subject_id":"5e03ed9c6a5bffeccec824c3","study_id":"60edd13110225f80f9f3709b","session_id":"6196c1f7b4537bbb9c2fe7b7","condition":"contingent","relevant_dimensions":["antennae","pattern"],"bee_group":{"antennae":"A","wings":"X","pattern":"S","legs":"X"},"action":"harvest","summary":"bad-harvest","bonus":0.40000000000000013},{"rt":588,"stimulus":"\n                    <p><b>Action: <em>harvest</em></b></p>\n                    <p>This is the bee that you just saw.</p>\n                    <img src=\"bees-with-color/bee-A1SF.svg\" width=\"200\">\n                    <p><span class=\"redText\">Bad choice, the bee was angry.</span><br><b>You have been stung!</b><br>Your pay has been decreased by $0.10. Your bonus pay is now $0.36.</p>\n            ","response":0,"trial_type":"html-button-response","trial_index":12,"time_elapsed":799862,"internal_node_id":"0.0-4.0-1.2","subject_id":"5e03ed9c6a5bffeccec824c3","study_id":"60edd13110225f80f9f3709b","session_id":"6196c1f7b4537bbb9c2fe7b7","condition":"contingent","relevant_dimensions":["antennae","pattern"],"bee_group":{"antennae":"A","wings":"X","pattern":"S","legs":"X"},"bonus":0.40000000000000013},{"rt":1350.6000000238419,"stimulus":"bees-with-color/bee-B2DM.svg","response":0,"trial_type":"image-button-response","trial_index":13,"time_elapsed":801215,"internal_node_id":"0.0-4.0-0.3","subject_id":"5e03ed9c6a5bffeccec824c3","study_id":"60edd13110225f80f9f3709b","session_id":"6196c1f7b4537bbb9c2fe7b7","condition":"contingent","relevant_dimensions":["antennae","pattern"],"bee_group":{"antennae":"A","wings":"X","pattern":"S","legs":"X"},"action":"harvest","summary":"good-harvest","bonus":0.40000000000000013},{"rt":617.9000000059605,"stimulus":"\n                    <p><b>Action: <em>harvest</em></b></p>\n                    <p>This is the bee that you just saw.</p>\n                    <img src=\"bees-with-color/bee-B2DM.svg\" width=\"200\">\n                    <p><span class=\"greenText\"><b>Successful harvest!</b></span><br>Your pay has increased by $0.02. Your bonus pay is now $0.38.</p>\n            ","response":0,"trial_type":"html-button-response","trial_index":14,"time_elapsed":801835,"internal_node_id":"0.0-4.0-1.3","subject_id":"5e03ed9c6a5bffeccec824c3","study_id":"60edd13110225f80f9f3709b","session_id":"6196c1f7b4537bbb9c2fe7b7","condition":"contingent","relevant_dimensions":["antennae","pattern"],"bee_group":{"antennae":"A","wings":"X","pattern":"S","legs":"X"},"bonus":0.40000000000000013},{"rt":3555.4000000059605,"stimulus":"bees-with-color/bee-A1DF.svg","response":0,"trial_type":"image-button-response","trial_index":15,"time_elapsed":805392,"internal_node_id":"0.0-4.0-0.4","subject_id":"5e03ed9c6a5bffeccec824c3","study_id":"60edd13110225f80f9f3709b","session_id":"6196c1f7b4537bbb9c2fe7b7","condition":"contingent","relevant_dimensions":["antennae","pattern"],"bee_group":{"antennae":"A","wings":"X","pattern":"S","legs":"X"},"action":"harvest","summary":"good-harvest","bonus":0.40000000000000013},{"rt":810.6000000238419,"stimulus":"\n                    <p><b>Action: <em>harvest</em></b></p>\n                    <p>This is the bee that you just saw.</p>\n                    <img src=\"bees-with-color/bee-A1DF.svg\" width=\"200\">\n                    <p><span class=\"greenText\"><b>Successful harvest!</b></span><br>Your pay has increased by $0.02. Your bonus pay is now $0.40.</p>\n            ","response":0,"trial_type":"html-button-response","trial_index":16,"time_elapsed":806205,"internal_node_id":"0.0-4.0-1.4","subject_id":"5e03ed9c6a5bffeccec824c3","study_id":"60edd13110225f80f9f3709b","session_id":"6196c1f7b4537bbb9c2fe7b7","condition":"contingent","relevant_dimensions":["antennae","pattern"],"bee_group":{"antennae":"A","wings":"X","pattern":"S","legs":"X"},"bonus":0.40000000000000013},{"rt":5732.700000017881,"stimulus":"bees-with-color/bee-B2SM.svg","response":1,"trial_type":"image-button-response","trial_index":17,"time_elapsed":811940,"internal_node_id":"0.0-4.0-0.5","subject_id":"5e03ed9c6a5bffeccec824c3","study_id":"60edd13110225f80f9f3709b","session_id":"6196c1f7b4537bbb9c2fe7b7","condition":"contingent","relevant_dimensions":["antennae","pattern"],"bee_group":{"antennae":"A","wings":"X","pattern":"S","legs":"X"},"action":"avoid","summary":"bad-avoid","bonus":0.40000000000000013},{"rt":1165.9000000059605,"stimulus":"\n                    <p><b>Action: <em>avoid</em></b></p>\n                    <p>This is the bee that you just saw.</p>\n                    <img src=\"bees-with-color/bee-B2SM.svg\" width=\"200\">\n                    <p><br>Your bonus pay is unchanged, and remains at $0.40.</p>\n            ","response":0,"trial_type":"html-button-response","trial_index":18,"time_elapsed":813108,"internal_node_id":"0.0-4.0-1.5","subject_id":"5e03ed9c6a5bffeccec824c3","study_id":"60edd13110225f80f9f3709b","session_id":"6196c1f7b4537bbb9c2fe7b7","condition":"contingent","relevant_dimensions":["antennae","pattern"],"bee_group":{"antennae":"A","wings":"X","pattern":"S","legs":"X"},"bonus":0.40000000000000013},{"rt":2394.800000011921,"stimulus":"bees-with-color/bee-B2DF.svg","response":1,"trial_type":"image-button-response","trial_index":19,"time_elapsed":815506,"internal_node_id":"0.0-4.0-0.6","subject_id":"5e03ed9c6a5bffeccec824c3","study_id":"60edd13110225f80f9f3709b","session_id":"6196c1f7b4537bbb9c2fe7b7","condition":"contingent","relevant_dimensions":["antennae","pattern"],"bee_group":{"antennae":"A","wings":"X","pattern":"S","legs":"X"},"action":"avoid","summary":"bad-avoid","bonus":0.40000000000000013},{"rt":581.5,"stimulus":"\n                    <p><b>Action: <em>avoid</em></b></p>\n                    <p>This is the bee that you just saw.</p>\n                    <img src=\"bees-with-color/bee-B2DF.svg\" width=\"200\">\n                    <p><br>Your bonus pay is unchanged, and remains at $0.40.</p>\n            ","response":0,"trial_type":"html-button-response","trial_index":20,"time_elapsed":816089,"internal_node_id":"0.0-4.0-1.6","subject_id":"5e03ed9c6a5bffeccec824c3","study_id":"60edd13110225f80f9f3709b","session_id":"6196c1f7b4537bbb9c2fe7b7","condition":"contingent","relevant_dimensions":["antennae","pattern"],"bee_group":{"antennae":"A","wings":"X","pattern":"S","legs":"X"},"bonus":0.40000000000000013},{"rt":529.7000000178814,"stimulus":"bees-with-color/bee-B2SF.svg","response":1,"trial_type":"image-button-response","trial_index":21,"time_elapsed":816621,"internal_node_id":"0.0-4.0-0.7","subject_id":"5e03ed9c6a5bffeccec824c3","study_id":"60edd13110225f80f9f3709b","session_id":"6196c1f7b4537bbb9c2fe7b7","condition":"contingent","relevant_dimensions":["antennae","pattern"],"bee_group":{"antennae":"A","wings":"X","pattern":"S","legs":"X"},"action":"avoid","summary":"bad-avoid","bonus":0.40000000000000013},{"rt":463.7999999821186,"stimulus":"\n                    <p><b>Action: <em>avoid</em></b></p>\n                    <p>This is the bee that you just saw.</p>\n                    <img src=\"bees-with-color/bee-B2SF.svg\" width=\"200\">\n                    <p><br>Your bonus pay is unchanged, and remains at $0.40.</p>\n            ","response":0,"trial_type":"html-button-response","trial_index":22,"time_elapsed":817087,"internal_node_id":"0.0-4.0-1.7","subject_id":"5e03ed9c6a5bffeccec824c3","study_id":"60edd13110225f80f9f3709b","session_id":"6196c1f7b4537bbb9c2fe7b7","condition":"contingent","relevant_dimensions":["antennae","pattern"],"bee_group":{"antennae":"A","wings":"X","pattern":"S","legs":"X"},"bonus":0.40000000000000013},{"rt":456.7000000178814,"stimulus":"bees-with-color/bee-A1DM.svg","response":1,"trial_type":"image-button-response","trial_index":23,"time_elapsed":817545,"internal_node_id":"0.0-4.0-0.8","subject_id":"5e03ed9c6a5bffeccec824c3","study_id":"60edd13110225f80f9f3709b","session_id":"6196c1f7b4537bbb9c2fe7b7","condition":"contingent","relevant_dimensions":["antennae","pattern"],"bee_group":{"antennae":"A","wings":"X","pattern":"S","legs":"X"},"action":"avoid","summary":"bad-avoid","bonus":0.40000000000000013},{"rt":353.90000000596046,"stimulus":"\n                    <p><b>Action: <em>avoid</em></b></p>\n                    <p>This is the bee that you just saw.</p>\n                    <img src=\"bees-with-color/bee-A1DM.svg\" width=\"200\">\n                    <p><br>Your bonus pay is unchanged, and remains at $0.40.</p>\n            ","response":0,"trial_type":"html-button-response","trial_index":24,"time_elapsed":817901,"internal_node_id":"0.0-4.0-1.8","subject_id":"5e03ed9c6a5bffeccec824c3","study_id":"60edd13110225f80f9f3709b","session_id":"6196c1f7b4537bbb9c2fe7b7","condition":"contingent","relevant_dimensions":["antennae","pattern"],"bee_group":{"antennae":"A","wings":"X","pattern":"S","legs":"X"},"bonus":0.40000000000000013},{"rt":316.5,"stimulus":"bees-with-color/bee-A2DF.svg","response":1,"trial_type":"image-button-response","trial_index":25,"time_elapsed":818220,"internal_node_id":"0.0-4.0-0.9","subject_id":"5e03ed9c6a5bffeccec824c3","study_id":"60edd13110225f80f9f3709b","session_id":"6196c1f7b4537bbb9c2fe7b7","condition":"contingent","relevant_dimensions":["antennae","pattern"],"bee_group":{"antennae":"A","wings":"X","pattern":"S","legs":"X"},"action":"avoid","summary":"bad-avoid","bonus":0.40000000000000013},{"rt":286.30000001192093,"stimulus":"\n                    <p><b>Action: <em>avoid</em></b></p>\n                    <p>This is the bee that you just saw.</p>\n                    <img src=\"bees-with-color/bee-A2DF.svg\" width=\"200\">\n                    <p><br>Your bonus pay is unchanged, and remains at $0.40.</p>\n            ","response":0,"trial_type":"html-button-response","trial_index":26,"time_elapsed":818508,"internal_node_id":"0.0-4.0-1.9","subject_id":"5e03ed9c6a5bffeccec824c3","study_id":"60edd13110225f80f9f3709b","session_id":"6196c1f7b4537bbb9c2fe7b7","condition":"contingent","relevant_dimensions":["antennae","pattern"],"bee_group":{"antennae":"A","wings":"X","pattern":"S","legs":"X"},"bonus":0.40000000000000013},{"rt":313.80000001192093,"stimulus":"bees-with-color/bee-A1SM.svg","response":1,"trial_type":"image-button-response","trial_index":27,"time_elapsed":818823,"internal_node_id":"0.0-4.0-0.10","subject_id":"5e03ed9c6a5bffeccec824c3","study_id":"60edd13110225f80f9f3709b","session_id":"6196c1f7b4537bbb9c2fe7b7","condition":"contingent","relevant_dimensions":["antennae","pattern"],"bee_group":{"antennae":"A","wings":"X","pattern":"S","legs":"X"},"action":"avoid","summary":"good-avoid","bonus":0.40000000000000013},{"rt":308.2000000178814,"stimulus":"\n                    <p><b>Action: <em>avoid</em></b></p>\n                    <p>This is the bee that you just saw.</p>\n                    <img src=\"bees-with-color/bee-A1SM.svg\" width=\"200\">\n                    <p><br>Your bonus pay is unchanged, and remains at $0.40.</p>\n            ","response":0,"trial_type":"html-button-response","trial_index":28,"time_elapsed":819133,"internal_node_id":"0.0-4.0-1.10","subject_id":"5e03ed9c6a5bffeccec824c3","study_id":"60edd13110225f80f9f3709b","session_id":"6196c1f7b4537bbb9c2fe7b7","condition":"contingent","relevant_dimensions":["antennae","pattern"],"bee_group":{"antennae":"A","wings":"X","pattern":"S","legs":"X"},"bonus":0.40000000000000013},{"rt":309.30000001192093,"stimulus":"bees-with-color/bee-B1SM.svg","response":1,"trial_type":"image-button-response","trial_index":29,"time_elapsed":819445,"internal_node_id":"0.0-4.0-0.11","subject_id":"5e03ed9c6a5bffeccec824c3","study_id":"60edd13110225f80f9f3709b","session_id":"6196c1f7b4537bbb9c2fe7b7","condition":"contingent","relevant_dimensions":["antennae","pattern"],"bee_group":{"antennae":"A","wings":"X","pattern":"S","legs":"X"},"action":"avoid","summary":"bad-avoid","bonus":0.40000000000000013},{"rt":312.80000001192093,"stimulus":"\n                    <p><b>Action: <em>avoid</em></b></p>\n                    <p>This is the bee that you just saw.</p>\n                    <img src=\"bees-with-color/bee-B1SM.svg\" width=\"200\">\n                    <p><br>Your bonus pay is unchanged, and remains at $0.40.</p>\n            ","response":0,"trial_type":"html-button-response","trial_index":30,"time_elapsed":819759,"internal_node_id":"0.0-4.0-1.11","subject_id":"5e03ed9c6a5bffeccec824c3","study_id":"60edd13110225f80f9f3709b","session_id":"6196c1f7b4537bbb9c2fe7b7","condition":"contingent","relevant_dimensions":["antennae","pattern"],"bee_group":{"antennae":"A","wings":"X","pattern":"S","legs":"X"},"bonus":0.40000000000000013},{"rt":301.5,"stimulus":"bees-with-color/bee-B1SF.svg","response":1,"trial_type":"image-button-response","trial_index":31,"time_elapsed":820062,"internal_node_id":"0.0-4.0-0.12","subject_id":"5e03ed9c6a5bffeccec824c3","study_id":"60edd13110225f80f9f3709b","session_id":"6196c1f7b4537bbb9c2fe7b7","condition":"contingent","relevant_dimensions":["antennae","pattern"],"bee_group":{"antennae":"A","wings":"X","pattern":"S","legs":"X"},"action":"avoid","summary":"bad-avoid","bonus":0.40000000000000013},{"rt":300,"stimulus":"\n                    <p><b>Action: <em>avoid</em></b></p>\n                    <p>This is the bee that you just saw.</p>\n                    <img src=\"bees-with-color/bee-B1SF.svg\" width=\"200\">\n                    <p><br>Your bonus pay is unchanged, and remains at $0.40.</p>\n            ","response":0,"trial_type":"html-button-response","trial_index":32,"time_elapsed":820364,"internal_node_id":"0.0-4.0-1.12","subject_id":"5e03ed9c6a5bffeccec824c3","study_id":"60edd13110225f80f9f3709b","session_id":"6196c1f7b4537bbb9c2fe7b7","condition":"contingent","relevant_dimensions":["antennae","pattern"],"bee_group":{"antennae":"A","wings":"X","pattern":"S","legs":"X"},"bonus":0.40000000000000013},{"rt":289.5,"stimulus":"bees-with-color/bee-A2SM.svg","response":1,"trial_type":"image-button-response","trial_index":33,"time_elapsed":820655,"internal_node_id":"0.0-4.0-0.13","subject_id":"5e03ed9c6a5bffeccec824c3","study_id":"60edd13110225f80f9f3709b","session_id":"6196c1f7b4537bbb9c2fe7b7","condition":"contingent","relevant_dimensions":["antennae","pattern"],"bee_group":{"antennae":"A","wings":"X","pattern":"S","legs":"X"},"action":"avoid","summary":"good-avoid","bonus":0.40000000000000013},{"rt":284.5,"stimulus":"\n                    <p><b>Action: <em>avoid</em></b></p>\n                    <p>This is the bee that you just saw.</p>\n                    <img src=\"bees-with-color/bee-A2SM.svg\" width=\"200\">\n                    <p><br>Your bonus pay is unchanged, and remains at $0.40.</p>\n            ","response":0,"trial_type":"html-button-response","trial_index":34,"time_elapsed":820941,"internal_node_id":"0.0-4.0-1.13","subject_id":"5e03ed9c6a5bffeccec824c3","study_id":"60edd13110225f80f9f3709b","session_id":"6196c1f7b4537bbb9c2fe7b7","condition":"contingent","relevant_dimensions":["antennae","pattern"],"bee_group":{"antennae":"A","wings":"X","pattern":"S","legs":"X"},"bonus":0.40000000000000013},{"rt":265.5,"stimulus":"bees-with-color/bee-B1DM.svg","response":1,"trial_type":"image-button-response","trial_index":35,"time_elapsed":821208,"internal_node_id":"0.0-4.0-0.14","subject_id":"5e03ed9c6a5bffeccec824c3","study_id":"60edd13110225f80f9f3709b","session_id":"6196c1f7b4537bbb9c2fe7b7","condition":"contingent","relevant_dimensions":["antennae","pattern"],"bee_group":{"antennae":"A","wings":"X","pattern":"S","legs":"X"},"action":"avoid","summary":"bad-avoid","bonus":0.40000000000000013},{"rt":269,"stimulus":"\n                    <p><b>Action: <em>avoid</em></b></p>\n                    <p>This is the bee that you just saw.</p>\n                    <img src=\"bees-with-color/bee-B1DM.svg\" width=\"200\">\n                    <p><br>Your bonus pay is unchanged, and remains at $0.40.</p>\n            ","response":0,"trial_type":"html-button-response","trial_index":36,"time_elapsed":821479,"internal_node_id":"0.0-4.0-1.14","subject_id":"5e03ed9c6a5bffeccec824c3","study_id":"60edd13110225f80f9f3709b","session_id":"6196c1f7b4537bbb9c2fe7b7","condition":"contingent","relevant_dimensions":["antennae","pattern"],"bee_group":{"antennae":"A","wings":"X","pattern":"S","legs":"X"},"bonus":0.40000000000000013},{"rt":276.59999999403954,"stimulus":"bees-with-color/bee-A2DM.svg","response":1,"trial_type":"image-button-response","trial_index":37,"time_elapsed":821757,"internal_node_id":"0.0-4.0-0.15","subject_id":"5e03ed9c6a5bffeccec824c3","study_id":"60edd13110225f80f9f3709b","session_id":"6196c1f7b4537bbb9c2fe7b7","condition":"contingent","relevant_dimensions":["antennae","pattern"],"bee_group":{"antennae":"A","wings":"X","pattern":"S","legs":"X"},"action":"avoid","summary":"bad-avoid","bonus":0.40000000000000013},{"rt":273.2000000178814,"stimulus":"\n                    <p><b>Action: <em>avoid</em></b></p>\n                    <p>This is the bee that you just saw.</p>\n                    <img src=\"bees-with-color/bee-A2DM.svg\" width=\"200\">\n                    <p><br>Your bonus pay is unchanged, and remains at $0.40.</p>\n            ","response":0,"trial_type":"html-button-response","trial_index":38,"time_elapsed":822032,"internal_node_id":"0.0-4.0-1.15","subject_id":"5e03ed9c6a5bffeccec824c3","study_id":"60edd13110225f80f9f3709b","session_id":"6196c1f7b4537bbb9c2fe7b7","condition":"contingent","relevant_dimensions":["antennae","pattern"],"bee_group":{"antennae":"A","wings":"X","pattern":"S","legs":"X"},"bonus":0.40000000000000013},{"rt":269.69999998807907,"stimulus":"bees-with-color/bee-B2DM.svg","response":1,"trial_type":"image-button-response","trial_index":39,"time_elapsed":822304,"internal_node_id":"0.0-4.0-0.16","subject_id":"5e03ed9c6a5bffeccec824c3","study_id":"60edd13110225f80f9f3709b","session_id":"6196c1f7b4537bbb9c2fe7b7","condition":"contingent","relevant_dimensions":["antennae","pattern"],"bee_group":{"antennae":"A","wings":"X","pattern":"S","legs":"X"},"action":"avoid","summary":"bad-avoid","bonus":0.40000000000000013},{"rt":257.19999998807907,"stimulus":"\n                    <p><b>Action: <em>avoid</em></b></p>\n                    <p>This is the bee that you just saw.</p>\n                    <img src=\"bees-with-color/bee-B2DM.svg\" width=\"200\">\n                    <p><br>Your bonus pay is unchanged, and remains at $0.40.</p>\n            ","response":0,"trial_type":"html-button-response","trial_index":40,"time_elapsed":822563,"internal_node_id":"0.0-4.0-1.16","subject_id":"5e03ed9c6a5bffeccec824c3","study_id":"60edd13110225f80f9f3709b","session_id":"6196c1f7b4537bbb9c2fe7b7","condition":"contingent","relevant_dimensions":["antennae","pattern"],"bee_group":{"antennae":"A","wings":"X","pattern":"S","legs":"X"},"bonus":0.40000000000000013},{"rt":253.10000002384186,"stimulus":"bees-with-color/bee-B2DF.svg","response":1,"trial_type":"image-button-response","trial_index":41,"time_elapsed":822818,"internal_node_id":"0.0-4.0-0.17","subject_id":"5e03ed9c6a5bffeccec824c3","study_id":"60edd13110225f80f9f3709b","session_id":"6196c1f7b4537bbb9c2fe7b7","condition":"contingent","relevant_dimensions":["antennae","pattern"],"bee_group":{"antennae":"A","wings":"X","pattern":"S","legs":"X"},"action":"avoid","summary":"bad-avoid","bonus":0.40000000000000013},{"rt":259,"stimulus":"\n                    <p><b>Action: <em>avoid</em></b></p>\n                    <p>This is the bee that you just saw.</p>\n                    <img src=\"bees-with-color/bee-B2DF.svg\" width=\"200\">\n                    <p><br>Your bonus pay is unchanged, and remains at $0.40.</p>\n            ","response":0,"trial_type":"html-button-response","trial_index":42,"time_elapsed":823079,"internal_node_id":"0.0-4.0-1.17","subject_id":"5e03ed9c6a5bffeccec824c3","study_id":"60edd13110225f80f9f3709b","session_id":"6196c1f7b4537bbb9c2fe7b7","condition":"contingent","relevant_dimensions":["antennae","pattern"],"bee_group":{"antennae":"A","wings":"X","pattern":"S","legs":"X"},"bonus":0.40000000000000013},{"rt":239.7999999821186,"stimulus":"bees-with-color/bee-B2SF.svg","response":1,"trial_type":"image-button-response","trial_index":43,"time_elapsed":823321,"internal_node_id":"0.0-4.0-0.18","subject_id":"5e03ed9c6a5bffeccec824c3","study_id":"60edd13110225f80f9f3709b","session_id":"6196c1f7b4537bbb9c2fe7b7","condition":"contingent","relevant_dimensions":["antennae","pattern"],"bee_group":{"antennae":"A","wings":"X","pattern":"S","legs":"X"},"action":"avoid","summary":"bad-avoid","bonus":0.40000000000000013},{"rt":769.4000000059605,"stimulus":"\n                    <p><b>Action: <em>avoid</em></b></p>\n                    <p>This is the bee that you just saw.</p>\n                    <img src=\"bees-with-color/bee-B2SF.svg\" width=\"200\">\n                    <p><br>Your bonus pay is unchanged, and remains at $0.40.</p>\n            ","response":0,"trial_type":"html-button-response","trial_index":44,"time_elapsed":824092,"internal_node_id":"0.0-4.0-1.18","subject_id":"5e03ed9c6a5bffeccec824c3","study_id":"60edd13110225f80f9f3709b","session_id":"6196c1f7b4537bbb9c2fe7b7","condition":"contingent","relevant_dimensions":["antennae","pattern"],"bee_group":{"antennae":"A","wings":"X","pattern":"S","legs":"X"},"bonus":0.40000000000000013},{"rt":277.09999999403954,"stimulus":"bees-with-color/bee-B1DM.svg","response":1,"trial_type":"image-button-response","trial_index":45,"time_elapsed":824371,"internal_node_id":"0.0-4.0-0.19","subject_id":"5e03ed9c6a5bffeccec824c3","study_id":"60edd13110225f80f9f3709b","session_id":"6196c1f7b4537bbb9c2fe7b7","condition":"contingent","relevant_dimensions":["antennae","pattern"],"bee_group":{"antennae":"A","wings":"X","pattern":"S","legs":"X"},"action":"avoid","summary":"bad-avoid","bonus":0.40000000000000013},{"rt":293.40000000596046,"stimulus":"\n                    <p><b>Action: <em>avoid</em></b></p>\n                    <p>This is the bee that you just saw.</p>\n                    <img src=\"bees-with-color/bee-B1DM.svg\" width=\"200\">\n                    <p><br>Your bonus pay is unchanged, and remains at $0.40.</p>\n            ","response":0,"trial_type":"html-button-response","trial_index":46,"time_elapsed":824666,"internal_node_id":"0.0-4.0-1.19","subject_id":"5e03ed9c6a5bffeccec824c3","study_id":"60edd13110225f80f9f3709b","session_id":"6196c1f7b4537bbb9c2fe7b7","condition":"contingent","relevant_dimensions":["antennae","pattern"],"bee_group":{"antennae":"A","wings":"X","pattern":"S","legs":"X"},"bonus":0.40000000000000013},{"rt":350.19999998807907,"stimulus":"bees-with-color/bee-A2DM.svg","response":1,"trial_type":"image-button-response","trial_index":47,"time_elapsed":825018,"internal_node_id":"0.0-4.0-0.20","subject_id":"5e03ed9c6a5bffeccec824c3","study_id":"60edd13110225f80f9f3709b","session_id":"6196c1f7b4537bbb9c2fe7b7","condition":"contingent","relevant_dimensions":["antennae","pattern"],"bee_group":{"antennae":"A","wings":"X","pattern":"S","legs":"X"},"action":"avoid","summary":"bad-avoid","bonus":0.40000000000000013},{"rt":330.2000000178814,"stimulus":"\n                    <p><b>Action: <em>avoid</em></b></p>\n                    <p>This is the bee that you just saw.</p>\n                    <img src=\"bees-with-color/bee-A2DM.svg\" width=\"200\">\n                    <p><br>Your bonus pay is unchanged, and remains at $0.40.</p>\n            ","response":0,"trial_type":"html-button-response","trial_index":48,"time_elapsed":825350,"internal_node_id":"0.0-4.0-1.20","subject_id":"5e03ed9c6a5bffeccec824c3","study_id":"60edd13110225f80f9f3709b","session_id":"6196c1f7b4537bbb9c2fe7b7","condition":"contingent","relevant_dimensions":["antennae","pattern"],"bee_group":{"antennae":"A","wings":"X","pattern":"S","legs":"X"},"bonus":0.40000000000000013},{"rt":351.19999998807907,"stimulus":"bees-with-color/bee-A1DM.svg","response":1,"trial_type":"image-button-response","trial_index":49,"time_elapsed":825703,"internal_node_id":"0.0-4.0-0.21","subject_id":"5e03ed9c6a5bffeccec824c3","study_id":"60edd13110225f80f9f3709b","session_id":"6196c1f7b4537bbb9c2fe7b7","condition":"contingent","relevant_dimensions":["antennae","pattern"],"bee_group":{"antennae":"A","wings":"X","pattern":"S","legs":"X"},"action":"avoid","summary":"bad-avoid","bonus":0.40000000000000013},{"rt":350.59999999403954,"stimulus":"\n                    <p><b>Action: <em>avoid</em></b></p>\n                    <p>This is the bee that you just saw.</p>\n                    <img src=\"bees-with-color/bee-A1DM.svg\" width=\"200\">\n                    <p><br>Your bonus pay is unchanged, and remains at $0.40.</p>\n            ","response":0,"trial_type":"html-button-response","trial_index":50,"time_elapsed":826056,"internal_node_id":"0.0-4.0-1.21","subject_id":"5e03ed9c6a5bffeccec824c3","study_id":"60edd13110225f80f9f3709b","session_id":"6196c1f7b4537bbb9c2fe7b7","condition":"contingent","relevant_dimensions":["antennae","pattern"],"bee_group":{"antennae":"A","wings":"X","pattern":"S","legs":"X"},"bonus":0.40000000000000013},{"rt":318.40000000596046,"stimulus":"bees-with-color/bee-A2SF.svg","response":1,"trial_type":"image-button-response","trial_index":51,"time_elapsed":826376,"internal_node_id":"0.0-4.0-0.22","subject_id":"5e03ed9c6a5bffeccec824c3","study_id":"60edd13110225f80f9f3709b","session_id":"6196c1f7b4537bbb9c2fe7b7","condition":"contingent","relevant_dimensions":["antennae","pattern"],"bee_group":{"antennae":"A","wings":"X","pattern":"S","legs":"X"},"action":"avoid","summary":"good-avoid","bonus":0.40000000000000013},{"rt":334.39999997615814,"stimulus":"\n                    <p><b>Action: <em>avoid</em></b></p>\n                    <p>This is the bee that you just saw.</p>\n                    <img src=\"bees-with-color/bee-A2SF.svg\" width=\"200\">\n                    <p><br>Your bonus pay is unchanged, and remains at $0.40.</p>\n            ","response":0,"trial_type":"html-button-response","trial_index":52,"time_elapsed":826712,"internal_node_id":"0.0-4.0-1.22","subject_id":"5e03ed9c6a5bffeccec824c3","study_id":"60edd13110225f80f9f3709b","session_id":"6196c1f7b4537bbb9c2fe7b7","condition":"contingent","relevant_dimensions":["antennae","pattern"],"bee_group":{"antennae":"A","wings":"X","pattern":"S","legs":"X"},"bonus":0.40000000000000013},{"rt":301.89999997615814,"stimulus":"bees-with-color/bee-A1SM.svg","response":1,"trial_type":"image-button-response","trial_index":53,"time_elapsed":827017,"internal_node_id":"0.0-4.0-0.23","subject_id":"5e03ed9c6a5bffeccec824c3","study_id":"60edd13110225f80f9f3709b","session_id":"6196c1f7b4537bbb9c2fe7b7","condition":"contingent","relevant_dimensions":["antennae","pattern"],"bee_group":{"antennae":"A","wings":"X","pattern":"S","legs":"X"},"action":"avoid","summary":"good-avoid","bonus":0.40000000000000013},{"rt":272.40000000596046,"stimulus":"\n                    <p><b>Action: <em>avoid</em></b></p>\n                    <p>This is the bee that you just saw.</p>\n                    <img src=\"bees-with-color/bee-A1SM.svg\" width=\"200\">\n                    <p><br>Your bonus pay is unchanged, and remains at $0.40.</p>\n            ","response":0,"trial_type":"html-button-response","trial_index":54,"time_elapsed":827291,"internal_node_id":"0.0-4.0-1.23","subject_id":"5e03ed9c6a5bffeccec824c3","study_id":"60edd13110225f80f9f3709b","session_id":"6196c1f7b4537bbb9c2fe7b7","condition":"contingent","relevant_dimensions":["antennae","pattern"],"bee_group":{"antennae":"A","wings":"X","pattern":"S","legs":"X"},"bonus":0.40000000000000013},{"rt":250.19999998807907,"stimulus":"bees-with-color/bee-B1DF.svg","response":1,"trial_type":"image-button-response","trial_index":55,"time_elapsed":827543,"internal_node_id":"0.0-4.0-0.24","subject_id":"5e03ed9c6a5bffeccec824c3","study_id":"60edd13110225f80f9f3709b","session_id":"6196c1f7b4537bbb9c2fe7b7","condition":"contingent","relevant_dimensions":["antennae","pattern"],"bee_group":{"antennae":"A","wings":"X","pattern":"S","legs":"X"},"action":"avoid","summary":"bad-avoid","bonus":0.40000000000000013},{"rt":238.09999999403954,"stimulus":"\n                    <p><b>Action: <em>avoid</em></b></p>\n                    <p>This is the bee that you just saw.</p>\n                    <img src=\"bees-with-color/bee-B1DF.svg\" width=\"200\">\n                    <p><br>Your bonus pay is unchanged, and remains at $0.40.</p>\n            ","response":0,"trial_type":"html-button-response","trial_index":56,"time_elapsed":827783,"internal_node_id":"0.0-4.0-1.24","subject_id":"5e03ed9c6a5bffeccec824c3","study_id":"60edd13110225f80f9f3709b","session_id":"6196c1f7b4537bbb9c2fe7b7","condition":"contingent","relevant_dimensions":["antennae","pattern"],"bee_group":{"antennae":"A","wings":"X","pattern":"S","legs":"X"},"bonus":0.40000000000000013},{"rt":262.90000000596046,"stimulus":"bees-with-color/bee-B1SM.svg","response":1,"trial_type":"image-button-response","trial_index":57,"time_elapsed":828048,"internal_node_id":"0.0-4.0-0.25","subject_id":"5e03ed9c6a5bffeccec824c3","study_id":"60edd13110225f80f9f3709b","session_id":"6196c1f7b4537bbb9c2fe7b7","condition":"contingent","relevant_dimensions":["antennae","pattern"],"bee_group":{"antennae":"A","wings":"X","pattern":"S","legs":"X"},"action":"avoid","summary":"bad-avoid","bonus":0.40000000000000013},{"rt":236.09999999403954,"stimulus":"\n                    <p><b>Action: <em>avoid</em></b></p>\n                    <p>This is the bee that you just saw.</p>\n                    <img src=\"bees-with-color/bee-B1SM.svg\" width=\"200\">\n                    <p><br>Your bonus pay is unchanged, and remains at $0.40.</p>\n            ","response":0,"trial_type":"html-button-response","trial_index":58,"time_elapsed":828286,"internal_node_id":"0.0-4.0-1.25","subject_id":"5e03ed9c6a5bffeccec824c3","study_id":"60edd13110225f80f9f3709b","session_id":"6196c1f7b4537bbb9c2fe7b7","condition":"contingent","relevant_dimensions":["antennae","pattern"],"bee_group":{"antennae":"A","wings":"X","pattern":"S","legs":"X"},"bonus":0.40000000000000013},{"rt":545.4000000059605,"stimulus":"bees-with-color/bee-B1SF.svg","response":1,"trial_type":"image-button-response","trial_index":59,"time_elapsed":828833,"internal_node_id":"0.0-4.0-0.26","subject_id":"5e03ed9c6a5bffeccec824c3","study_id":"60edd13110225f80f9f3709b","session_id":"6196c1f7b4537bbb9c2fe7b7","condition":"contingent","relevant_dimensions":["antennae","pattern"],"bee_group":{"antennae":"A","wings":"X","pattern":"S","legs":"X"},"action":"avoid","summary":"bad-avoid","bonus":0.40000000000000013},{"rt":395.80000001192093,"stimulus":"\n                    <p><b>Action: <em>avoid</em></b></p>\n                    <p>This is the bee that you just saw.</p>\n                    <img src=\"bees-with-color/bee-B1SF.svg\" width=\"200\">\n                    <p><br>Your bonus pay is unchanged, and remains at $0.40.</p>\n            ","response":0,"trial_type":"html-button-response","trial_index":60,"time_elapsed":829231,"internal_node_id":"0.0-4.0-1.26","subject_id":"5e03ed9c6a5bffeccec824c3","study_id":"60edd13110225f80f9f3709b","session_id":"6196c1f7b4537bbb9c2fe7b7","condition":"contingent","relevant_dimensions":["antennae","pattern"],"bee_group":{"antennae":"A","wings":"X","pattern":"S","legs":"X"},"bonus":0.40000000000000013},{"rt":295,"stimulus":"bees-with-color/bee-B2SM.svg","response":1,"trial_type":"image-button-response","trial_index":61,"time_elapsed":829527,"internal_node_id":"0.0-4.0-0.27","subject_id":"5e03ed9c6a5bffeccec824c3","study_id":"60edd13110225f80f9f3709b","session_id":"6196c1f7b4537bbb9c2fe7b7","condition":"contingent","relevant_dimensions":["antennae","pattern"],"bee_group":{"antennae":"A","wings":"X","pattern":"S","legs":"X"},"action":"avoid","summary":"bad-avoid","bonus":0.40000000000000013},{"rt":235.30000001192093,"stimulus":"\n                    <p><b>Action: <em>avoid</em></b></p>\n                    <p>This is the bee that you just saw.</p>\n                    <img src=\"bees-with-color/bee-B2SM.svg\" width=\"200\">\n                    <p><br>Your bonus pay is unchanged, and remains at $0.40.</p>\n            ","response":0,"trial_type":"html-button-response","trial_index":62,"time_elapsed":829764,"internal_node_id":"0.0-4.0-1.27","subject_id":"5e03ed9c6a5bffeccec824c3","study_id":"60edd13110225f80f9f3709b","session_id":"6196c1f7b4537bbb9c2fe7b7","condition":"contingent","relevant_dimensions":["antennae","pattern"],"bee_group":{"antennae":"A","wings":"X","pattern":"S","legs":"X"},"bonus":0.40000000000000013},{"rt":248.19999998807907,"stimulus":"bees-with-color/bee-A2DF.svg","response":1,"trial_type":"image-button-response","trial_index":63,"time_elapsed":830014,"internal_node_id":"0.0-4.0-0.28","subject_id":"5e03ed9c6a5bffeccec824c3","study_id":"60edd13110225f80f9f3709b","session_id":"6196c1f7b4537bbb9c2fe7b7","condition":"contingent","relevant_dimensions":["antennae","pattern"],"bee_group":{"antennae":"A","wings":"X","pattern":"S","legs":"X"},"action":"avoid","summary":"bad-avoid","bonus":0.40000000000000013},{"rt":653.2999999821186,"stimulus":"\n                    <p><b>Action: <em>avoid</em></b></p>\n                    <p>This is the bee that you just saw.</p>\n                    <img src=\"bees-with-color/bee-A2DF.svg\" width=\"200\">\n                    <p><br>Your bonus pay is unchanged, and remains at $0.40.</p>\n            ","response":0,"trial_type":"html-button-response","trial_index":64,"time_elapsed":830669,"internal_node_id":"0.0-4.0-1.28","subject_id":"5e03ed9c6a5bffeccec824c3","study_id":"60edd13110225f80f9f3709b","session_id":"6196c1f7b4537bbb9c2fe7b7","condition":"contingent","relevant_dimensions":["antennae","pattern"],"bee_group":{"antennae":"A","wings":"X","pattern":"S","legs":"X"},"bonus":0.40000000000000013},{"rt":349.7000000178814,"stimulus":"bees-with-color/bee-A2SM.svg","response":1,"trial_type":"image-button-response","trial_index":65,"time_elapsed":831021,"internal_node_id":"0.0-4.0-0.29","subject_id":"5e03ed9c6a5bffeccec824c3","study_id":"60edd13110225f80f9f3709b","session_id":"6196c1f7b4537bbb9c2fe7b7","condition":"contingent","relevant_dimensions":["antennae","pattern"],"bee_group":{"antennae":"A","wings":"X","pattern":"S","legs":"X"},"action":"avoid","summary":"good-avoid","bonus":0.40000000000000013},{"rt":242.5,"stimulus":"\n                    <p><b>Action: <em>avoid</em></b></p>\n                    <p>This is the bee that you just saw.</p>\n                    <img src=\"bees-with-color/bee-A2SM.svg\" width=\"200\">\n                    <p><br>Your bonus pay is unchanged, and remains at $0.40.</p>\n            ","response":0,"trial_type":"html-button-response","trial_index":66,"time_elapsed":831265,"internal_node_id":"0.0-4.0-1.29","subject_id":"5e03ed9c6a5bffeccec824c3","study_id":"60edd13110225f80f9f3709b","session_id":"6196c1f7b4537bbb9c2fe7b7","condition":"contingent","relevant_dimensions":["antennae","pattern"],"bee_group":{"antennae":"A","wings":"X","pattern":"S","legs":"X"},"bonus":0.40000000000000013},{"rt":254,"stimulus":"bees-with-color/bee-A1DF.svg","response":1,"trial_type":"image-button-response","trial_index":67,"time_elapsed":831520,"internal_node_id":"0.0-4.0-0.30","subject_id":"5e03ed9c6a5bffeccec824c3","study_id":"60edd13110225f80f9f3709b","session_id":"6196c1f7b4537bbb9c2fe7b7","condition":"contingent","relevant_dimensions":["antennae","pattern"],"bee_group":{"antennae":"A","wings":"X","pattern":"S","legs":"X"},"action":"avoid","summary":"bad-avoid","bonus":0.40000000000000013},{"rt":232.90000000596046,"stimulus":"\n                    <p><b>Action: <em>avoid</em></b></p>\n                    <p>This is the bee that you just saw.</p>\n                    <img src=\"bees-with-color/bee-A1DF.svg\" width=\"200\">\n                    <p><br>Your bonus pay is unchanged, and remains at $0.40.</p>\n            ","response":0,"trial_type":"html-button-response","trial_index":68,"time_elapsed":831755,"internal_node_id":"0.0-4.0-1.30","subject_id":"5e03ed9c6a5bffeccec824c3","study_id":"60edd13110225f80f9f3709b","session_id":"6196c1f7b4537bbb9c2fe7b7","condition":"contingent","relevant_dimensions":["antennae","pattern"],"bee_group":{"antennae":"A","wings":"X","pattern":"S","legs":"X"},"bonus":0.40000000000000013},{"rt":239.2000000178814,"stimulus":"bees-with-color/bee-A1SF.svg","response":1,"trial_type":"image-button-response","trial_index":69,"time_elapsed":831996,"internal_node_id":"0.0-4.0-0.31","subject_id":"5e03ed9c6a5bffeccec824c3","study_id":"60edd13110225f80f9f3709b","session_id":"6196c1f7b4537bbb9c2fe7b7","condition":"contingent","relevant_dimensions":["antennae","pattern"],"bee_group":{"antennae":"A","wings":"X","pattern":"S","legs":"X"},"action":"avoid","summary":"good-avoid","bonus":0.40000000000000013},{"rt":240,"stimulus":"\n                    <p><b>Action: <em>avoid</em></b></p>\n                    <p>This is the bee that you just saw.</p>\n                    <img src=\"bees-with-color/bee-A1SF.svg\" width=\"200\">\n                    <p><br>Your bonus pay is unchanged, and remains at $0.40.</p>\n            ","response":0,"trial_type":"html-button-response","trial_index":70,"time_elapsed":832238,"internal_node_id":"0.0-4.0-1.31","subject_id":"5e03ed9c6a5bffeccec824c3","study_id":"60edd13110225f80f9f3709b","session_id":"6196c1f7b4537bbb9c2fe7b7","condition":"contingent","relevant_dimensions":["antennae","pattern"],"bee_group":{"antennae":"A","wings":"X","pattern":"S","legs":"X"},"bonus":0.40000000000000013},{"rt":242.7000000178814,"stimulus":"bees-with-color/bee-B1DM.svg","response":1,"trial_type":"image-button-response","trial_index":71,"time_elapsed":832482,"internal_node_id":"0.0-4.0-0.32","subject_id":"5e03ed9c6a5bffeccec824c3","study_id":"60edd13110225f80f9f3709b","session_id":"6196c1f7b4537bbb9c2fe7b7","condition":"contingent","relevant_dimensions":["antennae","pattern"],"bee_group":{"antennae":"A","wings":"X","pattern":"S","legs":"X"},"action":"avoid","summary":"bad-avoid","bonus":0.40000000000000013},{"rt":246.09999999403954,"stimulus":"\n                    <p><b>Action: <em>avoid</em></b></p>\n                    <p>This is the bee that you just saw.</p>\n                    <img src=\"bees-with-color/bee-B1DM.svg\" width=\"200\">\n                    <p><br>Your bonus pay is unchanged, and remains at $0.40.</p>\n            ","response":0,"trial_type":"html-button-response","trial_index":72,"time_elapsed":832730,"internal_node_id":"0.0-4.0-1.32","subject_id":"5e03ed9c6a5bffeccec824c3","study_id":"60edd13110225f80f9f3709b","session_id":"6196c1f7b4537bbb9c2fe7b7","condition":"contingent","relevant_dimensions":["antennae","pattern"],"bee_group":{"antennae":"A","wings":"X","pattern":"S","legs":"X"},"bonus":0.40000000000000013},{"rt":240.2999999821186,"stimulus":"bees-with-color/bee-A2DF.svg","response":1,"trial_type":"image-button-response","trial_index":73,"time_elapsed":832972,"internal_node_id":"0.0-4.0-0.33","subject_id":"5e03ed9c6a5bffeccec824c3","study_id":"60edd13110225f80f9f3709b","session_id":"6196c1f7b4537bbb9c2fe7b7","condition":"contingent","relevant_dimensions":["antennae","pattern"],"bee_group":{"antennae":"A","wings":"X","pattern":"S","legs":"X"},"action":"avoid","summary":"bad-avoid","bonus":0.40000000000000013},{"rt":243.59999999403954,"stimulus":"\n                    <p><b>Action: <em>avoid</em></b></p>\n                    <p>This is the bee that you just saw.</p>\n                    <img src=\"bees-with-color/bee-A2DF.svg\" width=\"200\">\n                    <p><br>Your bonus pay is unchanged, and remains at $0.40.</p>\n            ","response":0,"trial_type":"html-button-response","trial_index":74,"time_elapsed":833218,"internal_node_id":"0.0-4.0-1.33","subject_id":"5e03ed9c6a5bffeccec824c3","study_id":"60edd13110225f80f9f3709b","session_id":"6196c1f7b4537bbb9c2fe7b7","condition":"contingent","relevant_dimensions":["antennae","pattern"],"bee_group":{"antennae":"A","wings":"X","pattern":"S","legs":"X"},"bonus":0.40000000000000013},{"rt":244.69999998807907,"stimulus":"bees-with-color/bee-A1SF.svg","response":1,"trial_type":"image-button-response","trial_index":75,"time_elapsed":833464,"internal_node_id":"0.0-4.0-0.34","subject_id":"5e03ed9c6a5bffeccec824c3","study_id":"60edd13110225f80f9f3709b","session_id":"6196c1f7b4537bbb9c2fe7b7","condition":"contingent","relevant_dimensions":["antennae","pattern"],"bee_group":{"antennae":"A","wings":"X","pattern":"S","legs":"X"},"action":"avoid","summary":"good-avoid","bonus":0.40000000000000013},{"rt":242.59999999403954,"stimulus":"\n                    <p><b>Action: <em>avoid</em></b></p>\n                    <p>This is the bee that you just saw.</p>\n                    <img src=\"bees-with-color/bee-A1SF.svg\" width=\"200\">\n                    <p><br>Your bonus pay is unchanged, and remains at $0.40.</p>\n            ","response":0,"trial_type":"html-button-response","trial_index":76,"time_elapsed":833708,"internal_node_id":"0.0-4.0-1.34","subject_id":"5e03ed9c6a5bffeccec824c3","study_id":"60edd13110225f80f9f3709b","session_id":"6196c1f7b4537bbb9c2fe7b7","condition":"contingent","relevant_dimensions":["antennae","pattern"],"bee_group":{"antennae":"A","wings":"X","pattern":"S","legs":"X"},"bonus":0.40000000000000013},{"rt":224.7999999821186,"stimulus":"bees-with-color/bee-B1DF.svg","response":1,"trial_type":"image-button-response","trial_index":77,"time_elapsed":833935,"internal_node_id":"0.0-4.0-0.35","subject_id":"5e03ed9c6a5bffeccec824c3","study_id":"60edd13110225f80f9f3709b","session_id":"6196c1f7b4537bbb9c2fe7b7","condition":"contingent","relevant_dimensions":["antennae","pattern"],"bee_group":{"antennae":"A","wings":"X","pattern":"S","legs":"X"},"action":"avoid","summary":"bad-avoid","bonus":0.40000000000000013},{"rt":245.19999998807907,"stimulus":"\n                    <p><b>Action: <em>avoid</em></b></p>\n                    <p>This is the bee that you just saw.</p>\n                    <img src=\"bees-with-color/bee-B1DF.svg\" width=\"200\">\n                    <p><br>Your bonus pay is unchanged, and remains at $0.40.</p>\n            ","response":0,"trial_type":"html-button-response","trial_index":78,"time_elapsed":834182,"internal_node_id":"0.0-4.0-1.35","subject_id":"5e03ed9c6a5bffeccec824c3","study_id":"60edd13110225f80f9f3709b","session_id":"6196c1f7b4537bbb9c2fe7b7","condition":"contingent","relevant_dimensions":["antennae","pattern"],"bee_group":{"antennae":"A","wings":"X","pattern":"S","legs":"X"},"bonus":0.40000000000000013},{"rt":223.5,"stimulus":"bees-with-color/bee-B1SM.svg","response":1,"trial_type":"image-button-response","trial_index":79,"time_elapsed":834407,"internal_node_id":"0.0-4.0-0.36","subject_id":"5e03ed9c6a5bffeccec824c3","study_id":"60edd13110225f80f9f3709b","session_id":"6196c1f7b4537bbb9c2fe7b7","condition":"contingent","relevant_dimensions":["antennae","pattern"],"bee_group":{"antennae":"A","wings":"X","pattern":"S","legs":"X"},"action":"avoid","summary":"bad-avoid","bonus":0.40000000000000013},{"rt":238.89999997615814,"stimulus":"\n                    <p><b>Action: <em>avoid</em></b></p>\n                    <p>This is the bee that you just saw.</p>\n                    <img src=\"bees-with-color/bee-B1SM.svg\" width=\"200\">\n                    <p><br>Your bonus pay is unchanged, and remains at $0.40.</p>\n            ","response":0,"trial_type":"html-button-response","trial_index":80,"time_elapsed":834648,"internal_node_id":"0.0-4.0-1.36","subject_id":"5e03ed9c6a5bffeccec824c3","study_id":"60edd13110225f80f9f3709b","session_id":"6196c1f7b4537bbb9c2fe7b7","condition":"contingent","relevant_dimensions":["antennae","pattern"],"bee_group":{"antennae":"A","wings":"X","pattern":"S","legs":"X"},"bonus":0.40000000000000013},{"rt":224.2999999821186,"stimulus":"bees-with-color/bee-A2SF.svg","response":1,"trial_type":"image-button-response","trial_index":81,"time_elapsed":834874,"internal_node_id":"0.0-4.0-0.37","subject_id":"5e03ed9c6a5bffeccec824c3","study_id":"60edd13110225f80f9f3709b","session_id":"6196c1f7b4537bbb9c2fe7b7","condition":"contingent","relevant_dimensions":["antennae","pattern"],"bee_group":{"antennae":"A","wings":"X","pattern":"S","legs":"X"},"action":"avoid","summary":"good-avoid","bonus":0.40000000000000013},{"rt":236.09999999403954,"stimulus":"\n                    <p><b>Action: <em>avoid</em></b></p>\n                    <p>This is the bee that you just saw.</p>\n                    <img src=\"bees-with-color/bee-A2SF.svg\" width=\"200\">\n                    <p><br>Your bonus pay is unchanged, and remains at $0.40.</p>\n            ","response":0,"trial_type":"html-button-response","trial_index":82,"time_elapsed":835112,"internal_node_id":"0.0-4.0-1.37","subject_id":"5e03ed9c6a5bffeccec824c3","study_id":"60edd13110225f80f9f3709b","session_id":"6196c1f7b4537bbb9c2fe7b7","condition":"contingent","relevant_dimensions":["antennae","pattern"],"bee_group":{"antennae":"A","wings":"X","pattern":"S","legs":"X"},"bonus":0.40000000000000013},{"rt":225.30000001192093,"stimulus":"bees-with-color/bee-B2SM.svg","response":1,"trial_type":"image-button-response","trial_index":83,"time_elapsed":835340,"internal_node_id":"0.0-4.0-0.38","subject_id":"5e03ed9c6a5bffeccec824c3","study_id":"60edd13110225f80f9f3709b","session_id":"6196c1f7b4537bbb9c2fe7b7","condition":"contingent","relevant_dimensions":["antennae","pattern"],"bee_group":{"antennae":"A","wings":"X","pattern":"S","legs":"X"},"action":"avoid","summary":"bad-avoid","bonus":0.40000000000000013},{"rt":249.30000001192093,"stimulus":"\n                    <p><b>Action: <em>avoid</em></b></p>\n                    <p>This is the bee that you just saw.</p>\n                    <img src=\"bees-with-color/bee-B2SM.svg\" width=\"200\">\n                    <p><br>Your bonus pay is unchanged, and remains at $0.40.</p>\n            ","response":0,"trial_type":"html-button-response","trial_index":84,"time_elapsed":835591,"internal_node_id":"0.0-4.0-1.38","subject_id":"5e03ed9c6a5bffeccec824c3","study_id":"60edd13110225f80f9f3709b","session_id":"6196c1f7b4537bbb9c2fe7b7","condition":"contingent","relevant_dimensions":["antennae","pattern"],"bee_group":{"antennae":"A","wings":"X","pattern":"S","legs":"X"},"bonus":0.40000000000000013},{"rt":237.5,"stimulus":"bees-with-color/bee-B1SF.svg","response":1,"trial_type":"image-button-response","trial_index":85,"time_elapsed":835830,"internal_node_id":"0.0-4.0-0.39","subject_id":"5e03ed9c6a5bffeccec824c3","study_id":"60edd13110225f80f9f3709b","session_id":"6196c1f7b4537bbb9c2fe7b7","condition":"contingent","relevant_dimensions":["antennae","pattern"],"bee_group":{"antennae":"A","wings":"X","pattern":"S","legs":"X"},"action":"avoid","summary":"bad-avoid","bonus":0.40000000000000013},{"rt":232.09999999403954,"stimulus":"\n                    <p><b>Action: <em>avoid</em></b></p>\n                    <p>This is the bee that you just saw.</p>\n                    <img src=\"bees-with-color/bee-B1SF.svg\" width=\"200\">\n                    <p><br>Your bonus pay is unchanged, and remains at $0.40.</p>\n            ","response":0,"trial_type":"html-button-response","trial_index":86,"time_elapsed":836064,"internal_node_id":"0.0-4.0-1.39","subject_id":"5e03ed9c6a5bffeccec824c3","study_id":"60edd13110225f80f9f3709b","session_id":"6196c1f7b4537bbb9c2fe7b7","condition":"contingent","relevant_dimensions":["antennae","pattern"],"bee_group":{"antennae":"A","wings":"X","pattern":"S","legs":"X"},"bonus":0.40000000000000013},{"rt":230.09999999403954,"stimulus":"bees-with-color/bee-A2DM.svg","response":1,"trial_type":"image-button-response","trial_index":87,"time_elapsed":836296,"internal_node_id":"0.0-4.0-0.40","subject_id":"5e03ed9c6a5bffeccec824c3","study_id":"60edd13110225f80f9f3709b","session_id":"6196c1f7b4537bbb9c2fe7b7","condition":"contingent","relevant_dimensions":["antennae","pattern"],"bee_group":{"antennae":"A","wings":"X","pattern":"S","legs":"X"},"action":"avoid","summary":"bad-avoid","bonus":0.40000000000000013},{"rt":922,"stimulus":"\n                    <p><b>Action: <em>avoid</em></b></p>\n                    <p>This is the bee that you just saw.</p>\n                    <img src=\"bees-with-color/bee-A2DM.svg\" width=\"200\">\n                    <p><br>Your bonus pay is unchanged, and remains at $0.40.</p>\n            ","response":0,"trial_type":"html-button-response","trial_index":88,"time_elapsed":837220,"internal_node_id":"0.0-4.0-1.40","subject_id":"5e03ed9c6a5bffeccec824c3","study_id":"60edd13110225f80f9f3709b","session_id":"6196c1f7b4537bbb9c2fe7b7","condition":"contingent","relevant_dimensions":["antennae","pattern"],"bee_group":{"antennae":"A","wings":"X","pattern":"S","legs":"X"},"bonus":0.40000000000000013},{"rt":237.09999999403954,"stimulus":"bees-with-color/bee-A1DF.svg","response":1,"trial_type":"image-button-response","trial_index":89,"time_elapsed":837459,"internal_node_id":"0.0-4.0-0.41","subject_id":"5e03ed9c6a5bffeccec824c3","study_id":"60edd13110225f80f9f3709b","session_id":"6196c1f7b4537bbb9c2fe7b7","condition":"contingent","relevant_dimensions":["antennae","pattern"],"bee_group":{"antennae":"A","wings":"X","pattern":"S","legs":"X"},"action":"avoid","summary":"bad-avoid","bonus":0.40000000000000013},{"rt":254.7999999821186,"stimulus":"\n                    <p><b>Action: <em>avoid</em></b></p>\n                    <p>This is the bee that you just saw.</p>\n                    <img src=\"bees-with-color/bee-A1DF.svg\" width=\"200\">\n                    <p><br>Your bonus pay is unchanged, and remains at $0.40.</p>\n            ","response":0,"trial_type":"html-button-response","trial_index":90,"time_elapsed":837717,"internal_node_id":"0.0-4.0-1.41","subject_id":"5e03ed9c6a5bffeccec824c3","study_id":"60edd13110225f80f9f3709b","session_id":"6196c1f7b4537bbb9c2fe7b7","condition":"contingent","relevant_dimensions":["antennae","pattern"],"bee_group":{"antennae":"A","wings":"X","pattern":"S","legs":"X"},"bonus":0.40000000000000013},{"rt":212.90000000596046,"stimulus":"bees-with-color/bee-B2DM.svg","response":1,"trial_type":"image-button-response","trial_index":91,"time_elapsed":837932,"internal_node_id":"0.0-4.0-0.42","subject_id":"5e03ed9c6a5bffeccec824c3","study_id":"60edd13110225f80f9f3709b","session_id":"6196c1f7b4537bbb9c2fe7b7","condition":"contingent","relevant_dimensions":["antennae","pattern"],"bee_group":{"antennae":"A","wings":"X","pattern":"S","legs":"X"},"action":"avoid","summary":"bad-avoid","bonus":0.40000000000000013},{"rt":246.90000000596046,"stimulus":"\n                    <p><b>Action: <em>avoid</em></b></p>\n                    <p>This is the bee that you just saw.</p>\n                    <img src=\"bees-with-color/bee-B2DM.svg\" width=\"200\">\n                    <p><br>Your bonus pay is unchanged, and remains at $0.40.</p>\n            ","response":0,"trial_type":"html-button-response","trial_index":92,"time_elapsed":838181,"internal_node_id":"0.0-4.0-1.42","subject_id":"5e03ed9c6a5bffeccec824c3","study_id":"60edd13110225f80f9f3709b","session_id":"6196c1f7b4537bbb9c2fe7b7","condition":"contingent","relevant_dimensions":["antennae","pattern"],"bee_group":{"antennae":"A","wings":"X","pattern":"S","legs":"X"},"bonus":0.40000000000000013},{"rt":226.19999998807907,"stimulus":"bees-with-color/bee-A1DM.svg","response":1,"trial_type":"image-button-response","trial_index":93,"time_elapsed":838409,"internal_node_id":"0.0-4.0-0.43","subject_id":"5e03ed9c6a5bffeccec824c3","study_id":"60edd13110225f80f9f3709b","session_id":"6196c1f7b4537bbb9c2fe7b7","condition":"contingent","relevant_dimensions":["antennae","pattern"],"bee_group":{"antennae":"A","wings":"X","pattern":"S","legs":"X"},"action":"avoid","summary":"bad-avoid","bonus":0.40000000000000013},{"rt":245.5,"stimulus":"\n                    <p><b>Action: <em>avoid</em></b></p>\n                    <p>This is the bee that you just saw.</p>\n                    <img src=\"bees-with-color/bee-A1DM.svg\" width=\"200\">\n                    <p><br>Your bonus pay is unchanged, and remains at $0.40.</p>\n            ","response":0,"trial_type":"html-button-response","trial_index":94,"time_elapsed":838656,"internal_node_id":"0.0-4.0-1.43","subject_id":"5e03ed9c6a5bffeccec824c3","study_id":"60edd13110225f80f9f3709b","session_id":"6196c1f7b4537bbb9c2fe7b7","condition":"contingent","relevant_dimensions":["antennae","pattern"],"bee_group":{"antennae":"A","wings":"X","pattern":"S","legs":"X"},"bonus":0.40000000000000013},{"rt":243.2000000178814,"stimulus":"bees-with-color/bee-A2SM.svg","response":1,"trial_type":"image-button-response","trial_index":95,"time_elapsed":838901,"internal_node_id":"0.0-4.0-0.44","subject_id":"5e03ed9c6a5bffeccec824c3","study_id":"60edd13110225f80f9f3709b","session_id":"6196c1f7b4537bbb9c2fe7b7","condition":"contingent","relevant_dimensions":["antennae","pattern"],"bee_group":{"antennae":"A","wings":"X","pattern":"S","legs":"X"},"action":"avoid","summary":"good-avoid","bonus":0.40000000000000013},{"rt":263.90000000596046,"stimulus":"\n                    <p><b>Action: <em>avoid</em></b></p>\n                    <p>This is the bee that you just saw.</p>\n                    <img src=\"bees-with-color/bee-A2SM.svg\" width=\"200\">\n                    <p><br>Your bonus pay is unchanged, and remains at $0.40.</p>\n            ","response":0,"trial_type":"html-button-response","trial_index":96,"time_elapsed":839166,"internal_node_id":"0.0-4.0-1.44","subject_id":"5e03ed9c6a5bffeccec824c3","study_id":"60edd13110225f80f9f3709b","session_id":"6196c1f7b4537bbb9c2fe7b7","condition":"contingent","relevant_dimensions":["antennae","pattern"],"bee_group":{"antennae":"A","wings":"X","pattern":"S","legs":"X"},"bonus":0.40000000000000013},{"rt":231.30000001192093,"stimulus":"bees-with-color/bee-B2SF.svg","response":1,"trial_type":"image-button-response","trial_index":97,"time_elapsed":839399,"internal_node_id":"0.0-4.0-0.45","subject_id":"5e03ed9c6a5bffeccec824c3","study_id":"60edd13110225f80f9f3709b","session_id":"6196c1f7b4537bbb9c2fe7b7","condition":"contingent","relevant_dimensions":["antennae","pattern"],"bee_group":{"antennae":"A","wings":"X","pattern":"S","legs":"X"},"action":"avoid","summary":"bad-avoid","bonus":0.40000000000000013},{"rt":770,"stimulus":"\n                    <p><b>Action: <em>avoid</em></b></p>\n                    <p>This is the bee that you just saw.</p>\n                    <img src=\"bees-with-color/bee-B2SF.svg\" width=\"200\">\n                    <p><br>Your bonus pay is unchanged, and remains at $0.40.</p>\n            ","response":0,"trial_type":"html-button-response","trial_index":98,"time_elapsed":840171,"internal_node_id":"0.0-4.0-1.45","subject_id":"5e03ed9c6a5bffeccec824c3","study_id":"60edd13110225f80f9f3709b","session_id":"6196c1f7b4537bbb9c2fe7b7","condition":"contingent","relevant_dimensions":["antennae","pattern"],"bee_group":{"antennae":"A","wings":"X","pattern":"S","legs":"X"},"bonus":0.40000000000000013},{"rt":634.0999999940395,"stimulus":"bees-with-color/bee-A1SM.svg","response":1,"trial_type":"image-button-response","trial_index":99,"time_elapsed":840806,"internal_node_id":"0.0-4.0-0.46","subject_id":"5e03ed9c6a5bffeccec824c3","study_id":"60edd13110225f80f9f3709b","session_id":"6196c1f7b4537bbb9c2fe7b7","condition":"contingent","relevant_dimensions":["antennae","pattern"],"bee_group":{"antennae":"A","wings":"X","pattern":"S","legs":"X"},"action":"avoid","summary":"good-avoid","bonus":0.40000000000000013},{"rt":257.10000002384186,"stimulus":"\n                    <p><b>Action: <em>avoid</em></b></p>\n                    <p>This is the bee that you just saw.</p>\n                    <img src=\"bees-with-color/bee-A1SM.svg\" width=\"200\">\n                    <p><br>Your bonus pay is unchanged, and remains at $0.40.</p>\n            ","response":0,"trial_type":"html-button-response","trial_index":100,"time_elapsed":841065,"internal_node_id":"0.0-4.0-1.46","subject_id":"5e03ed9c6a5bffeccec824c3","study_id":"60edd13110225f80f9f3709b","session_id":"6196c1f7b4537bbb9c2fe7b7","condition":"contingent","relevant_dimensions":["antennae","pattern"],"bee_group":{"antennae":"A","wings":"X","pattern":"S","legs":"X"},"bonus":0.40000000000000013},{"rt":233.39999997615814,"stimulus":"bees-with-color/bee-B2DF.svg","response":1,"trial_type":"image-button-response","trial_index":101,"time_elapsed":841300,"internal_node_id":"0.0-4.0-0.47","subject_id":"5e03ed9c6a5bffeccec824c3","study_id":"60edd13110225f80f9f3709b","session_id":"6196c1f7b4537bbb9c2fe7b7","condition":"contingent","relevant_dimensions":["antennae","pattern"],"bee_group":{"antennae":"A","wings":"X","pattern":"S","legs":"X"},"action":"avoid","summary":"bad-avoid","bonus":0.40000000000000013},{"rt":233.59999999403954,"stimulus":"\n                    <p><b>Action: <em>avoid</em></b></p>\n                    <p>This is the bee that you just saw.</p>\n                    <img src=\"bees-with-color/bee-B2DF.svg\" width=\"200\">\n                    <p><br>Your bonus pay is unchanged, and remains at $0.40.</p>\n            ","response":0,"trial_type":"html-button-response","trial_index":102,"time_elapsed":841537,"internal_node_id":"0.0-4.0-1.47","subject_id":"5e03ed9c6a5bffeccec824c3","study_id":"60edd13110225f80f9f3709b","session_id":"6196c1f7b4537bbb9c2fe7b7","condition":"contingent","relevant_dimensions":["antennae","pattern"],"bee_group":{"antennae":"A","wings":"X","pattern":"S","legs":"X"},"bonus":0.40000000000000013},{"rt":208.7000000178814,"stimulus":"bees-with-color/bee-A2DF.svg","response":1,"trial_type":"image-button-response","trial_index":103,"time_elapsed":841747,"internal_node_id":"0.0-4.0-0.48","subject_id":"5e03ed9c6a5bffeccec824c3","study_id":"60edd13110225f80f9f3709b","session_id":"6196c1f7b4537bbb9c2fe7b7","condition":"contingent","relevant_dimensions":["antennae","pattern"],"bee_group":{"antennae":"A","wings":"X","pattern":"S","legs":"X"},"action":"avoid","summary":"bad-avoid","bonus":0.40000000000000013},{"rt":241.89999997615814,"stimulus":"\n                    <p><b>Action: <em>avoid</em></b></p>\n                    <p>This is the bee that you just saw.</p>\n                    <img src=\"bees-with-color/bee-A2DF.svg\" width=\"200\">\n                    <p><br>Your bonus pay is unchanged, and remains at $0.40.</p>\n            ","response":0,"trial_type":"html-button-response","trial_index":104,"time_elapsed":841991,"internal_node_id":"0.0-4.0-1.48","subject_id":"5e03ed9c6a5bffeccec824c3","study_id":"60edd13110225f80f9f3709b","session_id":"6196c1f7b4537bbb9c2fe7b7","condition":"contingent","relevant_dimensions":["antennae","pattern"],"bee_group":{"antennae":"A","wings":"X","pattern":"S","legs":"X"},"bonus":0.40000000000000013},{"rt":222.90000000596046,"stimulus":"bees-with-color/bee-A2DM.svg","response":1,"trial_type":"image-button-response","trial_index":105,"time_elapsed":842215,"internal_node_id":"0.0-4.0-0.49","subject_id":"5e03ed9c6a5bffeccec824c3","study_id":"60edd13110225f80f9f3709b","session_id":"6196c1f7b4537bbb9c2fe7b7","condition":"contingent","relevant_dimensions":["antennae","pattern"],"bee_group":{"antennae":"A","wings":"X","pattern":"S","legs":"X"},"action":"avoid","summary":"bad-avoid","bonus":0.40000000000000013},{"rt":811,"stimulus":"\n                    <p><b>Action: <em>avoid</em></b></p>\n                    <p>This is the bee that you just saw.</p>\n                    <img src=\"bees-with-color/bee-A2DM.svg\" width=\"200\">\n                    <p><br>Your bonus pay is unchanged, and remains at $0.40.</p>\n            ","response":0,"trial_type":"html-button-response","trial_index":106,"time_elapsed":843028,"internal_node_id":"0.0-4.0-1.49","subject_id":"5e03ed9c6a5bffeccec824c3","study_id":"60edd13110225f80f9f3709b","session_id":"6196c1f7b4537bbb9c2fe7b7","condition":"contingent","relevant_dimensions":["antennae","pattern"],"bee_group":{"antennae":"A","wings":"X","pattern":"S","legs":"X"},"bonus":0.40000000000000013},{"rt":244.40000000596046,"stimulus":"bees-with-color/bee-A1SM.svg","response":1,"trial_type":"image-button-response","trial_index":107,"time_elapsed":843274,"internal_node_id":"0.0-4.0-0.50","subject_id":"5e03ed9c6a5bffeccec824c3","study_id":"60edd13110225f80f9f3709b","session_id":"6196c1f7b4537bbb9c2fe7b7","condition":"contingent","relevant_dimensions":["antennae","pattern"],"bee_group":{"antennae":"A","wings":"X","pattern":"S","legs":"X"},"action":"avoid","summary":"good-avoid","bonus":0.40000000000000013},{"rt":255.69999998807907,"stimulus":"\n                    <p><b>Action: <em>avoid</em></b></p>\n                    <p>This is the bee that you just saw.</p>\n                    <img src=\"bees-with-color/bee-A1SM.svg\" width=\"200\">\n                    <p><br>Your bonus pay is unchanged, and remains at $0.40.</p>\n            ","response":0,"trial_type":"html-button-response","trial_index":108,"time_elapsed":843532,"internal_node_id":"0.0-4.0-1.50","subject_id":"5e03ed9c6a5bffeccec824c3","study_id":"60edd13110225f80f9f3709b","session_id":"6196c1f7b4537bbb9c2fe7b7","condition":"contingent","relevant_dimensions":["antennae","pattern"],"bee_group":{"antennae":"A","wings":"X","pattern":"S","legs":"X"},"bonus":0.40000000000000013},{"rt":217.19999998807907,"stimulus":"bees-with-color/bee-B1DF.svg","response":1,"trial_type":"image-button-response","trial_index":109,"time_elapsed":843751,"internal_node_id":"0.0-4.0-0.51","subject_id":"5e03ed9c6a5bffeccec824c3","study_id":"60edd13110225f80f9f3709b","session_id":"6196c1f7b4537bbb9c2fe7b7","condition":"contingent","relevant_dimensions":["antennae","pattern"],"bee_group":{"antennae":"A","wings":"X","pattern":"S","legs":"X"},"action":"avoid","summary":"bad-avoid","bonus":0.40000000000000013},{"rt":277.5,"stimulus":"\n                    <p><b>Action: <em>avoid</em></b></p>\n                    <p>This is the bee that you just saw.</p>\n                    <img src=\"bees-with-color/bee-B1DF.svg\" width=\"200\">\n                    <p><br>Your bonus pay is unchanged, and remains at $0.40.</p>\n            ","response":0,"trial_type":"html-button-response","trial_index":110,"time_elapsed":844030,"internal_node_id":"0.0-4.0-1.51","subject_id":"5e03ed9c6a5bffeccec824c3","study_id":"60edd13110225f80f9f3709b","session_id":"6196c1f7b4537bbb9c2fe7b7","condition":"contingent","relevant_dimensions":["antennae","pattern"],"bee_group":{"antennae":"A","wings":"X","pattern":"S","legs":"X"},"bonus":0.40000000000000013},{"rt":219.69999998807907,"stimulus":"bees-with-color/bee-B2SF.svg","response":1,"trial_type":"image-button-response","trial_index":111,"time_elapsed":844251,"internal_node_id":"0.0-4.0-0.52","subject_id":"5e03ed9c6a5bffeccec824c3","study_id":"60edd13110225f80f9f3709b","session_id":"6196c1f7b4537bbb9c2fe7b7","condition":"contingent","relevant_dimensions":["antennae","pattern"],"bee_group":{"antennae":"A","wings":"X","pattern":"S","legs":"X"},"action":"avoid","summary":"bad-avoid","bonus":0.40000000000000013},{"rt":1143.199999988079,"stimulus":"\n                    <p><b>Action: <em>avoid</em></b></p>\n                    <p>This is the bee that you just saw.</p>\n                    <img src=\"bees-with-color/bee-B2SF.svg\" width=\"200\">\n                    <p><br>Your bonus pay is unchanged, and remains at $0.40.</p>\n            ","response":0,"trial_type":"html-button-response","trial_index":112,"time_elapsed":845396,"internal_node_id":"0.0-4.0-1.52","subject_id":"5e03ed9c6a5bffeccec824c3","study_id":"60edd13110225f80f9f3709b","session_id":"6196c1f7b4537bbb9c2fe7b7","condition":"contingent","relevant_dimensions":["antennae","pattern"],"bee_group":{"antennae":"A","wings":"X","pattern":"S","legs":"X"},"bonus":0.40000000000000013},{"rt":219.2999999821186,"stimulus":"bees-with-color/bee-A1SF.svg","response":1,"trial_type":"image-button-response","trial_index":113,"time_elapsed":845618,"internal_node_id":"0.0-4.0-0.53","subject_id":"5e03ed9c6a5bffeccec824c3","study_id":"60edd13110225f80f9f3709b","session_id":"6196c1f7b4537bbb9c2fe7b7","condition":"contingent","relevant_dimensions":["antennae","pattern"],"bee_group":{"antennae":"A","wings":"X","pattern":"S","legs":"X"},"action":"avoid","summary":"good-avoid","bonus":0.40000000000000013},{"rt":302.7999999821186,"stimulus":"\n                    <p><b>Action: <em>avoid</em></b></p>\n                    <p>This is the bee that you just saw.</p>\n                    <img src=\"bees-with-color/bee-A1SF.svg\" width=\"200\">\n                    <p><br>Your bonus pay is unchanged, and remains at $0.40.</p>\n            ","response":0,"trial_type":"html-button-response","trial_index":114,"time_elapsed":845922,"internal_node_id":"0.0-4.0-1.53","subject_id":"5e03ed9c6a5bffeccec824c3","study_id":"60edd13110225f80f9f3709b","session_id":"6196c1f7b4537bbb9c2fe7b7","condition":"contingent","relevant_dimensions":["antennae","pattern"],"bee_group":{"antennae":"A","wings":"X","pattern":"S","legs":"X"},"bonus":0.40000000000000013},{"rt":447.7999999821186,"stimulus":"bees-with-color/bee-A1DM.svg","response":1,"trial_type":"image-button-response","trial_index":115,"time_elapsed":846372,"internal_node_id":"0.0-4.0-0.54","subject_id":"5e03ed9c6a5bffeccec824c3","study_id":"60edd13110225f80f9f3709b","session_id":"6196c1f7b4537bbb9c2fe7b7","condition":"contingent","relevant_dimensions":["antennae","pattern"],"bee_group":{"antennae":"A","wings":"X","pattern":"S","legs":"X"},"action":"avoid","summary":"bad-avoid","bonus":0.40000000000000013},{"rt":396,"stimulus":"\n                    <p><b>Action: <em>avoid</em></b></p>\n                    <p>This is the bee that you just saw.</p>\n                    <img src=\"bees-with-color/bee-A1DM.svg\" width=\"200\">\n                    <p><br>Your bonus pay is unchanged, and remains at $0.40.</p>\n            ","response":0,"trial_type":"html-button-response","trial_index":116,"time_elapsed":846769,"internal_node_id":"0.0-4.0-1.54","subject_id":"5e03ed9c6a5bffeccec824c3","study_id":"60edd13110225f80f9f3709b","session_id":"6196c1f7b4537bbb9c2fe7b7","condition":"contingent","relevant_dimensions":["antennae","pattern"],"bee_group":{"antennae":"A","wings":"X","pattern":"S","legs":"X"},"bonus":0.40000000000000013},{"rt":395.5,"stimulus":"bees-with-color/bee-B2DM.svg","response":1,"trial_type":"image-button-response","trial_index":117,"time_elapsed":847167,"internal_node_id":"0.0-4.0-0.55","subject_id":"5e03ed9c6a5bffeccec824c3","study_id":"60edd13110225f80f9f3709b","session_id":"6196c1f7b4537bbb9c2fe7b7","condition":"contingent","relevant_dimensions":["antennae","pattern"],"bee_group":{"antennae":"A","wings":"X","pattern":"S","legs":"X"},"action":"avoid","summary":"bad-avoid","bonus":0.40000000000000013},{"rt":291.80000001192093,"stimulus":"\n                    <p><b>Action: <em>avoid</em></b></p>\n                    <p>This is the bee that you just saw.</p>\n                    <img src=\"bees-with-color/bee-B2DM.svg\" width=\"200\">\n                    <p><br>Your bonus pay is unchanged, and remains at $0.40.</p>\n            ","response":0,"trial_type":"html-button-response","trial_index":118,"time_elapsed":847460,"internal_node_id":"0.0-4.0-1.55","subject_id":"5e03ed9c6a5bffeccec824c3","study_id":"60edd13110225f80f9f3709b","session_id":"6196c1f7b4537bbb9c2fe7b7","condition":"contingent","relevant_dimensions":["antennae","pattern"],"bee_group":{"antennae":"A","wings":"X","pattern":"S","legs":"X"},"bonus":0.40000000000000013},{"rt":225.5,"stimulus":"bees-with-color/bee-B2SM.svg","response":1,"trial_type":"image-button-response","trial_index":119,"time_elapsed":847687,"internal_node_id":"0.0-4.0-0.56","subject_id":"5e03ed9c6a5bffeccec824c3","study_id":"60edd13110225f80f9f3709b","session_id":"6196c1f7b4537bbb9c2fe7b7","condition":"contingent","relevant_dimensions":["antennae","pattern"],"bee_group":{"antennae":"A","wings":"X","pattern":"S","legs":"X"},"action":"avoid","summary":"bad-avoid","bonus":0.40000000000000013},{"rt":384,"stimulus":"\n                    <p><b>Action: <em>avoid</em></b></p>\n                    <p>This is the bee that you just saw.</p>\n                    <img src=\"bees-with-color/bee-B2SM.svg\" width=\"200\">\n                    <p><br>Your bonus pay is unchanged, and remains at $0.40.</p>\n            ","response":0,"trial_type":"html-button-response","trial_index":120,"time_elapsed":848074,"internal_node_id":"0.0-4.0-1.56","subject_id":"5e03ed9c6a5bffeccec824c3","study_id":"60edd13110225f80f9f3709b","session_id":"6196c1f7b4537bbb9c2fe7b7","condition":"contingent","relevant_dimensions":["antennae","pattern"],"bee_group":{"antennae":"A","wings":"X","pattern":"S","legs":"X"},"bonus":0.40000000000000013},{"rt":198.40000000596046,"stimulus":"bees-with-color/bee-A1DF.svg","response":1,"trial_type":"image-button-response","trial_index":121,"time_elapsed":848275,"internal_node_id":"0.0-4.0-0.57","subject_id":"5e03ed9c6a5bffeccec824c3","study_id":"60edd13110225f80f9f3709b","session_id":"6196c1f7b4537bbb9c2fe7b7","condition":"contingent","relevant_dimensions":["antennae","pattern"],"bee_group":{"antennae":"A","wings":"X","pattern":"S","legs":"X"},"action":"avoid","summary":"bad-avoid","bonus":0.40000000000000013},{"rt":357.09999999403954,"stimulus":"\n                    <p><b>Action: <em>avoid</em></b></p>\n                    <p>This is the bee that you just saw.</p>\n                    <img src=\"bees-with-color/bee-A1DF.svg\" width=\"200\">\n                    <p><br>Your bonus pay is unchanged, and remains at $0.40.</p>\n            ","response":0,"trial_type":"html-button-response","trial_index":122,"time_elapsed":848634,"internal_node_id":"0.0-4.0-1.57","subject_id":"5e03ed9c6a5bffeccec824c3","study_id":"60edd13110225f80f9f3709b","session_id":"6196c1f7b4537bbb9c2fe7b7","condition":"contingent","relevant_dimensions":["antennae","pattern"],"bee_group":{"antennae":"A","wings":"X","pattern":"S","legs":"X"},"bonus":0.40000000000000013},{"rt":215.09999999403954,"stimulus":"bees-with-color/bee-B1DM.svg","response":1,"trial_type":"image-button-response","trial_index":123,"time_elapsed":848851,"internal_node_id":"0.0-4.0-0.58","subject_id":"5e03ed9c6a5bffeccec824c3","study_id":"60edd13110225f80f9f3709b","session_id":"6196c1f7b4537bbb9c2fe7b7","condition":"contingent","relevant_dimensions":["antennae","pattern"],"bee_group":{"antennae":"A","wings":"X","pattern":"S","legs":"X"},"action":"avoid","summary":"bad-avoid","bonus":0.40000000000000013},{"rt":364.40000000596046,"stimulus":"\n                    <p><b>Action: <em>avoid</em></b></p>\n                    <p>This is the bee that you just saw.</p>\n                    <img src=\"bees-with-color/bee-B1DM.svg\" width=\"200\">\n                    <p><br>Your bonus pay is unchanged, and remains at $0.40.</p>\n            ","response":0,"trial_type":"html-button-response","trial_index":124,"time_elapsed":849217,"internal_node_id":"0.0-4.0-1.58","subject_id":"5e03ed9c6a5bffeccec824c3","study_id":"60edd13110225f80f9f3709b","session_id":"6196c1f7b4537bbb9c2fe7b7","condition":"contingent","relevant_dimensions":["antennae","pattern"],"bee_group":{"antennae":"A","wings":"X","pattern":"S","legs":"X"},"bonus":0.40000000000000013},{"rt":201.09999999403954,"stimulus":"bees-with-color/bee-A2SF.svg","response":1,"trial_type":"image-button-response","trial_index":125,"time_elapsed":849420,"internal_node_id":"0.0-4.0-0.59","subject_id":"5e03ed9c6a5bffeccec824c3","study_id":"60edd13110225f80f9f3709b","session_id":"6196c1f7b4537bbb9c2fe7b7","condition":"contingent","relevant_dimensions":["antennae","pattern"],"bee_group":{"antennae":"A","wings":"X","pattern":"S","legs":"X"},"action":"avoid","summary":"good-avoid","bonus":0.40000000000000013},{"rt":389.40000000596046,"stimulus":"\n                    <p><b>Action: <em>avoid</em></b></p>\n                    <p>This is the bee that you just saw.</p>\n                    <img src=\"bees-with-color/bee-A2SF.svg\" width=\"200\">\n                    <p><br>Your bonus pay is unchanged, and remains at $0.40.</p>\n            ","response":0,"trial_type":"html-button-response","trial_index":126,"time_elapsed":849811,"internal_node_id":"0.0-4.0-1.59","subject_id":"5e03ed9c6a5bffeccec824c3","study_id":"60edd13110225f80f9f3709b","session_id":"6196c1f7b4537bbb9c2fe7b7","condition":"contingent","relevant_dimensions":["antennae","pattern"],"bee_group":{"antennae":"A","wings":"X","pattern":"S","legs":"X"},"bonus":0.40000000000000013},{"rt":551.8999999761581,"stimulus":"bees-with-color/bee-B1SF.svg","response":1,"trial_type":"image-button-response","trial_index":127,"time_elapsed":850365,"internal_node_id":"0.0-4.0-0.60","subject_id":"5e03ed9c6a5bffeccec824c3","study_id":"60edd13110225f80f9f3709b","session_id":"6196c1f7b4537bbb9c2fe7b7","condition":"contingent","relevant_dimensions":["antennae","pattern"],"bee_group":{"antennae":"A","wings":"X","pattern":"S","legs":"X"},"action":"avoid","summary":"bad-avoid","bonus":0.40000000000000013},{"rt":332.2000000178814,"stimulus":"\n                    <p><b>Action: <em>avoid</em></b></p>\n                    <p>This is the bee that you just saw.</p>\n                    <img src=\"bees-with-color/bee-B1SF.svg\" width=\"200\">\n                    <p><br>Your bonus pay is unchanged, and remains at $0.40.</p>\n            ","response":0,"trial_type":"html-button-response","trial_index":128,"time_elapsed":850698,"internal_node_id":"0.0-4.0-1.60","subject_id":"5e03ed9c6a5bffeccec824c3","study_id":"60edd13110225f80f9f3709b","session_id":"6196c1f7b4537bbb9c2fe7b7","condition":"contingent","relevant_dimensions":["antennae","pattern"],"bee_group":{"antennae":"A","wings":"X","pattern":"S","legs":"X"},"bonus":0.40000000000000013},{"rt":714.5,"stimulus":"bees-with-color/bee-B1SM.svg","response":1,"trial_type":"image-button-response","trial_index":129,"time_elapsed":851415,"internal_node_id":"0.0-4.0-0.61","subject_id":"5e03ed9c6a5bffeccec824c3","study_id":"60edd13110225f80f9f3709b","session_id":"6196c1f7b4537bbb9c2fe7b7","condition":"contingent","relevant_dimensions":["antennae","pattern"],"bee_group":{"antennae":"A","wings":"X","pattern":"S","legs":"X"},"action":"avoid","summary":"bad-avoid","bonus":0.40000000000000013},{"rt":396.80000001192093,"stimulus":"\n                    <p><b>Action: <em>avoid</em></b></p>\n                    <p>This is the bee that you just saw.</p>\n                    <img src=\"bees-with-color/bee-B1SM.svg\" width=\"200\">\n                    <p><br>Your bonus pay is unchanged, and remains at $0.40.</p>\n            ","response":0,"trial_type":"html-button-response","trial_index":130,"time_elapsed":851813,"internal_node_id":"0.0-4.0-1.61","subject_id":"5e03ed9c6a5bffeccec824c3","study_id":"60edd13110225f80f9f3709b","session_id":"6196c1f7b4537bbb9c2fe7b7","condition":"contingent","relevant_dimensions":["antennae","pattern"],"bee_group":{"antennae":"A","wings":"X","pattern":"S","legs":"X"},"bonus":0.40000000000000013},{"rt":221.69999998807907,"stimulus":"bees-with-color/bee-B2DF.svg","response":1,"trial_type":"image-button-response","trial_index":131,"time_elapsed":852037,"internal_node_id":"0.0-4.0-0.62","subject_id":"5e03ed9c6a5bffeccec824c3","study_id":"60edd13110225f80f9f3709b","session_id":"6196c1f7b4537bbb9c2fe7b7","condition":"contingent","relevant_dimensions":["antennae","pattern"],"bee_group":{"antennae":"A","wings":"X","pattern":"S","legs":"X"},"action":"avoid","summary":"bad-avoid","bonus":0.40000000000000013},{"rt":560,"stimulus":"\n                    <p><b>Action: <em>avoid</em></b></p>\n                    <p>This is the bee that you just saw.</p>\n                    <img src=\"bees-with-color/bee-B2DF.svg\" width=\"200\">\n                    <p><br>Your bonus pay is unchanged, and remains at $0.40.</p>\n            ","response":0,"trial_type":"html-button-response","trial_index":132,"time_elapsed":852598,"internal_node_id":"0.0-4.0-1.62","subject_id":"5e03ed9c6a5bffeccec824c3","study_id":"60edd13110225f80f9f3709b","session_id":"6196c1f7b4537bbb9c2fe7b7","condition":"contingent","relevant_dimensions":["antennae","pattern"],"bee_group":{"antennae":"A","wings":"X","pattern":"S","legs":"X"},"bonus":0.40000000000000013},{"rt":344.59999999403954,"stimulus":"bees-with-color/bee-A2SM.svg","response":1,"trial_type":"image-button-response","trial_index":133,"time_elapsed":852944,"internal_node_id":"0.0-4.0-0.63","subject_id":"5e03ed9c6a5bffeccec824c3","study_id":"60edd13110225f80f9f3709b","session_id":"6196c1f7b4537bbb9c2fe7b7","condition":"contingent","relevant_dimensions":["antennae","pattern"],"bee_group":{"antennae":"A","wings":"X","pattern":"S","legs":"X"},"action":"avoid","summary":"good-avoid","bonus":0.40000000000000013},{"rt":1028.0999999940395,"stimulus":"\n                    <p><b>Action: <em>avoid</em></b></p>\n                    <p>This is the bee that you just saw.</p>\n                    <img src=\"bees-with-color/bee-A2SM.svg\" width=\"200\">\n                    <p><br>Your bonus pay is unchanged, and remains at $0.40.</p>\n            ","response":0,"trial_type":"html-button-response","trial_index":134,"time_elapsed":853974,"internal_node_id":"0.0-4.0-1.63","subject_id":"5e03ed9c6a5bffeccec824c3","study_id":"60edd13110225f80f9f3709b","session_id":"6196c1f7b4537bbb9c2fe7b7","condition":"contingent","relevant_dimensions":["antennae","pattern"],"bee_group":{"antennae":"A","wings":"X","pattern":"S","legs":"X"},"bonus":0.40000000000000013},{"rt":6526.299999982119,"stimulus":"You have completed the first part of this experiment.<br><br>You will now begin a shorter second part, in which you will receive no feedback.<br>The same rules regarding bonus pay apply.<br><br>Press any key to begin.","response":"enter","trial_type":"html-keyboard-response","trial_index":135,"time_elapsed":860502,"internal_node_id":"0.0-5.0","subject_id":"5e03ed9c6a5bffeccec824c3","study_id":"60edd13110225f80f9f3709b","session_id":"6196c1f7b4537bbb9c2fe7b7","condition":"contingent","relevant_dimensions":["antennae","pattern"],"bee_group":{"antennae":"A","wings":"X","pattern":"S","legs":"X"},"bonus":0.40000000000000013},{"rt":2061.9000000059605,"stimulus":"bees-with-color/bee-B2DF.svg","response":1,"trial_type":"image-button-response","trial_index":136,"time_elapsed":862570,"internal_node_id":"0.0-6.0-0.0","subject_id":"5e03ed9c6a5bffeccec824c3","study_id":"60edd13110225f80f9f3709b","session_id":"6196c1f7b4537bbb9c2fe7b7","condition":"contingent","relevant_dimensions":["antennae","pattern"],"bee_group":{"antennae":"A","wings":"X","pattern":"S","legs":"X"},"bonus":0.40000000000000013},{"rt":690.5999999940395,"stimulus":"bees-with-color/bee-B1DF.svg","response":1,"trial_type":"image-button-response","trial_index":137,"time_elapsed":863264,"internal_node_id":"0.0-6.0-0.1","subject_id":"5e03ed9c6a5bffeccec824c3","study_id":"60edd13110225f80f9f3709b","session_id":"6196c1f7b4537bbb9c2fe7b7","condition":"contingent","relevant_dimensions":["antennae","pattern"],"bee_group":{"antennae":"A","wings":"X","pattern":"S","legs":"X"},"bonus":0.40000000000000013},{"rt":279.69999998807907,"stimulus":"bees-with-color/bee-B1SM.svg","response":1,"trial_type":"image-button-response","trial_index":138,"time_elapsed":863546,"internal_node_id":"0.0-6.0-0.2","subject_id":"5e03ed9c6a5bffeccec824c3","study_id":"60edd13110225f80f9f3709b","session_id":"6196c1f7b4537bbb9c2fe7b7","condition":"contingent","relevant_dimensions":["antennae","pattern"],"bee_group":{"antennae":"A","wings":"X","pattern":"S","legs":"X"},"bonus":0.40000000000000013},{"rt":222.90000000596046,"stimulus":"bees-with-color/bee-A2DF.svg","response":1,"trial_type":"image-button-response","trial_index":139,"time_elapsed":863772,"internal_node_id":"0.0-6.0-0.3","subject_id":"5e03ed9c6a5bffeccec824c3","study_id":"60edd13110225f80f9f3709b","session_id":"6196c1f7b4537bbb9c2fe7b7","condition":"contingent","relevant_dimensions":["antennae","pattern"],"bee_group":{"antennae":"A","wings":"X","pattern":"S","legs":"X"},"bonus":0.40000000000000013},{"rt":184.2000000178814,"stimulus":"bees-with-color/bee-A2SF.svg","response":1,"trial_type":"image-button-response","trial_index":140,"time_elapsed":863959,"internal_node_id":"0.0-6.0-0.4","subject_id":"5e03ed9c6a5bffeccec824c3","study_id":"60edd13110225f80f9f3709b","session_id":"6196c1f7b4537bbb9c2fe7b7","condition":"contingent","relevant_dimensions":["antennae","pattern"],"bee_group":{"antennae":"A","wings":"X","pattern":"S","legs":"X"},"bonus":0.40000000000000013},{"rt":275.80000001192093,"stimulus":"bees-with-color/bee-A1SM.svg","response":1,"trial_type":"image-button-response","trial_index":141,"time_elapsed":864237,"internal_node_id":"0.0-6.0-0.5","subject_id":"5e03ed9c6a5bffeccec824c3","study_id":"60edd13110225f80f9f3709b","session_id":"6196c1f7b4537bbb9c2fe7b7","condition":"contingent","relevant_dimensions":["antennae","pattern"],"bee_group":{"antennae":"A","wings":"X","pattern":"S","legs":"X"},"bonus":0.40000000000000013},{"rt":124.5,"stimulus":"bees-with-color/bee-B1SF.svg","response":1,"trial_type":"image-button-response","trial_index":142,"time_elapsed":864364,"internal_node_id":"0.0-6.0-0.6","subject_id":"5e03ed9c6a5bffeccec824c3","study_id":"60edd13110225f80f9f3709b","session_id":"6196c1f7b4537bbb9c2fe7b7","condition":"contingent","relevant_dimensions":["antennae","pattern"],"bee_group":{"antennae":"A","wings":"X","pattern":"S","legs":"X"},"bonus":0.40000000000000013},{"rt":116.2000000178814,"stimulus":"bees-with-color/bee-A2DM.svg","response":1,"trial_type":"image-button-response","trial_index":143,"time_elapsed":864483,"internal_node_id":"0.0-6.0-0.7","subject_id":"5e03ed9c6a5bffeccec824c3","study_id":"60edd13110225f80f9f3709b","session_id":"6196c1f7b4537bbb9c2fe7b7","condition":"contingent","relevant_dimensions":["antennae","pattern"],"bee_group":{"antennae":"A","wings":"X","pattern":"S","legs":"X"},"bonus":0.40000000000000013},{"rt":93.90000000596046,"stimulus":"bees-with-color/bee-B2DM.svg","response":1,"trial_type":"image-button-response","trial_index":144,"time_elapsed":864580,"internal_node_id":"0.0-6.0-0.8","subject_id":"5e03ed9c6a5bffeccec824c3","study_id":"60edd13110225f80f9f3709b","session_id":"6196c1f7b4537bbb9c2fe7b7","condition":"contingent","relevant_dimensions":["antennae","pattern"],"bee_group":{"antennae":"A","wings":"X","pattern":"S","legs":"X"},"bonus":0.40000000000000013},{"rt":107.80000001192093,"stimulus":"bees-with-color/bee-A1DM.svg","response":1,"trial_type":"image-button-response","trial_index":145,"time_elapsed":864690,"internal_node_id":"0.0-6.0-0.9","subject_id":"5e03ed9c6a5bffeccec824c3","study_id":"60edd13110225f80f9f3709b","session_id":"6196c1f7b4537bbb9c2fe7b7","condition":"contingent","relevant_dimensions":["antennae","pattern"],"bee_group":{"antennae":"A","wings":"X","pattern":"S","legs":"X"},"bonus":0.40000000000000013},{"rt":112.09999999403954,"stimulus":"bees-with-color/bee-B1DM.svg","response":1,"trial_type":"image-button-response","trial_index":146,"time_elapsed":864804,"internal_node_id":"0.0-6.0-0.10","subject_id":"5e03ed9c6a5bffeccec824c3","study_id":"60edd13110225f80f9f3709b","session_id":"6196c1f7b4537bbb9c2fe7b7","condition":"contingent","relevant_dimensions":["antennae","pattern"],"bee_group":{"antennae":"A","wings":"X","pattern":"S","legs":"X"},"bonus":0.40000000000000013},{"rt":111.30000001192093,"stimulus":"bees-with-color/bee-B2SF.svg","response":1,"trial_type":"image-button-response","trial_index":147,"time_elapsed":864918,"internal_node_id":"0.0-6.0-0.11","subject_id":"5e03ed9c6a5bffeccec824c3","study_id":"60edd13110225f80f9f3709b","session_id":"6196c1f7b4537bbb9c2fe7b7","condition":"contingent","relevant_dimensions":["antennae","pattern"],"bee_group":{"antennae":"A","wings":"X","pattern":"S","legs":"X"},"bonus":0.40000000000000013},{"rt":117.5,"stimulus":"bees-with-color/bee-A1DF.svg","response":1,"trial_type":"image-button-response","trial_index":148,"time_elapsed":865038,"internal_node_id":"0.0-6.0-0.12","subject_id":"5e03ed9c6a5bffeccec824c3","study_id":"60edd13110225f80f9f3709b","session_id":"6196c1f7b4537bbb9c2fe7b7","condition":"contingent","relevant_dimensions":["antennae","pattern"],"bee_group":{"antennae":"A","wings":"X","pattern":"S","legs":"X"},"bonus":0.40000000000000013},{"rt":100,"stimulus":"bees-with-color/bee-B2SM.svg","response":1,"trial_type":"image-button-response","trial_index":149,"time_elapsed":865140,"internal_node_id":"0.0-6.0-0.13","subject_id":"5e03ed9c6a5bffeccec824c3","study_id":"60edd13110225f80f9f3709b","session_id":"6196c1f7b4537bbb9c2fe7b7","condition":"contingent","relevant_dimensions":["antennae","pattern"],"bee_group":{"antennae":"A","wings":"X","pattern":"S","legs":"X"},"bonus":0.40000000000000013},{"rt":109.59999999403954,"stimulus":"bees-with-color/bee-A1SF.svg","response":1,"trial_type":"image-button-response","trial_index":150,"time_elapsed":865252,"internal_node_id":"0.0-6.0-0.14","subject_id":"5e03ed9c6a5bffeccec824c3","study_id":"60edd13110225f80f9f3709b","session_id":"6196c1f7b4537bbb9c2fe7b7","condition":"contingent","relevant_dimensions":["antennae","pattern"],"bee_group":{"antennae":"A","wings":"X","pattern":"S","legs":"X"},"bonus":0.40000000000000013},{"rt":103.60000002384186,"stimulus":"bees-with-color/bee-A2SM.svg","response":1,"trial_type":"image-button-response","trial_index":151,"time_elapsed":865359,"internal_node_id":"0.0-6.0-0.15","subject_id":"5e03ed9c6a5bffeccec824c3","study_id":"60edd13110225f80f9f3709b","session_id":"6196c1f7b4537bbb9c2fe7b7","condition":"contingent","relevant_dimensions":["antennae","pattern"],"bee_group":{"antennae":"A","wings":"X","pattern":"S","legs":"X"},"bonus":0.40000000000000013},{"rt":104,"stimulus":"bees-with-color/bee-B1DM.svg","response":1,"trial_type":"image-button-response","trial_index":152,"time_elapsed":865465,"internal_node_id":"0.0-6.0-0.16","subject_id":"5e03ed9c6a5bffeccec824c3","study_id":"60edd13110225f80f9f3709b","session_id":"6196c1f7b4537bbb9c2fe7b7","condition":"contingent","relevant_dimensions":["antennae","pattern"],"bee_group":{"antennae":"A","wings":"X","pattern":"S","legs":"X"},"bonus":0.40000000000000013},{"rt":113.5,"stimulus":"bees-with-color/bee-A2DM.svg","response":1,"trial_type":"image-button-response","trial_index":153,"time_elapsed":865581,"internal_node_id":"0.0-6.0-0.17","subject_id":"5e03ed9c6a5bffeccec824c3","study_id":"60edd13110225f80f9f3709b","session_id":"6196c1f7b4537bbb9c2fe7b7","condition":"contingent","relevant_dimensions":["antennae","pattern"],"bee_group":{"antennae":"A","wings":"X","pattern":"S","legs":"X"},"bonus":0.40000000000000013},{"rt":86,"stimulus":"bees-with-color/bee-B1SM.svg","response":1,"trial_type":"image-button-response","trial_index":154,"time_elapsed":865669,"internal_node_id":"0.0-6.0-0.18","subject_id":"5e03ed9c6a5bffeccec824c3","study_id":"60edd13110225f80f9f3709b","session_id":"6196c1f7b4537bbb9c2fe7b7","condition":"contingent","relevant_dimensions":["antennae","pattern"],"bee_group":{"antennae":"A","wings":"X","pattern":"S","legs":"X"},"bonus":0.40000000000000013},{"rt":96.7999999821186,"stimulus":"bees-with-color/bee-A1SF.svg","response":1,"trial_type":"image-button-response","trial_index":155,"time_elapsed":865769,"internal_node_id":"0.0-6.0-0.19","subject_id":"5e03ed9c6a5bffeccec824c3","study_id":"60edd13110225f80f9f3709b","session_id":"6196c1f7b4537bbb9c2fe7b7","condition":"contingent","relevant_dimensions":["antennae","pattern"],"bee_group":{"antennae":"A","wings":"X","pattern":"S","legs":"X"},"bonus":0.40000000000000013},{"rt":105.39999997615814,"stimulus":"bees-with-color/bee-B2SM.svg","response":1,"trial_type":"image-button-response","trial_index":156,"time_elapsed":865876,"internal_node_id":"0.0-6.0-0.20","subject_id":"5e03ed9c6a5bffeccec824c3","study_id":"60edd13110225f80f9f3709b","session_id":"6196c1f7b4537bbb9c2fe7b7","condition":"contingent","relevant_dimensions":["antennae","pattern"],"bee_group":{"antennae":"A","wings":"X","pattern":"S","legs":"X"},"bonus":0.40000000000000013},{"rt":211.7999999821186,"stimulus":"bees-with-color/bee-A1DF.svg","response":1,"trial_type":"image-button-response","trial_index":157,"time_elapsed":866091,"internal_node_id":"0.0-6.0-0.21","subject_id":"5e03ed9c6a5bffeccec824c3","study_id":"60edd13110225f80f9f3709b","session_id":"6196c1f7b4537bbb9c2fe7b7","condition":"contingent","relevant_dimensions":["antennae","pattern"],"bee_group":{"antennae":"A","wings":"X","pattern":"S","legs":"X"},"bonus":0.40000000000000013},{"rt":100.90000000596046,"stimulus":"bees-with-color/bee-A2DF.svg","response":1,"trial_type":"image-button-response","trial_index":158,"time_elapsed":866194,"internal_node_id":"0.0-6.0-0.22","subject_id":"5e03ed9c6a5bffeccec824c3","study_id":"60edd13110225f80f9f3709b","session_id":"6196c1f7b4537bbb9c2fe7b7","condition":"contingent","relevant_dimensions":["antennae","pattern"],"bee_group":{"antennae":"A","wings":"X","pattern":"S","legs":"X"},"bonus":0.40000000000000013},{"rt":104.40000000596046,"stimulus":"bees-with-color/bee-A2SF.svg","response":1,"trial_type":"image-button-response","trial_index":159,"time_elapsed":866300,"internal_node_id":"0.0-6.0-0.23","subject_id":"5e03ed9c6a5bffeccec824c3","study_id":"60edd13110225f80f9f3709b","session_id":"6196c1f7b4537bbb9c2fe7b7","condition":"contingent","relevant_dimensions":["antennae","pattern"],"bee_group":{"antennae":"A","wings":"X","pattern":"S","legs":"X"},"bonus":0.40000000000000013},{"rt":95.7000000178814,"stimulus":"bees-with-color/bee-A1DM.svg","response":1,"trial_type":"image-button-response","trial_index":160,"time_elapsed":866398,"internal_node_id":"0.0-6.0-0.24","subject_id":"5e03ed9c6a5bffeccec824c3","study_id":"60edd13110225f80f9f3709b","session_id":"6196c1f7b4537bbb9c2fe7b7","condition":"contingent","relevant_dimensions":["antennae","pattern"],"bee_group":{"antennae":"A","wings":"X","pattern":"S","legs":"X"},"bonus":0.40000000000000013},{"rt":193.90000000596046,"stimulus":"bees-with-color/bee-A2SM.svg","response":1,"trial_type":"image-button-response","trial_index":161,"time_elapsed":866594,"internal_node_id":"0.0-6.0-0.25","subject_id":"5e03ed9c6a5bffeccec824c3","study_id":"60edd13110225f80f9f3709b","session_id":"6196c1f7b4537bbb9c2fe7b7","condition":"contingent","relevant_dimensions":["antennae","pattern"],"bee_group":{"antennae":"A","wings":"X","pattern":"S","legs":"X"},"bonus":0.40000000000000013},{"rt":119.69999998807907,"stimulus":"bees-with-color/bee-B2DM.svg","response":1,"trial_type":"image-button-response","trial_index":162,"time_elapsed":866716,"internal_node_id":"0.0-6.0-0.26","subject_id":"5e03ed9c6a5bffeccec824c3","study_id":"60edd13110225f80f9f3709b","session_id":"6196c1f7b4537bbb9c2fe7b7","condition":"contingent","relevant_dimensions":["antennae","pattern"],"bee_group":{"antennae":"A","wings":"X","pattern":"S","legs":"X"},"bonus":0.40000000000000013},{"rt":77.90000000596046,"stimulus":"bees-with-color/bee-B1DF.svg","response":1,"trial_type":"image-button-response","trial_index":163,"time_elapsed":866796,"internal_node_id":"0.0-6.0-0.27","subject_id":"5e03ed9c6a5bffeccec824c3","study_id":"60edd13110225f80f9f3709b","session_id":"6196c1f7b4537bbb9c2fe7b7","condition":"contingent","relevant_dimensions":["antennae","pattern"],"bee_group":{"antennae":"A","wings":"X","pattern":"S","legs":"X"},"bonus":0.40000000000000013},{"rt":100.80000001192093,"stimulus":"bees-with-color/bee-B1SF.svg","response":1,"trial_type":"image-button-response","trial_index":164,"time_elapsed":866899,"internal_node_id":"0.0-6.0-0.28","subject_id":"5e03ed9c6a5bffeccec824c3","study_id":"60edd13110225f80f9f3709b","session_id":"6196c1f7b4537bbb9c2fe7b7","condition":"contingent","relevant_dimensions":["antennae","pattern"],"bee_group":{"antennae":"A","wings":"X","pattern":"S","legs":"X"},"bonus":0.40000000000000013},{"rt":112.2000000178814,"stimulus":"bees-with-color/bee-B2SF.svg","response":1,"trial_type":"image-button-response","trial_index":165,"time_elapsed":867013,"internal_node_id":"0.0-6.0-0.29","subject_id":"5e03ed9c6a5bffeccec824c3","study_id":"60edd13110225f80f9f3709b","session_id":"6196c1f7b4537bbb9c2fe7b7","condition":"contingent","relevant_dimensions":["antennae","pattern"],"bee_group":{"antennae":"A","wings":"X","pattern":"S","legs":"X"},"bonus":0.40000000000000013},{"rt":99.90000000596046,"stimulus":"bees-with-color/bee-B2DF.svg","response":1,"trial_type":"image-button-response","trial_index":166,"time_elapsed":867115,"internal_node_id":"0.0-6.0-0.30","subject_id":"5e03ed9c6a5bffeccec824c3","study_id":"60edd13110225f80f9f3709b","session_id":"6196c1f7b4537bbb9c2fe7b7","condition":"contingent","relevant_dimensions":["antennae","pattern"],"bee_group":{"antennae":"A","wings":"X","pattern":"S","legs":"X"},"bonus":0.40000000000000013},{"rt":781.5999999940395,"stimulus":"bees-with-color/bee-A1SM.svg","response":1,"trial_type":"image-button-response","trial_index":167,"time_elapsed":867899,"internal_node_id":"0.0-6.0-0.31","subject_id":"5e03ed9c6a5bffeccec824c3","study_id":"60edd13110225f80f9f3709b","session_id":"6196c1f7b4537bbb9c2fe7b7","condition":"contingent","relevant_dimensions":["antennae","pattern"],"bee_g