[{"success":true,"trial_type":"fullscreen","trial_index":0,"time_elapsed":11817,"internal_node_id":"0.0-0.0","subject_id":"5f1b2fe23bcef80c38d2a362","study_id":"6197b3f67c2b5cd3b6d9596a","session_id":"619be67cf9bee77a8fdd7593","condition":"contingent","relevant_dimensions":["wings","pattern"],"bee_group":{"antennae":"X","wings":"2","pattern":"S","legs":"X"},"bonus":0},{"success":true,"timeout":false,"failed_images":[],"failed_audio":[],"failed_video":[],"trial_type":"preload","trial_index":1,"time_elapsed":23898,"internal_node_id":"0.0-1.0","subject_id":"5f1b2fe23bcef80c38d2a362","study_id":"6197b3f67c2b5cd3b6d9596a","session_id":"619be67cf9bee77a8fdd7593","condition":"contingent","relevant_dimensions":["wings","pattern"],"bee_group":{"antennae":"X","wings":"2","pattern":"S","legs":"X"},"bonus":0},{"rt":19235.80000000447,"stimulus":"Welcome! Press any key to begin.","response":" ","trial_type":"html-keyboard-response","trial_index":2,"time_elapsed":43136,"internal_node_id":"0.0-2.0","subject_id":"5f1b2fe23bcef80c38d2a362","study_id":"6197b3f67c2b5cd3b6d9596a","session_id":"619be67cf9bee77a8fdd7593","condition":"contingent","relevant_dimensions":["wings","pattern"],"bee_group":{"antennae":"X","wings":"2","pattern":"S","legs":"X"},"bonus":0},{"view_history":[{"page_index":0,"viewing_time":12917.39999999851},{"page_index":1,"viewing_time":62601},{"page_index":2,"viewing_time":16007.19999999553},{"page_index":3,"viewing_time":57764.10000000149},{"page_index":4,"viewing_time":8051.30000000447},{"page_index":5,"viewing_time":8986.69999999553},{"page_index":6,"viewing_time":7217.39999999851},{"page_index":7,"viewing_time":20691.5},{"page_index":8,"viewing_time":6964.70000000298},{"page_index":9,"viewing_time":7122.70000000298},{"page_index":10,"viewing_time":3324.5999999940395},{"page_index":11,"viewing_time":7245.20000000298},{"page_index":12,"viewing_time":10136},{"page_index":13,"viewing_time":1507},{"page_index":14,"viewing_time":3633.39999999851}],"rt":234171.5,"trial_type":"instructions","trial_index":3,"time_elapsed":277308,"internal_node_id":"0.0-3.0-0.0","subject_id":"5f1b2fe23bcef80c38d2a362","study_id":"6197b3f67c2b5cd3b6d9596a","session_id":"619be67cf9bee77a8fdd7593","condition":"contingent","relevant_dimensions":["wings","pattern"],"bee_group":{"antennae":"X","wings":"2","pattern":"S","legs":"X"},"bonus":0},{"rt":64822,"response":{"Q0":["Two or six legs","Stripes or spots on body","Single or double wings","Antennae or no antennae"]},"question_order":[0],"trial_type":"survey-multi-select","trial_index":4,"time_elapsed":342153,"internal_node_id":"0.0-3.0-1.0","subject_id":"5f1b2fe23bcef80c38d2a362","study_id":"6197b3f67c2b5cd3b6d9596a","session_id":"619be67cf9bee77a8fdd7593","condition":"contingent","relevant_dimensions":["wings","pattern"],"bee_group":{"antennae":"X","wings":"2","pattern":"S","legs":"X"},"correct":true,"bonus":0},{"rt":43990.29999999702,"response":{"Q1":"No.","Q2":"Based on the four features of the bee.","Q3":"You learn if it was friendly or dangerous, but do not alter your bonus."},"question_order":[0,1,2],"trial_type":"survey-multi-choice","trial_index":5,"time_elapsed":386175,"internal_node_id":"0.0-3.0-2.0","subject_id":"5f1b2fe23bcef80c38d2a362","study_id":"6197b3f67c2b5cd3b6d9596a","session_id":"619be67cf9bee77a8fdd7593","condition":"contingent","relevant_dimensions":["wings","pattern"],"bee_group":{"antennae":"X","wings":"2","pattern":"S","legs":"X"},"correct":false,"bonus":0},{"rt":3551.5999999940395,"stimulus":"<p>You did not answer all comprehension questions correctly.<br>Press <b>continue</b> to review the instructions again.</p>","response":0,"trial_type":"html-button-response","trial_index":6,"time_elapsed":389754,"internal_node_id":"0.0-3.0-3.0","subject_id":"5f1b2fe23bcef80c38d2a362","study_id":"6197b3f67c2b5cd3b6d9596a","session_id":"619be67cf9bee77a8fdd7593","condition":"contingent","relevant_dimensions":["wings","pattern"],"bee_group":{"antennae":"X","wings":"2","pattern":"S","legs":"X"},"bonus":0},{"view_history":[{"page_index":0,"viewing_time":2753.5},{"page_index":1,"viewing_time":9542.79999999702},{"page_index":2,"viewing_time":5550.10000000149},{"page_index":3,"viewing_time":11020},{"page_index":4,"viewing_time":4476.60000000149},{"page_index":5,"viewing_time":5537.89999999851},{"page_index":6,"viewing_time":1598.6000000014901},{"page_index":5,"viewing_time":2101.89999999851},{"page_index":6,"viewing_time":1521.7000000029802},{"page_index":7,"viewing_time":1180.2999999970198},{"page_index":8,"viewing_time":222.70000000298023},{"page_index":9,"viewing_time":186.89999999850988},{"page_index":10,"viewing_time":169.79999999701977},{"page_index":11,"viewing_time":1353.1000000014901},{"page_index":12,"viewing_time":1381.8999999985099},{"page_index":13,"viewing_time":1584.6000000014901},{"page_index":14,"viewing_time":1076.7999999970198}],"rt":51260.5,"trial_type":"instructions","trial_index":7,"time_elapsed":441018,"internal_node_id":"0.0-3.0-4.0-0.0","subject_id":"5f1b2fe23bcef80c38d2a362","study_id":"6197b3f67c2b5cd3b6d9596a","session_id":"619be67cf9bee77a8fdd7593","condition":"contingent","relevant_dimensions":["wings","pattern"],"bee_group":{"antennae":"X","wings":"2","pattern":"S","legs":"X"},"bonus":0},{"rt":8919.29999999702,"response":{"Q0":["Two or six legs","Stripes or spots on body","Single or double wings","Antennae or no antennae"]},"question_order":[0],"trial_type":"survey-multi-select","trial_index":8,"time_elapsed":449958,"internal_node_id":"0.0-3.0-4.0-1.0","subject_id":"5f1b2fe23bcef80c38d2a362","study_id":"6197b3f67c2b5cd3b6d9596a","session_id":"619be67cf9bee77a8fdd7593","condition":"contingent","relevant_dimensions":["wings","pattern"],"bee_group":{"antennae":"X","wings":"2","pattern":"S","legs":"X"},"correct":true,"bonus":0},{"rt":10587.20000000298,"response":{"Q1":"No.","Q2":"Based on the four features of the bee.","Q3":"You do not learn if it was friendly or dangerous, and do not alter your bonus."},"question_order":[0,1,2],"trial_type":"survey-multi-choice","trial_index":9,"time_elapsed":460568,"internal_node_id":"0.0-3.0-4.0-2.0","subject_id":"5f1b2fe23bcef80c38d2a362","study_id":"6197b3f67c2b5cd3b6d9596a","session_id":"619be67cf9bee77a8fdd7593","condition":"contingent","relevant_dimensions":["wings","pattern"],"bee_group":{"antennae":"X","wings":"2","pattern":"S","legs":"X"},"correct":true,"bonus":0},{"rt":2900.4000000059605,"stimulus":"<p>Congrats, you got everything right<br>When you're ready, click the button below to continue to the experiment.</p>","response":0,"trial_type":"html-button-response","trial_index":10,"time_elapsed":463494,"internal_node_id":"0.0-3.0-4.0-3.0","subject_id":"5f1b2fe23bcef80c38d2a362","study_id":"6197b3f67c2b5cd3b6d9596a","session_id":"619be67cf9bee77a8fdd7593","condition":"contingent","relevant_dimensions":["wings","pattern"],"bee_group":{"antennae":"X","wings":"2","pattern":"S","legs":"X"},"bonus":0},{"rt":21795.79999999702,"stimulus":"bees-with-color/bee-A1DM.svg","response":1,"trial_type":"image-button-response","trial_index":11,"time_elapsed":485296,"internal_node_id":"0.0-4.0-0.0","subject_id":"5f1b2fe23bcef80c38d2a362","study_id":"6197b3f67c2b5cd3b6d9596a","session_id":"619be67cf9bee77a8fdd7593","condition":"contingent","relevant_dimensions":["wings","pattern"],"bee_group":{"antennae":"X","wings":"2","pattern":"S","legs":"X"},"action":"avoid","summary":"bad-avoid","bonus":0},{"rt":8124.5,"stimulus":"\n                    <p><b>Action: <em>avoid</em></b></p>\n                    <p>This is the bee that you just saw.</p>\n                    <img src=\"bees-with-color/bee-A1DM.svg\" width=\"200\">\n                    <p><br>Your bonus pay is unchanged, and remains at $0.54.</p>\n            ","response":0,"trial_type":"html-button-response","trial_index":12,"time_elapsed":493436,"internal_node_id":"0.0-4.0-1.0","subject_id":"5f1b2fe23bcef80c38d2a362","study_id":"6197b3f67c2b5cd3b6d9596a","session_id":"619be67cf9bee77a8fdd7593","condition":"contingent","relevant_dimensions":["wings","pattern"],"bee_group":{"antennae":"X","wings":"2","pattern":"S","legs":"X"},"bonus":0},{"rt":8259.10000000149,"stimulus":"bees-with-color/bee-A2SM.svg","response":0,"trial_type":"image-button-response","trial_index":13,"time_elapsed":501710,"internal_node_id":"0.0-4.0-0.1","subject_id":"5f1b2fe23bcef80c38d2a362","study_id":"6197b3f67c2b5cd3b6d9596a","session_id":"619be67cf9bee77a8fdd7593","condition":"contingent","relevant_dimensions":["wings","pattern"],"bee_group":{"antennae":"X","wings":"2","pattern":"S","legs":"X"},"action":"harvest","summary":"bad-harvest","bonus":0},{"rt":6784.80000000447,"stimulus":"\n                    <p><b>Action: <em>harvest</em></b></p>\n                    <p>This is the bee that you just saw.</p>\n                    <img src=\"bees-with-color/bee-A2SM.svg\" width=\"200\">\n                    <p><span class=\"redText\">Bad choice, the bee was angry.</span><br><b>You have been stung!</b><br>Your pay has been decreased by $0.10. Your bonus pay is now $0.44.</p>\n            ","response":0,"trial_type":"html-button-response","trial_index":14,"time_elapsed":508502,"internal_node_id":"0.0-4.0-1.1","subject_id":"5f1b2fe23bcef80c38d2a362","study_id":"6197b3f67c2b5cd3b6d9596a","session_id":"619be67cf9bee77a8fdd7593","condition":"contingent","relevant_dimensions":["wings","pattern"],"bee_group":{"antennae":"X","wings":"2","pattern":"S","legs":"X"},"bonus":0},{"rt":8215.39999999851,"stimulus":"bees-with-color/bee-B2SM.svg","response":0,"trial_type":"image-button-response","trial_index":15,"time_elapsed":516728,"internal_node_id":"0.0-4.0-0.2","subject_id":"5f1b2fe23bcef80c38d2a362","study_id":"6197b3f67c2b5cd3b6d9596a","session_id":"619be67cf9bee77a8fdd7593","condition":"contingent","relevant_dimensions":["wings","pattern"],"bee_group":{"antennae":"X","wings":"2","pattern":"S","legs":"X"},"action":"harvest","summary":"bad-harvest","bonus":0},{"rt":2598.6999999955297,"stimulus":"\n                    <p><b>Action: <em>harvest</em></b></p>\n                    <p>This is the bee that you just saw.</p>\n                    <img src=\"bees-with-color/bee-B2SM.svg\" width=\"200\">\n                    <p><span class=\"redText\">Bad choice, the bee was angry.</span><br><b>You have been stung!</b><br>Your pay has been decreased by $0.10. Your bonus pay is now $0.34.</p>\n            ","response":0,"trial_type":"html-button-response","trial_index":16,"time_elapsed":519339,"internal_node_id":"0.0-4.0-1.2","subject_id":"5f1b2fe23bcef80c38d2a362","study_id":"6197b3f67c2b5cd3b6d9596a","session_id":"619be67cf9bee77a8fdd7593","condition":"contingent","relevant_dimensions":["wings","pattern"],"bee_group":{"antennae":"X","wings":"2","pattern":"S","legs":"X"},"bonus":0},{"rt":14410.20000000298,"stimulus":"bees-with-color/bee-A1SM.svg","response":0,"trial_type":"image-button-response","trial_index":17,"time_elapsed":533762,"internal_node_id":"0.0-4.0-0.3","subject_id":"5f1b2fe23bcef80c38d2a362","study_id":"6197b3f67c2b5cd3b6d9596a","session_id":"619be67cf9bee77a8fdd7593","condition":"contingent","relevant_dimensions":["wings","pattern"],"bee_group":{"antennae":"X","wings":"2","pattern":"S","legs":"X"},"action":"harvest","summary":"good-harvest","bonus":0},{"rt":2290.3000000044703,"stimulus":"\n                    <p><b>Action: <em>harvest</em></b></p>\n                    <p>This is the bee that you just saw.</p>\n                    <img src=\"bees-with-color/bee-A1SM.svg\" width=\"200\">\n                    <p><span class=\"greenText\"><b>Successful harvest!</b></span><br>Your pay has increased by $0.02. Your bonus pay is now $0.36.</p>\n            ","response":0,"trial_type":"html-button-response","trial_index":18,"time_elapsed":536057,"internal_node_id":"0.0-4.0-1.3","subject_id":"5f1b2fe23bcef80c38d2a362","study_id":"6197b3f67c2b5cd3b6d9596a","session_id":"619be67cf9bee77a8fdd7593","condition":"contingent","relevant_dimensions":["wings","pattern"],"bee_group":{"antennae":"X","wings":"2","pattern":"S","legs":"X"},"bonus":0},{"rt":4677.20000000298,"stimulus":"bees-with-color/bee-B1SM.svg","response":0,"trial_type":"image-button-response","trial_index":19,"time_elapsed":540743,"internal_node_id":"0.0-4.0-0.4","subject_id":"5f1b2fe23bcef80c38d2a362","study_id":"6197b3f67c2b5cd3b6d9596a","session_id":"619be67cf9bee77a8fdd7593","condition":"contingent","relevant_dimensions":["wings","pattern"],"bee_group":{"antennae":"X","wings":"2","pattern":"S","legs":"X"},"action":"harvest","summary":"good-harvest","bonus":0},{"rt":1375,"stimulus":"\n                    <p><b>Action: <em>harvest</em></b></p>\n                    <p>This is the bee that you just saw.</p>\n                    <img src=\"bees-with-color/bee-B1SM.svg\" width=\"200\">\n                    <p><span class=\"greenText\"><b>Successful harvest!</b></span><br>Your pay has increased by $0.02. Your bonus pay is now $0.38.</p>\n            ","response":0,"trial_type":"html-button-response","trial_index":20,"time_elapsed":542128,"internal_node_id":"0.0-4.0-1.4","subject_id":"5f1b2fe23bcef80c38d2a362","study_id":"6197b3f67c2b5cd3b6d9596a","session_id":"619be67cf9bee77a8fdd7593","condition":"contingent","relevant_dimensions":["wings","pattern"],"bee_group":{"antennae":"X","wings":"2","pattern":"S","legs":"X"},"bonus":0},{"rt":17258,"stimulus":"bees-with-color/bee-B1SF.svg","response":0,"trial_type":"image-button-response","trial_index":21,"time_elapsed":559395,"internal_node_id":"0.0-4.0-0.5","subject_id":"5f1b2fe23bcef80c38d2a362","study_id":"6197b3f67c2b5cd3b6d9596a","session_id":"619be67cf9bee77a8fdd7593","condition":"contingent","relevant_dimensions":["wings","pattern"],"bee_group":{"antennae":"X","wings":"2","pattern":"S","legs":"X"},"action":"harvest","summary":"good-harvest","bonus":0},{"rt":1754.6000000014901,"stimulus":"\n                    <p><b>Action: <em>harvest</em></b></p>\n                    <p>This is the bee that you just saw.</p>\n                    <img src=\"bees-with-color/bee-B1SF.svg\" width=\"200\">\n                    <p><span class=\"greenText\"><b>Successful harvest!</b></span><br>Your pay has increased by $0.02. Your bonus pay is now $0.40.</p>\n            ","response":0,"trial_type":"html-button-response","trial_index":22,"time_elapsed":561158,"internal_node_id":"0.0-4.0-1.5","subject_id":"5f1b2fe23bcef80c38d2a362","study_id":"6197b3f67c2b5cd3b6d9596a","session_id":"619be67cf9bee77a8fdd7593","condition":"contingent","relevant_dimensions":["wings","pattern"],"bee_group":{"antennae":"X","wings":"2","pattern":"S","legs":"X"},"bonus":0},{"rt":2782.10000000149,"stimulus":"bees-with-color/bee-B1DM.svg","response":1,"trial_type":"image-button-response","trial_index":23,"time_elapsed":563951,"internal_node_id":"0.0-4.0-0.6","subject_id":"5f1b2fe23bcef80c38d2a362","study_id":"6197b3f67c2b5cd3b6d9596a","session_id":"619be67cf9bee77a8fdd7593","condition":"contingent","relevant_dimensions":["wings","pattern"],"bee_group":{"antennae":"X","wings":"2","pattern":"S","legs":"X"},"action":"avoid","summary":"bad-avoid","bonus":0},{"rt":1922.3999999985099,"stimulus":"\n                    <p><b>Action: <em>avoid</em></b></p>\n                    <p>This is the bee that you just saw.</p>\n                    <img src=\"bees-with-color/bee-B1DM.svg\" width=\"200\">\n                    <p><br>Your bonus pay is unchanged, and remains at $0.40.</p>\n            ","response":0,"trial_type":"html-button-response","trial_index":24,"time_elapsed":565881,"internal_node_id":"0.0-4.0-1.6","subject_id":"5f1b2fe23bcef80c38d2a362","study_id":"6197b3f67c2b5cd3b6d9596a","session_id":"619be67cf9bee77a8fdd7593","condition":"contingent","relevant_dimensions":["wings","pattern"],"bee_group":{"antennae":"X","wings":"2","pattern":"S","legs":"X"},"bonus":0},{"rt":8827.5,"stimulus":"bees-with-color/bee-A1DF.svg","response":1,"trial_type":"image-button-response","trial_index":25,"time_elapsed":574716,"internal_node_id":"0.0-4.0-0.7","subject_id":"5f1b2fe23bcef80c38d2a362","study_id":"6197b3f67c2b5cd3b6d9596a","session_id":"619be67cf9bee77a8fdd7593","condition":"contingent","relevant_dimensions":["wings","pattern"],"bee_group":{"antennae":"X","wings":"2","pattern":"S","legs":"X"},"action":"avoid","summary":"bad-avoid","bonus":0},{"rt":1307.1000000014901,"stimulus":"\n                    <p><b>Action: <em>avoid</em></b></p>\n                    <p>This is the bee that you just saw.</p>\n                    <img src=\"bees-with-color/bee-A1DF.svg\" width=\"200\">\n                    <p><br>Your bonus pay is unchanged, and remains at $0.40.</p>\n            ","response":0,"trial_type":"html-button-response","trial_index":26,"time_elapsed":576032,"internal_node_id":"0.0-4.0-1.7","subject_id":"5f1b2fe23bcef80c38d2a362","study_id":"6197b3f67c2b5cd3b6d9596a","session_id":"619be67cf9bee77a8fdd7593","condition":"contingent","relevant_dimensions":["wings","pattern"],"bee_group":{"antennae":"X","wings":"2","pattern":"S","legs":"X"},"bonus":0},{"rt":8647.30000000447,"stimulus":"bees-with-color/bee-A1SF.svg","response":0,"trial_type":"image-button-response","trial_index":27,"time_elapsed":584690,"internal_node_id":"0.0-4.0-0.8","subject_id":"5f1b2fe23bcef80c38d2a362","study_id":"6197b3f67c2b5cd3b6d9596a","session_id":"619be67cf9bee77a8fdd7593","condition":"contingent","relevant_dimensions":["wings","pattern"],"bee_group":{"antennae":"X","wings":"2","pattern":"S","legs":"X"},"action":"harvest","summary":"good-harvest","bonus":0},{"rt":1408.5,"stimulus":"\n                    <p><b>Action: <em>harvest</em></b></p>\n                    <p>This is the bee that you just saw.</p>\n                    <img src=\"bees-with-color/bee-A1SF.svg\" width=\"200\">\n                    <p><span class=\"greenText\"><b>Successful harvest!</b></span><br>Your pay has increased by $0.02. Your bonus pay is now $0.42.</p>\n            ","response":0,"trial_type":"html-button-response","trial_index":28,"time_elapsed":586106,"internal_node_id":"0.0-4.0-1.8","subject_id":"5f1b2fe23bcef80c38d2a362","study_id":"6197b3f67c2b5cd3b6d9596a","session_id":"619be67cf9bee77a8fdd7593","condition":"contingent","relevant_dimensions":["wings","pattern"],"bee_group":{"antennae":"X","wings":"2","pattern":"S","legs":"X"},"bonus":0},{"rt":7108.70000000298,"stimulus":"bees-with-color/bee-B2DF.svg","response":0,"trial_type":"image-button-response","trial_index":29,"time_elapsed":593232,"internal_node_id":"0.0-4.0-0.9","subject_id":"5f1b2fe23bcef80c38d2a362","study_id":"6197b3f67c2b5cd3b6d9596a","session_id":"619be67cf9bee77a8fdd7593","condition":"contingent","relevant_dimensions":["wings","pattern"],"bee_group":{"antennae":"X","wings":"2","pattern":"S","legs":"X"},"action":"harvest","summary":"good-harvest","bonus":0},{"rt":1413.0999999940395,"stimulus":"\n                    <p><b>Action: <em>harvest</em></b></p>\n                    <p>This is the bee that you just saw.</p>\n                    <img src=\"bees-with-color/bee-B2DF.svg\" width=\"200\">\n                    <p><span class=\"greenText\"><b>Successful harvest!</b></span><br>Your pay has increased by $0.02. Your bonus pay is now $0.44.</p>\n            ","response":0,"trial_type":"html-button-response","trial_index":30,"time_elapsed":594657,"internal_node_id":"0.0-4.0-1.9","subject_id":"5f1b2fe23bcef80c38d2a362","study_id":"6197b3f67c2b5cd3b6d9596a","session_id":"619be67cf9bee77a8fdd7593","condition":"contingent","relevant_dimensions":["wings","pattern"],"bee_group":{"antennae":"X","wings":"2","pattern":"S","legs":"X"},"bonus":0},{"rt":10484.10000000149,"stimulus":"bees-with-color/bee-A2DF.svg","response":1,"trial_type":"image-button-response","trial_index":31,"time_elapsed":605150,"internal_node_id":"0.0-4.0-0.10","subject_id":"5f1b2fe23bcef80c38d2a362","study_id":"6197b3f67c2b5cd3b6d9596a","session_id":"619be67cf9bee77a8fdd7593","condition":"contingent","relevant_dimensions":["wings","pattern"],"bee_group":{"antennae":"X","wings":"2","pattern":"S","legs":"X"},"action":"avoid","summary":"bad-avoid","bonus":0},{"rt":1268.6000000014901,"stimulus":"\n                    <p><b>Action: <em>avoid</em></b></p>\n                    <p>This is the bee that you just saw.</p>\n                    <img src=\"bees-with-color/bee-A2DF.svg\" width=\"200\">\n                    <p><br>Your bonus pay is unchanged, and remains at $0.44.</p>\n            ","response":0,"trial_type":"html-button-response","trial_index":32,"time_elapsed":606427,"internal_node_id":"0.0-4.0-1.10","subject_id":"5f1b2fe23bcef80c38d2a362","study_id":"6197b3f67c2b5cd3b6d9596a","session_id":"619be67cf9bee77a8fdd7593","condition":"contingent","relevant_dimensions":["wings","pattern"],"bee_group":{"antennae":"X","wings":"2","pattern":"S","legs":"X"},"bonus":0},{"rt":5883.39999999851,"stimulus":"bees-with-color/bee-A2DM.svg","response":1,"trial_type":"image-button-response","trial_index":33,"time_elapsed":612319,"internal_node_id":"0.0-4.0-0.11","subject_id":"5f1b2fe23bcef80c38d2a362","study_id":"6197b3f67c2b5cd3b6d9596a","session_id":"619be67cf9bee77a8fdd7593","condition":"contingent","relevant_dimensions":["wings","pattern"],"bee_group":{"antennae":"X","wings":"2","pattern":"S","legs":"X"},"action":"avoid","summary":"bad-avoid","bonus":0},{"rt":1245.8000000044703,"stimulus":"\n                    <p><b>Action: <em>avoid</em></b></p>\n                    <p>This is the bee that you just saw.</p>\n                    <img src=\"bees-with-color/bee-A2DM.svg\" width=\"200\">\n                    <p><br>Your bonus pay is unchanged, and remains at $0.44.</p>\n            ","response":0,"trial_type":"html-button-response","trial_index":34,"time_elapsed":613572,"internal_node_id":"0.0-4.0-1.11","subject_id":"5f1b2fe23bcef80c38d2a362","study_id":"6197b3f67c2b5cd3b6d9596a","session_id":"619be67cf9bee77a8fdd7593","condition":"contingent","relevant_dimensions":["wings","pattern"],"bee_group":{"antennae":"X","wings":"2","pattern":"S","legs":"X"},"bonus":0},{"rt":2501.8000000044703,"stimulus":"bees-with-color/bee-B2SF.svg","response":0,"trial_type":"image-button-response","trial_index":35,"time_elapsed":616080,"internal_node_id":"0.0-4.0-0.12","subject_id":"5f1b2fe23bcef80c38d2a362","study_id":"6197b3f67c2b5cd3b6d9596a","session_id":"619be67cf9bee77a8fdd7593","condition":"contingent","relevant_dimensions":["wings","pattern"],"bee_group":{"antennae":"X","wings":"2","pattern":"S","legs":"X"},"action":"harvest","summary":"bad-harvest","bonus":0},{"rt":15402.70000000298,"stimulus":"\n                    <p><b>Action: <em>harvest</em></b></p>\n                    <p>This is the bee that you just saw.</p>\n                    <img src=\"bees-with-color/bee-B2SF.svg\" width=\"200\">\n                    <p><span class=\"redText\">Bad choice, the bee was angry.</span><br><b>You have been stung!</b><br>Your pay has been decreased by $0.10. Your bonus pay is now $0.34.</p>\n            ","response":0,"trial_type":"html-button-response","trial_index":36,"time_elapsed":631489,"internal_node_id":"0.0-4.0-1.12","subject_id":"5f1b2fe23bcef80c38d2a362","study_id":"6197b3f67c2b5cd3b6d9596a","session_id":"619be67cf9bee77a8fdd7593","condition":"contingent","relevant_dimensions":["wings","pattern"],"bee_group":{"antennae":"X","wings":"2","pattern":"S","legs":"X"},"bonus":0},{"rt":9604.89999999851,"stimulus":"bees-with-color/bee-B1DF.svg","response":1,"trial_type":"image-button-response","trial_index":37,"time_elapsed":641101,"internal_node_id":"0.0-4.0-0.13","subject_id":"5f1b2fe23bcef80c38d2a362","study_id":"6197b3f67c2b5cd3b6d9596a","session_id":"619be67cf9bee77a8fdd7593","condition":"contingent","relevant_dimensions":["wings","pattern"],"bee_group":{"antennae":"X","wings":"2","pattern":"S","legs":"X"},"action":"avoid","summary":"bad-avoid","bonus":0},{"rt":1250.7000000029802,"stimulus":"\n                    <p><b>Action: <em>avoid</em></b></p>\n                    <p>This is the bee that you just saw.</p>\n                    <img src=\"bees-with-color/bee-B1DF.svg\" width=\"200\">\n                    <p><br>Your bonus pay is unchanged, and remains at $0.34.</p>\n            ","response":0,"trial_type":"html-button-response","trial_index":38,"time_elapsed":642359,"internal_node_id":"0.0-4.0-1.13","subject_id":"5f1b2fe23bcef80c38d2a362","study_id":"6197b3f67c2b5cd3b6d9596a","session_id":"619be67cf9bee77a8fdd7593","condition":"contingent","relevant_dimensions":["wings","pattern"],"bee_group":{"antennae":"X","wings":"2","pattern":"S","legs":"X"},"bonus":0},{"rt":11767,"stimulus":"bees-with-color/bee-A2SF.svg","response":0,"trial_type":"image-button-response","trial_index":39,"time_elapsed":654135,"internal_node_id":"0.0-4.0-0.14","subject_id":"5f1b2fe23bcef80c38d2a362","study_id":"6197b3f67c2b5cd3b6d9596a","session_id":"619be67cf9bee77a8fdd7593","condition":"contingent","relevant_dimensions":["wings","pattern"],"bee_group":{"antennae":"X","wings":"2","pattern":"S","legs":"X"},"action":"harvest","summary":"bad-harvest","bonus":0},{"rt":4186.9000000059605,"stimulus":"\n                    <p><b>Action: <em>harvest</em></b></p>\n                    <p>This is the bee that you just saw.</p>\n                    <img src=\"bees-with-color/bee-A2SF.svg\" width=\"200\">\n                    <p><span class=\"redText\">Bad choice, the bee was angry.</span><br><b>You have been stung!</b><br>Your pay has been decreased by $0.10. Your bonus pay is now $0.24.</p>\n            ","response":0,"trial_type":"html-button-response","trial_index":40,"time_elapsed":658328,"internal_node_id":"0.0-4.0-1.14","subject_id":"5f1b2fe23bcef80c38d2a362","study_id":"6197b3f67c2b5cd3b6d9596a","session_id":"619be67cf9bee77a8fdd7593","condition":"contingent","relevant_dimensions":["wings","pattern"],"bee_group":{"antennae":"X","wings":"2","pattern":"S","legs":"X"},"bonus":0},{"rt":9336.39999999851,"stimulus":"bees-with-color/bee-B2DM.svg","response":1,"trial_type":"image-button-response","trial_index":41,"time_elapsed":667673,"internal_node_id":"0.0-4.0-0.15","subject_id":"5f1b2fe23bcef80c38d2a362","study_id":"6197b3f67c2b5cd3b6d9596a","session_id":"619be67cf9bee77a8fdd7593","condition":"contingent","relevant_dimensions":["wings","pattern"],"bee_group":{"antennae":"X","wings":"2","pattern":"S","legs":"X"},"action":"avoid","summary":"bad-avoid","bonus":0},{"rt":1398.1000000014901,"stimulus":"\n                    <p><b>Action: <em>avoid</em></b></p>\n                    <p>This is the bee that you just saw.</p>\n                    <img src=\"bees-with-color/bee-B2DM.svg\" width=\"200\">\n                    <p><br>Your bonus pay is unchanged, and remains at $0.24.</p>\n            ","response":0,"trial_type":"html-button-response","trial_index":42,"time_elapsed":669077,"internal_node_id":"0.0-4.0-1.15","subject_id":"5f1b2fe23bcef80c38d2a362","study_id":"6197b3f67c2b5cd3b6d9596a","session_id":"619be67cf9bee77a8fdd7593","condition":"contingent","relevant_dimensions":["wings","pattern"],"bee_group":{"antennae":"X","wings":"2","pattern":"S","legs":"X"},"bonus":0},{"rt":3384.2999999970198,"stimulus":"bees-with-color/bee-B2SF.svg","response":1,"trial_type":"image-button-response","trial_index":43,"time_elapsed":672473,"internal_node_id":"0.0-4.0-0.16","subject_id":"5f1b2fe23bcef80c38d2a362","study_id":"6197b3f67c2b5cd3b6d9596a","session_id":"619be67cf9bee77a8fdd7593","condition":"contingent","relevant_dimensions":["wings","pattern"],"bee_group":{"antennae":"X","wings":"2","pattern":"S","legs":"X"},"action":"avoid","summary":"good-avoid","bonus":0},{"rt":1330.1000000014901,"stimulus":"\n                    <p><b>Action: <em>avoid</em></b></p>\n                    <p>This is the bee that you just saw.</p>\n                    <img src=\"bees-with-color/bee-B2SF.svg\" width=\"200\">\n                    <p><br>Your bonus pay is unchanged, and remains at $0.24.</p>\n            ","response":0,"trial_type":"html-button-response","trial_index":44,"time_elapsed":673809,"internal_node_id":"0.0-4.0-1.16","subject_id":"5f1b2fe23bcef80c38d2a362","study_id":"6197b3f67c2b5cd3b6d9596a","session_id":"619be67cf9bee77a8fdd7593","condition":"contingent","relevant_dimensions":["wings","pattern"],"bee_group":{"antennae":"X","wings":"2","pattern":"S","legs":"X"},"bonus":0},{"rt":3570.7000000029802,"stimulus":"bees-with-color/bee-B2DM.svg","response":1,"trial_type":"image-button-response","trial_index":45,"time_elapsed":677387,"internal_node_id":"0.0-4.0-0.17","subject_id":"5f1b2fe23bcef80c38d2a362","study_id":"6197b3f67c2b5cd3b6d9596a","session_id":"619be67cf9bee77a8fdd7593","condition":"contingent","relevant_dimensions":["wings","pattern"],"bee_group":{"antennae":"X","wings":"2","pattern":"S","legs":"X"},"action":"avoid","summary":"bad-avoid","bonus":0},{"rt":1247.3999999985099,"stimulus":"\n                    <p><b>Action: <em>avoid</em></b></p>\n                    <p>This is the bee that you just saw.</p>\n                    <img src=\"bees-with-color/bee-B2DM.svg\" width=\"200\">\n                    <p><br>Your bonus pay is unchanged, and remains at $0.24.</p>\n            ","response":0,"trial_type":"html-button-response","trial_index":46,"time_elapsed":678639,"internal_node_id":"0.0-4.0-1.17","subject_id":"5f1b2fe23bcef80c38d2a362","study_id":"6197b3f67c2b5cd3b6d9596a","session_id":"619be67cf9bee77a8fdd7593","condition":"contingent","relevant_dimensions":["wings","pattern"],"bee_group":{"antennae":"X","wings":"2","pattern":"S","legs":"X"},"bonus":0},{"rt":4469.80000000447,"stimulus":"bees-with-color/bee-B2DF.svg","response":1,"trial_type":"image-button-response","trial_index":47,"time_elapsed":683117,"internal_node_id":"0.0-4.0-0.18","subject_id":"5f1b2fe23bcef80c38d2a362","study_id":"6197b3f67c2b5cd3b6d9596a","session_id":"619be67cf9bee77a8fdd7593","condition":"contingent","relevant_dimensions":["wings","pattern"],"bee_group":{"antennae":"X","wings":"2","pattern":"S","legs":"X"},"action":"avoid","summary":"bad-avoid","bonus":0},{"rt":1017.8000000044703,"stimulus":"\n                    <p><b>Action: <em>avoid</em></b></p>\n                    <p>This is the bee that you just saw.</p>\n                    <img src=\"bees-with-color/bee-B2DF.svg\" width=\"200\">\n                    <p><br>Your bonus pay is unchanged, and remains at $0.24.</p>\n            ","response":0,"trial_type":"html-button-response","trial_index":48,"time_elapsed":684143,"internal_node_id":"0.0-4.0-1.18","subject_id":"5f1b2fe23bcef80c38d2a362","study_id":"6197b3f67c2b5cd3b6d9596a","session_id":"619be67cf9bee77a8fdd7593","condition":"contingent","relevant_dimensions":["wings","pattern"],"bee_group":{"antennae":"X","wings":"2","pattern":"S","legs":"X"},"bonus":0},{"rt":4159.5,"stimulus":"bees-with-color/bee-A1DF.svg","response":0,"trial_type":"image-button-response","trial_index":49,"time_elapsed":688311,"internal_node_id":"0.0-4.0-0.19","subject_id":"5f1b2fe23bcef80c38d2a362","study_id":"6197b3f67c2b5cd3b6d9596a","session_id":"619be67cf9bee77a8fdd7593","condition":"contingent","relevant_dimensions":["wings","pattern"],"bee_group":{"antennae":"X","wings":"2","pattern":"S","legs":"X"},"action":"harvest","summary":"good-harvest","bonus":0},{"rt":4539.20000000298,"stimulus":"\n                    <p><b>Action: <em>harvest</em></b></p>\n                    <p>This is the bee that you just saw.</p>\n                    <img src=\"bees-with-color/bee-A1DF.svg\" width=\"200\">\n                    <p><span class=\"greenText\"><b>Successful harvest!</b></span><br>Your pay has increased by $0.02. Your bonus pay is now $0.26.</p>\n            ","response":0,"trial_type":"html-button-response","trial_index":50,"time_elapsed":692859,"internal_node_id":"0.0-4.0-1.19","subject_id":"5f1b2fe23bcef80c38d2a362","study_id":"6197b3f67c2b5cd3b6d9596a","session_id":"619be67cf9bee77a8fdd7593","condition":"contingent","relevant_dimensions":["wings","pattern"],"bee_group":{"antennae":"X","wings":"2","pattern":"S","legs":"X"},"bonus":0},{"rt":9658.69999999553,"stimulus":"bees-with-color/bee-A2SM.svg","response":0,"trial_type":"image-button-response","trial_index":51,"time_elapsed":702526,"internal_node_id":"0.0-4.0-0.20","subject_id":"5f1b2fe23bcef80c38d2a362","study_id":"6197b3f67c2b5cd3b6d9596a","session_id":"619be67cf9bee77a8fdd7593","condition":"contingent","relevant_dimensions":["wings","pattern"],"bee_group":{"antennae":"X","wings":"2","pattern":"S","legs":"X"},"action":"harvest","summary":"bad-harvest","bonus":0},{"rt":3646.89999999851,"stimulus":"\n                    <p><b>Action: <em>harvest</em></b></p>\n                    <p>This is the bee that you just saw.</p>\n                    <img src=\"bees-with-color/bee-A2SM.svg\" width=\"200\">\n                    <p><span class=\"redText\">Bad choice, the bee was angry.</span><br><b>You have been stung!</b><br>Your pay has been decreased by $0.10. Your bonus pay is now $0.16.</p>\n            ","response":0,"trial_type":"html-button-response","trial_index":52,"time_elapsed":706181,"internal_node_id":"0.0-4.0-1.20","subject_id":"5f1b2fe23bcef80c38d2a362","study_id":"6197b3f67c2b5cd3b6d9596a","session_id":"619be67cf9bee77a8fdd7593","condition":"contingent","relevant_dimensions":["wings","pattern"],"bee_group":{"antennae":"X","wings":"2","pattern":"S","legs":"X"},"bonus":0},{"rt":11145.70000000298,"stimulus":"bees-with-color/bee-A2DF.svg","response":0,"trial_type":"image-button-response","trial_index":53,"time_elapsed":717331,"internal_node_id":"0.0-4.0-0.21","subject_id":"5f1b2fe23bcef80c38d2a362","study_id":"6197b3f67c2b5cd3b6d9596a","session_id":"619be67cf9bee77a8fdd7593","condition":"contingent","relevant_dimensions":["wings","pattern"],"bee_group":{"antennae":"X","wings":"2","pattern":"S","legs":"X"},"action":"harvest","summary":"good-harvest","bonus":0},{"rt":1202.2999999970198,"stimulus":"\n                    <p><b>Action: <em>harvest</em></b></p>\n                    <p>This is the bee that you just saw.</p>\n                    <img src=\"bees-with-color/bee-A2DF.svg\" width=\"200\">\n                    <p><span class=\"greenText\"><b>Successful harvest!</b></span><br>Your pay has increased by $0.02. Your bonus pay is now $0.18.</p>\n            ","response":0,"trial_type":"html-button-response","trial_index":54,"time_elapsed":718541,"internal_node_id":"0.0-4.0-1.21","subject_id":"5f1b2fe23bcef80c38d2a362","study_id":"6197b3f67c2b5cd3b6d9596a","session_id":"619be67cf9bee77a8fdd7593","condition":"contingent","relevant_dimensions":["wings","pattern"],"bee_group":{"antennae":"X","wings":"2","pattern":"S","legs":"X"},"bonus":0},{"rt":4020.3000000044703,"stimulus":"bees-with-color/bee-B1SM.svg","response":0,"trial_type":"image-button-response","trial_index":55,"time_elapsed":722567,"internal_node_id":"0.0-4.0-0.22","subject_id":"5f1b2fe23bcef80c38d2a362","study_id":"6197b3f67c2b5cd3b6d9596a","session_id":"619be67cf9bee77a8fdd7593","condition":"contingent","relevant_dimensions":["wings","pattern"],"bee_group":{"antennae":"X","wings":"2","pattern":"S","legs":"X"},"action":"harvest","summary":"good-harvest","bonus":0},{"rt":5194.79999999702,"stimulus":"\n                    <p><b>Action: <em>harvest</em></b></p>\n                    <p>This is the bee that you just saw.</p>\n                    <img src=\"bees-with-color/bee-B1SM.svg\" width=\"200\">\n                    <p><span class=\"greenText\"><b>Successful harvest!</b></span><br>Your pay has increased by $0.02. Your bonus pay is now $0.20.</p>\n            ","response":0,"trial_type":"html-button-response","trial_index":56,"time_elapsed":727794,"internal_node_id":"0.0-4.0-1.22","subject_id":"5f1b2fe23bcef80c38d2a362","study_id":"6197b3f67c2b5cd3b6d9596a","session_id":"619be67cf9bee77a8fdd7593","condition":"contingent","relevant_dimensions":["wings","pattern"],"bee_group":{"antennae":"X","wings":"2","pattern":"S","legs":"X"},"bonus":0},{"rt":19134.69999999553,"stimulus":"bees-with-color/bee-A1DM.svg","response":0,"trial_type":"image-button-response","trial_index":57,"time_elapsed":746936,"internal_node_id":"0.0-4.0-0.23","subject_id":"5f1b2fe23bcef80c38d2a362","study_id":"6197b3f67c2b5cd3b6d9596a","session_id":"619be67cf9bee77a8fdd7593","condition":"contingent","relevant_dimensions":["wings","pattern"],"bee_group":{"antennae":"X","wings":"2","pattern":"S","legs":"X"},"action":"harvest","summary":"good-harvest","bonus":0},{"rt":4348.10000000149,"stimulus":"\n                    <p><b>Action: <em>harvest</em></b></p>\n                    <p>This is the bee that you just saw.</p>\n                    <img src=\"bees-with-color/bee-A1DM.svg\" width=\"200\">\n                    <p><span class=\"greenText\"><b>Successful harvest!</b></span><br>Your pay has increased by $0.02. Your bonus pay is now $0.22.</p>\n            ","response":0,"trial_type":"html-button-response","trial_index":58,"time_elapsed":751289,"internal_node_id":"0.0-4.0-1.23","subject_id":"5f1b2fe23bcef80c38d2a362","study_id":"6197b3f67c2b5cd3b6d9596a","session_id":"619be67cf9bee77a8fdd7593","condition":"contingent","relevant_dimensions":["wings","pattern"],"bee_group":{"antennae":"X","wings":"2","pattern":"S","legs":"X"},"bonus":0},{"rt":6386.30000000447,"stimulus":"bees-with-color/bee-B1SF.svg","response":1,"trial_type":"image-button-response","trial_index":59,"time_elapsed":757679,"internal_node_id":"0.0-4.0-0.24","subject_id":"5f1b2fe23bcef80c38d2a362","study_id":"6197b3f67c2b5cd3b6d9596a","session_id":"619be67cf9bee77a8fdd7593","condition":"contingent","relevant_dimensions":["wings","pattern"],"bee_group":{"antennae":"X","wings":"2","pattern":"S","legs":"X"},"action":"avoid","summary":"bad-avoid","bonus":0},{"rt":1977.6000000014901,"stimulus":"\n                    <p><b>Action: <em>avoid</em></b></p>\n                    <p>This is the bee that you just saw.</p>\n                    <img src=\"bees-with-color/bee-B1SF.svg\" width=\"200\">\n                    <p><br>Your bonus pay is unchanged, and remains at $0.22.</p>\n            ","response":0,"trial_type":"html-button-response","trial_index":60,"time_elapsed":759662,"internal_node_id":"0.0-4.0-1.24","subject_id":"5f1b2fe23bcef80c38d2a362","study_id":"6197b3f67c2b5cd3b6d9596a","session_id":"619be67cf9bee77a8fdd7593","condition":"contingent","relevant_dimensions":["wings","pattern"],"bee_group":{"antennae":"X","wings":"2","pattern":"S","legs":"X"},"bonus":0},{"rt":5583.30000000447,"stimulus":"bees-with-color/bee-B1DM.svg","response":0,"trial_type":"image-button-response","trial_index":61,"time_elapsed":765257,"internal_node_id":"0.0-4.0-0.25","subject_id":"5f1b2fe23bcef80c38d2a362","study_id":"6197b3f67c2b5cd3b6d9596a","session_id":"619be67cf9bee77a8fdd7593","condition":"contingent","relevant_dimensions":["wings","pattern"],"bee_group":{"antennae":"X","wings":"2","pattern":"S","legs":"X"},"action":"harvest","summary":"good-harvest","bonus":0},{"rt":4781.39999999851,"stimulus":"\n                    <p><b>Action: <em>harvest</em></b></p>\n                    <p>This is the bee that you just saw.</p>\n                    <img src=\"bees-with-color/bee-B1DM.svg\" width=\"200\">\n                    <p><span class=\"greenText\"><b>Successful harvest!</b></span><br>Your pay has increased by $0.02. Your bonus pay is now $0.24.</p>\n            ","response":0,"trial_type":"html-button-response","trial_index":62,"time_elapsed":770046,"internal_node_id":"0.0-4.0-1.25","subject_id":"5f1b2fe23bcef80c38d2a362","study_id":"6197b3f67c2b5cd3b6d9596a","session_id":"619be67cf9bee77a8fdd7593","condition":"contingent","relevant_dimensions":["wings","pattern"],"bee_group":{"antennae":"X","wings":"2","pattern":"S","legs":"X"},"bonus":0},{"rt":8816,"stimulus":"bees-with-color/bee-A1SM.svg","response":1,"trial_type":"image-button-response","trial_index":63,"time_elapsed":778870,"internal_node_id":"0.0-4.0-0.26","subject_id":"5f1b2fe23bcef80c38d2a362","study_id":"6197b3f67c2b5cd3b6d9596a","session_id":"619be67cf9bee77a8fdd7593","condition":"contingent","relevant_dimensions":["wings","pattern"],"bee_group":{"antennae":"X","wings":"2","pattern":"S","legs":"X"},"action":"avoid","summary":"bad-avoid","bonus":0},{"rt":1688.6000000014901,"stimulus":"\n                    <p><b>Action: <em>avoid</em></b></p>\n                    <p>This is the bee that you just saw.</p>\n                    <img src=\"bees-with-color/bee-A1SM.svg\" width=\"200\">\n                    <p><br>Your bonus pay is unchanged, and remains at $0.24.</p>\n            ","response":0,"trial_type":"html-button-response","trial_index":64,"time_elapsed":780567,"internal_node_id":"0.0-4.0-1.26","subject_id":"5f1b2fe23bcef80c38d2a362","study_id":"6197b3f67c2b5cd3b6d9596a","session_id":"619be67cf9bee77a8fdd7593","condition":"contingent","relevant_dimensions":["wings","pattern"],"bee_group":{"antennae":"X","wings":"2","pattern":"S","legs":"X"},"bonus":0},{"rt":4836,"stimulus":"bees-with-color/bee-A2DM.svg","response":0,"trial_type":"image-button-response","trial_index":65,"time_elapsed":785411,"internal_node_id":"0.0-4.0-0.27","subject_id":"5f1b2fe23bcef80c38d2a362","study_id":"6197b3f67c2b5cd3b6d9596a","session_id":"619be67cf9bee77a8fdd7593","condition":"contingent","relevant_dimensions":["wings","pattern"],"bee_group":{"antennae":"X","wings":"2","pattern":"S","legs":"X"},"action":"harvest","summary":"good-harvest","bonus":0},{"rt":1189.5,"stimulus":"\n                    <p><b>Action: <em>harvest</em></b></p>\n                    <p>This is the bee that you just saw.</p>\n                    <img src=\"bees-with-color/bee-A2DM.svg\" width=\"200\">\n                    <p><span class=\"greenText\"><b>Successful harvest!</b></span><br>Your pay has increased by $0.02. Your bonus pay is now $0.26.</p>\n            ","response":0,"trial_type":"html-button-response","trial_index":66,"time_elapsed":786605,"internal_node_id":"0.0-4.0-1.27","subject_id":"5f1b2fe23bcef80c38d2a362","study_id":"6197b3f67c2b5cd3b6d9596a","session_id":"619be67cf9bee77a8fdd7593","condition":"contingent","relevant_dimensions":["wings","pattern"],"bee_group":{"antennae":"X","wings":"2","pattern":"S","legs":"X"},"bonus":0},{"rt":10054.79999999702,"stimulus":"bees-with-color/bee-A2SF.svg","response":1,"trial_type":"image-button-response","trial_index":67,"time_elapsed":796666,"internal_node_id":"0.0-4.0-0.28","subject_id":"5f1b2fe23bcef80c38d2a362","study_id":"6197b3f67c2b5cd3b6d9596a","session_id":"619be67cf9bee77a8fdd7593","condition":"contingent","relevant_dimensions":["wings","pattern"],"bee_group":{"antennae":"X","wings":"2","pattern":"S","legs":"X"},"action":"avoid","summary":"good-avoid","bonus":0},{"rt":1438.0999999940395,"stimulus":"\n                    <p><b>Action: <em>avoid</em></b></p>\n                    <p>This is the bee that you just saw.</p>\n                    <img src=\"bees-with-color/bee-A2SF.svg\" width=\"200\">\n                    <p><br>Your bonus pay is unchanged, and remains at $0.26.</p>\n            ","response":0,"trial_type":"html-button-response","trial_index":68,"time_elapsed":798111,"internal_node_id":"0.0-4.0-1.28","subject_id":"5f1b2fe23bcef80c38d2a362","study_id":"6197b3f67c2b5cd3b6d9596a","session_id":"619be67cf9bee77a8fdd7593","condition":"contingent","relevant_dimensions":["wings","pattern"],"bee_group":{"antennae":"X","wings":"2","pattern":"S","legs":"X"},"bonus":0},{"rt":4467.39999999851,"stimulus":"bees-with-color/bee-B2SM.svg","response":0,"trial_type":"image-button-response","trial_index":69,"time_elapsed":802587,"internal_node_id":"0.0-4.0-0.29","subject_id":"5f1b2fe23bcef80c38d2a362","study_id":"6197b3f67c2b5cd3b6d9596a","session_id":"619be67cf9bee77a8fdd7593","condition":"contingent","relevant_dimensions":["wings","pattern"],"bee_group":{"antennae":"X","wings":"2","pattern":"S","legs":"X"},"action":"harvest","summary":"bad-harvest","bonus":0},{"rt":1364.9000000059605,"stimulus":"\n                    <p><b>Action: <em>harvest</em></b></p>\n                    <p>This is the bee that you just saw.</p>\n                    <img src=\"bees-with-color/bee-B2SM.svg\" width=\"200\">\n                    <p><span class=\"redText\">Bad choice, the bee was angry.</span><br><b>You have been stung!</b><br>Your pay has been decreased by $0.10. Your bonus pay is now $0.16.</p>\n            ","response":0,"trial_type":"html-button-response","trial_index":70,"time_elapsed":803959,"internal_node_id":"0.0-4.0-1.29","subject_id":"5f1b2fe23bcef80c38d2a362","study_id":"6197b3f67c2b5cd3b6d9596a","session_id":"619be67cf9bee77a8fdd7593","condition":"contingent","relevant_dimensions":["wings","pattern"],"bee_group":{"antennae":"X","wings":"2","pattern":"S","legs":"X"},"bonus":0},{"rt":5291.4000000059605,"stimulus":"bees-with-color/bee-B1DF.svg","response":1,"trial_type":"image-button-response","trial_index":71,"time_elapsed":809261,"internal_node_id":"0.0-4.0-0.30","subject_id":"5f1b2fe23bcef80c38d2a362","study_id":"6197b3f67c2b5cd3b6d9596a","session_id":"619be67cf9bee77a8fdd7593","condition":"contingent","relevant_dimensions":["wings","pattern"],"bee_group":{"antennae":"X","wings":"2","pattern":"S","legs":"X"},"action":"avoid","summary":"bad-avoid","bonus":0},{"rt":1178.3000000044703,"stimulus":"\n                    <p><b>Action: <em>avoid</em></b></p>\n                    <p>This is the bee that you just saw.</p>\n                    <img src=\"bees-with-color/bee-B1DF.svg\" width=\"200\">\n                    <p><br>Your bonus pay is unchanged, and remains at $0.16.</p>\n            ","response":0,"trial_type":"html-button-response","trial_index":72,"time_elapsed":810447,"internal_node_id":"0.0-4.0-1.30","subject_id":"5f1b2fe23bcef80c38d2a362","study_id":"6197b3f67c2b5cd3b6d9596a","session_id":"619be67cf9bee77a8fdd7593","condition":"contingent","relevant_dimensions":["wings","pattern"],"bee_group":{"antennae":"X","wings":"2","pattern":"S","legs":"X"},"bonus":0},{"rt":29016.20000000298,"stimulus":"bees-with-color/bee-A1SF.svg","response":0,"trial_type":"image-button-response","trial_index":73,"time_elapsed":839473,"internal_node_id":"0.0-4.0-0.31","subject_id":"5f1b2fe23bcef80c38d2a362","study_id":"6197b3f67c2b5cd3b6d9596a","session_id":"619be67cf9bee77a8fdd7593","condition":"contingent","relevant_dimensions":["wings","pattern"],"bee_group":{"antennae":"X","wings":"2","pattern":"S","legs":"X"},"action":"harvest","summary":"good-harvest","bonus":0},{"rt":3790,"stimulus":"\n                    <p><b>Action: <em>harvest</em></b></p>\n                    <p>This is the bee that you just saw.</p>\n                    <img src=\"bees-with-color/bee-A1SF.svg\" width=\"200\">\n                    <p><span class=\"greenText\"><b>Successful harvest!</b></span><br>Your pay has increased by $0.02. Your bonus pay is now $0.18.</p>\n            ","response":0,"trial_type":"html-button-response","trial_index":74,"time_elapsed":843271,"internal_node_id":"0.0-4.0-1.31","subject_id":"5f1b2fe23bcef80c38d2a362","study_id":"6197b3f67c2b5cd3b6d9596a","session_id":"619be67cf9bee77a8fdd7593","condition":"contingent","relevant_dimensions":["wings","pattern"],"bee_group":{"antennae":"X","wings":"2","pattern":"S","legs":"X"},"bonus":0},{"rt":19702.69999999553,"stimulus":"bees-with-color/bee-A2DF.svg","response":0,"trial_type":"image-button-response","trial_index":75,"time_elapsed":862984,"internal_node_id":"0.0-4.0-0.32","subject_id":"5f1b2fe23bcef80c38d2a362","study_id":"6197b3f67c2b5cd3b6d9596a","session_id":"619be67cf9bee77a8fdd7593","condition":"contingent","relevant_dimensions":["wings","pattern"],"bee_group":{"antennae":"X","wings":"2","pattern":"S","legs":"X"},"action":"harvest","summary":"good-harvest","bonus":0},{"rt":1276,"stimulus":"\n                    <p><b>Action: <em>harvest</em></b></p>\n                    <p>This is the bee that you just saw.</p>\n                    <img src=\"bees-with-color/bee-A2DF.svg\" width=\"200\">\n                    <p><span class=\"greenText\"><b>Successful harvest!</b></span><br>Your pay has increased by $0.02. Your bonus pay is now $0.20.</p>\n            ","response":0,"trial_type":"html-button-response","trial_index":76,"time_elapsed":864263,"internal_node_id":"0.0-4.0-1.32","subject_id":"5f1b2fe23bcef80c38d2a362","study_id":"6197b3f67c2b5cd3b6d9596a","session_id":"619be67cf9bee77a8fdd7593","condition":"contingent","relevant_dimensions":["wings","pattern"],"bee_group":{"antennae":"X","wings":"2","pattern":"S","legs":"X"},"bonus":0},{"rt":12561.5,"stimulus":"bees-with-color/bee-B2SM.svg","response":1,"trial_type":"image-button-response","trial_index":77,"time_elapsed":876833,"internal_node_id":"0.0-4.0-0.33","subject_id":"5f1b2fe23bcef80c38d2a362","study_id":"6197b3f67c2b5cd3b6d9596a","session_id":"619be67cf9bee77a8fdd7593","condition":"contingent","relevant_dimensions":["wings","pattern"],"bee_group":{"antennae":"X","wings":"2","pattern":"S","legs":"X"},"action":"avoid","summary":"good-avoid","bonus":0},{"rt":1913.1999999955297,"stimulus":"\n                    <p><b>Action: <em>avoid</em></b></p>\n                    <p>This is the bee that you just saw.</p>\n                    <img src=\"bees-with-color/bee-B2SM.svg\" width=\"200\">\n                    <p><br>Your bonus pay is unchanged, and remains at $0.20.</p>\n            ","response":0,"trial_type":"html-button-response","trial_index":78,"time_elapsed":878755,"internal_node_id":"0.0-4.0-1.33","subject_id":"5f1b2fe23bcef80c38d2a362","study_id":"6197b3f67c2b5cd3b6d9596a","session_id":"619be67cf9bee77a8fdd7593","condition":"contingent","relevant_dimensions":["wings","pattern"],"bee_group":{"antennae":"X","wings":"2","pattern":"S","legs":"X"},"bonus":0},{"rt":14623.39999999851,"stimulus":"bees-with-color/bee-A1DF.svg","response":0,"trial_type":"image-button-response","trial_index":79,"time_elapsed":893389,"internal_node_id":"0.0-4.0-0.34","subject_id":"5f1b2fe23bcef80c38d2a362","study_id":"6197b3f67c2b5cd3b6d9596a","session_id":"619be67cf9bee77a8fdd7593","condition":"contingent","relevant_dimensions":["wings","pattern"],"bee_group":{"antennae":"X","wings":"2","pattern":"S","legs":"X"},"action":"harvest","summary":"good-harvest","bonus":0},{"rt":1149.8000000044703,"stimulus":"\n                    <p><b>Action: <em>harvest</em></b></p>\n                    <p>This is the bee that you just saw.</p>\n                    <img src=\"bees-with-color/bee-A1DF.svg\" width=\"200\">\n                    <p><span class=\"greenText\"><b>Successful harvest!</b></span><br>Your pay has increased by $0.02. Your bonus pay is now $0.22.</p>\n            ","response":0,"trial_type":"html-button-response","trial_index":80,"time_elapsed":894545,"internal_node_id":"0.0-4.0-1.34","subject_id":"5f1b2fe23bcef80c38d2a362","study_id":"6197b3f67c2b5cd3b6d9596a","session_id":"619be67cf9bee77a8fdd7593","condition":"contingent","relevant_dimensions":["wings","pattern"],"bee_group":{"antennae":"X","wings":"2","pattern":"S","legs":"X"},"bonus":0},{"rt":21104.79999999702,"stimulus":"bees-with-color/bee-A2DM.svg","response":1,"trial_type":"image-button-response","trial_index":81,"time_elapsed":915660,"internal_node_id":"0.0-4.0-0.35","subject_id":"5f1b2fe23bcef80c38d2a362","study_id":"6197b3f67c2b5cd3b6d9596a","session_id":"619be67cf9bee77a8fdd7593","condition":"contingent","relevant_dimensions":["wings","pattern"],"bee_group":{"antennae":"X","wings":"2","pattern":"S","legs":"X"},"action":"avoid","summary":"bad-avoid","bonus":0},{"rt":1250.6999999955297,"stimulus":"\n                    <p><b>Action: <em>avoid</em></b></p>\n                    <p>This is the bee that you just saw.</p>\n                    <img src=\"bees-with-color/bee-A2DM.svg\" width=\"200\">\n                    <p><br>Your bonus pay is unchanged, and remains at $0.22.</p>\n            ","response":0,"trial_type":"html-button-response","trial_index":82,"time_elapsed":916918,"internal_node_id":"0.0-4.0-1.35","subject_id":"5f1b2fe23bcef80c38d2a362","study_id":"6197b3f67c2b5cd3b6d9596a","session_id":"619be67cf9bee77a8fdd7593","condition":"contingent","relevant_dimensions":["wings","pattern"],"bee_group":{"antennae":"X","wings":"2","pattern":"S","legs":"X"},"bonus":0},{"rt":4554.5,"stimulus":"bees-with-color/bee-B2SF.svg","response":0,"trial_type":"image-button-response","trial_index":83,"time_elapsed":921485,"internal_node_id":"0.0-4.0-0.36","subject_id":"5f1b2fe23bcef80c38d2a362","study_id":"6197b3f67c2b5cd3b6d9596a","session_id":"619be67cf9bee77a8fdd7593","condition":"contingent","relevant_dimensions":["wings","pattern"],"bee_group":{"antennae":"X","wings":"2","pattern":"S","legs":"X"},"action":"harvest","summary":"bad-harvest","bonus":0},{"rt":6504.69999999553,"stimulus":"\n                    <p><b>Action: <em>harvest</em></b></p>\n                    <p>This is the bee that you just saw.</p>\n                    <img src=\"bees-with-color/bee-B2SF.svg\" width=\"200\">\n                    <p><span class=\"redText\">Bad choice, the bee was angry.</span><br><b>You have been stung!</b><br>Your pay has been decreased by $0.10. Your bonus pay is now $0.12.</p>\n            ","response":0,"trial_type":"html-button-response","trial_index":84,"time_elapsed":928002,"internal_node_id":"0.0-4.0-1.36","subject_id":"5f1b2fe23bcef80c38d2a362","study_id":"6197b3f67c2b5cd3b6d9596a","session_id":"619be67cf9bee77a8fdd7593","condition":"contingent","relevant_dimensions":["wings","pattern"],"bee_group":{"antennae":"X","wings":"2","pattern":"S","legs":"X"},"bonus":0},{"rt":7548.29999999702,"stimulus":"bees-with-color/bee-B1SM.svg","response":1,"trial_type":"image-button-response","trial_index":85,"time_elapsed":935556,"internal_node_id":"0.0-4.0-0.37","subject_id":"5f1b2fe23bcef80c38d2a362","study_id":"6197b3f67c2b5cd3b6d9596a","session_id":"619be67cf9bee77a8fdd7593","condition":"contingent","relevant_dimensions":["wings","pattern"],"bee_group":{"antennae":"X","wings":"2","pattern":"S","legs":"X"},"action":"avoid","summary":"bad-avoid","bonus":0},{"rt":1846.5999999940395,"stimulus":"\n                    <p><b>Action: <em>avoid</em></b></p>\n                    <p>This is the bee that you just saw.</p>\n                    <img src=\"bees-with-color/bee-B1SM.svg\" width=\"200\">\n                    <p><br>Your bonus pay is unchanged, and remains at $0.12.</p>\n            ","response":0,"trial_type":"html-button-response","trial_index":86,"time_elapsed":937410,"internal_node_id":"0.0-4.0-1.37","subject_id":"5f1b2fe23bcef80c38d2a362","study_id":"6197b3f67c2b5cd3b6d9596a","session_id":"619be67cf9bee77a8fdd7593","condition":"contingent","relevant_dimensions":["wings","pattern"],"bee_group":{"antennae":"X","wings":"2","pattern":"S","legs":"X"},"bonus":0},{"rt":4381.5,"stimulus":"bees-with-color/bee-A1DM.svg","response":1,"trial_type":"image-button-response","trial_index":87,"time_elapsed":941801,"internal_node_id":"0.0-4.0-0.38","subject_id":"5f1b2fe23bcef80c38d2a362","study_id":"6197b3f67c2b5cd3b6d9596a","session_id":"619be67cf9bee77a8fdd7593","condition":"contingent","relevant_dimensions":["wings","pattern"],"bee_group":{"antennae":"X","wings":"2","pattern":"S","legs":"X"},"action":"avoid","summary":"bad-avoid","bonus":0},{"rt":1156,"stimulus":"\n                    <p><b>Action: <em>avoid</em></b></p>\n                    <p>This is the bee that you just saw.</p>\n                    <img src=\"bees-with-color/bee-A1DM.svg\" width=\"200\">\n                    <p><br>Your bonus pay is unchanged, and remains at $0.12.</p>\n            ","response":0,"trial_type":"html-button-response","trial_index":88,"time_elapsed":942963,"internal_node_id":"0.0-4.0-1.38","subject_id":"5f1b2fe23bcef80c38d2a362","study_id":"6197b3f67c2b5cd3b6d9596a","session_id":"619be67cf9bee77a8fdd7593","condition":"contingent","relevant_dimensions":["wings","pattern"],"bee_group":{"antennae":"X","wings":"2","pattern":"S","legs":"X"},"bonus":0},{"rt":19836.10000000149,"stimulus":"bees-with-color/bee-B2DF.svg","response":1,"trial_type":"image-button-response","trial_index":89,"time_elapsed":962806,"internal_node_id":"0.0-4.0-0.39","subject_id":"5f1b2fe23bcef80c38d2a362","study_id":"6197b3f67c2b5cd3b6d9596a","session_id":"619be67cf9bee77a8fdd7593","condition":"contingent","relevant_dimensions":["wings","pattern"],"bee_group":{"antennae":"X","wings":"2","pattern":"S","legs":"X"},"action":"avoid","summary":"bad-avoid","bonus":0},{"rt":1848.8999999985099,"stimulus":"\n                    <p><b>Action: <em>avoid</em></b></p>\n                    <p>This is the bee that you just saw.</p>\n                    <img src=\"bees-with-color/bee-B2DF.svg\" width=\"200\">\n                    <p><br>Your bonus pay is unchanged, and remains at $0.12.</p>\n            ","response":0,"trial_type":"html-button-response","trial_index":90,"time_elapsed":964662,"internal_node_id":"0.0-4.0-1.39","subject_id":"5f1b2fe23bcef80c38d2a362","study_id":"6197b3f67c2b5cd3b6d9596a","session_id":"619be67cf9bee77a8fdd7593","condition":"contingent","relevant_dimensions":["wings","pattern"],"bee_group":{"antennae":"X","wings":"2","pattern":"S","legs":"X"},"bonus":0},{"rt":24274.89999999851,"stimulus":"bees-with-color/bee-A2SM.svg","response":1,"trial_type":"image-button-response","trial_index":91,"time_elapsed":988942,"internal_node_id":"0.0-4.0-0.40","subject_id":"5f1b2fe23bcef80c38d2a362","study_id":"6197b3f67c2b5cd3b6d9596a","session_id":"619be67cf9bee77a8fdd7593","condition":"contingent","relevant_dimensions":["wings","pattern"],"bee_group":{"antennae":"X","wings":"2","pattern":"S","legs":"X"},"action":"avoid","summary":"good-avoid","bonus":0},{"rt":1242,"stimulus":"\n                    <p><b>Action: <em>avoid</em></b></p>\n                    <p>This is the bee that you just saw.</p>\n                    <img src=\"bees-with-color/bee-A2SM.svg\" width=\"200\">\n                    <p><br>Your bonus pay is unchanged, and remains at $0.12.</p>\n            ","response":0,"trial_type":"html-button-response","trial_index":92,"time_elapsed":990190,"internal_node_id":"0.0-4.0-1.40","subject_id":"5f1b2fe23bcef80c38d2a362","study_id":"6197b3f67c2b5cd3b6d9596a","session_id":"619be67cf9bee77a8fdd7593","condition":"contingent","relevant_dimensions":["wings","pattern"],"bee_group":{"antennae":"X","wings":"2","pattern":"S","legs":"X"},"bonus":0},{"rt":8435.5,"stimulus":"bees-with-color/bee-A1SF.svg","response":0,"trial_type":"image-button-response","trial_index":93,"time_elapsed":998635,"internal_node_id":"0.0-4.0-0.41","subject_id":"5f1b2fe23bcef80c38d2a362","study_id":"6197b3f67c2b5cd3b6d9596a","session_id":"619be67cf9bee77a8fdd7593","condition":"contingent","relevant_dimensions":["wings","pattern"],"bee_group":{"antennae":"X","wings":"2","pattern":"S","legs":"X"},"action":"harvest","summary":"good-harvest","bonus":0},{"rt":1208.7000000029802,"stimulus":"\n                    <p><b>Action: <em>harvest</em></b></p>\n                    <p>This is the bee that you just saw.</p>\n                    <img src=\"bees-with-color/bee-A1SF.svg\" width=\"200\">\n                    <p><span class=\"greenText\"><b>Successful harvest!</b></span><br>Your pay has increased by $0.02. Your bonus pay is now $0.14.</p>\n            ","response":0,"trial_type":"html-button-response","trial_index":94,"time_elapsed":999850,"internal_node_id":"0.0-4.0-1.41","subject_id":"5f1b2fe23bcef80c38d2a362","study_id":"6197b3f67c2b5cd3b6d9596a","session_id":"619be67cf9bee77a8fdd7593","condition":"contingent","relevant_dimensions":["wings","pattern"],"bee_group":{"antennae":"X","wings":"2","pattern":"S","legs":"X"},"bonus":0},{"rt":15176.79999999702,"stimulus":"bees-with-color/bee-A1SM.svg","response":0,"trial_type":"image-button-response","trial_index":95,"time_elapsed":1015038,"internal_node_id":"0.0-4.0-0.42","subject_id":"5f1b2fe23bcef80c38d2a362","study_id":"6197b3f67c2b5cd3b6d9596a","session_id":"619be67cf9bee77a8fdd7593","condition":"contingent","relevant_dimensions":["wings","pattern"],"bee_group":{"antennae":"X","wings":"2","pattern":"S","legs":"X"},"action":"harvest","summary":"good-harvest","bonus":0},{"rt":1304.7999999970198,"stimulus":"\n                    <p><b>Action: <em>harvest</em></b></p>\n                    <p>This is the bee that you just saw.</p>\n                    <img src=\"bees-with-color/bee-A1SM.svg\" width=\"200\">\n                    <p><span class=\"greenText\"><b>Successful harvest!</b></span><br>Your pay has increased by $0.02. Your bonus pay is now $0.16.</p>\n            ","response":0,"trial_type":"html-button-response","trial_index":96,"time_elapsed":1016349,"internal_node_id":"0.0-4.0-1.42","subject_id":"5f1b2fe23bcef80c38d2a362","study_id":"6197b3f67c2b5cd3b6d9596a","session_id":"619be67cf9bee77a8fdd7593","condition":"contingent","relevant_dimensions":["wings","pattern"],"bee_group":{"antennae":"X","wings":"2","pattern":"S","legs":"X"},"bonus":0},{"rt":15565.70000000298,"stimulus":"bees-with-color/bee-A2SF.svg","response":0,"trial_type":"image-button-response","trial_index":97,"time_elapsed":1031923,"internal_node_id":"0.0-4.0-0.43","subject_id":"5f1b2fe23bcef80c38d2a362","study_id":"6197b3f67c2b5cd3b6d9596a","session_id":"619be67cf9bee77a8fdd7593","condition":"contingent","relevant_dimensions":["wings","pattern"],"bee_group":{"antennae":"X","wings":"2","pattern":"S","legs":"X"},"action":"harvest","summary":"bad-harvest","bonus":0},{"rt":1502.7000000029802,"stimulus":"\n                    <p><b>Action: <em>harvest</em></b></p>\n                    <p>This is the bee that you just saw.</p>\n                    <img src=\"bees-with-color/bee-A2SF.svg\" width=\"200\">\n                    <p><span class=\"redText\">Bad choice, the bee was angry.</span><br><b>You have been stung!</b><br>Your pay has been decreased by $0.10. Your bonus pay is now $0.06.</p>\n            ","response":0,"trial_type":"html-button-response","trial_index":98,"time_elapsed":1033432,"internal_node_id":"0.0-4.0-1.43","subject_id":"5f1b2fe23bcef80c38d2a362","study_id":"6197b3f67c2b5cd3b6d9596a","session_id":"619be67cf9bee77a8fdd7593","condition":"contingent","relevant_dimensions":["wings","pattern"],"bee_group":{"antennae":"X","wings":"2","pattern":"S","legs":"X"},"bonus":0},{"rt":4651.20000000298,"stimulus":"bees-with-color/bee-B1DF.svg","response":1,"trial_type":"image-button-response","trial_index":99,"time_elapsed":1038093,"internal_node_id":"0.0-4.0-0.44","subject_id":"5f1b2fe23bcef80c38d2a362","study_id":"6197b3f67c2b5cd3b6d9596a","session_id":"619be67cf9bee77a8fdd7593","condition":"contingent","relevant_dimensions":["wings","pattern"],"bee_group":{"antennae":"X","wings":"2","pattern":"S","legs":"X"},"action":"avoid","summary":"bad-avoid","bonus":0},{"rt":1371.2999999970198,"stimulus":"\n                    <p><b>Action: <em>avoid</em></b></p>\n                    <p>This is the bee that you just saw.</p>\n                    <img src=\"bees-with-color/bee-B1DF.svg\" width=\"200\">\n                    <p><br>Your bonus pay is unchanged, and remains at $0.06.</p>\n            ","response":0,"trial_type":"html-button-response","trial_index":100,"time_elapsed":1039473,"internal_node_id":"0.0-4.0-1.44","subject_id":"5f1b2fe23bcef80c38d2a362","study_id":"6197b3f67c2b5cd3b6d9596a","session_id":"619be67cf9bee77a8fdd7593","condition":"contingent","relevant_dimensions":["wings","pattern"],"bee_group":{"antennae":"X","wings":"2","pattern":"S","legs":"X"},"bonus":0},{"rt":8093,"stimulus":"bees-with-color/bee-B2DM.svg","response":1,"trial_type":"image-button-response","trial_index":101,"time_elapsed":1047585,"internal_node_id":"0.0-4.0-0.45","subject_id":"5f1b2fe23bcef80c38d2a362","study_id":"6197b3f67c2b5cd3b6d9596a","session_id":"619be67cf9bee77a8fdd7593","condition":"contingent","relevant_dimensions":["wings","pattern"],"bee_group":{"antennae":"X","wings":"2","pattern":"S","legs":"X"},"action":"avoid","summary":"bad-avoid","bonus":0},{"rt":1390.1999999955297,"stimulus":"\n                    <p><b>Action: <em>avoid</em></b></p>\n                    <p>This is the bee that you just saw.</p>\n                    <img src=\"bees-with-color/bee-B2DM.svg\" width=\"200\">\n                    <p><br>Your bonus pay is unchanged, and remains at $0.06.</p>\n            ","response":0,"trial_type":"html-button-response","trial_index":102,"time_elapsed":1048982,"internal_node_id":"0.0-4.0-1.45","subject_id":"5f1b2fe23bcef80c38d2a362","study_id":"6197b3f67c2b5cd3b6d9596a","session_id":"619be67cf9bee77a8fdd7593","condition":"contingent","relevant_dimensions":["wings","pattern"],"bee_group":{"antennae":"X","wings":"2","pattern":"S","legs":"X"},"bonus":0},{"rt":10343.29999999702,"stimulus":"bees-with-color/bee-B1SF.svg","response":1,"trial_type":"image-button-response","trial_index":103,"time_elapsed":1059333,"internal_node_id":"0.0-4.0-0.46","subject_id":"5f1b2fe23bcef80c38d2a362","study_id":"6197b3f67c2b5cd3b6d9596a","session_id":"619be67cf9bee77a8fdd7593","condition":"contingent","relevant_dimensions":["wings","pattern"],"bee_group":{"antennae":"X","wings":"2","pattern":"S","legs":"X"},"action":"avoid","summary":"bad-avoid","bonus":0},{"rt":1867.2000000029802,"stimulus":"\n                    <p><b>Action: <em>avoid</em></b></p>\n                    <p>This is the bee that you just saw.</p>\n                    <img src=\"bees-with-color/bee-B1SF.svg\" width=\"200\">\n                    <p><br>Your bonus pay is unchanged, and remains at $0.06.</p>\n            ","response":0,"trial_type":"html-button-response","trial_index":104,"time_elapsed":1061208,"internal_node_id":"0.0-4.0-1.46","subject_id":"5f1b2fe23bcef80c38d2a362","study_id":"6197b3f67c2b5cd3b6d9596a","session_id":"619be67cf9bee77a8fdd7593","condition":"contingent","relevant_dimensions":["wings","pattern"],"bee_group":{"antennae":"X","wings":"2","pattern":"S","legs":"X"},"bonus":0},{"rt":6939.39999999851,"stimulus":"bees-with-color/bee-B1DM.svg","response":0,"trial_type":"image-button-response","trial_index":105,"time_elapsed":1068160,"internal_node_id":"0.0-4.0-0.47","subject_id":"5f1b2fe23bcef80c38d2a362","study_id":"6197b3f67c2b5cd3b6d9596a","session_id":"619be67cf9bee77a8fdd7593","condition":"contingent","relevant_dimensions":["wings","pattern"],"bee_group":{"antennae":"X","wings":"2","pattern":"S","legs":"X"},"action":"harvest","summary":"good-harvest","bonus":0},{"rt":1234,"stimulus":"\n                    <p><b>Action: <em>harvest</em></b></p>\n                    <p>This is the bee that you just saw.</p>\n                    <img src=\"bees-with-color/bee-B1DM.svg\" width=\"200\">\n                    <p><span class=\"greenText\"><b>Successful harvest!</b></span><br>Your pay has increased by $0.02. Your bonus pay is now $0.08.</p>\n            ","response":0,"trial_type":"html-button-response","trial_index":106,"time_elapsed":1069403,"internal_node_id":"0.0-4.0-1.47","subject_id":"5f1b2fe23bcef80c38d2a362","study_id":"6197b3f67c2b5cd3b6d9596a","session_id":"619be67cf9bee77a8fdd7593","condition":"contingent","relevant_dimensions":["wings","pattern"],"bee_group":{"antennae":"X","wings":"2","pattern":"S","legs":"X"},"bonus":0},{"rt":6677.20000000298,"stimulus":"bees-with-color/bee-B2SF.svg","response":1,"trial_type":"image-button-response","trial_index":107,"time_elapsed":1076090,"internal_node_id":"0.0-4.0-0.48","subject_id":"5f1b2fe23bcef80c38d2a362","study_id":"6197b3f67c2b5cd3b6d9596a","session_id":"619be67cf9bee77a8fdd7593","condition":"contingent","relevant_dimensions":["wings","pattern"],"bee_group":{"antennae":"X","wings":"2","pattern":"S","legs":"X"},"action":"avoid","summary":"good-avoid","bonus":0},{"rt":1335.1000000014901,"stimulus":"\n                    <p><b>Action: <em>avoid</em></b></p>\n                    <p>This is the bee that you just saw.</p>\n                    <img src=\"bees-with-color/bee-B2SF.svg\" width=\"200\">\n                    <p><br>Your bonus pay is unchanged, and remains at $0.08.</p>\n            ","response":0,"trial_type":"html-button-response","trial_index":108,"time_elapsed":1077434,"internal_node_id":"0.0-4.0-1.48","subject_id":"5f1b2fe23bcef80c38d2a362","study_id":"6197b3f67c2b5cd3b6d9596a","session_id":"619be67cf9bee77a8fdd7593","condition":"contingent","relevant_dimensions":["wings","pattern"],"bee_group":{"antennae":"X","wings":"2","pattern":"S","legs":"X"},"bonus":0},{"rt":9964.80000000447,"stimulus":"bees-with-color/bee-B1SM.svg","response":0,"trial_type":"image-button-response","trial_index":109,"time_elapsed":1087407,"internal_node_id":"0.0-4.0-0.49","subject_id":"5f1b2fe23bcef80c38d2a362","study_id":"6197b3f67c2b5cd3b6d9596a","session_id":"619be67cf9bee77a8fdd7593","condition":"contingent","relevant_dimensions":["wings","pattern"],"bee_group":{"antennae":"X","wings":"2","pattern":"S","legs":"X"},"action":"harvest","summary":"good-harvest","bonus":0},{"rt":1466.3999999985099,"stimulus":"\n                    <p><b>Action: <em>harvest</em></b></p>\n                    <p>This is the bee that you just saw.</p>\n                    <img src=\"bees-with-color/bee-B1SM.svg\" width=\"200\">\n                    <p><span class=\"greenText\"><b>Successful harvest!</b></span><br>Your pay has increased by $0.02. Your bonus pay is now $0.10.</p>\n            ","response":0,"trial_type":"html-button-response","trial_index":110,"time_elapsed":1088878,"internal_node_id":"0.0-4.0-1.49","subject_id":"5f1b2fe23bcef80c38d2a362","study_id":"6197b3f67c2b5cd3b6d9596a","session_id":"619be67cf9bee77a8fdd7593","condition":"contingent","relevant_dimensions":["wings","pattern"],"bee_group":{"antennae":"X","wings":"2","pattern":"S","legs":"X"},"bonus":0},{"rt":4670.89999999851,"stimulus":"bees-with-color/bee-B1DM.svg","response":1,"trial_type":"image-button-response","trial_index":111,"time_elapsed":1093553,"internal_node_id":"0.0-4.0-0.50","subject_id":"5f1b2fe23bcef80c38d2a362","study_id":"6197b3f67c2b5cd3b6d9596a","session_id":"619be67cf9bee77a8fdd7593","condition":"contingent","relevant_dimensions":["wings","pattern"],"bee_group":{"antennae":"X","wings":"2","pattern":"S","legs":"X"},"action":"avoid","summary":"bad-avoid","bonus":0},{"rt":1238.3999999985099,"stimulus":"\n                    <p><b>Action: <em>avoid</em></b></p>\n                    <p>This is the bee that you just saw.</p>\n                    <img src=\"bees-with-color/bee-B1DM.svg\" width=\"200\">\n                    <p><br>Your bonus pay is unchanged, and remains at $0.10.</p>\n            ","response":0,"trial_type":"html-button-response","trial_index":112,"time_elapsed":1094794,"internal_node_id":"0.0-4.0-1.50","subject_id":"5f1b2fe23bcef80c38d2a362","study_id":"6197b3f67c2b5cd3b6d9596a","session_id":"619be67cf9bee77a8fdd7593","condition":"contingent","relevant_dimensions":["wings","pattern"],"bee_group":{"antennae":"X","wings":"2","pattern":"S","legs":"X"},"bonus":0},{"rt":9336.40000000596,"stimulus":"bees-with-color/bee-A2SF.svg","response":1,"trial_type":"image-button-response","trial_index":113,"time_elapsed":1104135,"internal_node_id":"0.0-4.0-0.51","subject_id":"5f1b2fe23bcef80c38d2a362","study_id":"6197b3f67c2b5cd3b6d9596a","session_id":"619be67cf9bee77a8fdd7593","condition":"contingent","relevant_dimensions":["wings","pattern"],"bee_group":{"antennae":"X","wings":"2","pattern":"S","legs":"X"},"action":"avoid","summary":"good-avoid","bonus":0},{"rt":1283.6999999955297,"stimulus":"\n                    <p><b>Action: <em>avoid</em></b></p>\n                    <p>This is the bee that you just saw.</p>\n                    <img src=\"bees-with-color/bee-A2SF.svg\" width=\"200\">\n                    <p><br>Your bonus pay is unchanged, and remains at $0.10.</p>\n            ","response":0,"trial_type":"html-button-response","trial_index":114,"time_elapsed":1105424,"internal_node_id":"0.0-4.0-1.51","subject_id":"5f1b2fe23bcef80c38d2a362","study_id":"6197b3f67c2b5cd3b6d9596a","session_id":"619be67cf9bee77a8fdd7593","condition":"contingent","relevant_dimensions":["wings","pattern"],"bee_group":{"antennae":"X","wings":"2","pattern":"S","legs":"X"},"bonus":0},{"rt":9250.69999999553,"stimulus":"bees-with-color/bee-A1DF.svg","response":1,"trial_type":"image-button-response","trial_index":115,"time_elapsed":1114682,"internal_node_id":"0.0-4.0-0.52","subject_id":"5f1b2fe23bcef80c38d2a362","study_id":"6197b3f67c2b5cd3b6d9596a","session_id":"619be67cf9bee77a8fdd7593","condition":"contingent","relevant_dimensions":["wings","pattern"],"bee_group":{"antennae":"X","wings":"2","pattern":"S","legs":"X"},"action":"avoid","summary":"bad-avoid","bonus":0},{"rt":1318.7000000029802,"stimulus":"\n                    <p><b>Action: <em>avoid</em></b></p>\n                    <p>This is the bee that you just saw.</p>\n                    <img src=\"bees-with-color/bee-A1DF.svg\" width=\"200\">\n                    <p><br>Your bonus pay is unchanged, and remains at $0.10.</p>\n            ","response":0,"trial_type":"html-button-response","trial_index":116,"time_elapsed":1116006,"internal_node_id":"0.0-4.0-1.52","subject_id":"5f1b2fe23bcef80c38d2a362","study_id":"6197b3f67c2b5cd3b6d9596a","session_id":"619be67cf9bee77a8fdd7593","condition":"contingent","relevant_dimensions":["wings","pattern"],"bee_group":{"antennae":"X","wings":"2","pattern":"S","legs":"X"},"bonus":0},{"rt":9002,"stimulus":"bees-with-color/bee-A1SF.svg","response":1,"trial_type":"image-button-response","trial_index":117,"time_elapsed":1125019,"internal_node_id":"0.0-4.0-0.53","subject_id":"5f1b2fe23bcef80c38d2a362","study_id":"6197b3f67c2b5cd3b6d9596a","session_id":"619be67cf9bee77a8fdd7593","condition":"contingent","relevant_dimensions":["wings","pattern"],"bee_group":{"antennae":"X","wings":"2","pattern":"S","legs":"X"},"action":"avoid","summary":"bad-avoid","bonus":0},{"rt":1463.5,"stimulus":"\n                    <p><b>Action: <em>avoid</em></b></p>\n                    <p>This is the bee that you just saw.</p>\n                    <img src=\"bees-with-color/bee-A1SF.svg\" width=\"200\">\n                    <p><br>Your bonus pay is unchanged, and remains at $0.10.</p>\n            ","response":0,"trial_type":"html-button-response","trial_index":118,"time_elapsed":1126489,"internal_node_id":"0.0-4.0-1.53","subject_id":"5f1b2fe23bcef80c38d2a362","study_id":"6197b3f67c2b5cd3b6d9596a","session_id":"619be67cf9bee77a8fdd7593","condition":"contingent","relevant_dimensions":["wings","pattern"],"bee_group":{"antennae":"X","wings":"2","pattern":"S","legs":"X"},"bonus":0},{"rt":3320.60000000149,"stimulus":"bees-with-color/bee-A1DM.svg","response":1,"trial_type":"image-button-response","trial_index":119,"time_elapsed":1129817,"internal_node_id":"0.0-4.0-0.54","subject_id":"5f1b2fe23bcef80c38d2a362","study_id":"6197b3f67c2b5cd3b6d9596a","session_id":"619be67cf9bee77a8fdd7593","condition":"contingent","relevant_dimensions":["wings","pattern"],"bee_group":{"antennae":"X","wings":"2","pattern":"S","legs":"X"},"action":"avoid","summary":"bad-avoid","bonus":0},{"rt":1195.1000000014901,"stimulus":"\n                    <p><b>Action: <em>avoid</em></b></p>\n                    <p>This is the bee that you just saw.</p>\n                    <img src=\"bees-with-color/bee-A1DM.svg\" width=\"200\">\n                    <p><br>Your bonus pay is unchanged, and remains at $0.10.</p>\n            ","response":0,"trial_type":"html-button-response","trial_index":120,"time_elapsed":1131020,"internal_node_id":"0.0-4.0-1.54","subject_id":"5f1b2fe23bcef80c38d2a362","study_id":"6197b3f67c2b5cd3b6d9596a","session_id":"619be67cf9bee77a8fdd7593","condition":"contingent","relevant_dimensions":["wings","pattern"],"bee_group":{"antennae":"X","wings":"2","pattern":"S","legs":"X"},"bonus":0},{"rt":24477.79999999702,"stimulus":"bees-with-color/bee-A2DM.svg","response":1,"trial_type":"image-button-response","trial_index":121,"time_elapsed":1155505,"internal_node_id":"0.0-4.0-0.55","subject_id":"5f1b2fe23bcef80c38d2a362","study_id":"6197b3f67c2b5cd3b6d9596a","session_id":"619be67cf9bee77a8fdd7593","condition":"contingent","relevant_dimensions":["wings","pattern"],"bee_group":{"antennae":"X","wings":"2","pattern":"S","legs":"X"},"action":"avoid","summary":"bad-avoid","bonus":0},{"rt":1559.1999999955297,"stimulus":"\n                    <p><b>Action: <em>avoid</em></b></p>\n                    <p>This is the bee that you just saw.</p>\n                    <img src=\"bees-with-color/bee-A2DM.svg\" width=\"200\">\n                    <p><br>Your bonus pay is unchanged, and remains at $0.10.</p>\n            ","response":0,"trial_type":"html-button-response","trial_index":122,"time_elapsed":1157074,"internal_node_id":"0.0-4.0-1.55","subject_id":"5f1b2fe23bcef80c38d2a362","study_id":"6197b3f67c2b5cd3b6d9596a","session_id":"619be67cf9bee77a8fdd7593","condition":"contingent","relevant_dimensions":["wings","pattern"],"bee_group":{"antennae":"X","wings":"2","pattern":"S","legs":"X"},"bonus":0},{"rt":14591.39999999851,"stimulus":"bees-with-color/bee-B2SM.svg","response":0,"trial_type":"image-button-response","trial_index":123,"time_elapsed":1171678,"internal_node_id":"0.0-4.0-0.56","subject_id":"5f1b2fe23bcef80c38d2a362","study_id":"6197b3f67c2b5cd3b6d9596a","session_id":"619be67cf9bee77a8fdd7593","condition":"contingent","relevant_dimensions":["wings","pattern"],"bee_group":{"antennae":"X","wings":"2","pattern":"S","legs":"X"},"action":"harvest","summary":"bad-harvest","bonus":0},{"rt":1279.5,"stimulus":"\n                    <p><b>Action: <em>harvest</em></b></p>\n                    <p>This is the bee that you just saw.</p>\n                    <img src=\"bees-with-color/bee-B2SM.svg\" width=\"200\">\n                    <p><span class=\"redText\">Bad choice, the bee was angry.</span><br><b>You have been stung!</b><br>Your pay has been decreased by $0.10. Your bonus pay is now $0.00.</p>\n            ","response":0,"trial_type":"html-button-response","trial_index":124,"time_elapsed":1172966,"internal_node_id":"0.0-4.0-1.56","subject_id":"5f1b2fe23bcef80c38d2a362","study_id":"6197b3f67c2b5cd3b6d9596a","session_id":"619be67cf9bee77a8fdd7593","condition":"contingent","relevant_dimensions":["wings","pattern"],"bee_group":{"antennae":"X","wings":"2","pattern":"S","legs":"X"},"bonus":0},{"rt":3977.2999999970198,"stimulus":"bees-with-color/bee-B1DF.svg","response":1,"trial_type":"image-button-response","trial_index":125,"time_elapsed":1176953,"internal_node_id":"0.0-4.0-0.57","subject_id":"5f1b2fe23bcef80c38d2a362","study_id":"6197b3f67c2b5cd3b6d9596a","session_id":"619be67cf9bee77a8fdd7593","condition":"contingent","relevant_dimensions":["wings","pattern"],"bee_group":{"antennae":"X","wings":"2","pattern":"S","legs":"X"},"action":"avoid","summary":"bad-avoid","bonus":0},{"rt":1103.1000000014901,"stimulus":"\n                    <p><b>Action: <em>avoid</em></b></p>\n                    <p>This is the bee that you just saw.</p>\n                    <img src=\"bees-with-color/bee-B1DF.svg\" width=\"200\">\n                    <p><br>Your bonus pay is unchanged, and remains at $0.00.</p>\n            ","response":0,"trial_type":"html-button-response","trial_index":126,"time_elapsed":1178063,"internal_node_id":"0.0-4.0-1.57","subject_id":"5f1b2fe23bcef80c38d2a362","study_id":"6197b3f67c2b5cd3b6d9596a","session_id":"619be67cf9bee77a8fdd7593","condition":"contingent","relevant_dimensions":["wings","pattern"],"bee_group":{"antennae":"X","wings":"2","pattern":"S","legs":"X"},"bonus":0},{"rt":2409.6999999955297,"stimulus":"bees-with-color/bee-B2DF.svg","response":0,"trial_type":"image-button-response","trial_index":127,"time_elapsed":1180480,"internal_node_id":"0.0-4.0-0.58","subject_id":"5f1b2fe23bcef80c38d2a362","study_id":"6197b3f67c2b5cd3b6d9596a","session_id":"619be67cf9bee77a8fdd7593","condition":"contingent","relevant_dimensions":["wings","pattern"],"bee_group":{"antennae":"X","wings":"2","pattern":"S","legs":"X"},"action":"harvest","summary":"good-harvest","bonus":0},{"rt":1093.7000000029802,"stimulus":"\n                    <p><b>Action: <em>harvest</em></b></p>\n                    <p>This is the bee that you just saw.</p>\n                    <img src=\"bees-with-color/bee-B2DF.svg\" width=\"200\">\n                    <p><span class=\"greenText\"><b>Successful harvest!</b></span><br>Your pay has increased by $0.02. Your bonus pay is now $0.02.</p>\n            ","response":0,"trial_type":"html-button-response","trial_index":128,"time_elapsed":1181581,"internal_node_id":"0.0-4.0-1.58","subject_id":"5f1b2fe23bcef80c38d2a362","study_id":"6197b3f67c2b5cd3b6d9596a","session_id":"619be67cf9bee77a8fdd7593","condition":"contingent","relevant_dimensions":["wings","pattern"],"bee_group":{"antennae":"X","wings":"2","pattern":"S","legs":"X"},"bonus":0},{"rt":4201.29999999702,"stimulus":"bees-with-color/bee-A2SM.svg","response":1,"trial_type":"image-button-response","trial_index":129,"time_elapsed":1185789,"internal_node_id":"0.0-4.0-0.59","subject_id":"5f1b2fe23bcef80c38d2a362","study_id":"6197b3f67c2b5cd3b6d9596a","session_id":"619be67cf9bee77a8fdd7593","condition":"contingent","relevant_dimensions":["wings","pattern"],"bee_group":{"antennae":"X","wings":"2","pattern":"S","legs":"X"},"action":"avoid","summary":"good-avoid","bonus":0},{"rt":1128.3999999985099,"stimulus":"\n                    <p><b>Action: <em>avoid</em></b></p>\n                    <p>This is the bee that you just saw.</p>\n                    <img src=\"bees-with-color/bee-A2SM.svg\" width=\"200\">\n                    <p><br>Your bonus pay is unchanged, and remains at $0.02.</p>\n            ","response":0,"trial_type":"html-button-response","trial_index":130,"time_elapsed":1186925,"internal_node_id":"0.0-4.0-1.59","subject_id":"5f1b2fe23bcef80c38d2a362","study_id":"6197b3f67c2b5cd3b6d9596a","session_id":"619be67cf9bee77a8fdd7593","condition":"contingent","relevant_dimensions":["wings","pattern"],"bee_group":{"antennae":"X","wings":"2","pattern":"S","legs":"X"},"bonus":0},{"rt":3318.39999999851,"stimulus":"bees-with-color/bee-B1SF.svg","response":1,"trial_type":"image-button-response","trial_index":131,"time_elapsed":1190253,"internal_node_id":"0.0-4.0-0.60","subject_id":"5f1b2fe23bcef80c38d2a362","study_id":"6197b3f67c2b5cd3b6d9596a","session_id":"619be67cf9bee77a8fdd7593","condition":"contingent","relevant_dimensions":["wings","pattern"],"bee_group":{"antennae":"X","wings":"2","pattern":"S","legs":"X"},"action":"avoid","summary":"bad-avoid","bonus":0},{"rt":1416.3999999985099,"stimulus":"\n                    <p><b>Action: <em>avoid</em></b></p>\n                    <p>This is the bee that you just saw.</p>\n                    <img src=\"bees-with-color/bee-B1SF.svg\" width=\"200\">\n                    <p><br>Your bonus pay is unchanged, and remains at $0.02.</p>\n            ","response":0,"trial_type":"html-button-response","trial_index":132,"time_elapsed":1191676,"internal_node_id":"0.0-4.0-1.60","subject_id":"5f1b2fe23bcef80c38d2a362","study_id":"6197b3f67c2b5cd3b6d9596a","session_id":"619be67cf9bee77a8fdd7593","condition":"contingent","relevant_dimensions":["wings","pattern"],"bee_group":{"antennae":"X","wings":"2","pattern":"S","legs":"X"},"bonus":0},{"rt":7999.89999999851,"stimulus":"bees-with-color/bee-B2DM.svg","response":1,"trial_type":"image-button-response","trial_index":133,"time_elapsed":1199687,"internal_node_id":"0.0-4.0-0.61","subject_id":"5f1b2fe23bcef80c38d2a362","study_id":"6197b3f67c2b5cd3b6d9596a","session_id":"619be67cf9bee77a8fdd7593","condition":"contingent","relevant_dimensions":["wings","pattern"],"bee_group":{"antennae":"X","wings":"2","pattern":"S","legs":"X"},"action":"avoid","summary":"bad-avoid","bonus":0},{"rt":1457.1000000014901,"stimulus":"\n                    <p><b>Action: <em>avoid</em></b></p>\n                    <p>This is the bee that you just saw.</p>\n                    <img src=\"bees-with-color/bee-B2DM.svg\" width=\"200\">\n                    <p><br>Your bonus pay is unchanged, and remains at $0.02.</p>\n            ","response":0,"trial_type":"html-button-response","trial_index":134,"time_elapsed":1201150,"internal_node_id":"0.0-4.0-1.61","subject_id":"5f1b2fe23bcef80c38d2a362","study_id":"6197b3f67c2b5cd3b6d9596a","session_id":"619be67cf9bee77a8fdd7593","condition":"contingent","relevant_dimensions":["wings","pattern"],"bee_group":{"antennae":"X","wings":"2","pattern":"S","legs":"X"},"bonus":0},{"rt":3905.2999999970198,"stimulus":"bees-with-color/bee-A1SM.svg","response":1,"trial_type":"image-button-response","trial_index":135,"time_elapsed":1205061,"internal_node_id":"0.0-4.0-0.62","subject_id":"5f1b2fe23bcef80c38d2a362","study_id":"6197b3f67c2b5cd3b6d9596a","session_id":"619be67cf9bee77a8fdd7593","condition":"contingent","relevant_dimensions":["wings","pattern"],"bee_group":{"antennae":"X","wings":"2","pattern":"S","legs":"X"},"action":"avoid","summary":"bad-avoid","bonus":0},{"rt":1049.5999999940395,"stimulus":"\n                    <p><b>Action: <em>avoid</em></b></p>\n                    <p>This is the bee that you just saw.</p>\n                    <img src=\"bees-with-color/bee-A1SM.svg\" width=\"200\">\n                    <p><br>Your bonus pay is unchanged, and remains at $0.02.</p>\n            ","response":0,"trial_type":"html-button-response","trial_index":136,"time_elapsed":1206118,"internal_node_id":"0.0-4.0-1.62","subject_id":"5f1b2fe23bcef80c38d2a362","study_id":"6197b3f67c2b5cd3b6d9596a","session_id":"619be67cf9bee77a8fdd7593","condition":"contingent","relevant_dimensions":["wings","pattern"],"bee_group":{"antennae":"X","wings":"2","pattern":"S","legs":"X"},"bonus":0},{"rt":4285,"stimulus":"bees-with-color/bee-A2DF.svg","response":0,"trial_type":"image-button-response","trial_index":137,"time_elapsed":1210413,"internal_node_id":"0.0-4.0-0.63","subject_id":"5f1b2fe23bcef80c38d2a362","study_id":"6197b3f67c2b5cd3b6d9596a","session_id":"619be67cf9bee77a8fdd7593","condition":"contingent","relevant_dimensions":["wings","pattern"],"bee_group":{"antennae":"X","wings":"2","pattern":"S","legs":"X"},"action":"harvest","summary":"good-harvest","bonus":0},{"rt":1184.6000000014901,"stimulus":"\n                    <p><b>Action: <em>harvest</em></b></p>\n                    <p>This is the bee that you just saw.</p>\n                    <img src=\"bees-with-color/bee-A2DF.svg\" width=\"200\">\n                    <p><span class=\"greenText\"><b>Successful harvest!</b></span><br>Your pay has increased by $0.02. Your bonus pay is now $0.04.</p>\n            ","response":0,"trial_type":"html-button-response","trial_index":138,"time_elapsed":1211601,"internal_node_id":"0.0-4.0-1.63","subject_id":"5f1b2fe23bcef80c38d2a362","study_id":"6197b3f67c2b5cd3b6d9596a","session_id":"619be67cf9bee77a8fdd7593","condition":"contingent","relevant_dimensions":["wings","pattern"],"bee_group":{"antennae":"X","wings":"2","pattern":"S","legs":"X"},"bonus":0},{"rt":4235,"stimulus":"You have completed the first part of this experiment.<br><br>You will now begin a shorter second part, in which you will receive no feedback.<br>The same rules regarding bonus pay apply.<br><br>Press any key to begin.","response":" ","trial_type":"html-keyboard-response","trial_index":139,"time_elapsed":1215840,"internal_node_id":"0.0-5.0","subject_id":"5f1b2fe23bcef80c38d2a362","study_id":"6197b3f67c2b5cd3b6d9596a","session_id":"619be67cf9bee77a8fdd7593","condition":"contingent","relevant_dimensions":["wings","pattern"],"bee_group":{"antennae":"X","wings":"2","pattern":"S","legs":"X"},"bonus":0},{"rt":8638.5,"stimulus":"bees-with-color/bee-A1SF.svg","response":1,"trial_type":"image-button-response","trial_index":140,"time_elapsed":1224529,"internal_node_id":"0.0-6.0-0.0","subject_id":"5f1b2fe23bcef80c38d2a362","study_id":"6197b3f67c2b5cd3b6d9596a","session_id":"619be67cf9bee77a8fdd7593","condition":"contingent","relevant_dimensions":["wings","pattern"],"bee_group":{"antennae":"X","wings":"2","pattern":"S","legs":"X"},"bonus":0},{"rt":7445.30000000447,"stimulus":"bees-with-color/bee-A2SF.svg","response":0,"trial_type":"image-button-response","trial_index":141,"time_elapsed":1231982,"internal_node_id":"0.0-6.0-0.1","subject_id":"5f1b2fe23bcef80c38d2a362","study_id":"6197b3f67c2b5cd3b6d9596a","session_id":"619be67cf9bee77a8fdd7593","condition":"contingent","relevant_dimensions":["wings","pattern"],"bee_group":{"antennae":"X","wings":"2","pattern":"S","legs":"X"},"bonus":0},{"rt":4983.39999999851,"stimulus":"bees-with-color/bee-B1SF.svg","response":1,"trial_type":"image-button-response","trial_index":142,"time_elapsed":1236977,"internal_node_id":"0.0-6.0-0.2","subject_id":"5f1b2fe23bcef80c38d2a362","study_id":"6197b3f67c2b5cd3b6d9596a","session_id":"619be67cf9bee77a8fdd7593","condition":"contingent","relevant_dimensions":["wings","pattern"],"bee_group":{"antennae":"X","wings":"2","pattern":"S","legs":"X"},"bonus":0},{"rt":18388.20000000298,"stimulus":"bees-with-color/bee-B2DM.svg","response":0,"trial_type":"image-button-response","trial_index":143,"time_elapsed":1255378,"internal_node_id":"0.0-6.0-0.3","subject_id":"5f1b2fe23bcef80c38d2a362","study_id":"6197b3f67c2b5cd3b6d9596a","session_id":"619be67cf9bee77a8fdd7593","condition":"contingent","relevant_dimensions":["wings","pattern"],"bee_group":{"antennae":"X","wings":"2","pattern":"S","legs":"X"},"bonus":0},{"rt":6818,"stimulus":"bees-with-color/bee-A1DF.svg","response":0,"trial_type":"image-button-response","trial_index":144,"time_elapsed":1262210,"internal_node_id":"0.0-6.0-0.4","subject_id":"5f1b2fe23bcef80c38d2a362","study_id":"6197b3f67c2b5cd3b6d9596a","session_id":"619be67cf9bee77a8fdd7593","condition":"contingent","relevant_dimensions":["wings","pattern"],"bee_group":{"antennae":"X","wings":"2","pattern":"S","legs":"X"},"bonus":0},{"rt":4672.10000000149,"stimulus":"bees-with-color/bee-B2SM.svg","response":0,"trial_type":"image-button-response","trial_index":145,"time_elapsed":1266893,"internal_node_id":"0.0-6.0-0.5","subject_id":"5f1b2fe23bcef80c38d2a362","study_id":"6197b3f67c2b5cd3b6d9596a","session_id":"619be67cf9bee77a8fdd7593","condition":"contingent","relevant_dimensions":["wings","pattern"],"bee_group":{"antennae":"X","wings":"2","pattern":"S","legs":"X"},"bonus":0},{"rt":7698.89999999851,"stimulus":"bees-with-color/bee-B1DM.svg","response":1,"trial_type":"image-button-response","trial_index":146,"time_elapsed":1274603,"internal_node_id":"0.0-6.0-0.6","subject_id":"5f1b2fe23bcef80c38d2a362","study_id":"6197b3f67c2b5cd3b6d9596a","session_id":"619be67cf9bee77a8fdd7593","condition":"contingent","relevant_dimensions":["wings","pattern"],"bee_group":{"antennae":"X","wings":"2","pattern":"S","legs":"X"},"bonus":0},{"rt":1337.5,"stimulus":"bees-with-color/bee-B1DF.svg","response":1,"trial_type":"image-button-response","trial_index":147,"time_elapsed":1275952,"internal_node_id":"0.0-6.0-0.7","subject_id":"5f1b2fe23bcef80c38d2a362","study_id":"6197b3f67c2b5cd3b6d9596a","session_id":"619be67cf9bee77a8fdd7593","condition":"contingent","relevant_dimensions":["wings","pattern"],"bee_group":{"antennae":"X","wings":"2","pattern":"S","legs":"X"},"bonus":0},{"rt":4884,"stimulus":"bees-with-color/bee-A2SM.svg","response":1,"trial_type":"image-button-response","trial_index":148,"time_elapsed":1280848,"internal_node_id":"0.0-6.0-0.8","subject_id":"5f1b2fe23bcef80c38d2a362","study_id":"6197b3f67c2b5cd3b6d9596a","session_id":"619be67cf9bee77a8fdd7593","condition":"contingent","relevant_dimensions":["wings","pattern"],"bee_group":{"antennae":"X","wings":"2","pattern":"S","legs":"X"},"bonus":0},{"rt":5311.29999999702,"stimulus":"bees-with-color/bee-A2DF.svg","response":1,"trial_type":"image-button-response","trial_index":149,"time_elapsed":1286172,"internal_node_id":"0.0-6.0-0.9","subject_id":"5f1b2fe23bcef80c38d2a362","study_id":"6197b3f67c2b5cd3b6d9596a","session_id":"619be67cf9bee77a8fdd7593","condition":"contingent","relevant_dimensions":["wings","pattern"],"bee_group":{"antennae":"X","wings":"2","pattern":"S","legs":"X"},"bonus":0},{"rt":19478.89999999851,"stimulus":"bees-with-color/bee-B2SF.svg","response":1,"trial_type":"image-button-response","trial_index":150,"time_elapsed":1305665,"internal_node_id":"0.0-6.0-0.10","subject_id":"5f1b2fe23bcef80c38d2a362","study_id":"6197b3f67c2b5cd3b6d9596a","session_id":"619be67cf9bee77a8fdd7593","condition":"contingent","relevant_dimensions":["wings","pattern"],"bee_group":{"antennae":"X","wings":"2","pattern":"S","legs":"X"},"bonus":0},{"rt":3497.1999999955297,"stimulus":"bees-with-color/bee-B2DF.svg","response":0,"trial_type":"image-button-response","trial_index":151,"time_elapsed":1309174,"internal_node_id":"0.0-6.0-0.11","subject_id":"5f1b2fe23bcef80c38d2a362","study_id":"6197b3f67c2b5cd3b6d9596a","session_id":"619be67cf9bee77a8fdd7593","condition":"contingent","relevant_dimensions":["wings","pattern"],"bee_group":{"antennae":"X","wings":"2","pattern":"S","legs":"X"},"bonus":0},{"rt":13816.39999999851,"stimulus":"bees-with-color/bee-A2DM.svg","response":0,"trial_type":"image-button-response","trial_index":152,"time_elapsed":1323000,"internal_node_id":"0.0-6.0-0.12","subject_id":"5f1b2fe23bcef80c38d2a362","study_id":"6197b3f67c2b5cd3b6d9596a","session_id":"619be67cf9bee77a8fdd7593","condition":"contingent","relevant_dimensions":["wings","pattern"],"bee_group":{"antennae":"X","wings":"2","pattern":"S","legs":"X"},"bonus":0},{"rt":14083.5,"stimulus":"bees-with-color/bee-B1SM.svg","response":1,"trial_type":"image-button-response","trial_index":153,"time_elapsed":1337095,"internal_node_id":"0.0-6.0-0.13","subject_id":"5f1b2fe23bcef80c38d2a362","study_id":"6197b3f67c2b5cd3b6d9596a","session_id":"619be67cf9bee77a8fdd7593","condition":"contingent","relevant_dimensions":["wings","pattern"],"bee_group":{"antennae":"X","wings":"2","pattern":"S","legs":"X"},"bonus":0},{"rt":10631.39999999851,"stimulus":"bees-with-color/bee-A1SM.svg","response":0,"trial_type":"image-button-response","trial_index":154,"time_elapsed":1347740,"internal_node_id":"0.0-6.0-0.14","subject_id":"5f1b2fe23bcef80c38d2a362","study_id":"6197b3f67c2b5cd3b6d9596a","session_id":"619be67cf9bee77a8fdd7593","condition":"contingent","relevant_dimensions":["wings","pattern"],"bee_group":{"antennae":"X","wings":"2","pattern":"S","legs":"X"},"bonus":0},{"rt":1895.3999999985099,"stimulus":"bees-with-color/bee-A1DM.svg","response":1,"trial_type":"image-button-response","trial_index":155,"time_elapsed":1349647,"internal_node_id":"0.0-6.0-0.15","subject_id":"5f1b2fe23bcef80c38d2a362","study_id":"6197b3f67c2b5cd3b6d9596a","session_id":"619be67cf9bee77a8fdd7593","condition":"contingent","relevant_dimensions":["wings","pattern"],"bee_group":{"antennae":"X","wings":"2","pattern":"S","legs":"X"},"bonus":0},{"rt":7478.30000000447,"stimulus":"bees-with-color/bee-B2DF.svg","response":0,"trial_type":"image-button-response","trial_index":156,"time_elapsed":1357132,"internal_node_id":"0.0-6.0-0.16","subject_id":"5f1b2fe23bcef80c38d2a362","study_id":"6197b3f67c2b5cd3b6d9596a","session_id":"619be67cf9bee77a8fdd7593","condition":"contingent","relevant_dimensions":["wings","pattern"],"bee_group":{"antennae":"X","wings":"2","pattern":"S","legs":"X"},"bonus":0},{"rt":10484.60000000149,"stimulus":"bees-with-color/bee-B1DF.svg","response":1,"trial_type":"image-button-response","trial_index":157,"time_elapsed":1367626,"internal_node_id":"0.0-6.0-0.17","subject_id":"5f1b2fe23bcef80c38d2a362","study_id":"6197b3f67c2b5cd3b6d9596a","session_id":"619be67cf9bee77a8fdd7593","condition":"contingent","relevant_dimensions":["wings","pattern"],"bee_group":{"antennae":"X","wings":"2","pattern":"S","legs":"X"},"bonus":0},{"rt":3469.9000000059605,"stimulus":"bees-with-color/bee-B1SF.svg","response":1,"trial_type":"image-button-response","trial_index":158,"time_elapsed":1371105,"internal_node_id":"0.0-6.0-0.18","subject_id":"5f1b2fe23bcef80c38d2a362","study_id":"6197b3f67c2b5cd3b6d9596a","session_id":"619be67cf9bee77a8fdd7593","condition":"contingent","relevant_dimensions":["wings","pattern"],"bee_group":{"antennae":"X","wings":"2","pattern":"S","legs":"X"},"bonus":0},{"rt":12521.80000000447,"stimulus":"bees-with-color/bee-A2DM.svg","response":0,"trial_type":"image-button-response","trial_index":159,"time_elapsed":1383637,"internal_node_id":"0.0-6.0-0.19","subject_id":"5f1b2fe23bcef80c38d2a362","study_id":"6197b3f67c2b5cd3b6d9596a","session_id":"619be67cf9bee77a8fdd7593","condition":"contingent","relevant_dimensions":["wings","pattern"],"bee_group":{"antennae":"X","wings":"2","pattern":"S","legs":"X"},"bonus":0},{"rt":2907,"stimulus":"bees-with-color/bee-B2SM.svg","response":0,"trial_type":"image-button-response","trial_index":160,"time_elapsed":1386555,"internal_node_id":"0.0-6.0-0.20","subject_id":"5f1b2fe23bcef80c38d2a362","study_id":"6197b3f67c2b5cd3b6d9596a","session_id":"619be67cf9bee77a8fdd7593","condition":"contingent","relevant_dimensions":["wings","pattern"],"bee_group":{"antennae":"X","wings":"2","pattern":"S","legs":"X"},"bonus":0},{"rt":2081,"stimulus":"bees-with-color/bee-A2SM.svg","response":1,"trial_type":"image-button-response","trial_index":161,"time_elapsed":1388645,"internal_node_id":"0.0-6.0-0.21","subject_id":"5f1b2fe23bcef80c38d2a362","study_id":"6197b3f67c2b5cd3b6d9596a","session_id":"619be67cf9bee77a8fdd7593","condition":"contingent","relevant_dimensions":["wings","pattern"],"bee_group":{"antennae":"X","wings":"2","pattern":"S","legs":"X"},"bonus":0},{"rt":6755.80000000447,"stimulus":"bees-with-color/bee-B1DM.svg","response":1,"trial_type":"image-button-response","trial_index":162,"time_elapsed":1395409,"internal_node_id":"0.0-6.0-0.22","subject_id":"5f1b2fe23bcef80c38d2a362","study_id":"6197b3f67c2b5cd3b6d9596a","session_id":"619be67cf9bee77a8fdd7593","condition":"contingent","relevant_dimensions":["wings","pattern"],"bee_group":{"antennae":"X","wings":"2","pattern":"S","legs":"X"},"bonus":0},{"rt":2684.5,"stimulus":"bees-with-color/bee-B1SM.svg","response":0,"trial_type":"image-button-response","trial_index":163,"time_elapsed":1398105,"internal_node_id":"0.0-6.0-0.23","subject_id":"5f1b2fe23bcef80c38d2a362","study_id":"6197b3f67c2b5cd3b6d9596a","session_id":"619be67cf9bee77a8fdd7593","condition":"contingent","relevant_dimensions":["wings","pattern"],"bee_group":{"antennae":"X","wings":"2","pattern":"S","legs":"X"},"bonus":0},{"rt":13621,"stimulus":"bees-with-color/bee-B2DM.svg","response":1,"trial_type":"image-button-response","trial_index":164,"time_elapsed":1411735,"internal_node_id":"0.0-6.0-0.24","subject_id":"5f1b2fe23bcef80c38d2a362","study_id":"6197b3f67c2b5cd3b6d9596a","session_id":"619be67cf9bee77a8fdd7593","condition":"contingent","relevant_dimensions":["wings","pattern"],"bee_group":{"antennae":"X","wings":"2","pattern":"S","legs":"X"},"bonus":0},{"rt":9891.29999999702,"stimulus":"bees-with-color/bee-A1SM.svg","response":1,"trial_type":"image-button-response","trial_index":165,"time_elapsed":1421639,"internal_node_id":"0.0-6.0-0.25","subject_id":"5f1b2fe23bcef80c38d2a362","study_id":"6197b3f67c2b5cd3b6d9596a","session_id":"619be67cf9bee77a8fdd7593","condition":"contingent","relevant_dimensions":["wings","pattern"],"bee_group":{"antennae":"X","wings":"2","pattern":"S","legs":"X"},"bonus":0},{"rt":8417.30000000447,"stimulus":"bees-with-color/bee-A1SF.svg","response":1,"trial_type":"image-button-response","trial_index":166,"time_elapsed":1430068,"internal_node_id":"0.0-6.0-0.26","subject_id":"5f1b2fe23bcef80c38d2a362","study_id":"6197b3f67c2b5cd3b6d9596a","session_id":"619be67cf9bee77a8fdd7593","condition":"contingent","relevant_dimensions":["wings","pattern"],"bee_group":{"antennae":"X","wings":"2","pattern":"S","legs":"X"},"bonus":0},{"rt":11468.10000000149,"stimulus":"bees-with-color/bee-A2DF.svg","response":1,"trial_type":"image-button-response","trial_index":167,"time_elapsed":1441543,"internal_node_id":"0.0-6.0-0.27","subject_id":"5f1b2fe23bcef80c38d2a362","study_id":"6197b3f67c2b5cd3b6d9596a","session_id":"619be67cf9bee77a8fdd7593","condition":"contingent","relevant_dimensions":["wings","pattern"],"bee_group":{"antennae":"X","wings":"2","pattern":"S","legs":"X"},"bonus":0},{"rt":4090.2000000029802,"stimulus":"bees-with-color/bee-A1DM.svg","response":1,"trial_type":"image-button-response","trial_index":168,"time_elapsed":1445644,"internal_node_id":"0.0-6.0-0.28","subject_id