[{"success":true,"trial_type":"fullscreen","trial_index":0,"time_elapsed":12714,"internal_node_id":"0.0-0.0","subject_id":"6108906e81224a2bfa9d6c7b","study_id":"6197b3f67c2b5cd3b6d9596a","session_id":"619be32194130053b19d4fb8","condition":"contingent","relevant_dimensions":["pattern","legs"],"bee_group":{"antennae":"X","wings":"X","pattern":"S","legs":"F"},"bonus":0.5000000000000009},{"success":true,"timeout":false,"failed_images":[],"failed_audio":[],"failed_video":[],"trial_type":"preload","trial_index":1,"time_elapsed":14243,"internal_node_id":"0.0-1.0","subject_id":"6108906e81224a2bfa9d6c7b","study_id":"6197b3f67c2b5cd3b6d9596a","session_id":"619be32194130053b19d4fb8","condition":"contingent","relevant_dimensions":["pattern","legs"],"bee_group":{"antennae":"X","wings":"X","pattern":"S","legs":"F"},"bonus":0.5000000000000009},{"rt":1809.2000000476837,"stimulus":"Welcome! Press any key to begin.","response":" ","trial_type":"html-keyboard-response","trial_index":2,"time_elapsed":16053,"internal_node_id":"0.0-2.0","subject_id":"6108906e81224a2bfa9d6c7b","study_id":"6197b3f67c2b5cd3b6d9596a","session_id":"619be32194130053b19d4fb8","condition":"contingent","relevant_dimensions":["pattern","legs"],"bee_group":{"antennae":"X","wings":"X","pattern":"S","legs":"F"},"bonus":0.5000000000000009},{"view_history":[{"page_index":0,"viewing_time":1743.1000000238419},{"page_index":1,"viewing_time":7471.699999988079},{"page_index":2,"viewing_time":3496},{"page_index":3,"viewing_time":8064.199999988079},{"page_index":4,"viewing_time":4808.300000011921},{"page_index":5,"viewing_time":3887.5},{"page_index":6,"viewing_time":3528.400000035763},{"page_index":7,"viewing_time":3263.899999976158},{"page_index":8,"viewing_time":2783.699999988079},{"page_index":9,"viewing_time":2127.900000035763},{"page_index":10,"viewing_time":2015.8999999761581},{"page_index":11,"viewing_time":4080.100000023842},{"page_index":12,"viewing_time":4567.899999976158},{"page_index":13,"viewing_time":992.1000000238419},{"page_index":14,"viewing_time":1647.8999999761581}],"rt":54479,"trial_type":"instructions","trial_index":3,"time_elapsed":70533,"internal_node_id":"0.0-3.0-0.0","subject_id":"6108906e81224a2bfa9d6c7b","study_id":"6197b3f67c2b5cd3b6d9596a","session_id":"619be32194130053b19d4fb8","condition":"contingent","relevant_dimensions":["pattern","legs"],"bee_group":{"antennae":"X","wings":"X","pattern":"S","legs":"F"},"bonus":0.5000000000000009},{"rt":8529.100000023842,"response":{"Q0":["Two or six legs","Stripes or spots on body","Stinger or no stinger","Single or double wings","Antennae or no antennae"]},"question_order":[0],"trial_type":"survey-multi-select","trial_index":4,"time_elapsed":79069,"internal_node_id":"0.0-3.0-1.0","subject_id":"6108906e81224a2bfa9d6c7b","study_id":"6197b3f67c2b5cd3b6d9596a","session_id":"619be32194130053b19d4fb8","condition":"contingent","relevant_dimensions":["pattern","legs"],"bee_group":{"antennae":"X","wings":"X","pattern":"S","legs":"F"},"correct":false,"bonus":0.5000000000000009},{"rt":20485.899999976158,"response":{"Q1":"No.","Q2":"Based on the four features of the bee.","Q3":"You do not learn if it was friendly or dangerous, and do not alter your bonus."},"question_order":[0,1,2],"trial_type":"survey-multi-choice","trial_index":5,"time_elapsed":99558,"internal_node_id":"0.0-3.0-2.0","subject_id":"6108906e81224a2bfa9d6c7b","study_id":"6197b3f67c2b5cd3b6d9596a","session_id":"619be32194130053b19d4fb8","condition":"contingent","relevant_dimensions":["pattern","legs"],"bee_group":{"antennae":"X","wings":"X","pattern":"S","legs":"F"},"correct":true,"bonus":0.5000000000000009},{"rt":2469.699999988079,"stimulus":"<p>You did not answer all comprehension questions correctly.<br>Press <b>continue</b> to review the instructions again.</p>","response":0,"trial_type":"html-button-response","trial_index":6,"time_elapsed":102029,"internal_node_id":"0.0-3.0-3.0","subject_id":"6108906e81224a2bfa9d6c7b","study_id":"6197b3f67c2b5cd3b6d9596a","session_id":"619be32194130053b19d4fb8","condition":"contingent","relevant_dimensions":["pattern","legs"],"bee_group":{"antennae":"X","wings":"X","pattern":"S","legs":"F"},"bonus":0.5000000000000009},{"view_history":[{"page_index":0,"viewing_time":2302.300000011921},{"page_index":1,"viewing_time":2048.199999988079},{"page_index":2,"viewing_time":1455.9000000357628},{"page_index":3,"viewing_time":4312},{"page_index":4,"viewing_time":2615.7999999523163},{"page_index":5,"viewing_time":1264.2000000476837},{"page_index":6,"viewing_time":1744.0999999642372},{"page_index":7,"viewing_time":2151.800000011921},{"page_index":8,"viewing_time":2280},{"page_index":9,"viewing_time":952.6999999880791},{"page_index":10,"viewing_time":1095.800000011921},{"page_index":11,"viewing_time":2367.800000011921},{"page_index":12,"viewing_time":1559.8999999761581},{"page_index":13,"viewing_time":767.8000000119209},{"page_index":14,"viewing_time":791.8999999761581}],"rt":27710.5,"trial_type":"instructions","trial_index":7,"time_elapsed":129741,"internal_node_id":"0.0-3.0-4.0-0.0","subject_id":"6108906e81224a2bfa9d6c7b","study_id":"6197b3f67c2b5cd3b6d9596a","session_id":"619be32194130053b19d4fb8","condition":"contingent","relevant_dimensions":["pattern","legs"],"bee_group":{"antennae":"X","wings":"X","pattern":"S","legs":"F"},"bonus":0.5000000000000009},{"rt":6923.900000035763,"response":{"Q0":["Two or six legs","Stripes or spots on body","Single or double wings","Antennae or no antennae"]},"question_order":[0],"trial_type":"survey-multi-select","trial_index":8,"time_elapsed":136670,"internal_node_id":"0.0-3.0-4.0-1.0","subject_id":"6108906e81224a2bfa9d6c7b","study_id":"6197b3f67c2b5cd3b6d9596a","session_id":"619be32194130053b19d4fb8","condition":"contingent","relevant_dimensions":["pattern","legs"],"bee_group":{"antennae":"X","wings":"X","pattern":"S","legs":"F"},"correct":true,"bonus":0.5000000000000009},{"rt":11365.300000011921,"response":{"Q1":"No.","Q2":"Based on the four features of the bee.","Q3":"You do not learn if it was friendly or dangerous, and do not alter your bonus."},"question_order":[0,1,2],"trial_type":"survey-multi-choice","trial_index":9,"time_elapsed":148037,"internal_node_id":"0.0-3.0-4.0-2.0","subject_id":"6108906e81224a2bfa9d6c7b","study_id":"6197b3f67c2b5cd3b6d9596a","session_id":"619be32194130053b19d4fb8","condition":"contingent","relevant_dimensions":["pattern","legs"],"bee_group":{"antennae":"X","wings":"X","pattern":"S","legs":"F"},"correct":true,"bonus":0.5000000000000009},{"rt":1894.300000011921,"stimulus":"<p>Congrats, you got everything right<br>When you're ready, click the button below to continue to the experiment.</p>","response":0,"trial_type":"html-button-response","trial_index":10,"time_elapsed":149933,"internal_node_id":"0.0-3.0-4.0-3.0","subject_id":"6108906e81224a2bfa9d6c7b","study_id":"6197b3f67c2b5cd3b6d9596a","session_id":"619be32194130053b19d4fb8","condition":"contingent","relevant_dimensions":["pattern","legs"],"bee_group":{"antennae":"X","wings":"X","pattern":"S","legs":"F"},"bonus":0.5000000000000009},{"rt":4197.5,"stimulus":"bees-with-color/bee-B1SM.svg","response":0,"trial_type":"image-button-response","trial_index":11,"time_elapsed":154134,"internal_node_id":"0.0-4.0-0.0","subject_id":"6108906e81224a2bfa9d6c7b","study_id":"6197b3f67c2b5cd3b6d9596a","session_id":"619be32194130053b19d4fb8","condition":"contingent","relevant_dimensions":["pattern","legs"],"bee_group":{"antennae":"X","wings":"X","pattern":"S","legs":"F"},"action":"harvest","summary":"good-harvest","bonus":0.5000000000000009},{"rt":4372.600000023842,"stimulus":"\n                    <p><b>Action: <em>harvest</em></b></p>\n                    <p>This is the bee that you just saw.</p>\n                    <img src=\"bees-with-color/bee-B1SM.svg\" width=\"200\">\n                    <p><span class=\"greenText\"><b>Successful harvest!</b></span><br>Your pay has increased by $0.02. Your bonus pay is now $0.56.</p>\n            ","response":0,"trial_type":"html-button-response","trial_index":12,"time_elapsed":158509,"internal_node_id":"0.0-4.0-1.0","subject_id":"6108906e81224a2bfa9d6c7b","study_id":"6197b3f67c2b5cd3b6d9596a","session_id":"619be32194130053b19d4fb8","condition":"contingent","relevant_dimensions":["pattern","legs"],"bee_group":{"antennae":"X","wings":"X","pattern":"S","legs":"F"},"bonus":0.5000000000000009},{"rt":1949.8999999761581,"stimulus":"bees-with-color/bee-A1DM.svg","response":0,"trial_type":"image-button-response","trial_index":13,"time_elapsed":160461,"internal_node_id":"0.0-4.0-0.1","subject_id":"6108906e81224a2bfa9d6c7b","study_id":"6197b3f67c2b5cd3b6d9596a","session_id":"619be32194130053b19d4fb8","condition":"contingent","relevant_dimensions":["pattern","legs"],"bee_group":{"antennae":"X","wings":"X","pattern":"S","legs":"F"},"action":"harvest","summary":"good-harvest","bonus":0.5000000000000009},{"rt":1438.699999988079,"stimulus":"\n                    <p><b>Action: <em>harvest</em></b></p>\n                    <p>This is the bee that you just saw.</p>\n                    <img src=\"bees-with-color/bee-A1DM.svg\" width=\"200\">\n                    <p><span class=\"greenText\"><b>Successful harvest!</b></span><br>Your pay has increased by $0.02. Your bonus pay is now $0.58.</p>\n            ","response":0,"trial_type":"html-button-response","trial_index":14,"time_elapsed":161901,"internal_node_id":"0.0-4.0-1.1","subject_id":"6108906e81224a2bfa9d6c7b","study_id":"6197b3f67c2b5cd3b6d9596a","session_id":"619be32194130053b19d4fb8","condition":"contingent","relevant_dimensions":["pattern","legs"],"bee_group":{"antennae":"X","wings":"X","pattern":"S","legs":"F"},"bonus":0.5000000000000009},{"rt":1605.7999999523163,"stimulus":"bees-with-color/bee-B2SF.svg","response":0,"trial_type":"image-button-response","trial_index":15,"time_elapsed":163509,"internal_node_id":"0.0-4.0-0.2","subject_id":"6108906e81224a2bfa9d6c7b","study_id":"6197b3f67c2b5cd3b6d9596a","session_id":"619be32194130053b19d4fb8","condition":"contingent","relevant_dimensions":["pattern","legs"],"bee_group":{"antennae":"X","wings":"X","pattern":"S","legs":"F"},"action":"harvest","summary":"bad-harvest","bonus":0.5000000000000009},{"rt":2174.7000000476837,"stimulus":"\n                    <p><b>Action: <em>harvest</em></b></p>\n                    <p>This is the bee that you just saw.</p>\n                    <img src=\"bees-with-color/bee-B2SF.svg\" width=\"200\">\n                    <p><span class=\"redText\">Bad choice, the bee was angry.</span><br><b>You have been stung!</b><br>Your pay has been decreased by $0.10. Your bonus pay is now $0.48.</p>\n            ","response":0,"trial_type":"html-button-response","trial_index":16,"time_elapsed":165685,"internal_node_id":"0.0-4.0-1.2","subject_id":"6108906e81224a2bfa9d6c7b","study_id":"6197b3f67c2b5cd3b6d9596a","session_id":"619be32194130053b19d4fb8","condition":"contingent","relevant_dimensions":["pattern","legs"],"bee_group":{"antennae":"X","wings":"X","pattern":"S","legs":"F"},"bonus":0.5000000000000009},{"rt":1094.1000000238419,"stimulus":"bees-with-color/bee-A1SM.svg","response":0,"trial_type":"image-button-response","trial_index":17,"time_elapsed":166781,"internal_node_id":"0.0-4.0-0.3","subject_id":"6108906e81224a2bfa9d6c7b","study_id":"6197b3f67c2b5cd3b6d9596a","session_id":"619be32194130053b19d4fb8","condition":"contingent","relevant_dimensions":["pattern","legs"],"bee_group":{"antennae":"X","wings":"X","pattern":"S","legs":"F"},"action":"harvest","summary":"good-harvest","bonus":0.5000000000000009},{"rt":1622.3999999761581,"stimulus":"\n                    <p><b>Action: <em>harvest</em></b></p>\n                    <p>This is the bee that you just saw.</p>\n                    <img src=\"bees-with-color/bee-A1SM.svg\" width=\"200\">\n                    <p><span class=\"greenText\"><b>Successful harvest!</b></span><br>Your pay has increased by $0.02. Your bonus pay is now $0.50.</p>\n            ","response":0,"trial_type":"html-button-response","trial_index":18,"time_elapsed":168405,"internal_node_id":"0.0-4.0-1.3","subject_id":"6108906e81224a2bfa9d6c7b","study_id":"6197b3f67c2b5cd3b6d9596a","session_id":"619be32194130053b19d4fb8","condition":"contingent","relevant_dimensions":["pattern","legs"],"bee_group":{"antennae":"X","wings":"X","pattern":"S","legs":"F"},"bonus":0.5000000000000009},{"rt":1366.3999999761581,"stimulus":"bees-with-color/bee-A2DM.svg","response":1,"trial_type":"image-button-response","trial_index":19,"time_elapsed":169773,"internal_node_id":"0.0-4.0-0.4","subject_id":"6108906e81224a2bfa9d6c7b","study_id":"6197b3f67c2b5cd3b6d9596a","session_id":"619be32194130053b19d4fb8","condition":"contingent","relevant_dimensions":["pattern","legs"],"bee_group":{"antennae":"X","wings":"X","pattern":"S","legs":"F"},"action":"avoid","summary":"bad-avoid","bonus":0.5000000000000009},{"rt":1598.2999999523163,"stimulus":"\n                    <p><b>Action: <em>avoid</em></b></p>\n                    <p>This is the bee that you just saw.</p>\n                    <img src=\"bees-with-color/bee-A2DM.svg\" width=\"200\">\n                    <p><br>Your bonus pay is unchanged, and remains at $0.50.</p>\n            ","response":0,"trial_type":"html-button-response","trial_index":20,"time_elapsed":171373,"internal_node_id":"0.0-4.0-1.4","subject_id":"6108906e81224a2bfa9d6c7b","study_id":"6197b3f67c2b5cd3b6d9596a","session_id":"619be32194130053b19d4fb8","condition":"contingent","relevant_dimensions":["pattern","legs"],"bee_group":{"antennae":"X","wings":"X","pattern":"S","legs":"F"},"bonus":0.5000000000000009},{"rt":1678.3999999761581,"stimulus":"bees-with-color/bee-A2SM.svg","response":0,"trial_type":"image-button-response","trial_index":21,"time_elapsed":173052,"internal_node_id":"0.0-4.0-0.5","subject_id":"6108906e81224a2bfa9d6c7b","study_id":"6197b3f67c2b5cd3b6d9596a","session_id":"619be32194130053b19d4fb8","condition":"contingent","relevant_dimensions":["pattern","legs"],"bee_group":{"antennae":"X","wings":"X","pattern":"S","legs":"F"},"action":"harvest","summary":"good-harvest","bonus":0.5000000000000009},{"rt":1238.3999999761581,"stimulus":"\n                    <p><b>Action: <em>harvest</em></b></p>\n                    <p>This is the bee that you just saw.</p>\n                    <img src=\"bees-with-color/bee-A2SM.svg\" width=\"200\">\n                    <p><span class=\"greenText\"><b>Successful harvest!</b></span><br>Your pay has increased by $0.02. Your bonus pay is now $0.52.</p>\n            ","response":0,"trial_type":"html-button-response","trial_index":22,"time_elapsed":174292,"internal_node_id":"0.0-4.0-1.5","subject_id":"6108906e81224a2bfa9d6c7b","study_id":"6197b3f67c2b5cd3b6d9596a","session_id":"619be32194130053b19d4fb8","condition":"contingent","relevant_dimensions":["pattern","legs"],"bee_group":{"antennae":"X","wings":"X","pattern":"S","legs":"F"},"bonus":0.5000000000000009},{"rt":1189.8999999761581,"stimulus":"bees-with-color/bee-B1SF.svg","response":1,"trial_type":"image-button-response","trial_index":23,"time_elapsed":175485,"internal_node_id":"0.0-4.0-0.6","subject_id":"6108906e81224a2bfa9d6c7b","study_id":"6197b3f67c2b5cd3b6d9596a","session_id":"619be32194130053b19d4fb8","condition":"contingent","relevant_dimensions":["pattern","legs"],"bee_group":{"antennae":"X","wings":"X","pattern":"S","legs":"F"},"action":"avoid","summary":"good-avoid","bonus":0.5000000000000009},{"rt":893.8999999761581,"stimulus":"\n                    <p><b>Action: <em>avoid</em></b></p>\n                    <p>This is the bee that you just saw.</p>\n                    <img src=\"bees-with-color/bee-B1SF.svg\" width=\"200\">\n                    <p><br>Your bonus pay is unchanged, and remains at $0.52.</p>\n            ","response":0,"trial_type":"html-button-response","trial_index":24,"time_elapsed":176380,"internal_node_id":"0.0-4.0-1.6","subject_id":"6108906e81224a2bfa9d6c7b","study_id":"6197b3f67c2b5cd3b6d9596a","session_id":"619be32194130053b19d4fb8","condition":"contingent","relevant_dimensions":["pattern","legs"],"bee_group":{"antennae":"X","wings":"X","pattern":"S","legs":"F"},"bonus":0.5000000000000009},{"rt":1278.0999999642372,"stimulus":"bees-with-color/bee-A1DF.svg","response":1,"trial_type":"image-button-response","trial_index":25,"time_elapsed":177660,"internal_node_id":"0.0-4.0-0.7","subject_id":"6108906e81224a2bfa9d6c7b","study_id":"6197b3f67c2b5cd3b6d9596a","session_id":"619be32194130053b19d4fb8","condition":"contingent","relevant_dimensions":["pattern","legs"],"bee_group":{"antennae":"X","wings":"X","pattern":"S","legs":"F"},"action":"avoid","summary":"bad-avoid","bonus":0.5000000000000009},{"rt":750.1999999880791,"stimulus":"\n                    <p><b>Action: <em>avoid</em></b></p>\n                    <p>This is the bee that you just saw.</p>\n                    <img src=\"bees-with-color/bee-A1DF.svg\" width=\"200\">\n                    <p><br>Your bonus pay is unchanged, and remains at $0.52.</p>\n            ","response":0,"trial_type":"html-button-response","trial_index":26,"time_elapsed":178412,"internal_node_id":"0.0-4.0-1.7","subject_id":"6108906e81224a2bfa9d6c7b","study_id":"6197b3f67c2b5cd3b6d9596a","session_id":"619be32194130053b19d4fb8","condition":"contingent","relevant_dimensions":["pattern","legs"],"bee_group":{"antennae":"X","wings":"X","pattern":"S","legs":"F"},"bonus":0.5000000000000009},{"rt":1126.5999999642372,"stimulus":"bees-with-color/bee-B2DF.svg","response":1,"trial_type":"image-button-response","trial_index":27,"time_elapsed":179540,"internal_node_id":"0.0-4.0-0.8","subject_id":"6108906e81224a2bfa9d6c7b","study_id":"6197b3f67c2b5cd3b6d9596a","session_id":"619be32194130053b19d4fb8","condition":"contingent","relevant_dimensions":["pattern","legs"],"bee_group":{"antennae":"X","wings":"X","pattern":"S","legs":"F"},"action":"avoid","summary":"bad-avoid","bonus":0.5000000000000009},{"rt":438,"stimulus":"\n                    <p><b>Action: <em>avoid</em></b></p>\n                    <p>This is the bee that you just saw.</p>\n                    <img src=\"bees-with-color/bee-B2DF.svg\" width=\"200\">\n                    <p><br>Your bonus pay is unchanged, and remains at $0.52.</p>\n            ","response":0,"trial_type":"html-button-response","trial_index":28,"time_elapsed":179981,"internal_node_id":"0.0-4.0-1.8","subject_id":"6108906e81224a2bfa9d6c7b","study_id":"6197b3f67c2b5cd3b6d9596a","session_id":"619be32194130053b19d4fb8","condition":"contingent","relevant_dimensions":["pattern","legs"],"bee_group":{"antennae":"X","wings":"X","pattern":"S","legs":"F"},"bonus":0.5000000000000009},{"rt":973.7999999523163,"stimulus":"bees-with-color/bee-B1DM.svg","response":0,"trial_type":"image-button-response","trial_index":29,"time_elapsed":180956,"internal_node_id":"0.0-4.0-0.9","subject_id":"6108906e81224a2bfa9d6c7b","study_id":"6197b3f67c2b5cd3b6d9596a","session_id":"619be32194130053b19d4fb8","condition":"contingent","relevant_dimensions":["pattern","legs"],"bee_group":{"antennae":"X","wings":"X","pattern":"S","legs":"F"},"action":"harvest","summary":"good-harvest","bonus":0.5000000000000009},{"rt":798.3000000119209,"stimulus":"\n                    <p><b>Action: <em>harvest</em></b></p>\n                    <p>This is the bee that you just saw.</p>\n                    <img src=\"bees-with-color/bee-B1DM.svg\" width=\"200\">\n                    <p><span class=\"greenText\"><b>Successful harvest!</b></span><br>Your pay has increased by $0.02. Your bonus pay is now $0.54.</p>\n            ","response":0,"trial_type":"html-button-response","trial_index":30,"time_elapsed":181756,"internal_node_id":"0.0-4.0-1.9","subject_id":"6108906e81224a2bfa9d6c7b","study_id":"6197b3f67c2b5cd3b6d9596a","session_id":"619be32194130053b19d4fb8","condition":"contingent","relevant_dimensions":["pattern","legs"],"bee_group":{"antennae":"X","wings":"X","pattern":"S","legs":"F"},"bonus":0.5000000000000009},{"rt":982.1999999880791,"stimulus":"bees-with-color/bee-B2SM.svg","response":0,"trial_type":"image-button-response","trial_index":31,"time_elapsed":182740,"internal_node_id":"0.0-4.0-0.10","subject_id":"6108906e81224a2bfa9d6c7b","study_id":"6197b3f67c2b5cd3b6d9596a","session_id":"619be32194130053b19d4fb8","condition":"contingent","relevant_dimensions":["pattern","legs"],"bee_group":{"antennae":"X","wings":"X","pattern":"S","legs":"F"},"action":"harvest","summary":"good-harvest","bonus":0.5000000000000009},{"rt":2998,"stimulus":"\n                    <p><b>Action: <em>harvest</em></b></p>\n                    <p>This is the bee that you just saw.</p>\n                    <img src=\"bees-with-color/bee-B2SM.svg\" width=\"200\">\n                    <p><span class=\"greenText\"><b>Successful harvest!</b></span><br>Your pay has increased by $0.02. Your bonus pay is now $0.56.</p>\n            ","response":0,"trial_type":"html-button-response","trial_index":32,"time_elapsed":185740,"internal_node_id":"0.0-4.0-1.10","subject_id":"6108906e81224a2bfa9d6c7b","study_id":"6197b3f67c2b5cd3b6d9596a","session_id":"619be32194130053b19d4fb8","condition":"contingent","relevant_dimensions":["pattern","legs"],"bee_group":{"antennae":"X","wings":"X","pattern":"S","legs":"F"},"bonus":0.5000000000000009},{"rt":1030.0999999642372,"stimulus":"bees-with-color/bee-A1SF.svg","response":1,"trial_type":"image-button-response","trial_index":33,"time_elapsed":186773,"internal_node_id":"0.0-4.0-0.11","subject_id":"6108906e81224a2bfa9d6c7b","study_id":"6197b3f67c2b5cd3b6d9596a","session_id":"619be32194130053b19d4fb8","condition":"contingent","relevant_dimensions":["pattern","legs"],"bee_group":{"antennae":"X","wings":"X","pattern":"S","legs":"F"},"action":"avoid","summary":"good-avoid","bonus":0.5000000000000009},{"rt":821.8000000119209,"stimulus":"\n                    <p><b>Action: <em>avoid</em></b></p>\n                    <p>This is the bee that you just saw.</p>\n                    <img src=\"bees-with-color/bee-A1SF.svg\" width=\"200\">\n                    <p><br>Your bonus pay is unchanged, and remains at $0.56.</p>\n            ","response":0,"trial_type":"html-button-response","trial_index":34,"time_elapsed":187596,"internal_node_id":"0.0-4.0-1.11","subject_id":"6108906e81224a2bfa9d6c7b","study_id":"6197b3f67c2b5cd3b6d9596a","session_id":"619be32194130053b19d4fb8","condition":"contingent","relevant_dimensions":["pattern","legs"],"bee_group":{"antennae":"X","wings":"X","pattern":"S","legs":"F"},"bonus":0.5000000000000009},{"rt":966.1000000238419,"stimulus":"bees-with-color/bee-B1DF.svg","response":1,"trial_type":"image-button-response","trial_index":35,"time_elapsed":188564,"internal_node_id":"0.0-4.0-0.12","subject_id":"6108906e81224a2bfa9d6c7b","study_id":"6197b3f67c2b5cd3b6d9596a","session_id":"619be32194130053b19d4fb8","condition":"contingent","relevant_dimensions":["pattern","legs"],"bee_group":{"antennae":"X","wings":"X","pattern":"S","legs":"F"},"action":"avoid","summary":"bad-avoid","bonus":0.5000000000000009},{"rt":1886.199999988079,"stimulus":"\n                    <p><b>Action: <em>avoid</em></b></p>\n                    <p>This is the bee that you just saw.</p>\n                    <img src=\"bees-with-color/bee-B1DF.svg\" width=\"200\">\n                    <p><br>Your bonus pay is unchanged, and remains at $0.56.</p>\n            ","response":0,"trial_type":"html-button-response","trial_index":36,"time_elapsed":190452,"internal_node_id":"0.0-4.0-1.12","subject_id":"6108906e81224a2bfa9d6c7b","study_id":"6197b3f67c2b5cd3b6d9596a","session_id":"619be32194130053b19d4fb8","condition":"contingent","relevant_dimensions":["pattern","legs"],"bee_group":{"antennae":"X","wings":"X","pattern":"S","legs":"F"},"bonus":0.5000000000000009},{"rt":1534.199999988079,"stimulus":"bees-with-color/bee-A2DF.svg","response":1,"trial_type":"image-button-response","trial_index":37,"time_elapsed":191989,"internal_node_id":"0.0-4.0-0.13","subject_id":"6108906e81224a2bfa9d6c7b","study_id":"6197b3f67c2b5cd3b6d9596a","session_id":"619be32194130053b19d4fb8","condition":"contingent","relevant_dimensions":["pattern","legs"],"bee_group":{"antennae":"X","wings":"X","pattern":"S","legs":"F"},"action":"avoid","summary":"bad-avoid","bonus":0.5000000000000009},{"rt":590,"stimulus":"\n                    <p><b>Action: <em>avoid</em></b></p>\n                    <p>This is the bee that you just saw.</p>\n                    <img src=\"bees-with-color/bee-A2DF.svg\" width=\"200\">\n                    <p><br>Your bonus pay is unchanged, and remains at $0.56.</p>\n            ","response":0,"trial_type":"html-button-response","trial_index":38,"time_elapsed":192580,"internal_node_id":"0.0-4.0-1.13","subject_id":"6108906e81224a2bfa9d6c7b","study_id":"6197b3f67c2b5cd3b6d9596a","session_id":"619be32194130053b19d4fb8","condition":"contingent","relevant_dimensions":["pattern","legs"],"bee_group":{"antennae":"X","wings":"X","pattern":"S","legs":"F"},"bonus":0.5000000000000009},{"rt":870.1999999880791,"stimulus":"bees-with-color/bee-A2SF.svg","response":0,"trial_type":"image-button-response","trial_index":39,"time_elapsed":193452,"internal_node_id":"0.0-4.0-0.14","subject_id":"6108906e81224a2bfa9d6c7b","study_id":"6197b3f67c2b5cd3b6d9596a","session_id":"619be32194130053b19d4fb8","condition":"contingent","relevant_dimensions":["pattern","legs"],"bee_group":{"antennae":"X","wings":"X","pattern":"S","legs":"F"},"action":"harvest","summary":"bad-harvest","bonus":0.5000000000000009},{"rt":910,"stimulus":"\n                    <p><b>Action: <em>harvest</em></b></p>\n                    <p>This is the bee that you just saw.</p>\n                    <img src=\"bees-with-color/bee-A2SF.svg\" width=\"200\">\n                    <p><span class=\"redText\">Bad choice, the bee was angry.</span><br><b>You have been stung!</b><br>Your pay has been decreased by $0.10. Your bonus pay is now $0.46.</p>\n            ","response":0,"trial_type":"html-button-response","trial_index":40,"time_elapsed":194364,"internal_node_id":"0.0-4.0-1.14","subject_id":"6108906e81224a2bfa9d6c7b","study_id":"6197b3f67c2b5cd3b6d9596a","session_id":"619be32194130053b19d4fb8","condition":"contingent","relevant_dimensions":["pattern","legs"],"bee_group":{"antennae":"X","wings":"X","pattern":"S","legs":"F"},"bonus":0.5000000000000009},{"rt":1166.5999999642372,"stimulus":"bees-with-color/bee-B2DM.svg","response":0,"trial_type":"image-button-response","trial_index":41,"time_elapsed":195532,"internal_node_id":"0.0-4.0-0.15","subject_id":"6108906e81224a2bfa9d6c7b","study_id":"6197b3f67c2b5cd3b6d9596a","session_id":"619be32194130053b19d4fb8","condition":"contingent","relevant_dimensions":["pattern","legs"],"bee_group":{"antennae":"X","wings":"X","pattern":"S","legs":"F"},"action":"harvest","summary":"good-harvest","bonus":0.5000000000000009},{"rt":726.6999999880791,"stimulus":"\n                    <p><b>Action: <em>harvest</em></b></p>\n                    <p>This is the bee that you just saw.</p>\n                    <img src=\"bees-with-color/bee-B2DM.svg\" width=\"200\">\n                    <p><span class=\"greenText\"><b>Successful harvest!</b></span><br>Your pay has increased by $0.02. Your bonus pay is now $0.48.</p>\n            ","response":0,"trial_type":"html-button-response","trial_index":42,"time_elapsed":196260,"internal_node_id":"0.0-4.0-1.15","subject_id":"6108906e81224a2bfa9d6c7b","study_id":"6197b3f67c2b5cd3b6d9596a","session_id":"619be32194130053b19d4fb8","condition":"contingent","relevant_dimensions":["pattern","legs"],"bee_group":{"antennae":"X","wings":"X","pattern":"S","legs":"F"},"bonus":0.5000000000000009},{"rt":1174.699999988079,"stimulus":"bees-with-color/bee-B2DF.svg","response":1,"trial_type":"image-button-response","trial_index":43,"time_elapsed":197436,"internal_node_id":"0.0-4.0-0.16","subject_id":"6108906e81224a2bfa9d6c7b","study_id":"6197b3f67c2b5cd3b6d9596a","session_id":"619be32194130053b19d4fb8","condition":"contingent","relevant_dimensions":["pattern","legs"],"bee_group":{"antennae":"X","wings":"X","pattern":"S","legs":"F"},"action":"avoid","summary":"bad-avoid","bonus":0.5000000000000009},{"rt":662.3999999761581,"stimulus":"\n                    <p><b>Action: <em>avoid</em></b></p>\n                    <p>This is the bee that you just saw.</p>\n                    <img src=\"bees-with-color/bee-B2DF.svg\" width=\"200\">\n                    <p><br>Your bonus pay is unchanged, and remains at $0.48.</p>\n            ","response":0,"trial_type":"html-button-response","trial_index":44,"time_elapsed":198100,"internal_node_id":"0.0-4.0-1.16","subject_id":"6108906e81224a2bfa9d6c7b","study_id":"6197b3f67c2b5cd3b6d9596a","session_id":"619be32194130053b19d4fb8","condition":"contingent","relevant_dimensions":["pattern","legs"],"bee_group":{"antennae":"X","wings":"X","pattern":"S","legs":"F"},"bonus":0.5000000000000009},{"rt":878.8000000119209,"stimulus":"bees-with-color/bee-A2DF.svg","response":0,"trial_type":"image-button-response","trial_index":45,"time_elapsed":198980,"internal_node_id":"0.0-4.0-0.17","subject_id":"6108906e81224a2bfa9d6c7b","study_id":"6197b3f67c2b5cd3b6d9596a","session_id":"619be32194130053b19d4fb8","condition":"contingent","relevant_dimensions":["pattern","legs"],"bee_group":{"antennae":"X","wings":"X","pattern":"S","legs":"F"},"action":"harvest","summary":"good-harvest","bonus":0.5000000000000009},{"rt":726.6999999880791,"stimulus":"\n                    <p><b>Action: <em>harvest</em></b></p>\n                    <p>This is the bee that you just saw.</p>\n                    <img src=\"bees-with-color/bee-A2DF.svg\" width=\"200\">\n                    <p><span class=\"greenText\"><b>Successful harvest!</b></span><br>Your pay has increased by $0.02. Your bonus pay is now $0.50.</p>\n            ","response":0,"trial_type":"html-button-response","trial_index":46,"time_elapsed":199708,"internal_node_id":"0.0-4.0-1.17","subject_id":"6108906e81224a2bfa9d6c7b","study_id":"6197b3f67c2b5cd3b6d9596a","session_id":"619be32194130053b19d4fb8","condition":"contingent","relevant_dimensions":["pattern","legs"],"bee_group":{"antennae":"X","wings":"X","pattern":"S","legs":"F"},"bonus":0.5000000000000009},{"rt":1734.5,"stimulus":"bees-with-color/bee-A2SF.svg","response":0,"trial_type":"image-button-response","trial_index":47,"time_elapsed":201444,"internal_node_id":"0.0-4.0-0.18","subject_id":"6108906e81224a2bfa9d6c7b","study_id":"6197b3f67c2b5cd3b6d9596a","session_id":"619be32194130053b19d4fb8","condition":"contingent","relevant_dimensions":["pattern","legs"],"bee_group":{"antennae":"X","wings":"X","pattern":"S","legs":"F"},"action":"harvest","summary":"bad-harvest","bonus":0.5000000000000009},{"rt":926.6000000238419,"stimulus":"\n                    <p><b>Action: <em>harvest</em></b></p>\n                    <p>This is the bee that you just saw.</p>\n                    <img src=\"bees-with-color/bee-A2SF.svg\" width=\"200\">\n                    <p><span class=\"redText\">Bad choice, the bee was angry.</span><br><b>You have been stung!</b><br>Your pay has been decreased by $0.10. Your bonus pay is now $0.40.</p>\n            ","response":0,"trial_type":"html-button-response","trial_index":48,"time_elapsed":202372,"internal_node_id":"0.0-4.0-1.18","subject_id":"6108906e81224a2bfa9d6c7b","study_id":"6197b3f67c2b5cd3b6d9596a","session_id":"619be32194130053b19d4fb8","condition":"contingent","relevant_dimensions":["pattern","legs"],"bee_group":{"antennae":"X","wings":"X","pattern":"S","legs":"F"},"bonus":0.5000000000000009},{"rt":1366.5,"stimulus":"bees-with-color/bee-B2SM.svg","response":1,"trial_type":"image-button-response","trial_index":49,"time_elapsed":203740,"internal_node_id":"0.0-4.0-0.19","subject_id":"6108906e81224a2bfa9d6c7b","study_id":"6197b3f67c2b5cd3b6d9596a","session_id":"619be32194130053b19d4fb8","condition":"contingent","relevant_dimensions":["pattern","legs"],"bee_group":{"antennae":"X","wings":"X","pattern":"S","legs":"F"},"action":"avoid","summary":"bad-avoid","bonus":0.5000000000000009},{"rt":990.8000000119209,"stimulus":"\n                    <p><b>Action: <em>avoid</em></b></p>\n                    <p>This is the bee that you just saw.</p>\n                    <img src=\"bees-with-color/bee-B2SM.svg\" width=\"200\">\n                    <p><br>Your bonus pay is unchanged, and remains at $0.40.</p>\n            ","response":0,"trial_type":"html-button-response","trial_index":50,"time_elapsed":204732,"internal_node_id":"0.0-4.0-1.19","subject_id":"6108906e81224a2bfa9d6c7b","study_id":"6197b3f67c2b5cd3b6d9596a","session_id":"619be32194130053b19d4fb8","condition":"contingent","relevant_dimensions":["pattern","legs"],"bee_group":{"antennae":"X","wings":"X","pattern":"S","legs":"F"},"bonus":0.5000000000000009},{"rt":1510.6000000238419,"stimulus":"bees-with-color/bee-B1DM.svg","response":0,"trial_type":"image-button-response","trial_index":51,"time_elapsed":206244,"internal_node_id":"0.0-4.0-0.20","subject_id":"6108906e81224a2bfa9d6c7b","study_id":"6197b3f67c2b5cd3b6d9596a","session_id":"619be32194130053b19d4fb8","condition":"contingent","relevant_dimensions":["pattern","legs"],"bee_group":{"antennae":"X","wings":"X","pattern":"S","legs":"F"},"action":"harvest","summary":"good-harvest","bonus":0.5000000000000009},{"rt":1871.300000011921,"stimulus":"\n                    <p><b>Action: <em>harvest</em></b></p>\n                    <p>This is the bee that you just saw.</p>\n                    <img src=\"bees-with-color/bee-B1DM.svg\" width=\"200\">\n                    <p><span class=\"greenText\"><b>Successful harvest!</b></span><br>Your pay has increased by $0.02. Your bonus pay is now $0.42.</p>\n            ","response":0,"trial_type":"html-button-response","trial_index":52,"time_elapsed":208117,"internal_node_id":"0.0-4.0-1.20","subject_id":"6108906e81224a2bfa9d6c7b","study_id":"6197b3f67c2b5cd3b6d9596a","session_id":"619be32194130053b19d4fb8","condition":"contingent","relevant_dimensions":["pattern","legs"],"bee_group":{"antennae":"X","wings":"X","pattern":"S","legs":"F"},"bonus":0.5000000000000009},{"rt":933.1000000238419,"stimulus":"bees-with-color/bee-A1DM.svg","response":0,"trial_type":"image-button-response","trial_index":53,"time_elapsed":209052,"internal_node_id":"0.0-4.0-0.21","subject_id":"6108906e81224a2bfa9d6c7b","study_id":"6197b3f67c2b5cd3b6d9596a","session_id":"619be32194130053b19d4fb8","condition":"contingent","relevant_dimensions":["pattern","legs"],"bee_group":{"antennae":"X","wings":"X","pattern":"S","legs":"F"},"action":"harvest","summary":"good-harvest","bonus":0.5000000000000009},{"rt":822.7000000476837,"stimulus":"\n                    <p><b>Action: <em>harvest</em></b></p>\n                    <p>This is the bee that you just saw.</p>\n                    <img src=\"bees-with-color/bee-A1DM.svg\" width=\"200\">\n                    <p><span class=\"greenText\"><b>Successful harvest!</b></span><br>Your pay has increased by $0.02. Your bonus pay is now $0.44.</p>\n            ","response":0,"trial_type":"html-button-response","trial_index":54,"time_elapsed":209876,"internal_node_id":"0.0-4.0-1.21","subject_id":"6108906e81224a2bfa9d6c7b","study_id":"6197b3f67c2b5cd3b6d9596a","session_id":"619be32194130053b19d4fb8","condition":"contingent","relevant_dimensions":["pattern","legs"],"bee_group":{"antennae":"X","wings":"X","pattern":"S","legs":"F"},"bonus":0.5000000000000009},{"rt":1046.5,"stimulus":"bees-with-color/bee-B2SF.svg","response":1,"trial_type":"image-button-response","trial_index":55,"time_elapsed":210924,"internal_node_id":"0.0-4.0-0.22","subject_id":"6108906e81224a2bfa9d6c7b","study_id":"6197b3f67c2b5cd3b6d9596a","session_id":"619be32194130053b19d4fb8","condition":"contingent","relevant_dimensions":["pattern","legs"],"bee_group":{"antennae":"X","wings":"X","pattern":"S","legs":"F"},"action":"avoid","summary":"good-avoid","bonus":0.5000000000000009},{"rt":502.5,"stimulus":"\n                    <p><b>Action: <em>avoid</em></b></p>\n                    <p>This is the bee that you just saw.</p>\n                    <img src=\"bees-with-color/bee-B2SF.svg\" width=\"200\">\n                    <p><br>Your bonus pay is unchanged, and remains at $0.44.</p>\n            ","response":0,"trial_type":"html-button-response","trial_index":56,"time_elapsed":211428,"internal_node_id":"0.0-4.0-1.22","subject_id":"6108906e81224a2bfa9d6c7b","study_id":"6197b3f67c2b5cd3b6d9596a","session_id":"619be32194130053b19d4fb8","condition":"contingent","relevant_dimensions":["pattern","legs"],"bee_group":{"antennae":"X","wings":"X","pattern":"S","legs":"F"},"bonus":0.5000000000000009},{"rt":1238.699999988079,"stimulus":"bees-with-color/bee-B1DF.svg","response":0,"trial_type":"image-button-response","trial_index":57,"time_elapsed":212668,"internal_node_id":"0.0-4.0-0.23","subject_id":"6108906e81224a2bfa9d6c7b","study_id":"6197b3f67c2b5cd3b6d9596a","session_id":"619be32194130053b19d4fb8","condition":"contingent","relevant_dimensions":["pattern","legs"],"bee_group":{"antennae":"X","wings":"X","pattern":"S","legs":"F"},"action":"harvest","summary":"good-harvest","bonus":0.5000000000000009},{"rt":766.8000000119209,"stimulus":"\n                    <p><b>Action: <em>harvest</em></b></p>\n                    <p>This is the bee that you just saw.</p>\n                    <img src=\"bees-with-color/bee-B1DF.svg\" width=\"200\">\n                    <p><span class=\"greenText\"><b>Successful harvest!</b></span><br>Your pay has increased by $0.02. Your bonus pay is now $0.46.</p>\n            ","response":0,"trial_type":"html-button-response","trial_index":58,"time_elapsed":213436,"internal_node_id":"0.0-4.0-1.23","subject_id":"6108906e81224a2bfa9d6c7b","study_id":"6197b3f67c2b5cd3b6d9596a","session_id":"619be32194130053b19d4fb8","condition":"contingent","relevant_dimensions":["pattern","legs"],"bee_group":{"antennae":"X","wings":"X","pattern":"S","legs":"F"},"bonus":0.5000000000000009},{"rt":814.1000000238419,"stimulus":"bees-with-color/bee-A1DF.svg","response":0,"trial_type":"image-button-response","trial_index":59,"time_elapsed":214252,"internal_node_id":"0.0-4.0-0.24","subject_id":"6108906e81224a2bfa9d6c7b","study_id":"6197b3f67c2b5cd3b6d9596a","session_id":"619be32194130053b19d4fb8","condition":"contingent","relevant_dimensions":["pattern","legs"],"bee_group":{"antennae":"X","wings":"X","pattern":"S","legs":"F"},"action":"harvest","summary":"good-harvest","bonus":0.5000000000000009},{"rt":718.3000000119209,"stimulus":"\n                    <p><b>Action: <em>harvest</em></b></p>\n                    <p>This is the bee that you just saw.</p>\n                    <img src=\"bees-with-color/bee-A1DF.svg\" width=\"200\">\n                    <p><span class=\"greenText\"><b>Successful harvest!</b></span><br>Your pay has increased by $0.02. Your bonus pay is now $0.48.</p>\n            ","response":0,"trial_type":"html-button-response","trial_index":60,"time_elapsed":214972,"internal_node_id":"0.0-4.0-1.24","subject_id":"6108906e81224a2bfa9d6c7b","study_id":"6197b3f67c2b5cd3b6d9596a","session_id":"619be32194130053b19d4fb8","condition":"contingent","relevant_dimensions":["pattern","legs"],"bee_group":{"antennae":"X","wings":"X","pattern":"S","legs":"F"},"bonus":0.5000000000000009},{"rt":966.8999999761581,"stimulus":"bees-with-color/bee-A2SM.svg","response":1,"trial_type":"image-button-response","trial_index":61,"time_elapsed":215940,"internal_node_id":"0.0-4.0-0.25","subject_id":"6108906e81224a2bfa9d6c7b","study_id":"6197b3f67c2b5cd3b6d9596a","session_id":"619be32194130053b19d4fb8","condition":"contingent","relevant_dimensions":["pattern","legs"],"bee_group":{"antennae":"X","wings":"X","pattern":"S","legs":"F"},"action":"avoid","summary":"bad-avoid","bonus":0.5000000000000009},{"rt":518.5,"stimulus":"\n                    <p><b>Action: <em>avoid</em></b></p>\n                    <p>This is the bee that you just saw.</p>\n                    <img src=\"bees-with-color/bee-A2SM.svg\" width=\"200\">\n                    <p><br>Your bonus pay is unchanged, and remains at $0.48.</p>\n            ","response":0,"trial_type":"html-button-response","trial_index":62,"time_elapsed":216460,"internal_node_id":"0.0-4.0-1.25","subject_id":"6108906e81224a2bfa9d6c7b","study_id":"6197b3f67c2b5cd3b6d9596a","session_id":"619be32194130053b19d4fb8","condition":"contingent","relevant_dimensions":["pattern","legs"],"bee_group":{"antennae":"X","wings":"X","pattern":"S","legs":"F"},"bonus":0.5000000000000009},{"rt":990.6999999880791,"stimulus":"bees-with-color/bee-A1SF.svg","response":1,"trial_type":"image-button-response","trial_index":63,"time_elapsed":217452,"internal_node_id":"0.0-4.0-0.26","subject_id":"6108906e81224a2bfa9d6c7b","study_id":"6197b3f67c2b5cd3b6d9596a","session_id":"619be32194130053b19d4fb8","condition":"contingent","relevant_dimensions":["pattern","legs"],"bee_group":{"antennae":"X","wings":"X","pattern":"S","legs":"F"},"action":"avoid","summary":"good-avoid","bonus":0.5000000000000009},{"rt":678.1000000238419,"stimulus":"\n                    <p><b>Action: <em>avoid</em></b></p>\n                    <p>This is the bee that you just saw.</p>\n                    <img src=\"bees-with-color/bee-A1SF.svg\" width=\"200\">\n                    <p><br>Your bonus pay is unchanged, and remains at $0.48.</p>\n            ","response":0,"trial_type":"html-button-response","trial_index":64,"time_elapsed":218132,"internal_node_id":"0.0-4.0-1.26","subject_id":"6108906e81224a2bfa9d6c7b","study_id":"6197b3f67c2b5cd3b6d9596a","session_id":"619be32194130053b19d4fb8","condition":"contingent","relevant_dimensions":["pattern","legs"],"bee_group":{"antennae":"X","wings":"X","pattern":"S","legs":"F"},"bonus":0.5000000000000009},{"rt":718.5999999642372,"stimulus":"bees-with-color/bee-B2DM.svg","response":0,"trial_type":"image-button-response","trial_index":65,"time_elapsed":218852,"internal_node_id":"0.0-4.0-0.27","subject_id":"6108906e81224a2bfa9d6c7b","study_id":"6197b3f67c2b5cd3b6d9596a","session_id":"619be32194130053b19d4fb8","condition":"contingent","relevant_dimensions":["pattern","legs"],"bee_group":{"antennae":"X","wings":"X","pattern":"S","legs":"F"},"action":"harvest","summary":"good-harvest","bonus":0.5000000000000009},{"rt":822.8000000119209,"stimulus":"\n                    <p><b>Action: <em>harvest</em></b></p>\n                    <p>This is the bee that you just saw.</p>\n                    <img src=\"bees-with-color/bee-B2DM.svg\" width=\"200\">\n                    <p><span class=\"greenText\"><b>Successful harvest!</b></span><br>Your pay has increased by $0.02. Your bonus pay is now $0.50.</p>\n            ","response":0,"trial_type":"html-button-response","trial_index":66,"time_elapsed":219676,"internal_node_id":"0.0-4.0-1.27","subject_id":"6108906e81224a2bfa9d6c7b","study_id":"6197b3f67c2b5cd3b6d9596a","session_id":"619be32194130053b19d4fb8","condition":"contingent","relevant_dimensions":["pattern","legs"],"bee_group":{"antennae":"X","wings":"X","pattern":"S","legs":"F"},"bonus":0.5000000000000009},{"rt":1270.300000011921,"stimulus":"bees-with-color/bee-B1SM.svg","response":0,"trial_type":"image-button-response","trial_index":67,"time_elapsed":220948,"internal_node_id":"0.0-4.0-0.28","subject_id":"6108906e81224a2bfa9d6c7b","study_id":"6197b3f67c2b5cd3b6d9596a","session_id":"619be32194130053b19d4fb8","condition":"contingent","relevant_dimensions":["pattern","legs"],"bee_group":{"antennae":"X","wings":"X","pattern":"S","legs":"F"},"action":"harvest","summary":"good-harvest","bonus":0.5000000000000009},{"rt":886.6999999880791,"stimulus":"\n                    <p><b>Action: <em>harvest</em></b></p>\n                    <p>This is the bee that you just saw.</p>\n                    <img src=\"bees-with-color/bee-B1SM.svg\" width=\"200\">\n                    <p><span class=\"greenText\"><b>Successful harvest!</b></span><br>Your pay has increased by $0.02. Your bonus pay is now $0.52.</p>\n            ","response":0,"trial_type":"html-button-response","trial_index":68,"time_elapsed":221837,"internal_node_id":"0.0-4.0-1.28","subject_id":"6108906e81224a2bfa9d6c7b","study_id":"6197b3f67c2b5cd3b6d9596a","session_id":"619be32194130053b19d4fb8","condition":"contingent","relevant_dimensions":["pattern","legs"],"bee_group":{"antennae":"X","wings":"X","pattern":"S","legs":"F"},"bonus":0.5000000000000009},{"rt":1021.6000000238419,"stimulus":"bees-with-color/bee-A1SM.svg","response":0,"trial_type":"image-button-response","trial_index":69,"time_elapsed":222860,"internal_node_id":"0.0-4.0-0.29","subject_id":"6108906e81224a2bfa9d6c7b","study_id":"6197b3f67c2b5cd3b6d9596a","session_id":"619be32194130053b19d4fb8","condition":"contingent","relevant_dimensions":["pattern","legs"],"bee_group":{"antennae":"X","wings":"X","pattern":"S","legs":"F"},"action":"harvest","summary":"good-harvest","bonus":0.5000000000000009},{"rt":766.2999999523163,"stimulus":"\n                    <p><b>Action: <em>harvest</em></b></p>\n                    <p>This is the bee that you just saw.</p>\n                    <img src=\"bees-with-color/bee-A1SM.svg\" width=\"200\">\n                    <p><span class=\"greenText\"><b>Successful harvest!</b></span><br>Your pay has increased by $0.02. Your bonus pay is now $0.54.</p>\n            ","response":0,"trial_type":"html-button-response","trial_index":70,"time_elapsed":223628,"internal_node_id":"0.0-4.0-1.29","subject_id":"6108906e81224a2bfa9d6c7b","study_id":"6197b3f67c2b5cd3b6d9596a","session_id":"619be32194130053b19d4fb8","condition":"contingent","relevant_dimensions":["pattern","legs"],"bee_group":{"antennae":"X","wings":"X","pattern":"S","legs":"F"},"bonus":0.5000000000000009},{"rt":1286.4000000357628,"stimulus":"bees-with-color/bee-B1SF.svg","response":1,"trial_type":"image-button-response","trial_index":71,"time_elapsed":224916,"internal_node_id":"0.0-4.0-0.30","subject_id":"6108906e81224a2bfa9d6c7b","study_id":"6197b3f67c2b5cd3b6d9596a","session_id":"619be32194130053b19d4fb8","condition":"contingent","relevant_dimensions":["pattern","legs"],"bee_group":{"antennae":"X","wings":"X","pattern":"S","legs":"F"},"action":"avoid","summary":"good-avoid","bonus":0.5000000000000009},{"rt":1070.5,"stimulus":"\n                    <p><b>Action: <em>avoid</em></b></p>\n                    <p>This is the bee that you just saw.</p>\n                    <img src=\"bees-with-color/bee-B1SF.svg\" width=\"200\">\n                    <p><br>Your bonus pay is unchanged, and remains at $0.54.</p>\n            ","response":0,"trial_type":"html-button-response","trial_index":72,"time_elapsed":225988,"internal_node_id":"0.0-4.0-1.30","subject_id":"6108906e81224a2bfa9d6c7b","study_id":"6197b3f67c2b5cd3b6d9596a","session_id":"619be32194130053b19d4fb8","condition":"contingent","relevant_dimensions":["pattern","legs"],"bee_group":{"antennae":"X","wings":"X","pattern":"S","legs":"F"},"bonus":0.5000000000000009},{"rt":830.0999999642372,"stimulus":"bees-with-color/bee-A2DM.svg","response":0,"trial_type":"image-button-response","trial_index":73,"time_elapsed":226820,"internal_node_id":"0.0-4.0-0.31","subject_id":"6108906e81224a2bfa9d6c7b","study_id":"6197b3f67c2b5cd3b6d9596a","session_id":"619be32194130053b19d4fb8","condition":"contingent","relevant_dimensions":["pattern","legs"],"bee_group":{"antennae":"X","wings":"X","pattern":"S","legs":"F"},"action":"harvest","summary":"good-harvest","bonus":0.5000000000000009},{"rt":1398.199999988079,"stimulus":"\n                    <p><b>Action: <em>harvest</em></b></p>\n                    <p>This is the bee that you just saw.</p>\n                    <img src=\"bees-with-color/bee-A2DM.svg\" width=\"200\">\n                    <p><span class=\"greenText\"><b>Successful harvest!</b></span><br>Your pay has increased by $0.02. Your bonus pay is now $0.56.</p>\n            ","response":0,"trial_type":"html-button-response","trial_index":74,"time_elapsed":228220,"internal_node_id":"0.0-4.0-1.31","subject_id":"6108906e81224a2bfa9d6c7b","study_id":"6197b3f67c2b5cd3b6d9596a","session_id":"619be32194130053b19d4fb8","condition":"contingent","relevant_dimensions":["pattern","legs"],"bee_group":{"antennae":"X","wings":"X","pattern":"S","legs":"F"},"bonus":0.5000000000000009},{"rt":870.3999999761581,"stimulus":"bees-with-color/bee-B2DM.svg","response":1,"trial_type":"image-button-response","trial_index":75,"time_elapsed":229092,"internal_node_id":"0.0-4.0-0.32","subject_id":"6108906e81224a2bfa9d6c7b","study_id":"6197b3f67c2b5cd3b6d9596a","session_id":"619be32194130053b19d4fb8","condition":"contingent","relevant_dimensions":["pattern","legs"],"bee_group":{"antennae":"X","wings":"X","pattern":"S","legs":"F"},"action":"avoid","summary":"bad-avoid","bonus":0.5000000000000009},{"rt":454.19999998807907,"stimulus":"\n                    <p><b>Action: <em>avoid</em></b></p>\n                    <p>This is the bee that you just saw.</p>\n                    <img src=\"bees-with-color/bee-B2DM.svg\" width=\"200\">\n                    <p><br>Your bonus pay is unchanged, and remains at $0.56.</p>\n            ","response":0,"trial_type":"html-button-response","trial_index":76,"time_elapsed":229548,"internal_node_id":"0.0-4.0-1.32","subject_id":"6108906e81224a2bfa9d6c7b","study_id":"6197b3f67c2b5cd3b6d9596a","session_id":"619be32194130053b19d4fb8","condition":"contingent","relevant_dimensions":["pattern","legs"],"bee_group":{"antennae":"X","wings":"X","pattern":"S","legs":"F"},"bonus":0.5000000000000009},{"rt":814.5,"stimulus":"bees-with-color/bee-A1DM.svg","response":0,"trial_type":"image-button-response","trial_index":77,"time_elapsed":230364,"internal_node_id":"0.0-4.0-0.33","subject_id":"6108906e81224a2bfa9d6c7b","study_id":"6197b3f67c2b5cd3b6d9596a","session_id":"619be32194130053b19d4fb8","condition":"contingent","relevant_dimensions":["pattern","legs"],"bee_group":{"antennae":"X","wings":"X","pattern":"S","legs":"F"},"action":"harvest","summary":"good-harvest","bonus":0.5000000000000009},{"rt":534.6999999880791,"stimulus":"\n                    <p><b>Action: <em>harvest</em></b></p>\n                    <p>This is the bee that you just saw.</p>\n                    <img src=\"bees-with-color/bee-A1DM.svg\" width=\"200\">\n                    <p><span class=\"greenText\"><b>Successful harvest!</b></span><br>Your pay has increased by $0.02. Your bonus pay is now $0.58.</p>\n            ","response":0,"trial_type":"html-button-response","trial_index":78,"time_elapsed":230901,"internal_node_id":"0.0-4.0-1.33","subject_id":"6108906e81224a2bfa9d6c7b","study_id":"6197b3f67c2b5cd3b6d9596a","session_id":"619be32194130053b19d4fb8","condition":"contingent","relevant_dimensions":["pattern","legs"],"bee_group":{"antennae":"X","wings":"X","pattern":"S","legs":"F"},"bonus":0.5000000000000009},{"rt":893.8000000119209,"stimulus":"bees-with-color/bee-B1SM.svg","response":0,"trial_type":"image-button-response","trial_index":79,"time_elapsed":231797,"internal_node_id":"0.0-4.0-0.34","subject_id":"6108906e81224a2bfa9d6c7b","study_id":"6197b3f67c2b5cd3b6d9596a","session_id":"619be32194130053b19d4fb8","condition":"contingent","relevant_dimensions":["pattern","legs"],"bee_group":{"antennae":"X","wings":"X","pattern":"S","legs":"F"},"action":"harvest","summary":"good-harvest","bonus":0.5000000000000009},{"rt":566.5,"stimulus":"\n                    <p><b>Action: <em>harvest</em></b></p>\n                    <p>This is the bee that you just saw.</p>\n                    <img src=\"bees-with-color/bee-B1SM.svg\" width=\"200\">\n                    <p><span class=\"greenText\"><b>Successful harvest!</b></span><br>Your pay has increased by $0.02. Your bonus pay is now $0.60.</p>\n            ","response":0,"trial_type":"html-button-response","trial_index":80,"time_elapsed":232366,"internal_node_id":"0.0-4.0-1.34","subject_id":"6108906e81224a2bfa9d6c7b","study_id":"6197b3f67c2b5cd3b6d9596a","session_id":"619be32194130053b19d4fb8","condition":"contingent","relevant_dimensions":["pattern","legs"],"bee_group":{"antennae":"X","wings":"X","pattern":"S","legs":"F"},"bonus":0.5000000000000009},{"rt":820.3999999761581,"stimulus":"bees-with-color/bee-A1DF.svg","response":0,"trial_type":"image-button-response","trial_index":81,"time_elapsed":233189,"internal_node_id":"0.0-4.0-0.35","subject_id":"6108906e81224a2bfa9d6c7b","study_id":"6197b3f67c2b5cd3b6d9596a","session_id":"619be32194130053b19d4fb8","condition":"contingent","relevant_dimensions":["pattern","legs"],"bee_group":{"antennae":"X","wings":"X","pattern":"S","legs":"F"},"action":"harvest","summary":"good-harvest","bonus":0.5000000000000009},{"rt":446.5999999642372,"stimulus":"\n                    <p><b>Action: <em>harvest</em></b></p>\n                    <p>This is the bee that you just saw.</p>\n                    <img src=\"bees-with-color/bee-A1DF.svg\" width=\"200\">\n                    <p><span class=\"greenText\"><b>Successful harvest!</b></span><br>Your pay has increased by $0.02. Your bonus pay is now $0.62.</p>\n            ","response":0,"trial_type":"html-button-response","trial_index":82,"time_elapsed":233637,"internal_node_id":"0.0-4.0-1.35","subject_id":"6108906e81224a2bfa9d6c7b","study_id":"6197b3f67c2b5cd3b6d9596a","session_id":"619be32194130053b19d4fb8","condition":"contingent","relevant_dimensions":["pattern","legs"],"bee_group":{"antennae":"X","wings":"X","pattern":"S","legs":"F"},"bonus":0.5000000000000009},{"rt":1902.6000000238419,"stimulus":"bees-with-color/bee-A2DF.svg","response":1,"trial_type":"image-button-response","trial_index":83,"time_elapsed":235541,"internal_node_id":"0.0-4.0-0.36","subject_id":"6108906e81224a2bfa9d6c7b","study_id":"6197b3f67c2b5cd3b6d9596a","session_id":"619be32194130053b19d4fb8","condition":"contingent","relevant_dimensions":["pattern","legs"],"bee_group":{"antennae":"X","wings":"X","pattern":"S","legs":"F"},"action":"avoid","summary":"bad-avoid","bonus":0.5000000000000009},{"rt":687.1999999880791,"stimulus":"\n                    <p><b>Action: <em>avoid</em></b></p>\n                    <p>This is the bee that you just saw.</p>\n                    <img src=\"bees-with-color/bee-A2DF.svg\" width=\"200\">\n                    <p><br>Your bonus pay is unchanged, and remains at $0.62.</p>\n            ","response":0,"trial_type":"html-button-response","trial_index":84,"time_elapsed":236229,"internal_node_id":"0.0-4.0-1.36","subject_id":"6108906e81224a2bfa9d6c7b","study_id":"6197b3f67c2b5cd3b6d9596a","session_id":"619be32194130053b19d4fb8","condition":"contingent","relevant_dimensions":["pattern","legs"],"bee_group":{"antennae":"X","wings":"X","pattern":"S","legs":"F"},"bonus":0.5000000000000009},{"rt":1813.7999999523163,"stimulus":"bees-with-color/bee-A2SF.svg","response":0,"trial_type":"image-button-response","trial_index":85,"time_elapsed":238045,"internal_node_id":"0.0-4.0-0.37","subject_id":"6108906e81224a2bfa9d6c7b","study_id":"6197b3f67c2b5cd3b6d9596a","session_id":"619be32194130053b19d4fb8","condition":"contingent","relevant_dimensions":["pattern","legs"],"bee_group":{"antennae":"X","wings":"X","pattern":"S","legs":"F"},"action":"harvest","summary":"bad-harvest","bonus":0.5000000000000009},{"rt":838.6999999880791,"stimulus":"\n                    <p><b>Action: <em>harvest</em></b></p>\n                    <p>This is the bee that you just saw.</p>\n                    <img src=\"bees-with-color/bee-A2SF.svg\" width=\"200\">\n                    <p><span class=\"redText\">Bad choice, the bee was angry.</span><br><b>You have been stung!</b><br>Your pay has been decreased by $0.10. Your bonus pay is now $0.52.</p>\n            ","response":0,"trial_type":"html-button-response","trial_index":86,"time_elapsed":238885,"internal_node_id":"0.0-4.0-1.37","subject_id":"6108906e81224a2bfa9d6c7b","study_id":"6197b3f67c2b5cd3b6d9596a","session_id":"619be32194130053b19d4fb8","condition":"contingent","relevant_dimensions":["pattern","legs"],"bee_group":{"antennae":"X","wings":"X","pattern":"S","legs":"F"},"bonus":0.5000000000000009},{"rt":814.6000000238419,"stimulus":"bees-with-color/bee-B1SF.svg","response":0,"trial_type":"image-button-response","trial_index":87,"time_elapsed":239701,"internal_node_id":"0.0-4.0-0.38","subject_id":"6108906e81224a2bfa9d6c7b","study_id":"6197b3f67c2b5cd3b6d9596a","session_id":"619be32194130053b19d4fb8","condition":"contingent","relevant_dimensions":["pattern","legs"],"bee_group":{"antennae":"X","wings":"X","pattern":"S","legs":"F"},"action":"harvest","summary":"bad-harvest","bonus":0.5000000000000009},{"rt":751,"stimulus":"\n                    <p><b>Action: <em>harvest</em></b></p>\n                    <p>This is the bee that you just saw.</p>\n                    <img src=\"bees-with-color/bee-B1SF.svg\" width=\"200\">\n                    <p><span class=\"redText\">Bad choice, the bee was angry.</span><br><b>You have been stung!</b><br>Your pay has been decreased by $0.10. Your bonus pay is now $0.42.</p>\n            ","response":0,"trial_type":"html-button-response","trial_index":88,"time_elapsed":240453,"internal_node_id":"0.0-4.0-1.38","subject_id":"6108906e81224a2bfa9d6c7b","study_id":"6197b3f67c2b5cd3b6d9596a","session_id":"619be32194130053b19d4fb8","condition":"contingent","relevant_dimensions":["pattern","legs"],"bee_group":{"antennae":"X","wings":"X","pattern":"S","legs":"F"},"bonus":0.5000000000000009},{"rt":1526.0999999642372,"stimulus":"bees-with-color/bee-B1DF.svg","response":1,"trial_type":"image-button-response","trial_index":89,"time_elapsed":241981,"internal_node_id":"0.0-4.0-0.39","subject_id":"6108906e81224a2bfa9d6c7b","study_id":"6197b3f67c2b5cd3b6d9596a","session_id":"619be32194130053b19d4fb8","condition":"contingent","relevant_dimensions":["pattern","legs"],"bee_group":{"antennae":"X","wings":"X","pattern":"S","legs":"F"},"action":"avoid","summary":"bad-avoid","bonus":0.5000000000000009},{"rt":822.5,"stimulus":"\n                    <p><b>Action: <em>avoid</em></b></p>\n                    <p>This is the bee that you just saw.</p>\n                    <img src=\"bees-with-color/bee-B1DF.svg\" width=\"200\">\n                    <p><br>Your bonus pay is unchanged, and remains at $0.42.</p>\n            ","response":0,"trial_type":"html-button-response","trial_index":90,"time_elapsed":242805,"internal_node_id":"0.0-4.0-1.39","subject_id":"6108906e81224a2bfa9d6c7b","study_id":"6197b3f67c2b5cd3b6d9596a","session_id":"619be32194130053b19d4fb8","condition":"contingent","relevant_dimensions":["pattern","legs"],"bee_group":{"antennae":"X","wings":"X","pattern":"S","legs":"F"},"bonus":0.5000000000000009},{"rt":926.8000000119209,"stimulus":"bees-with-color/bee-B2DF.svg","response":1,"trial_type":"image-button-response","trial_index":91,"time_elapsed":243733,"internal_node_id":"0.0-4.0-0.40","subject_id":"6108906e81224a2bfa9d6c7b","study_id":"6197b3f67c2b5cd3b6d9596a","session_id":"619be32194130053b19d4fb8","condition":"contingent","relevant_dimensions":["pattern","legs"],"bee_group":{"antennae":"X","wings":"X","pattern":"S","legs":"F"},"action":"avoid","summary":"bad-avoid","bonus":0.5000000000000009},{"rt":502.5,"stimulus":"\n                    <p><b>Action: <em>avoid</em></b></p>\n                    <p>This is the bee that you just saw.</p>\n                    <img src=\"bees-with-color/bee-B2DF.svg\" width=\"200\">\n                    <p><br>Your bonus pay is unchanged, and remains at $0.42.</p>\n            ","response":0,"trial_type":"html-button-response","trial_index":92,"time_elapsed":244237,"internal_node_id":"0.0-4.0-1.40","subject_id":"6108906e81224a2bfa9d6c7b","study_id":"6197b3f67c2b5cd3b6d9596a","session_id":"619be32194130053b19d4fb8","condition":"contingent","relevant_dimensions":["pattern","legs"],"bee_group":{"antennae":"X","wings":"X","pattern":"S","legs":"F"},"bonus":0.5000000000000009},{"rt":1254.6000000238419,"stimulus":"bees-with-color/bee-A1SM.svg","response":0,"trial_type":"image-button-response","trial_index":93,"time_elapsed":245493,"internal_node_id":"0.0-4.0-0.41","subject_id":"6108906e81224a2bfa9d6c7b","study_id":"6197b3f67c2b5cd3b6d9596a","session_id":"619be32194130053b19d4fb8","condition":"contingent","relevant_dimensions":["pattern","legs"],"bee_group":{"antennae":"X","wings":"X","pattern":"S","legs":"F"},"action":"harvest","summary":"good-harvest","bonus":0.5000000000000009},{"rt":750.5999999642372,"stimulus":"\n                    <p><b>Action: <em>harvest</em></b></p>\n                    <p>This is the bee that you just saw.</p>\n                    <img src=\"bees-with-color/bee-A1SM.svg\" width=\"200\">\n                    <p><span class=\"greenText\"><b>Successful harvest!</b></span><br>Your pay has increased by $0.02. Your bonus pay is now $0.44.</p>\n            ","response":0,"trial_type":"html-button-response","trial_index":94,"time_elapsed":246245,"internal_node_id":"0.0-4.0-1.41","subject_id":"6108906e81224a2bfa9d6c7b","study_id":"6197b3f67c2b5cd3b6d9596a","session_id":"619be32194130053b19d4fb8","condition":"contingent","relevant_dimensions":["pattern","legs"],"bee_group":{"antennae":"X","wings":"X","pattern":"S","legs":"F"},"bonus":0.5000000000000009},{"rt":1030.699999988079,"stimulus":"bees-with-color/bee-A1SF.svg","response":0,"trial_type":"image-button-response","trial_index":95,"time_elapsed":247277,"internal_node_id":"0.0-4.0-0.42","subject_id":"6108906e81224a2bfa9d6c7b","study_id":"6197b3f67c2b5cd3b6d9596a","session_id":"619be32194130053b19d4fb8","condition":"contingent","relevant_dimensions":["pattern","legs"],"bee_group":{"antennae":"X","wings":"X","pattern":"S","legs":"F"},"action":"harvest","summary":"bad-harvest","bonus":0.5000000000000009},{"rt":542.6000000238419,"stimulus":"\n                    <p><b>Action: <em>harvest</em></b></p>\n                    <p>This is the bee that you just saw.</p>\n                    <img src=\"bees-with-color/bee-A1SF.svg\" width=\"200\">\n                    <p><span class=\"redText\">Bad choice, the bee was angry.</span><br><b>You have been stung!</b><br>Your pay has been decreased by $0.10. Your bonus pay is now $0.34.</p>\n            ","response":0,"trial_type":"html-button-response","trial_index":96,"time_elapsed":247821,"internal_node_id":"0.0-4.0-1.42","subject_id":"6108906e81224a2bfa9d6c7b","study_id":"6197b3f67c2b5cd3b6d9596a","session_id":"619be32194130053b19d4fb8","condition":"contingent","relevant_dimensions":["pattern","legs"],"bee_group":{"antennae":"X","wings":"X","pattern":"S","legs":"F"},"bonus":0.5000000000000009},{"rt":1022.7999999523163,"stimulus":"bees-with-color/bee-B2SF.svg","response":1,"trial_type":"image-button-response","trial_index":97,"time_elapsed":248845,"internal_node_id":"0.0-4.0-0.43","subject_id":"6108906e81224a2bfa9d6c7b","study_id":"6197b3f67c2b5cd3b6d9596a","session_id":"619be32194130053b19d4fb8","condition":"contingent","relevant_dimensions":["pattern","legs"],"bee_group":{"antennae":"X","wings":"X","pattern":"S","legs":"F"},"action":"avoid","summary":"good-avoid","bonus":0.5000000000000009},{"rt":422.60000002384186,"stimulus":"\n                    <p><b>Action: <em>avoid</em></b></p>\n                    <p>This is the bee that you just saw.</p>\n                    <img src=\"bees-with-color/bee-B2SF.svg\" width=\"200\">\n                    <p><br>Your bonus pay is unchanged, and remains at $0.34.</p>\n            ","response":0,"trial_type":"html-button-response","trial_index":98,"time_elapsed":249269,"internal_node_id":"0.0-4.0-1.43","subject_id":"6108906e81224a2bfa9d6c7b","study_id":"6197b3f67c2b5cd3b6d9596a","session_id":"619be32194130053b19d4fb8","condition":"contingent","relevant_dimensions":["pattern","legs"],"bee_group":{"antennae":"X","wings":"X","pattern":"S","legs":"F"},"bonus":0.5000000000000009},{"rt":566.4000000357628,"stimulus":"bees-with-color/bee-A2DM.svg","response":0,"trial_type":"image-button-response","trial_index":99,"time_elapsed":249837,"internal_node_id":"0.0-4.0-0.44","subject_id":"6108906e81224a2bfa9d6c7b","study_id":"6197b3f67c2b5cd3b6d9596a","session_id":"619be32194130053b19d4fb8","condition":"contingent","relevant_dimensions":["pattern","legs"],"bee_group":{"antennae":"X","wings":"X","pattern":"S","legs":"F"},"action":"harvest","summary":"good-harvest","bonus":0.5000000000000009},{"rt":446.5,"stimulus":"\n                    <p><b>Action: <em>harvest</em></b></p>\n                    <p>This is the bee that you just saw.</p>\n                    <img src=\"bees-with-color/bee-A2DM.svg\" width=\"200\">\n                    <p><span class=\"greenText\"><b>Successful harvest!</b></span><br>Your pay has increased by $0.02. Your bonus pay is now $0.36.</p>\n            ","response":0,"trial_type":"html-button-response","trial_index":100,"time_elapsed":250285,"internal_node_id":"0.0-4.0-1.44","subject_id":"6108906e81224a2bfa9d6c7b","study_id":"6197b3f67c2b5cd3b6d9596a","session_id":"619be32194130053b19d4fb8","condition":"contingent","relevant_dimensions":["pattern","legs"],"bee_group":{"antennae":"X","wings":"X","pattern":"S","legs":"F"},"bonus":0.5000000000000009},{"rt":886.5,"stimulus":"bees-with-color/bee-B2SM.svg","response":0,"trial_type":"image-button-response","trial_index":101,"time_elapsed":251173,"internal_node_id":"0.0-4.0-0.45","subject_id":"6108906e81224a2bfa9d6c7b","study_id":"6197b3f67c2b5cd3b6d9596a","session_id":"619be32194130053b19d4fb8","condition":"contingent","relevant_dimensions":["pattern","legs"],"bee_group":{"antennae":"X","wings":"X","pattern":"S","legs":"F"},"action":"harvest","summary":"good-harvest","bonus":0.5000000000000009},{"rt":446.19999998807907,"stimulus":"\n                    <p><b>Action: <em>harvest</em></b></p>\n                    <p>This is the bee that you just saw.</p>\n                    <img src=\"bees-with-color/bee-B2SM.svg\" width=\"200\">\n                    <p><span class=\"greenText\"><b>Successful harvest!</b></span><br>Your pay has increased by $0.02. Your bonus pay is now $0.38.</p>\n            ","response":0,"trial_type":"html-button-response","trial_index":102,"time_elapsed":251621,"internal_node_id":"0.0-4.0-1.45","subject_id":"6108906e81224a2bfa9d6c7b","study_id":"6197b3f67c2b5cd3b6d9596a","session_id":"619be32194130053b19d4fb8","condition":"contingent","relevant_dimensions":["pattern","legs"],"bee_group":{"antennae":"X","wings":"X","pattern":"S","legs":"F"},"bonus":0.5000000000000009},{"rt":758.5,"stimulus":"bees-with-color/bee-A2SM.svg","response":0,"trial_type":"image-button-response","trial_index":103,"time_elapsed":252381,"internal_node_id":"0.0-4.0-0.46","subject_id":"6108906e81224a2bfa9d6c7b","study_id":"6197b3f67c2b5cd3b6d9596a","session_id":"619be32194130053b19d4fb8","condition":"contingent","relevant_dimensions":["pattern","legs"],"bee_group":{"antennae":"X","wings":"X","pattern":"S","legs":"F"},"action":"harvest","summary":"good-harvest","bonus":0.5000000000000009},{"rt":501.7999999523163,"stimulus":"\n                    <p><b>Action: <em>harvest</em></b></p>\n                    <p>This is the bee that you just saw.</p>\n                    <img src=\"bees-with-color/bee-A2SM.svg\" width=\"200\">\n                    <p><span class=\"greenText\"><b>Successful harvest!</b></span><br>Your pay has increased by $0.02. Your bonus pay is now $0.40.</p>\n            ","response":0,"trial_type":"html-button-response","trial_index":104,"time_elapsed":252885,"internal_node_id":"0.0-4.0-1.46","subject_id":"6108906e81224a2bfa9d6c7b","study_id":"6197b3f67c2b5cd3b6d9596a","session_id":"619be32194130053b19d4fb8","condition":"contingent","relevant_dimensions":["pattern","legs"],"bee_group":{"antennae":"X","wings":"X","pattern":"S","legs":"F"},"bonus":0.5000000000000009},{"rt":958.6999999880791,"stimulus":"bees-with-color/bee-B1DM.svg","response":1,"trial_type":"image-button-response","trial_index":105,"time_elapsed":253845,"internal_node_id":"0.0-4.0-0.47","subject_id":"6108906e81224a2bfa9d6c7b","study_id":"6197b3f67c2b5cd3b6d9596a","session_id":"619be32194130053b19d4fb8","condition":"contingent","relevant_dimensions":["pattern","legs"],"bee_group":{"antennae":"X","wings":"X","pattern":"S","legs":"F"},"action":"avoid","summary":"bad-avoid","bonus":0.5000000000000009},{"rt":422.0999999642372,"stimulus":"\n                    <p><b>Action: <em>avoid</em></b></p>\n                    <p>This is the bee that you just saw.</p>\n                    <img src=\"bees-with-color/bee-B1DM.svg\" width=\"200\">\n                    <p><br>Your bonus pay is unchanged, and remains at $0.40.</p>\n            ","response":0,"trial_type":"html-button-response","trial_index":106,"time_elapsed":254270,"internal_node_id":"0.0-4.0-1.47","subject_id":"6108906e81224a2bfa9d6c7b","study_id":"6197b3f67c2b5cd3b6d9596a","session_id":"619be32194130053b19d4fb8","condition":"contingent","relevant_dimensions":["pattern","legs"],"bee_group":{"antennae":"X","wings":"X","pattern":"S","legs":"F"},"bonus":0.5000000000000009},{"rt":885.3999999761581,"stimulus":"bees-with-color/bee-A2SF.svg","response":0,"trial_type":"image-button-response","trial_index":107,"time_elapsed":255157,"internal_node_id":"0.0-4.0-0.48","subject_id":"6108906e81224a2bfa9d6c7b","study_id":"6197b3f67c2b5cd3b6d9596a","session_id":"619be32194130053b19d4fb8","condition":"contingent","relevant_dimensions":["pattern","legs"],"bee_group":{"antennae":"X","wings":"X","pattern":"S","legs":"F"},"action":"harvest","summary":"bad-harvest","bonus":0.5000000000000009},{"rt":774.3000000119209,"stimulus":"\n                    <p><b>Action: <em>harvest</em></b></p>\n                    <p>This is the bee that you just saw.</p>\n                    <img src=\"bees-with-color/bee-A2SF.svg\" width=\"200\">\n                    <p><span class=\"redText\">Bad choice, the bee was angry.</span><br><b>You have been stung!</b><br>Your pay has been decreased by $0.10. Your bonus pay is now $0.30.</p>\n            ","response":0,"trial_type":"html-button-response","trial_index":108,"time_elapsed":255933,"internal_node_id":"0.0-4.0-1.48","subject_id":"6108906e81224a2bfa9d6c7b","study_id":"6197b3f67c2b5cd3b6d9596a","session_id":"619be32194130053b19d4fb8","condition":"contingent","relevant_dimensions":["pattern","legs"],"bee_group":{"antennae":"X","wings":"X","pattern":"S","legs":"F"},"bonus":0.5000000000000009},{"rt":606.5999999642372,"stimulus":"bees-with-color/bee-A2DM.svg","response":1,"trial_type":"image-button-response","trial_index":109,"time_elapsed":256541,"internal_node_id":"0.0-4.0-0.49","subject_id":"6108906e81224a2bfa9d6c7b","study_id":"6197b3f67c2b5cd3b6d9596a","session_id":"619be32194130053b19d4fb8","condition":"contingent","relevant_dimensions":["pattern","legs"],"bee_group":{"antennae":"X","wings":"X","pattern":"S","legs":"F"},"action":"avoid","summary":"bad-avoid","bonus":0.5000000000000009},{"rt":830.3999999761581,"stimulus":"\n                    <p><b>Action: <em>avoid</em></b></p>\n                    <p>This is the bee that you just saw.</p>\n                    <img src=\"bees-with-color/bee-A2DM.svg\" width=\"200\">\n                    <p><br>Your bonus pay is unchanged, and remains at $0.30.</p>\n            ","response":0,"trial_type":"html-button-response","trial_index":110,"time_elapsed":257373,"internal_node_id":"0.0-4.0-1.49","subject_id":"6108906e81224a2bfa9d6c7b","study_id":"6197b3f67c2b5cd3b6d9596a","session_id":"619be32194130053b19d4fb8","condition":"contingent","relevant_dimensions":["pattern","legs"],"bee_group":{"antennae":"X","wings":"X","pattern":"S","legs":"F"},"bonus":0.5000000000000009},{"rt":1166.5,"stimulus":"bees-with-color/bee-A1SM.svg","response":0,"trial_type":"image-button-response","trial_index":111,"time_elapsed":258541,"internal_node_id":"0.0-4.0-0.50","subject_id":"6108906e81224a2bfa9d6c7b","study_id":"6197b3f67c2b5cd3b6d9596a","session_id":"619be32194130053b19d4fb8","condition":"contingent","relevant_dimensions":["pattern","legs"],"bee_group":{"antennae":"X","wings":"X","pattern":"S","legs":"F"},"action":"harvest","summary":"good-harvest","bonus":0.5000000000000009},{"rt":1119.0999999642372,"stimulus":"\n                    <p><b>Action: <em>harvest</em></b></p>\n                    <p>This is the bee that you just saw.</p>\n                    <img src=\"bees-with-color/bee-A1SM.svg\" width=\"200\">\n                    <p><span class=\"greenText\"><b>Successful harvest!</b></span><br>Your pay has increased by $0.02. Your bonus pay is now $0.32.</p>\n            ","response":0,"trial_type":"html-button-response","trial_index":112,"time_elapsed":259662,"internal_node_id":"0.0-4.0-1.50","subject_id":"6108906e81224a2bfa9d6c7b","study_id":"6197b3f67c2b5cd3b6d9596a","session_id":"619be32194130053b19d4fb8","condition":"contingent","relevant_dimensions":["pattern","legs"],"bee_group":{"antennae":"X","wings":"X","pattern":"S","legs":"F"},"bonus":0.5000000000000009},{"rt":1621,"stimulus":"bees-with-color/bee-B1DM.svg","response":1,"trial_type":"image-button-response","trial_index":113,"time_elapsed":261285,"internal_node_id":"0.0-4.0-0.51","subject_id":"6108906e81224a2bfa9d6c7b","study_id":"6197b3f67c2b5cd3b6d9596a","session_id":"619be32194130053b19d4fb8","condition":"contingent","relevant_dimensions":["pattern","legs"],"bee_group":{"antennae":"X","wings":"X","pattern":"S","legs":"F"},"action":"avoid","summary":"bad-avoid","bonus":0.5000000000000009},{"rt":702.1999999880791,"stimulus":"\n                    <p><b>Action: <em>avoid</em></b></p>\n                    <p>This is the bee that you just saw.</p>\n                    <img src=\"bees-with-color/bee-B1DM.svg\" width=\"200\">\n                    <p><br>Your bonus pay is unchanged, and remains at $0.32.</p>\n            ","response":0,"trial_type":"html-button-response","trial_index":114,"time_elapsed":261989,"internal_node_id":"0.0-4.0-1.51","subject_id":"6108906e81224a2bfa9d6c7b","study_id":"6197b3f67c2b5cd3b6d9596a","session_id":"619be32194130053b19d4fb8","condition":"contingent","relevant_dimensions":["pattern","legs"],"bee_group":{"antennae":"X","wings":"X","pattern":"S","legs":"F"},"bonus":0.5000000000000009},{"rt":894.4000000357628,"stimulus":"bees-with-color/bee-B1DF.svg","response":1,"trial_type":"image-button-response","trial_index":115,"time_elapsed":262885,"internal_node_id":"0.0-4.0-0.52","subject_id":"6108906e81224a2bfa9d6c7b","study_id":"6197b3f67c2b5cd3b6d9596a","session_id":"619be32194130053b19d4fb8","condition":"contingent","relevant_dimensions":["pattern","legs"],"bee_group":{"antennae":"X","wings":"X","pattern":"S","legs":"F"},"action":"avoid","summary":"bad-avoid","bonus":0.5000000000000009},{"rt":430.2999999523163,"stimulus":"\n                    <p><b>Action: <em>avoid</em></b></p>\n                    <p>This is the bee that you just saw.</p>\n                    <img src=\"bees-with-color/bee-B1DF.svg\" width=\"200\">\n                    <p><br>Your bonus pay is unchanged, and remains at $0.32.</p>\n            ","response":0,"trial_type":"html-button-response","trial_index":116,"time_elapsed":263317,"internal_node_id":"0.0-4.0-1.52","subject_id":"6108906e81224a2bfa9d6c7b","study_id":"6197b3f67c2b5cd3b6d9596a","session_id":"619be32194130053b19d4fb8","condition":"contingent","relevant_dimensions":["pattern","legs"],"bee_group":{"antennae":"X","wings":"X","pattern":"S","legs":"F"},"bonus":0.5000000000000009},{"rt":774.5,"stimulus":"bees-with-color/bee-B2DM.svg","response":0,"trial_type":"image-button-response","trial_index":117,"time_elapsed":264093,"internal_node_id":"0.0-4.0-0.53","subject_id":"6108906e81224a2bfa9d6c7b","study_id":"6197b3f67c2b5cd3b6d9596a","session_id":"619be32194130053b19d4fb8","condition":"contingent","relevant_dimensions":["pattern","legs"],"bee_group":{"antennae":"X","wings":"X","pattern":"S","legs":"F"},"action":"harvest","summary":"good-harvest","bonus":0.5000000000000009},{"rt":486.5,"stimulus":"\n                    <p><b>Action: <em>harvest</em></b></p>\n                    <p>This is the bee that you just saw.</p>\n                    <img src=\"bees-with-color/bee-B2DM.svg\" width=\"200\">\n                    <p><span class=\"greenText\"><b>Successful harvest!</b></span><br>Your pay has increased by $0.02. Your bonus pay is now $0.34.</p>\n            ","response":0,"trial_type":"html-button-response","trial_index":118,"time_elapsed":264581,"internal_node_id":"0.0-4.0-1.53","subject_id":"6108906e81224a2bfa9d6c7b","study_id":"6197b3f67c2b5cd3b6d9596a","session_id":"619be32194130053b19d4fb8","condition":"contingent","relevant_dimensions":["pattern","legs"],"bee_group":{"antennae":"X","wings":"X","pattern":"S","legs":"F"},"bonus":0.5000000000000009},{"rt":1174.199999988079,"stimulus":"bees-with-color/bee-A1DM.svg","response":0,"trial_type":"image-button-response","trial_index":119,"time_elapsed":265757,"internal_node_id":"0.0-4.0-0.54","subject_id":"6108906e81224a2bfa9d6c7b","study_id":"6197b3f67c2b5cd3b6d9596a","session_id":"619be32194130053b19d4fb8","condition":"contingent","relevant_dimensions":["pattern","legs"],"bee_group":{"antennae":"X","wings":"X","pattern":"S","legs":"F"},"action":"harvest","summary":"good-harvest","bonus":0.5000000000000009},{"rt":1494.8999999761581,"stimulus":"\n                    <p><b>Action: <em>harvest</em></b></p>\n                    <p>This is the bee that you just saw.</p>\n                    <img src=\"bees-with-color/bee-A1DM.svg\" width=\"200\">\n                    <p><span class=\"greenText\"><b>Successful harvest!</b></span><br>Your pay has increased by $0.02. Your bonus pay is now $0.36.</p>\n            ","response":0,"trial_type":"html-button-response","trial_index":120,"time_elapsed":267254,"internal_node_id":"0.0-4.0-1.54","subject_id":"6108906e81224a2bfa9d6c7b","study_id":"6197b3f67c2b5cd3b6d9596a","session_id":"619be32194130053b19d4fb8","condition":"contingent","relevant_dimensions":["pattern","legs"],"bee_group":{"antennae":"X","wings":"X","pattern":"S","legs":"F"},"bonus":0.5000000000000009},{"rt":869.6999999880791,"stimulus":"bees-with-color/bee-A1SF.svg","response":1,"trial_type":"image-button-response","trial_index":121,"time_elapsed":268125,"internal_node_id":"0.0-4.0-0.55","subject_id":"6108906e81224a2bfa9d6c7b","study_id":"6197b3f67c2b5cd3b6d9596a","session_id":"619be32194130053b19d4fb8","condition":"contingent","relevant_dimensions":["pattern","legs"],"bee_group":{"antennae":"X","wings":"X","pattern":"S","legs":"F"},"action":"avoid","summary":"good-avoid","bonus":0.5000000000000009},{"rt":406.30000001192093,"stimulus":"\n                    <p><b>Action: <em>avoid</em></b></p>\n                    <p>This is the bee that you just saw.</p>\n                    <img src=\"bees-with-color/bee-A1SF.svg\" width=\"200\">\n                    <p><br>Your bonus pay is unchanged, and remains at $0.36.</p>\n            ","response":0,"trial_type":"html-button-response","trial_index":122,"time_elapsed":268533,"internal_node_id":"0.0-4.0-1.55","subject_id":"6108906e81224a2bfa9d6c7b","study_id":"6197b3f67c2b5cd3b6d9596a","session_id":"619be32194130053b19d4fb8","condition":"contingent","relevant_dimensions":["pattern","legs"],"bee_group":{"antennae":"X","wings":"X","pattern":"S","legs":"F"},"bonus":0.5000000000000009},{"rt":1070.300000011921,"stimulus":"bees-with-color/bee-B1SM.svg","response":1,"trial_type":"image-button-response","trial_index":123,"time_elapsed":269605,"internal_node_id":"0.0-4.0-0.56","subject_id":"6108906e81224a2bfa9d6c7b","study_id":"6197b3f67c2b5cd3b6d9596a","session_id":"619be32194130053b19d4fb8","condition":"contingent","relevant_dimensions":["pattern","legs"],"bee_group":{"antennae":"X","wings":"X","pattern":"S","legs":"F"},"action":"avoid","summary":"bad-avoid","bonus":0.5000000000000009},{"rt":406.7999999523163,"stimulus":"\n                    <p><b>Action: <em>avoid</em></b></p>\n                    <p>This is the bee that you just saw.</p>\n                    <img src=\"bees-with-color/bee-B1SM.svg\" width=\"200\">\n                    <p><br>Your bonus pay is unchanged, and remains at $0.36.</p>\n            ","response":0,"trial_type":"html-button-response","trial_index":124,"time_elapsed":270013,"internal_node_id":"0.0-4.0-1.56","subject_id":"6108906e81224a2bfa9d6c7b","study_id":"6197b3f67c2b5cd3b6d9596a","session_id":"619be32194130053b19d4fb8","condition":"contingent","relevant_dimensions":["pattern","legs"],"bee_group":{"antennae":"X","wings":"X","pattern":"S","legs":"F"},"bonus":0.5000000000000009},{"rt":990.7999999523163,"stimulus":"bees-with-color/bee-A2DF.svg","response":1,"trial_type":"image-button-response","trial_index":125,"time_elapsed":271005,"internal_node_id":"0.0-4.0-0.57","subject_id":"6108906e81224a2bfa9d6c7b","study_id":"6197b3f67c2b5cd3b6d9596a","session_id":"619be32194130053b19d4fb8","condition":"contingent","relevant_dimensions":["pattern","legs"],"bee_group":{"antennae":"X","wings":"X","pattern":"S","legs":"F"},"action":"avoid","summary":"bad-avoid","bonus":0.5000000000000009},{"rt":647.1999999880791,"stimulus":"\n                    <p><b>Action: <em>avoid</em></b></p>\n                    <p>This is the bee that you just saw.</p>\n                    <img src=\"bees-with-color/bee-A2DF.svg\" width=\"200\">\n                    <p><br>Your bonus pay is unchanged, and remains at $0.36.</p>\n            ","response":0,"trial_type":"html-button-response","trial_index":126,"time_elapsed":271653,"internal_node_id":"0.0-4.0-1.57","subject_id":"6108906e81224a2bfa9d6c7b","study_id":"6197b3f67c2b5cd3b6d9596a","session_id":"619be32194130053b19d4fb8","condition":"contingent","relevant_dimensions":["pattern","legs"],"bee_group":{"antennae":"X","wings":"X","pattern":"S","legs":"F"},"bonus":0.5000000000000009},{"rt":854.2999999523163,"stimulus":"bees-with-color/bee-A2SM.svg","response":0,"trial_type":"image-button-response","trial_index":127,"time_elapsed":272509,"internal_node_id":"0.0-4.0-0.58","subject_id":"6108906e81224a2bfa9d6c7b","study_id":"6197b3f67c2b5cd3b6d9596a","session_id":"619be32194130053b19d4fb8","condition":"contingent","relevant_dimensions":["pattern","legs"],"bee_group":{"antennae":"X","wings":"X","pattern":"S","legs":"F"},"action":"harvest","summary":"good-harvest","bonus":0.5000000000000009},{"rt":462.5,"stimulus":"\n                    <p><b>Action: <em>harvest</em></b></p>\n                    <p>This is the bee that you just saw.</p>\n                    <img src=\"bees-with-color/bee-A2SM.svg\" width=\"200\">\n                    <p><span class=\"greenText\"><b>Successful harvest!</b></span><br>Your pay has increased by $0.02. Your bonus pay is now $0.38.</p>\n            ","response":0,"trial_type":"html-button-response","trial_index":128,"time_elapsed":272973,"internal_node_id":"0.0-4.0-1.58","subject_id":"6108906e81224a2bfa9d6c7b","study_id":"6197b3f67c2b5cd3b6d9596a","session_id":"619be32194130053b19d4fb8","condition":"contingent","relevant_dimensions":["pattern","legs"],"bee_group":{"antennae":"X","wings":"X","pattern":"S","legs":"F"},"bonus":0.5000000000000009},{"rt":1503.3999999761581,"stimulus":"bees-with-color/bee-B2DF.svg","response":1,"trial_type":"image-button-response","trial_index":129,"time_elapsed":274477,"internal_node_id":"0.0-4.0-0.59","subject_id":"6108906e81224a2bfa9d6c7b","study_id":"6197b3f67c2b5cd3b6d9596a","session_id":"619be32194130053b19d4fb8","condition":"contingent","relevant_dimensions":["pattern","legs"],"bee_group":{"antennae":"X","wings":"X","pattern":"S","legs":"F"},"action":"avoid","summary":"bad-avoid","bonus":0.5000000000000009},{"rt":734.0999999642372,"stimulus":"\n                    <p><b>Action: <em>avoid</em></b></p>\n                    <p>This is the bee that you just saw.</p>\n                    <img src=\"bees-with-color/bee-B2DF.svg\" width=\"200\">\n                    <p><br>Your bonus pay is unchanged, and remains at $0.38.</p>\n            ","response":0,"trial_type":"html-button-response","trial_index":130,"time_elapsed":275213,"internal_node_id":"0.0-4.0-1.59","subject_id":"6108906e81224a2bfa9d6c7b","study_id":"6197b3f67c2b5cd3b6d9596a","session_id":"619be32194130053b19d4fb8","condition":"contingent","relevant_dimensions":["pattern","legs"],"bee_group":{"antennae":"X","wings":"X","pattern":"S","legs":"F"},"bonus":0.5000000000000009},{"rt":1342.5,"stimulus":"bees-with-color/bee-A1DF.svg","response":0,"trial_type":"image-button-response","trial_index":131,"time_elapsed":276557,"internal_node_id":"0.0-4.0-0.60","subject_id":"6108906e81224a2bfa9d6c7b","study_id":"6197b3f67c2b5cd3b6d9596a","session_id":"619be32194130053b19d4fb8","condition":"contingent","relevant_dimensions":["pattern","legs"],"bee_group":{"antennae":"X","wings":"X","pattern":"S","legs":"F"},"action":"harvest","summary":"good-harvest","bonus":0.5000000000000009},{"rt":1303.300000011921,"stimulus":"\n                    <p><b>Action: <em>harvest</em></b></p>\n                    <p>This is the bee that you just saw.</p>\n                    <img src=\"bees-with-color/bee-A1DF.svg\" width=\"200\">\n                    <p><span class=\"greenText\"><b>Successful harvest!</b></span><br>Your pay has increased by $0.02. Your bonus pay is now $0.40.</p>\n            ","response":0,"trial_type":"html-button-response","trial_index":132,"time_elapsed":277861,"internal_node_id":"0.0-4.0-1.60","subject_id":"6108906e81224a2bfa9d6c7b","study_id":"6197b3f67c2b5cd3b6d9596a","session_id":"619be32194130053b19d4fb8","condition":"contingent","relevant_dimensions":["pattern","legs"],"bee_group":{"antennae":"X","wings":"X","pattern":"S","legs":"F"},"bonus":0.5000000000000009},{"rt":1038.800000011921,"stimulus":"bees-with-color/bee-B1SF.svg","response":1,"trial_type":"image-button-response","trial_index":133,"time_elapsed":278902,"internal_node_id":"0.0-4.0-0.61","subject_id":"6108906e81224a2bfa9d6c7b","study_id":"6197b3f67c2b5cd3b6d9596a","session_id":"619be32194130053b19d4fb8","condition":"contingent","relevant_dimensions":["pattern","legs"],"bee_group":{"antennae":"X","wings":"X","pattern":"S","legs":"F"},"action":"avoid","summary":"good-avoid","bonus":0.5000000000000009},{"rt":437.89999997615814,"stimulus":"\n                    <p><b>Action: <em>avoid</em></b></p>\n                    <p>This is the bee that you just saw.</p>\n                    <img src=\"bees-with-color/bee-B1SF.svg\" width=\"200\">\n                    <p><br>Your bonus pay is unchanged, and remains at $0.40.</p>\n            ","response":0,"trial_type":"html-button-response","trial_index":134,"time_elapsed":279341,"internal_node_id":"0.0-4.0-1.61","subject_id":"6108906e81224a2bfa9d6c7b","study_id":"6197b3f67c2b5cd3b6d9596a","session_id":"619be32194130053b19d4fb8","condition":"contingent","relevant_dimensions":["pattern","legs"],"bee_group":{"antennae":"X","wings":"X","pattern":"S","legs":"F"},"bonus":0.5000000000000009},{"rt":3054.600000023842,"stimulus":"bees-with-color/bee-B2SF.svg","response":1,"trial_type":"image-button-response","trial_index":135,"time_elapsed":282397,"internal_node_id":"0.0-4.0-0.62","subject_id":"6108906e81224a2bfa9d6c7b","study_id":"6197b3f67c2b5cd3b6d9596a","session_id":"619be32194130053b19d4fb8","condition":"contingent","relevant_dimensions":["pattern","legs"],"bee_group":{"antennae":"X","wings":"X","pattern":"S","legs":"F"},"action":"avoid","summary":"good-avoid","bonus":0.5000000000000009},{"rt":670.5,"stimulus":"\n                    <p><b>Action: <em>avoid</em></b></p>\n                    <p>This is the bee that you just saw.</p>\n                    <img src=\"bees-with-color/bee-B2SF.svg\" width=\"200\">\n                    <p><br>Your bonus pay is unchanged, and remains at $0.40.</p>\n            ","response":0,"trial_type":"html-button-response","trial_index":136,"time_elapsed":283069,"internal_node_id":"0.0-4.0-1.62","subject_id":"6108906e81224a2bfa9d6c7b","study_id":"6197b3f67c2b5cd3b6d9596a","session_id":"619be32194130053b19d4fb8","condition":"contingent","relevant_dimensions":["pattern","legs"],"bee_group":{"antennae":"X","wings":"X","pattern":"S","legs":"F"},"bonus":0.5000000000000009},{"rt":1110.8999999761581,"stimulus":"bees-with-color/bee-B2SM.svg","response":0,"trial_type":"image-button-response","trial_index":137,"time_elapsed":284182,"internal_node_id":"0.0-4.0-0.63","subject_id":"6108906e81224a2bfa9d6c7b","study_id":"6197b3f67c2b5cd3b6d9596a","session_id":"619be32194130053b19d4fb8","condition":"contingent","relevant_dimensions":["pattern","legs"],"bee_group":{"antennae":"X","wings":"X","pattern":"S","legs":"F"},"action":"harvest","summary":"good-harvest","bonus":0.5000000000000009},{"rt":1069.5999999642372,"stimulus":"\n                    <p><b>Action: <em>harvest</em></b></p>\n                    <p>This is the bee that you just saw.</p>\n                    <img src=\"bees-with-color/bee-B2SM.svg\" width=\"200\">\n                    <p><span class=\"greenText\"><b>Successful harvest!</b></span><br>Your pay has increased by $0.02. Your bonus pay is now $0.42.</p>\n            ","response":0,"trial_type":"html-button-response","trial_index":138,"time_elapsed":285253,"internal_node_id":"0.0-4.0-1.63","subject_id":"6108906e81224a2bfa9d6c7b","study_id":"6197b3f67c2b5cd3b6d9596a","session_id":"619be32194130053b19d4fb8","condition":"contingent","relevant_dimensions":["pattern","legs"],"bee_group":{"antennae":"X","wings":"X","pattern":"S","legs":"F"},"bonus":0.5000000000000009},{"rt":5207.199999988079,"stimulus":"You have completed the first part of this experiment.<br><br>You will now begin a shorter second part, in which you will receive no feedback.<br>The same rules regarding bonus pay apply.<br><br>Press any key to begin.","response":"w","trial_type":"html-keyboard-response","trial_index":139,"time_elapsed":290461,"internal_node_id":"0.0-5.0","subject_id":"6108906e81224a2bfa9d6c7b","study_id":"6197b3f67c2b5cd3b6d9596a","session_id":"619be32194130053b19d4fb8","condition":"contingent","relevant_dimensions":["pattern","legs"],"bee_group":{"antennae":"X","wings":"X","pattern":"S","legs":"F"},"bonus":0.5000000000000009},{"rt":1144.300000011921,"stimulus":"bees-with-color/bee-A2SF.svg","response":0,"trial_type":"image-button-response","trial_index":140,"time_elapsed":291613,"internal_node_id":"0.0-6.0-0.0","subject_id":"6108906e81224a2bfa9d6c7b","study_id":"6197b3f67c2b5cd3b6d9596a","session_id":"619be32194130053b19d4fb8","condition":"contingent","relevant_dimensions":["pattern","legs"],"bee_group":{"antennae":"X","wings":"X","pattern":"S","legs":"F"},"bonus":0.5000000000000009},{"rt":4253.299999952316,"stimulus":"bees-with-color/bee-B2DM.svg","response":0,"trial_type":"image-button-response","trial_index":141,"time_elapsed":295868,"internal_node_id":"0.0-6.0-0.1","subject_id":"6108906e81224a2bfa9d6c7b","study_id":"6197b3f67c2b5cd3b6d9596a","session_id":"619be32194130053b19d4fb8","condition":"contingent","relevant_dimensions":["pattern","legs"],"bee_group":{"antennae":"X","wings":"X","pattern":"S","legs":"F"},"bonus":0.5000000000000009},{"rt":917.4000000357628,"stimulus":"bees-with-color/bee-B1SF.svg","response":1,"trial_type":"image-button-response","trial_index":142,"time_elapsed":296788,"internal_node_id":"0.0-6.0-0.2","subject_id":"6108906e81224a2bfa9d6c7b","study_id":"6197b3f67c2b5cd3b6d9596a","session_id":"619be32194130053b19d4fb8","condition":"contingent","relevant_dimensions":["pattern","legs"],"bee_group":{"antennae":"X","wings":"X","pattern":"S","legs":"F"},"bonus":0.5000000000000009},{"rt":766.1999999880791,"stimulus":"bees-with-color/bee-B1SM.svg","response":1,"trial_type":"image-button-response","trial_index":143,"time_elapsed":297557,"internal_node_id":"0.0-6.0-0.3","subject_id":"6108906e81224a2bfa9d6c7b","study_id":"6197b3f67c2b5cd3b6d9596a","session_id":"619be32194130053b19d4fb8","condition":"contingent","relevant_dimensions":["pattern","legs"],"bee_group":{"antennae":"X","wings":"X","pattern":"S","legs":"F"},"bonus":0.5000000000000009},{"rt":909.5,"stimulus":"bees-with-color/bee-A2DM.svg","response":0,"trial_type":"image-button-response","trial_index":144,"time_elapsed":298468,"internal_node_id":"0.0-6.0-0.4","subject_id":"6108906e81224a2bfa9d6c7b","study_id":"6197b3f67c2b5cd3b6d9596a","session_id":"619be32194130053b19d4fb8","condition":"contingent","relevant_dimensions":["pattern","legs"],"bee_group":{"antennae":"X","wings":"X","pattern":"S","legs":"F"},"bonus":0.5000000000000009},{"rt":941.8000000119209,"stimulus":"bees-with-color/bee-B1DM.svg","response":0,"trial_type":"image-button-response","trial_index":145,"time_elapsed":299412,"internal_node_id":"0.0-6.0-0.5","subject_id":"6108906e81224a2bfa9d6c7b","study_id":"6197b3f67c2b5cd3b6d9596a","session_id":"619be32194130053b19d4fb8","condition":"contingent","relevant_dimensions":["pattern","legs"],"bee_group":{"antennae":"X","wings":"X","pattern":"S","legs":"F"},"bonus":0.5000000000000009},{"rt":726,"stimulus":"bees-with-color/bee-A1DF.svg","response":1,"trial_type":"image-button-response","trial_index":146,"time_elapsed":300141,"internal_node_id":"0.0-6.0-0.6","subject_id":"6108906e81224a2bfa9d6c7b","study_id":"6197b3f67c2b5cd3b6d9596a","session_id":"619be32194130053b19d4fb8","condition":"contingent","relevant_dimensions":["pattern","legs"],"bee_group":{"antennae":"X","wings":"X","pattern":"S","legs":"F"},"bonus":0.5000000000000009},{"rt":949,"stimulus":"bees-with-color/bee-B2SM.svg","response":0,"trial_type":"image-button-response","trial_index":147,"time_elapsed":301092,"internal_node_id":"0.0-6.0-0.7","subject_id":"6108906e81224a2bfa9d6c7b","study_id":"6197b3f67c2b5cd3b6d9596a","session_id":"619be32194130053b19d4fb8","condition":"contingent","relevant_dimensions":["pattern","legs"],"bee_group":{"antennae":"X","wings":"X","pattern":"S","legs":"F"},"bonus":0.5000000000000009},{"rt":1022,"stimulus":"bees-with-color/bee-B2SF.svg","response":1,"trial_type":"image-button-response","trial_index":148,"time_elapsed":302117,"internal_node_id":"0.0-6.0-0.8","subject_id":"6108906e81224a2bfa9d6c7b","study_id":"6197b3f67c2b5cd3b6d9596a","session_id":"619be32194130053b19d4fb8","condition":"contingent","relevant_dimensions":["pattern","legs"],"bee_group":{"antennae":"X","wings":"X","pattern":"S","legs":"F"},"bonus":0.5000000000000009},{"rt":805.6000000238419,"stimulus":"bees-with-color/bee-A2DF.svg","response":1,"trial_type":"image-button-response","trial_index":149,"time_elapsed":302924,"internal_node_id":"0.0-6.0-0.9","subject_id":"6108906e81224a2bfa9d6c7b","study_id":"6197b3f67c2b5cd3b6d9596a","session_id":"619be32194130053b19d4fb8","condition":"contingent","relevant_dimensions":["pattern","legs"],"bee_group":{"antennae":"X","wings":"X","pattern":"S","legs":"F"},"bonus":0.5000000000000009},{"rt":1246.0999999642372,"stimulus":"bees-with-color/bee-A1DM.svg","response":0,"trial_type":"image-button-response","trial_index":150,"time_elapsed":304172,"internal_node_id":"0.0-6.0-0.10","subject_id":"6108906e81224a2bfa9d6c7b","study_id":"6197b3f67c2b5cd3b6d9596a","session_id":"619be32194130053b19d4fb8","condition":"contingent","relevant_dimensions":["pattern","legs"],"bee_group":{"antennae":"X","wings":"X","pattern":"S","legs":"F"},"bonus":0.5000000000000009},{"rt":838.2999999523163,"stimulus":"bees-with-color/bee-A1SF.svg","response":1,"trial_type":"image-button-response","trial_index":151,"time_elapsed":305012,"internal_node_id":"0.0-6.0-0.11","subject_id":"6108906e81224a2bfa9d6c7b","study_id":"6197b3f67c2b5cd3b6d9596a","session_id":"619be32194130053b19d4fb8","condition":"contingent","relevant_dimensions":["pattern","legs"],"bee_group":{"antennae":"X","wings":"X","pattern":"S","legs":"F"},"bonus":0.5000000000000009},{"rt":742,"stimulus":"bees-with-color/bee-A2SM.svg","response":0,"trial_type":"image-button-response","trial_index":152,"time_elapsed":305756,"internal_node_id":"0.0-6.0-0.12","subject_id":"6108906e81224a2bfa9d6c7b","study_id":"6197b3f67c2b5cd3b6d9596a","session_id":"619be32194130053b19d4fb8","condition":"contingent","relevant_dimensions":["pattern","legs"],"bee_group":{"antennae":"X","wings":"X","pattern":"S","legs":"F"},"bonus":0.5000000000000009},{"rt":526.1000000238419,"stimulus":"bees-with-color/bee-B2DF.svg","response":1,"trial_type":"image-button-response","trial_index":153,"time_elapsed":306284,"internal_node_id":"0.0-6.0-0.13","subject_id":"6108906e81224a2bfa9d6c7b","study_id":"6197b3f67c2b5cd3b6d9596a","session_id":"619be32194130053b19d4fb8","condition":"contingent","relevant_dimensions":["pattern","legs"],"bee_group":{"antennae":"X","wings":"X","pattern":"S","legs":"F"},"bonus":0.5000000000000009},{"rt":1038,"stimulus":"bees-with-color/bee-A1SM.svg","response":0,"trial_type":"image-button-response","trial_index":154,"time_elapsed":307324,"internal_node_id":"0.0-6.0-0.14","subject_id":"6108906e81224a2bfa9d6c7b","study_id":"6197b3f67c2b5cd3b6d9596a","session_id":"619be32194130053b19d4fb8","condition":"contingent","relevant_dimensions":["pattern","legs"],"bee_group":{"antennae":"X","wings":"X","pattern":"S","legs":"F"},"bonus":0.5000000000000009},{"rt":429.69999998807907,"stimulus":"bees-with-color/bee-B1DF.svg","response":1,"trial_type":"image-button-response","trial_index":155,"time_elapsed":307756,"internal_node_id":"0.0-6.0-0.15","subject_id":"6108906e81224a2bfa9d6c7b","study_id":"6197b3f67c2b5cd3b6d9596a","session_id":"619be32194130053b19d4fb8","condition":"contingent","relevant_dimensions":["pattern","legs"],"bee_group":{"antennae":"X","wings":"X","pattern":"S","legs":"F"},"bonus":0.5000000000000009},{"rt":630.1999999880791,"stimulus":"bees-with-color/bee-A1SF.svg","response":1,"trial_type":"image-button-response","trial_index":156,"time_elapsed":308388,"internal_node_id":"0.0-6.0-0.16","subject_id":"6108906e81224a2bfa9d6c7b","study_id":"6197b3f67c2b5cd3b6d9596a","session_id":"619be32194130053b19d4fb8","condition":"contingent","relevant_dimensions":["pattern","legs"],"bee_group":{"antennae":"X","wings":"X","pattern":"S","legs":"F"},"bonus":0.5000000000000009},{"rt":974.1999999880791,"stimulus":"bees-with-color/bee-A2SM.svg","response":0,"trial_type":"image-button-response","trial_index":157,"time_elapsed":309364,"internal_node_id":"0.0-6.0-0.17","subject_id":"6108906e81224a2bfa9d6c7b","study_id":"6197b3f67c2b5cd3b6d9596a","session_id":"619be32194130053b19d4fb8","condition":"contingent","relevant_dimensions":["pattern","legs"],"bee_group":{"antennae":"X","wings":"X","pattern":"S","legs":"F"},"bonus":0.5000000000000009},{"rt":1318.300000011921,"stimulus":"bees-with-color/bee-B1SM.svg","response":1,"trial_type":"image-button-response","trial_index":158,"time_elapsed":310684,"internal_node_id":"0.0-6.0-0.18","subject_id":"6108906e81224a2bfa9d6c7b","study_id":"6197b3f67c2b5cd3b6d9596a","session_id":"619be32194130053b19d4fb8","condition":"contingent","relevant_dimensions":["pattern","legs"],"bee_group":{"antennae":"X","wings":"X","pattern":"S","legs":"F"},"bonus":0.5000000000000009},{"rt":838.5,"stimulus":"bees-with-color/bee-A1DM.svg","response":1,"trial_type":"image-button-response","trial_index":159,"time_elapsed":311525,"internal_node_id":"0.0-6.0-0.19","subject_id":"6108906e81224a2bfa9d6c7b","study_id":"6197b3f67c2b5cd3b6d9596a","session_id":"619be32194130053b19d4fb8","condition":"contingent","relevant_dimensions":["pattern","legs"],"bee_group":{"antennae":"X","wings":"X","pattern":"S","legs":"F"},"bonus":0.5000000000000009},{"rt":494,"stimulus":"bees-with-color/bee-A1DF.svg","response":1,"trial_type":"image-button-response","trial_index":160,"time_elapsed":312021,"internal_node_id":"0.0-6.0-0.20","subject_id":"6108906e81224a2bfa9d6c7b","study_id":"6197b3f67c2b5cd3b6d9596a","session_id":"619be32194130053b19d4fb8","condition":"contingent","relevant_dimensions":["pattern","legs"],"bee_group":{"antennae":"X","wings":"X","pattern":"S","legs":"F"},"bonus":0.5000000000000009},{"rt":1101.4000000357628,"stimulus":"bees-with-color/bee-B2DM.svg","response":1,"trial_type":"image-button-response","trial_index":161,"time_elapsed":313124,"internal_node_id":"0.0-6.0-0.21","subject_id":"6108906e81224a2bfa9d6c7b","study_id":"6197b3f67c2b5cd3b6d9596a","session_id":"619be32194130053b19d4fb8","condition":"contingent","relevant_dimensions":["pattern","legs"],"bee_group":{"antennae":"X","wings":"X","pattern