[{"success":true,"trial_type":"fullscreen","trial_index":0,"time_elapsed":25022,"internal_node_id":"0.0-0.0","subject_id":"5ee78cdd0103130133fdb204","study_id":"60edd13110225f80f9f3709b","session_id":"6196bf63e9dfe380e81b53b9","condition":"contingent","relevant_dimensions":["antennae","pattern"],"bee_group":{"antennae":"A","wings":"X","pattern":"D","legs":"X"},"bonus":0.3600000000000012},{"success":true,"timeout":false,"failed_images":[],"failed_audio":[],"failed_video":[],"trial_type":"preload","trial_index":1,"time_elapsed":26658,"internal_node_id":"0.0-1.0","subject_id":"5ee78cdd0103130133fdb204","study_id":"60edd13110225f80f9f3709b","session_id":"6196bf63e9dfe380e81b53b9","condition":"contingent","relevant_dimensions":["antennae","pattern"],"bee_group":{"antennae":"A","wings":"X","pattern":"D","legs":"X"},"bonus":0.3600000000000012},{"rt":2379,"stimulus":"Welcome! Press any key to begin.","response":"enter","trial_type":"html-keyboard-response","trial_index":2,"time_elapsed":29038,"internal_node_id":"0.0-2.0","subject_id":"5ee78cdd0103130133fdb204","study_id":"60edd13110225f80f9f3709b","session_id":"6196bf63e9dfe380e81b53b9","condition":"contingent","relevant_dimensions":["antennae","pattern"],"bee_group":{"antennae":"A","wings":"X","pattern":"D","legs":"X"},"bonus":0.3600000000000012},{"view_history":[{"page_index":0,"viewing_time":2208},{"page_index":1,"viewing_time":6608},{"page_index":2,"viewing_time":5904},{"page_index":3,"viewing_time":6824},{"page_index":4,"viewing_time":2904},{"page_index":5,"viewing_time":3496},{"page_index":6,"viewing_time":4216},{"page_index":7,"viewing_time":3264},{"page_index":8,"viewing_time":2104},{"page_index":9,"viewing_time":2488},{"page_index":10,"viewing_time":1744},{"page_index":11,"viewing_time":6207},{"page_index":12,"viewing_time":3897},{"page_index":11,"viewing_time":696},{"page_index":10,"viewing_time":1152},{"page_index":9,"viewing_time":856},{"page_index":8,"viewing_time":1216},{"page_index":7,"viewing_time":1464},{"page_index":8,"viewing_time":896},{"page_index":9,"viewing_time":1632},{"page_index":10,"viewing_time":328},{"page_index":11,"viewing_time":1303},{"page_index":12,"viewing_time":1041},{"page_index":13,"viewing_time":920},{"page_index":14,"viewing_time":920}],"rt":64288,"trial_type":"instructions","trial_index":3,"time_elapsed":93325,"internal_node_id":"0.0-3.0-0.0","subject_id":"5ee78cdd0103130133fdb204","study_id":"60edd13110225f80f9f3709b","session_id":"6196bf63e9dfe380e81b53b9","condition":"contingent","relevant_dimensions":["antennae","pattern"],"bee_group":{"antennae":"A","wings":"X","pattern":"D","legs":"X"},"bonus":0.3600000000000012},{"rt":9940,"response":{"Q0":["Two or six legs","Stripes or spots on body","Single or double wings","Antennae or no antennae"]},"question_order":[0],"trial_type":"survey-multi-select","trial_index":4,"time_elapsed":103268,"internal_node_id":"0.0-3.0-1.0","subject_id":"5ee78cdd0103130133fdb204","study_id":"60edd13110225f80f9f3709b","session_id":"6196bf63e9dfe380e81b53b9","condition":"contingent","relevant_dimensions":["antennae","pattern"],"bee_group":{"antennae":"A","wings":"X","pattern":"D","legs":"X"},"correct":true,"bonus":0.3600000000000012},{"rt":11073,"response":{"Q1":"No.","Q2":"Based on the four features of the bee.","Q3":"You do not learn if it was friendly or dangerous, and do not alter your bonus."},"question_order":[0,1,2],"trial_type":"survey-multi-choice","trial_index":5,"time_elapsed":114343,"internal_node_id":"0.0-3.0-2.0","subject_id":"5ee78cdd0103130133fdb204","study_id":"60edd13110225f80f9f3709b","session_id":"6196bf63e9dfe380e81b53b9","condition":"contingent","relevant_dimensions":["antennae","pattern"],"bee_group":{"antennae":"A","wings":"X","pattern":"D","legs":"X"},"correct":true,"bonus":0.3600000000000012},{"rt":1647,"stimulus":"<p>Congrats, you got everything right<br>When you're ready, click the button below to continue to the experiment.</p>","response":0,"trial_type":"html-button-response","trial_index":6,"time_elapsed":115989,"internal_node_id":"0.0-3.0-3.0","subject_id":"5ee78cdd0103130133fdb204","study_id":"60edd13110225f80f9f3709b","session_id":"6196bf63e9dfe380e81b53b9","condition":"contingent","relevant_dimensions":["antennae","pattern"],"bee_group":{"antennae":"A","wings":"X","pattern":"D","legs":"X"},"bonus":0.3600000000000012},{"rt":4975,"stimulus":"bees-with-color/bee-B2SM.svg","response":0,"trial_type":"image-button-response","trial_index":7,"time_elapsed":120965,"internal_node_id":"0.0-4.0-0.0","subject_id":"5ee78cdd0103130133fdb204","study_id":"60edd13110225f80f9f3709b","session_id":"6196bf63e9dfe380e81b53b9","condition":"contingent","relevant_dimensions":["antennae","pattern"],"bee_group":{"antennae":"A","wings":"X","pattern":"D","legs":"X"},"action":"harvest","summary":"good-harvest","bonus":0.3600000000000012},{"rt":5592,"stimulus":"\n                    <p><b>Action: <em>harvest</em></b></p>\n                    <p>This is the bee that you just saw.</p>\n                    <img src=\"bees-with-color/bee-B2SM.svg\" width=\"200\">\n                    <p><span class=\"greenText\"><b>Successful harvest!</b></span><br>Your pay has increased by $0.02. Your bonus pay is now $0.56.</p>\n            ","response":0,"trial_type":"html-button-response","trial_index":8,"time_elapsed":126566,"internal_node_id":"0.0-4.0-1.0","subject_id":"5ee78cdd0103130133fdb204","study_id":"60edd13110225f80f9f3709b","session_id":"6196bf63e9dfe380e81b53b9","condition":"contingent","relevant_dimensions":["antennae","pattern"],"bee_group":{"antennae":"A","wings":"X","pattern":"D","legs":"X"},"bonus":0.3600000000000012},{"rt":2231,"stimulus":"bees-with-color/bee-B2DF.svg","response":0,"trial_type":"image-button-response","trial_index":9,"time_elapsed":128798,"internal_node_id":"0.0-4.0-0.1","subject_id":"5ee78cdd0103130133fdb204","study_id":"60edd13110225f80f9f3709b","session_id":"6196bf63e9dfe380e81b53b9","condition":"contingent","relevant_dimensions":["antennae","pattern"],"bee_group":{"antennae":"A","wings":"X","pattern":"D","legs":"X"},"action":"harvest","summary":"good-harvest","bonus":0.3600000000000012},{"rt":2670,"stimulus":"\n                    <p><b>Action: <em>harvest</em></b></p>\n                    <p>This is the bee that you just saw.</p>\n                    <img src=\"bees-with-color/bee-B2DF.svg\" width=\"200\">\n                    <p><span class=\"greenText\"><b>Successful harvest!</b></span><br>Your pay has increased by $0.02. Your bonus pay is now $0.58.</p>\n            ","response":0,"trial_type":"html-button-response","trial_index":10,"time_elapsed":131470,"internal_node_id":"0.0-4.0-1.1","subject_id":"5ee78cdd0103130133fdb204","study_id":"60edd13110225f80f9f3709b","session_id":"6196bf63e9dfe380e81b53b9","condition":"contingent","relevant_dimensions":["antennae","pattern"],"bee_group":{"antennae":"A","wings":"X","pattern":"D","legs":"X"},"bonus":0.3600000000000012},{"rt":1880,"stimulus":"bees-with-color/bee-A2SM.svg","response":0,"trial_type":"image-button-response","trial_index":11,"time_elapsed":133349,"internal_node_id":"0.0-4.0-0.2","subject_id":"5ee78cdd0103130133fdb204","study_id":"60edd13110225f80f9f3709b","session_id":"6196bf63e9dfe380e81b53b9","condition":"contingent","relevant_dimensions":["antennae","pattern"],"bee_group":{"antennae":"A","wings":"X","pattern":"D","legs":"X"},"action":"harvest","summary":"good-harvest","bonus":0.3600000000000012},{"rt":1639,"stimulus":"\n                    <p><b>Action: <em>harvest</em></b></p>\n                    <p>This is the bee that you just saw.</p>\n                    <img src=\"bees-with-color/bee-A2SM.svg\" width=\"200\">\n                    <p><span class=\"greenText\"><b>Successful harvest!</b></span><br>Your pay has increased by $0.02. Your bonus pay is now $0.60.</p>\n            ","response":0,"trial_type":"html-button-response","trial_index":12,"time_elapsed":134990,"internal_node_id":"0.0-4.0-1.2","subject_id":"5ee78cdd0103130133fdb204","study_id":"60edd13110225f80f9f3709b","session_id":"6196bf63e9dfe380e81b53b9","condition":"contingent","relevant_dimensions":["antennae","pattern"],"bee_group":{"antennae":"A","wings":"X","pattern":"D","legs":"X"},"bonus":0.3600000000000012},{"rt":2271,"stimulus":"bees-with-color/bee-B1DF.svg","response":1,"trial_type":"image-button-response","trial_index":13,"time_elapsed":137261,"internal_node_id":"0.0-4.0-0.3","subject_id":"5ee78cdd0103130133fdb204","study_id":"60edd13110225f80f9f3709b","session_id":"6196bf63e9dfe380e81b53b9","condition":"contingent","relevant_dimensions":["antennae","pattern"],"bee_group":{"antennae":"A","wings":"X","pattern":"D","legs":"X"},"action":"avoid","summary":"bad-avoid","bonus":0.3600000000000012},{"rt":2039,"stimulus":"\n                    <p><b>Action: <em>avoid</em></b></p>\n                    <p>This is the bee that you just saw.</p>\n                    <img src=\"bees-with-color/bee-B1DF.svg\" width=\"200\">\n                    <p><br>Your bonus pay is unchanged, and remains at $0.60.</p>\n            ","response":0,"trial_type":"html-button-response","trial_index":14,"time_elapsed":139302,"internal_node_id":"0.0-4.0-1.3","subject_id":"5ee78cdd0103130133fdb204","study_id":"60edd13110225f80f9f3709b","session_id":"6196bf63e9dfe380e81b53b9","condition":"contingent","relevant_dimensions":["antennae","pattern"],"bee_group":{"antennae":"A","wings":"X","pattern":"D","legs":"X"},"bonus":0.3600000000000012},{"rt":2135,"stimulus":"bees-with-color/bee-A2DM.svg","response":0,"trial_type":"image-button-response","trial_index":15,"time_elapsed":141438,"internal_node_id":"0.0-4.0-0.4","subject_id":"5ee78cdd0103130133fdb204","study_id":"60edd13110225f80f9f3709b","session_id":"6196bf63e9dfe380e81b53b9","condition":"contingent","relevant_dimensions":["antennae","pattern"],"bee_group":{"antennae":"A","wings":"X","pattern":"D","legs":"X"},"action":"harvest","summary":"bad-harvest","bonus":0.3600000000000012},{"rt":2151,"stimulus":"\n                    <p><b>Action: <em>harvest</em></b></p>\n                    <p>This is the bee that you just saw.</p>\n                    <img src=\"bees-with-color/bee-A2DM.svg\" width=\"200\">\n                    <p><span class=\"redText\">Bad choice, the bee was angry.</span><br><b>You have been stung!</b><br>Your pay has been decreased by $0.10. Your bonus pay is now $0.50.</p>\n            ","response":0,"trial_type":"html-button-response","trial_index":16,"time_elapsed":143590,"internal_node_id":"0.0-4.0-1.4","subject_id":"5ee78cdd0103130133fdb204","study_id":"60edd13110225f80f9f3709b","session_id":"6196bf63e9dfe380e81b53b9","condition":"contingent","relevant_dimensions":["antennae","pattern"],"bee_group":{"antennae":"A","wings":"X","pattern":"D","legs":"X"},"bonus":0.3600000000000012},{"rt":1840,"stimulus":"bees-with-color/bee-A2DF.svg","response":0,"trial_type":"image-button-response","trial_index":17,"time_elapsed":145429,"internal_node_id":"0.0-4.0-0.5","subject_id":"5ee78cdd0103130133fdb204","study_id":"60edd13110225f80f9f3709b","session_id":"6196bf63e9dfe380e81b53b9","condition":"contingent","relevant_dimensions":["antennae","pattern"],"bee_group":{"antennae":"A","wings":"X","pattern":"D","legs":"X"},"action":"harvest","summary":"bad-harvest","bonus":0.3600000000000012},{"rt":1415,"stimulus":"\n                    <p><b>Action: <em>harvest</em></b></p>\n                    <p>This is the bee that you just saw.</p>\n                    <img src=\"bees-with-color/bee-A2DF.svg\" width=\"200\">\n                    <p><span class=\"redText\">Bad choice, the bee was angry.</span><br><b>You have been stung!</b><br>Your pay has been decreased by $0.10. Your bonus pay is now $0.40.</p>\n            ","response":0,"trial_type":"html-button-response","trial_index":18,"time_elapsed":146846,"internal_node_id":"0.0-4.0-1.5","subject_id":"5ee78cdd0103130133fdb204","study_id":"60edd13110225f80f9f3709b","session_id":"6196bf63e9dfe380e81b53b9","condition":"contingent","relevant_dimensions":["antennae","pattern"],"bee_group":{"antennae":"A","wings":"X","pattern":"D","legs":"X"},"bonus":0.3600000000000012},{"rt":1072,"stimulus":"bees-with-color/bee-B2DM.svg","response":0,"trial_type":"image-button-response","trial_index":19,"time_elapsed":147918,"internal_node_id":"0.0-4.0-0.6","subject_id":"5ee78cdd0103130133fdb204","study_id":"60edd13110225f80f9f3709b","session_id":"6196bf63e9dfe380e81b53b9","condition":"contingent","relevant_dimensions":["antennae","pattern"],"bee_group":{"antennae":"A","wings":"X","pattern":"D","legs":"X"},"action":"harvest","summary":"good-harvest","bonus":0.3600000000000012},{"rt":720,"stimulus":"\n                    <p><b>Action: <em>harvest</em></b></p>\n                    <p>This is the bee that you just saw.</p>\n                    <img src=\"bees-with-color/bee-B2DM.svg\" width=\"200\">\n                    <p><span class=\"greenText\"><b>Successful harvest!</b></span><br>Your pay has increased by $0.02. Your bonus pay is now $0.42.</p>\n            ","response":0,"trial_type":"html-button-response","trial_index":20,"time_elapsed":148638,"internal_node_id":"0.0-4.0-1.6","subject_id":"5ee78cdd0103130133fdb204","study_id":"60edd13110225f80f9f3709b","session_id":"6196bf63e9dfe380e81b53b9","condition":"contingent","relevant_dimensions":["antennae","pattern"],"bee_group":{"antennae":"A","wings":"X","pattern":"D","legs":"X"},"bonus":0.3600000000000012},{"rt":1296,"stimulus":"bees-with-color/bee-A1SF.svg","response":0,"trial_type":"image-button-response","trial_index":21,"time_elapsed":149934,"internal_node_id":"0.0-4.0-0.7","subject_id":"5ee78cdd0103130133fdb204","study_id":"60edd13110225f80f9f3709b","session_id":"6196bf63e9dfe380e81b53b9","condition":"contingent","relevant_dimensions":["antennae","pattern"],"bee_group":{"antennae":"A","wings":"X","pattern":"D","legs":"X"},"action":"harvest","summary":"good-harvest","bonus":0.3600000000000012},{"rt":751,"stimulus":"\n                    <p><b>Action: <em>harvest</em></b></p>\n                    <p>This is the bee that you just saw.</p>\n                    <img src=\"bees-with-color/bee-A1SF.svg\" width=\"200\">\n                    <p><span class=\"greenText\"><b>Successful harvest!</b></span><br>Your pay has increased by $0.02. Your bonus pay is now $0.44.</p>\n            ","response":0,"trial_type":"html-button-response","trial_index":22,"time_elapsed":150686,"internal_node_id":"0.0-4.0-1.7","subject_id":"5ee78cdd0103130133fdb204","study_id":"60edd13110225f80f9f3709b","session_id":"6196bf63e9dfe380e81b53b9","condition":"contingent","relevant_dimensions":["antennae","pattern"],"bee_group":{"antennae":"A","wings":"X","pattern":"D","legs":"X"},"bonus":0.3600000000000012},{"rt":2255,"stimulus":"bees-with-color/bee-B2SF.svg","response":0,"trial_type":"image-button-response","trial_index":23,"time_elapsed":152942,"internal_node_id":"0.0-4.0-0.8","subject_id":"5ee78cdd0103130133fdb204","study_id":"60edd13110225f80f9f3709b","session_id":"6196bf63e9dfe380e81b53b9","condition":"contingent","relevant_dimensions":["antennae","pattern"],"bee_group":{"antennae":"A","wings":"X","pattern":"D","legs":"X"},"action":"harvest","summary":"good-harvest","bonus":0.3600000000000012},{"rt":768,"stimulus":"\n                    <p><b>Action: <em>harvest</em></b></p>\n                    <p>This is the bee that you just saw.</p>\n                    <img src=\"bees-with-color/bee-B2SF.svg\" width=\"200\">\n                    <p><span class=\"greenText\"><b>Successful harvest!</b></span><br>Your pay has increased by $0.02. Your bonus pay is now $0.46.</p>\n            ","response":0,"trial_type":"html-button-response","trial_index":24,"time_elapsed":153709,"internal_node_id":"0.0-4.0-1.8","subject_id":"5ee78cdd0103130133fdb204","study_id":"60edd13110225f80f9f3709b","session_id":"6196bf63e9dfe380e81b53b9","condition":"contingent","relevant_dimensions":["antennae","pattern"],"bee_group":{"antennae":"A","wings":"X","pattern":"D","legs":"X"},"bonus":0.3600000000000012},{"rt":1680,"stimulus":"bees-with-color/bee-A1DF.svg","response":0,"trial_type":"image-button-response","trial_index":25,"time_elapsed":155389,"internal_node_id":"0.0-4.0-0.9","subject_id":"5ee78cdd0103130133fdb204","study_id":"60edd13110225f80f9f3709b","session_id":"6196bf63e9dfe380e81b53b9","condition":"contingent","relevant_dimensions":["antennae","pattern"],"bee_group":{"antennae":"A","wings":"X","pattern":"D","legs":"X"},"action":"harvest","summary":"bad-harvest","bonus":0.3600000000000012},{"rt":888,"stimulus":"\n                    <p><b>Action: <em>harvest</em></b></p>\n                    <p>This is the bee that you just saw.</p>\n                    <img src=\"bees-with-color/bee-A1DF.svg\" width=\"200\">\n                    <p><span class=\"redText\">Bad choice, the bee was angry.</span><br><b>You have been stung!</b><br>Your pay has been decreased by $0.10. Your bonus pay is now $0.36.</p>\n            ","response":0,"trial_type":"html-button-response","trial_index":26,"time_elapsed":156278,"internal_node_id":"0.0-4.0-1.9","subject_id":"5ee78cdd0103130133fdb204","study_id":"60edd13110225f80f9f3709b","session_id":"6196bf63e9dfe380e81b53b9","condition":"contingent","relevant_dimensions":["antennae","pattern"],"bee_group":{"antennae":"A","wings":"X","pattern":"D","legs":"X"},"bonus":0.3600000000000012},{"rt":1287,"stimulus":"bees-with-color/bee-A1SM.svg","response":0,"trial_type":"image-button-response","trial_index":27,"time_elapsed":157566,"internal_node_id":"0.0-4.0-0.10","subject_id":"5ee78cdd0103130133fdb204","study_id":"60edd13110225f80f9f3709b","session_id":"6196bf63e9dfe380e81b53b9","condition":"contingent","relevant_dimensions":["antennae","pattern"],"bee_group":{"antennae":"A","wings":"X","pattern":"D","legs":"X"},"action":"harvest","summary":"good-harvest","bonus":0.3600000000000012},{"rt":655,"stimulus":"\n                    <p><b>Action: <em>harvest</em></b></p>\n                    <p>This is the bee that you just saw.</p>\n                    <img src=\"bees-with-color/bee-A1SM.svg\" width=\"200\">\n                    <p><span class=\"greenText\"><b>Successful harvest!</b></span><br>Your pay has increased by $0.02. Your bonus pay is now $0.38.</p>\n            ","response":0,"trial_type":"html-button-response","trial_index":28,"time_elapsed":158222,"internal_node_id":"0.0-4.0-1.10","subject_id":"5ee78cdd0103130133fdb204","study_id":"60edd13110225f80f9f3709b","session_id":"6196bf63e9dfe380e81b53b9","condition":"contingent","relevant_dimensions":["antennae","pattern"],"bee_group":{"antennae":"A","wings":"X","pattern":"D","legs":"X"},"bonus":0.3600000000000012},{"rt":1559,"stimulus":"bees-with-color/bee-A2SF.svg","response":0,"trial_type":"image-button-response","trial_index":29,"time_elapsed":159782,"internal_node_id":"0.0-4.0-0.11","subject_id":"5ee78cdd0103130133fdb204","study_id":"60edd13110225f80f9f3709b","session_id":"6196bf63e9dfe380e81b53b9","condition":"contingent","relevant_dimensions":["antennae","pattern"],"bee_group":{"antennae":"A","wings":"X","pattern":"D","legs":"X"},"action":"harvest","summary":"good-harvest","bonus":0.3600000000000012},{"rt":591,"stimulus":"\n                    <p><b>Action: <em>harvest</em></b></p>\n                    <p>This is the bee that you just saw.</p>\n                    <img src=\"bees-with-color/bee-A2SF.svg\" width=\"200\">\n                    <p><span class=\"greenText\"><b>Successful harvest!</b></span><br>Your pay has increased by $0.02. Your bonus pay is now $0.40.</p>\n            ","response":0,"trial_type":"html-button-response","trial_index":30,"time_elapsed":160374,"internal_node_id":"0.0-4.0-1.11","subject_id":"5ee78cdd0103130133fdb204","study_id":"60edd13110225f80f9f3709b","session_id":"6196bf63e9dfe380e81b53b9","condition":"contingent","relevant_dimensions":["antennae","pattern"],"bee_group":{"antennae":"A","wings":"X","pattern":"D","legs":"X"},"bonus":0.3600000000000012},{"rt":3039,"stimulus":"bees-with-color/bee-A1DM.svg","response":1,"trial_type":"image-button-response","trial_index":31,"time_elapsed":163414,"internal_node_id":"0.0-4.0-0.12","subject_id":"5ee78cdd0103130133fdb204","study_id":"60edd13110225f80f9f3709b","session_id":"6196bf63e9dfe380e81b53b9","condition":"contingent","relevant_dimensions":["antennae","pattern"],"bee_group":{"antennae":"A","wings":"X","pattern":"D","legs":"X"},"action":"avoid","summary":"good-avoid","bonus":0.3600000000000012},{"rt":679,"stimulus":"\n                    <p><b>Action: <em>avoid</em></b></p>\n                    <p>This is the bee that you just saw.</p>\n                    <img src=\"bees-with-color/bee-A1DM.svg\" width=\"200\">\n                    <p><br>Your bonus pay is unchanged, and remains at $0.40.</p>\n            ","response":0,"trial_type":"html-button-response","trial_index":32,"time_elapsed":164094,"internal_node_id":"0.0-4.0-1.12","subject_id":"5ee78cdd0103130133fdb204","study_id":"60edd13110225f80f9f3709b","session_id":"6196bf63e9dfe380e81b53b9","condition":"contingent","relevant_dimensions":["antennae","pattern"],"bee_group":{"antennae":"A","wings":"X","pattern":"D","legs":"X"},"bonus":0.3600000000000012},{"rt":1423,"stimulus":"bees-with-color/bee-B1SM.svg","response":0,"trial_type":"image-button-response","trial_index":33,"time_elapsed":165518,"internal_node_id":"0.0-4.0-0.13","subject_id":"5ee78cdd0103130133fdb204","study_id":"60edd13110225f80f9f3709b","session_id":"6196bf63e9dfe380e81b53b9","condition":"contingent","relevant_dimensions":["antennae","pattern"],"bee_group":{"antennae":"A","wings":"X","pattern":"D","legs":"X"},"action":"harvest","summary":"good-harvest","bonus":0.3600000000000012},{"rt":919,"stimulus":"\n                    <p><b>Action: <em>harvest</em></b></p>\n                    <p>This is the bee that you just saw.</p>\n                    <img src=\"bees-with-color/bee-B1SM.svg\" width=\"200\">\n                    <p><span class=\"greenText\"><b>Successful harvest!</b></span><br>Your pay has increased by $0.02. Your bonus pay is now $0.42.</p>\n            ","response":0,"trial_type":"html-button-response","trial_index":34,"time_elapsed":166438,"internal_node_id":"0.0-4.0-1.13","subject_id":"5ee78cdd0103130133fdb204","study_id":"60edd13110225f80f9f3709b","session_id":"6196bf63e9dfe380e81b53b9","condition":"contingent","relevant_dimensions":["antennae","pattern"],"bee_group":{"antennae":"A","wings":"X","pattern":"D","legs":"X"},"bonus":0.3600000000000012},{"rt":1319,"stimulus":"bees-with-color/bee-B1SF.svg","response":0,"trial_type":"image-button-response","trial_index":35,"time_elapsed":167757,"internal_node_id":"0.0-4.0-0.14","subject_id":"5ee78cdd0103130133fdb204","study_id":"60edd13110225f80f9f3709b","session_id":"6196bf63e9dfe380e81b53b9","condition":"contingent","relevant_dimensions":["antennae","pattern"],"bee_group":{"antennae":"A","wings":"X","pattern":"D","legs":"X"},"action":"harvest","summary":"good-harvest","bonus":0.3600000000000012},{"rt":664,"stimulus":"\n                    <p><b>Action: <em>harvest</em></b></p>\n                    <p>This is the bee that you just saw.</p>\n                    <img src=\"bees-with-color/bee-B1SF.svg\" width=\"200\">\n                    <p><span class=\"greenText\"><b>Successful harvest!</b></span><br>Your pay has increased by $0.02. Your bonus pay is now $0.44.</p>\n            ","response":0,"trial_type":"html-button-response","trial_index":36,"time_elapsed":168422,"internal_node_id":"0.0-4.0-1.14","subject_id":"5ee78cdd0103130133fdb204","study_id":"60edd13110225f80f9f3709b","session_id":"6196bf63e9dfe380e81b53b9","condition":"contingent","relevant_dimensions":["antennae","pattern"],"bee_group":{"antennae":"A","wings":"X","pattern":"D","legs":"X"},"bonus":0.3600000000000012},{"rt":2527,"stimulus":"bees-with-color/bee-B1DM.svg","response":0,"trial_type":"image-button-response","trial_index":37,"time_elapsed":170949,"internal_node_id":"0.0-4.0-0.15","subject_id":"5ee78cdd0103130133fdb204","study_id":"60edd13110225f80f9f3709b","session_id":"6196bf63e9dfe380e81b53b9","condition":"contingent","relevant_dimensions":["antennae","pattern"],"bee_group":{"antennae":"A","wings":"X","pattern":"D","legs":"X"},"action":"harvest","summary":"good-harvest","bonus":0.3600000000000012},{"rt":672,"stimulus":"\n                    <p><b>Action: <em>harvest</em></b></p>\n                    <p>This is the bee that you just saw.</p>\n                    <img src=\"bees-with-color/bee-B1DM.svg\" width=\"200\">\n                    <p><span class=\"greenText\"><b>Successful harvest!</b></span><br>Your pay has increased by $0.02. Your bonus pay is now $0.46.</p>\n            ","response":0,"trial_type":"html-button-response","trial_index":38,"time_elapsed":171621,"internal_node_id":"0.0-4.0-1.15","subject_id":"5ee78cdd0103130133fdb204","study_id":"60edd13110225f80f9f3709b","session_id":"6196bf63e9dfe380e81b53b9","condition":"contingent","relevant_dimensions":["antennae","pattern"],"bee_group":{"antennae":"A","wings":"X","pattern":"D","legs":"X"},"bonus":0.3600000000000012},{"rt":1703,"stimulus":"bees-with-color/bee-B1DF.svg","response":1,"trial_type":"image-button-response","trial_index":39,"time_elapsed":173326,"internal_node_id":"0.0-4.0-0.16","subject_id":"5ee78cdd0103130133fdb204","study_id":"60edd13110225f80f9f3709b","session_id":"6196bf63e9dfe380e81b53b9","condition":"contingent","relevant_dimensions":["antennae","pattern"],"bee_group":{"antennae":"A","wings":"X","pattern":"D","legs":"X"},"action":"avoid","summary":"bad-avoid","bonus":0.3600000000000012},{"rt":631,"stimulus":"\n                    <p><b>Action: <em>avoid</em></b></p>\n                    <p>This is the bee that you just saw.</p>\n                    <img src=\"bees-with-color/bee-B1DF.svg\" width=\"200\">\n                    <p><br>Your bonus pay is unchanged, and remains at $0.46.</p>\n            ","response":0,"trial_type":"html-button-response","trial_index":40,"time_elapsed":173957,"internal_node_id":"0.0-4.0-1.16","subject_id":"5ee78cdd0103130133fdb204","study_id":"60edd13110225f80f9f3709b","session_id":"6196bf63e9dfe380e81b53b9","condition":"contingent","relevant_dimensions":["antennae","pattern"],"bee_group":{"antennae":"A","wings":"X","pattern":"D","legs":"X"},"bonus":0.3600000000000012},{"rt":2503,"stimulus":"bees-with-color/bee-A2DM.svg","response":0,"trial_type":"image-button-response","trial_index":41,"time_elapsed":176462,"internal_node_id":"0.0-4.0-0.17","subject_id":"5ee78cdd0103130133fdb204","study_id":"60edd13110225f80f9f3709b","session_id":"6196bf63e9dfe380e81b53b9","condition":"contingent","relevant_dimensions":["antennae","pattern"],"bee_group":{"antennae":"A","wings":"X","pattern":"D","legs":"X"},"action":"harvest","summary":"bad-harvest","bonus":0.3600000000000012},{"rt":1080,"stimulus":"\n                    <p><b>Action: <em>harvest</em></b></p>\n                    <p>This is the bee that you just saw.</p>\n                    <img src=\"bees-with-color/bee-A2DM.svg\" width=\"200\">\n                    <p><span class=\"redText\">Bad choice, the bee was angry.</span><br><b>You have been stung!</b><br>Your pay has been decreased by $0.10. Your bonus pay is now $0.36.</p>\n            ","response":0,"trial_type":"html-button-response","trial_index":42,"time_elapsed":177542,"internal_node_id":"0.0-4.0-1.17","subject_id":"5ee78cdd0103130133fdb204","study_id":"60edd13110225f80f9f3709b","session_id":"6196bf63e9dfe380e81b53b9","condition":"contingent","relevant_dimensions":["antennae","pattern"],"bee_group":{"antennae":"A","wings":"X","pattern":"D","legs":"X"},"bonus":0.3600000000000012},{"rt":1182,"stimulus":"bees-with-color/bee-B2DM.svg","response":1,"trial_type":"image-button-response","trial_index":43,"time_elapsed":178726,"internal_node_id":"0.0-4.0-0.18","subject_id":"5ee78cdd0103130133fdb204","study_id":"60edd13110225f80f9f3709b","session_id":"6196bf63e9dfe380e81b53b9","condition":"contingent","relevant_dimensions":["antennae","pattern"],"bee_group":{"antennae":"A","wings":"X","pattern":"D","legs":"X"},"action":"avoid","summary":"bad-avoid","bonus":0.3600000000000012},{"rt":1335,"stimulus":"\n                    <p><b>Action: <em>avoid</em></b></p>\n                    <p>This is the bee that you just saw.</p>\n                    <img src=\"bees-with-color/bee-B2DM.svg\" width=\"200\">\n                    <p><br>Your bonus pay is unchanged, and remains at $0.36.</p>\n            ","response":0,"trial_type":"html-button-response","trial_index":44,"time_elapsed":180062,"internal_node_id":"0.0-4.0-1.18","subject_id":"5ee78cdd0103130133fdb204","study_id":"60edd13110225f80f9f3709b","session_id":"6196bf63e9dfe380e81b53b9","condition":"contingent","relevant_dimensions":["antennae","pattern"],"bee_group":{"antennae":"A","wings":"X","pattern":"D","legs":"X"},"bonus":0.3600000000000012},{"rt":1191,"stimulus":"bees-with-color/bee-B2DF.svg","response":0,"trial_type":"image-button-response","trial_index":45,"time_elapsed":181254,"internal_node_id":"0.0-4.0-0.19","subject_id":"5ee78cdd0103130133fdb204","study_id":"60edd13110225f80f9f3709b","session_id":"6196bf63e9dfe380e81b53b9","condition":"contingent","relevant_dimensions":["antennae","pattern"],"bee_group":{"antennae":"A","wings":"X","pattern":"D","legs":"X"},"action":"harvest","summary":"good-harvest","bonus":0.3600000000000012},{"rt":631,"stimulus":"\n                    <p><b>Action: <em>harvest</em></b></p>\n                    <p>This is the bee that you just saw.</p>\n                    <img src=\"bees-with-color/bee-B2DF.svg\" width=\"200\">\n                    <p><span class=\"greenText\"><b>Successful harvest!</b></span><br>Your pay has increased by $0.02. Your bonus pay is now $0.38.</p>\n            ","response":0,"trial_type":"html-button-response","trial_index":46,"time_elapsed":181886,"internal_node_id":"0.0-4.0-1.19","subject_id":"5ee78cdd0103130133fdb204","study_id":"60edd13110225f80f9f3709b","session_id":"6196bf63e9dfe380e81b53b9","condition":"contingent","relevant_dimensions":["antennae","pattern"],"bee_group":{"antennae":"A","wings":"X","pattern":"D","legs":"X"},"bonus":0.3600000000000012},{"rt":1088,"stimulus":"bees-with-color/bee-B1SF.svg","response":0,"trial_type":"image-button-response","trial_index":47,"time_elapsed":182974,"internal_node_id":"0.0-4.0-0.20","subject_id":"5ee78cdd0103130133fdb204","study_id":"60edd13110225f80f9f3709b","session_id":"6196bf63e9dfe380e81b53b9","condition":"contingent","relevant_dimensions":["antennae","pattern"],"bee_group":{"antennae":"A","wings":"X","pattern":"D","legs":"X"},"action":"harvest","summary":"good-harvest","bonus":0.3600000000000012},{"rt":616,"stimulus":"\n                    <p><b>Action: <em>harvest</em></b></p>\n                    <p>This is the bee that you just saw.</p>\n                    <img src=\"bees-with-color/bee-B1SF.svg\" width=\"200\">\n                    <p><span class=\"greenText\"><b>Successful harvest!</b></span><br>Your pay has increased by $0.02. Your bonus pay is now $0.40.</p>\n            ","response":0,"trial_type":"html-button-response","trial_index":48,"time_elapsed":183589,"internal_node_id":"0.0-4.0-1.20","subject_id":"5ee78cdd0103130133fdb204","study_id":"60edd13110225f80f9f3709b","session_id":"6196bf63e9dfe380e81b53b9","condition":"contingent","relevant_dimensions":["antennae","pattern"],"bee_group":{"antennae":"A","wings":"X","pattern":"D","legs":"X"},"bonus":0.3600000000000012},{"rt":1223,"stimulus":"bees-with-color/bee-A2SF.svg","response":0,"trial_type":"image-button-response","trial_index":49,"time_elapsed":184814,"internal_node_id":"0.0-4.0-0.21","subject_id":"5ee78cdd0103130133fdb204","study_id":"60edd13110225f80f9f3709b","session_id":"6196bf63e9dfe380e81b53b9","condition":"contingent","relevant_dimensions":["antennae","pattern"],"bee_group":{"antennae":"A","wings":"X","pattern":"D","legs":"X"},"action":"harvest","summary":"good-harvest","bonus":0.3600000000000012},{"rt":552,"stimulus":"\n                    <p><b>Action: <em>harvest</em></b></p>\n                    <p>This is the bee that you just saw.</p>\n                    <img src=\"bees-with-color/bee-A2SF.svg\" width=\"200\">\n                    <p><span class=\"greenText\"><b>Successful harvest!</b></span><br>Your pay has increased by $0.02. Your bonus pay is now $0.42.</p>\n            ","response":0,"trial_type":"html-button-response","trial_index":50,"time_elapsed":185365,"internal_node_id":"0.0-4.0-1.21","subject_id":"5ee78cdd0103130133fdb204","study_id":"60edd13110225f80f9f3709b","session_id":"6196bf63e9dfe380e81b53b9","condition":"contingent","relevant_dimensions":["antennae","pattern"],"bee_group":{"antennae":"A","wings":"X","pattern":"D","legs":"X"},"bonus":0.3600000000000012},{"rt":1376,"stimulus":"bees-with-color/bee-B2SF.svg","response":0,"trial_type":"image-button-response","trial_index":51,"time_elapsed":186742,"internal_node_id":"0.0-4.0-0.22","subject_id":"5ee78cdd0103130133fdb204","study_id":"60edd13110225f80f9f3709b","session_id":"6196bf63e9dfe380e81b53b9","condition":"contingent","relevant_dimensions":["antennae","pattern"],"bee_group":{"antennae":"A","wings":"X","pattern":"D","legs":"X"},"action":"harvest","summary":"good-harvest","bonus":0.3600000000000012},{"rt":448,"stimulus":"\n                    <p><b>Action: <em>harvest</em></b></p>\n                    <p>This is the bee that you just saw.</p>\n                    <img src=\"bees-with-color/bee-B2SF.svg\" width=\"200\">\n                    <p><span class=\"greenText\"><b>Successful harvest!</b></span><br>Your pay has increased by $0.02. Your bonus pay is now $0.44.</p>\n            ","response":0,"trial_type":"html-button-response","trial_index":52,"time_elapsed":187189,"internal_node_id":"0.0-4.0-1.22","subject_id":"5ee78cdd0103130133fdb204","study_id":"60edd13110225f80f9f3709b","session_id":"6196bf63e9dfe380e81b53b9","condition":"contingent","relevant_dimensions":["antennae","pattern"],"bee_group":{"antennae":"A","wings":"X","pattern":"D","legs":"X"},"bonus":0.3600000000000012},{"rt":2352,"stimulus":"bees-with-color/bee-A2DF.svg","response":1,"trial_type":"image-button-response","trial_index":53,"time_elapsed":189542,"internal_node_id":"0.0-4.0-0.23","subject_id":"5ee78cdd0103130133fdb204","study_id":"60edd13110225f80f9f3709b","session_id":"6196bf63e9dfe380e81b53b9","condition":"contingent","relevant_dimensions":["antennae","pattern"],"bee_group":{"antennae":"A","wings":"X","pattern":"D","legs":"X"},"action":"avoid","summary":"good-avoid","bonus":0.3600000000000012},{"rt":504,"stimulus":"\n                    <p><b>Action: <em>avoid</em></b></p>\n                    <p>This is the bee that you just saw.</p>\n                    <img src=\"bees-with-color/bee-A2DF.svg\" width=\"200\">\n                    <p><br>Your bonus pay is unchanged, and remains at $0.44.</p>\n            ","response":0,"trial_type":"html-button-response","trial_index":54,"time_elapsed":190046,"internal_node_id":"0.0-4.0-1.23","subject_id":"5ee78cdd0103130133fdb204","study_id":"60edd13110225f80f9f3709b","session_id":"6196bf63e9dfe380e81b53b9","condition":"contingent","relevant_dimensions":["antennae","pattern"],"bee_group":{"antennae":"A","wings":"X","pattern":"D","legs":"X"},"bonus":0.3600000000000012},{"rt":1248,"stimulus":"bees-with-color/bee-B1DM.svg","response":0,"trial_type":"image-button-response","trial_index":55,"time_elapsed":191293,"internal_node_id":"0.0-4.0-0.24","subject_id":"5ee78cdd0103130133fdb204","study_id":"60edd13110225f80f9f3709b","session_id":"6196bf63e9dfe380e81b53b9","condition":"contingent","relevant_dimensions":["antennae","pattern"],"bee_group":{"antennae":"A","wings":"X","pattern":"D","legs":"X"},"action":"harvest","summary":"good-harvest","bonus":0.3600000000000012},{"rt":519,"stimulus":"\n                    <p><b>Action: <em>harvest</em></b></p>\n                    <p>This is the bee that you just saw.</p>\n                    <img src=\"bees-with-color/bee-B1DM.svg\" width=\"200\">\n                    <p><span class=\"greenText\"><b>Successful harvest!</b></span><br>Your pay has increased by $0.02. Your bonus pay is now $0.46.</p>\n            ","response":0,"trial_type":"html-button-response","trial_index":56,"time_elapsed":191814,"internal_node_id":"0.0-4.0-1.24","subject_id":"5ee78cdd0103130133fdb204","study_id":"60edd13110225f80f9f3709b","session_id":"6196bf63e9dfe380e81b53b9","condition":"contingent","relevant_dimensions":["antennae","pattern"],"bee_group":{"antennae":"A","wings":"X","pattern":"D","legs":"X"},"bonus":0.3600000000000012},{"rt":2375,"stimulus":"bees-with-color/bee-A1DM.svg","response":1,"trial_type":"image-button-response","trial_index":57,"time_elapsed":194190,"internal_node_id":"0.0-4.0-0.25","subject_id":"5ee78cdd0103130133fdb204","study_id":"60edd13110225f80f9f3709b","session_id":"6196bf63e9dfe380e81b53b9","condition":"contingent","relevant_dimensions":["antennae","pattern"],"bee_group":{"antennae":"A","wings":"X","pattern":"D","legs":"X"},"action":"avoid","summary":"good-avoid","bonus":0.3600000000000012},{"rt":824,"stimulus":"\n                    <p><b>Action: <em>avoid</em></b></p>\n                    <p>This is the bee that you just saw.</p>\n                    <img src=\"bees-with-color/bee-A1DM.svg\" width=\"200\">\n                    <p><br>Your bonus pay is unchanged, and remains at $0.46.</p>\n            ","response":0,"trial_type":"html-button-response","trial_index":58,"time_elapsed":195014,"internal_node_id":"0.0-4.0-1.25","subject_id":"5ee78cdd0103130133fdb204","study_id":"60edd13110225f80f9f3709b","session_id":"6196bf63e9dfe380e81b53b9","condition":"contingent","relevant_dimensions":["antennae","pattern"],"bee_group":{"antennae":"A","wings":"X","pattern":"D","legs":"X"},"bonus":0.3600000000000012},{"rt":1416,"stimulus":"bees-with-color/bee-A2SM.svg","response":0,"trial_type":"image-button-response","trial_index":59,"time_elapsed":196430,"internal_node_id":"0.0-4.0-0.26","subject_id":"5ee78cdd0103130133fdb204","study_id":"60edd13110225f80f9f3709b","session_id":"6196bf63e9dfe380e81b53b9","condition":"contingent","relevant_dimensions":["antennae","pattern"],"bee_group":{"antennae":"A","wings":"X","pattern":"D","legs":"X"},"action":"harvest","summary":"good-harvest","bonus":0.3600000000000012},{"rt":607,"stimulus":"\n                    <p><b>Action: <em>harvest</em></b></p>\n                    <p>This is the bee that you just saw.</p>\n                    <img src=\"bees-with-color/bee-A2SM.svg\" width=\"200\">\n                    <p><span class=\"greenText\"><b>Successful harvest!</b></span><br>Your pay has increased by $0.02. Your bonus pay is now $0.48.</p>\n            ","response":0,"trial_type":"html-button-response","trial_index":60,"time_elapsed":197037,"internal_node_id":"0.0-4.0-1.26","subject_id":"5ee78cdd0103130133fdb204","study_id":"60edd13110225f80f9f3709b","session_id":"6196bf63e9dfe380e81b53b9","condition":"contingent","relevant_dimensions":["antennae","pattern"],"bee_group":{"antennae":"A","wings":"X","pattern":"D","legs":"X"},"bonus":0.3600000000000012},{"rt":1823,"stimulus":"bees-with-color/bee-B2SM.svg","response":0,"trial_type":"image-button-response","trial_index":61,"time_elapsed":198861,"internal_node_id":"0.0-4.0-0.27","subject_id":"5ee78cdd0103130133fdb204","study_id":"60edd13110225f80f9f3709b","session_id":"6196bf63e9dfe380e81b53b9","condition":"contingent","relevant_dimensions":["antennae","pattern"],"bee_group":{"antennae":"A","wings":"X","pattern":"D","legs":"X"},"action":"harvest","summary":"good-harvest","bonus":0.3600000000000012},{"rt":632,"stimulus":"\n                    <p><b>Action: <em>harvest</em></b></p>\n                    <p>This is the bee that you just saw.</p>\n                    <img src=\"bees-with-color/bee-B2SM.svg\" width=\"200\">\n                    <p><span class=\"greenText\"><b>Successful harvest!</b></span><br>Your pay has increased by $0.02. Your bonus pay is now $0.50.</p>\n            ","response":0,"trial_type":"html-button-response","trial_index":62,"time_elapsed":199494,"internal_node_id":"0.0-4.0-1.27","subject_id":"5ee78cdd0103130133fdb204","study_id":"60edd13110225f80f9f3709b","session_id":"6196bf63e9dfe380e81b53b9","condition":"contingent","relevant_dimensions":["antennae","pattern"],"bee_group":{"antennae":"A","wings":"X","pattern":"D","legs":"X"},"bonus":0.3600000000000012},{"rt":3319,"stimulus":"bees-with-color/bee-A1SM.svg","response":0,"trial_type":"image-button-response","trial_index":63,"time_elapsed":202814,"internal_node_id":"0.0-4.0-0.28","subject_id":"5ee78cdd0103130133fdb204","study_id":"60edd13110225f80f9f3709b","session_id":"6196bf63e9dfe380e81b53b9","condition":"contingent","relevant_dimensions":["antennae","pattern"],"bee_group":{"antennae":"A","wings":"X","pattern":"D","legs":"X"},"action":"harvest","summary":"good-harvest","bonus":0.3600000000000012},{"rt":952,"stimulus":"\n                    <p><b>Action: <em>harvest</em></b></p>\n                    <p>This is the bee that you just saw.</p>\n                    <img src=\"bees-with-color/bee-A1SM.svg\" width=\"200\">\n                    <p><span class=\"greenText\"><b>Successful harvest!</b></span><br>Your pay has increased by $0.02. Your bonus pay is now $0.52.</p>\n            ","response":0,"trial_type":"html-button-response","trial_index":64,"time_elapsed":203766,"internal_node_id":"0.0-4.0-1.28","subject_id":"5ee78cdd0103130133fdb204","study_id":"60edd13110225f80f9f3709b","session_id":"6196bf63e9dfe380e81b53b9","condition":"contingent","relevant_dimensions":["antennae","pattern"],"bee_group":{"antennae":"A","wings":"X","pattern":"D","legs":"X"},"bonus":0.3600000000000012},{"rt":1343,"stimulus":"bees-with-color/bee-A1SF.svg","response":1,"trial_type":"image-button-response","trial_index":65,"time_elapsed":205110,"internal_node_id":"0.0-4.0-0.29","subject_id":"5ee78cdd0103130133fdb204","study_id":"60edd13110225f80f9f3709b","session_id":"6196bf63e9dfe380e81b53b9","condition":"contingent","relevant_dimensions":["antennae","pattern"],"bee_group":{"antennae":"A","wings":"X","pattern":"D","legs":"X"},"action":"avoid","summary":"bad-avoid","bonus":0.3600000000000012},{"rt":487,"stimulus":"\n                    <p><b>Action: <em>avoid</em></b></p>\n                    <p>This is the bee that you just saw.</p>\n                    <img src=\"bees-with-color/bee-A1SF.svg\" width=\"200\">\n                    <p><br>Your bonus pay is unchanged, and remains at $0.52.</p>\n            ","response":0,"trial_type":"html-button-response","trial_index":66,"time_elapsed":205597,"internal_node_id":"0.0-4.0-1.29","subject_id":"5ee78cdd0103130133fdb204","study_id":"60edd13110225f80f9f3709b","session_id":"6196bf63e9dfe380e81b53b9","condition":"contingent","relevant_dimensions":["antennae","pattern"],"bee_group":{"antennae":"A","wings":"X","pattern":"D","legs":"X"},"bonus":0.3600000000000012},{"rt":1144,"stimulus":"bees-with-color/bee-B1SM.svg","response":0,"trial_type":"image-button-response","trial_index":67,"time_elapsed":206742,"internal_node_id":"0.0-4.0-0.30","subject_id":"5ee78cdd0103130133fdb204","study_id":"60edd13110225f80f9f3709b","session_id":"6196bf63e9dfe380e81b53b9","condition":"contingent","relevant_dimensions":["antennae","pattern"],"bee_group":{"antennae":"A","wings":"X","pattern":"D","legs":"X"},"action":"harvest","summary":"good-harvest","bonus":0.3600000000000012},{"rt":824,"stimulus":"\n                    <p><b>Action: <em>harvest</em></b></p>\n                    <p>This is the bee that you just saw.</p>\n                    <img src=\"bees-with-color/bee-B1SM.svg\" width=\"200\">\n                    <p><span class=\"greenText\"><b>Successful harvest!</b></span><br>Your pay has increased by $0.02. Your bonus pay is now $0.54.</p>\n            ","response":0,"trial_type":"html-button-response","trial_index":68,"time_elapsed":207566,"internal_node_id":"0.0-4.0-1.30","subject_id":"5ee78cdd0103130133fdb204","study_id":"60edd13110225f80f9f3709b","session_id":"6196bf63e9dfe380e81b53b9","condition":"contingent","relevant_dimensions":["antennae","pattern"],"bee_group":{"antennae":"A","wings":"X","pattern":"D","legs":"X"},"bonus":0.3600000000000012},{"rt":1360,"stimulus":"bees-with-color/bee-A1DF.svg","response":1,"trial_type":"image-button-response","trial_index":69,"time_elapsed":208926,"internal_node_id":"0.0-4.0-0.31","subject_id":"5ee78cdd0103130133fdb204","study_id":"60edd13110225f80f9f3709b","session_id":"6196bf63e9dfe380e81b53b9","condition":"contingent","relevant_dimensions":["antennae","pattern"],"bee_group":{"antennae":"A","wings":"X","pattern":"D","legs":"X"},"action":"avoid","summary":"good-avoid","bonus":0.3600000000000012},{"rt":327,"stimulus":"\n                    <p><b>Action: <em>avoid</em></b></p>\n                    <p>This is the bee that you just saw.</p>\n                    <img src=\"bees-with-color/bee-A1DF.svg\" width=\"200\">\n                    <p><br>Your bonus pay is unchanged, and remains at $0.54.</p>\n            ","response":0,"trial_type":"html-button-response","trial_index":70,"time_elapsed":209253,"internal_node_id":"0.0-4.0-1.31","subject_id":"5ee78cdd0103130133fdb204","study_id":"60edd13110225f80f9f3709b","session_id":"6196bf63e9dfe380e81b53b9","condition":"contingent","relevant_dimensions":["antennae","pattern"],"bee_group":{"antennae":"A","wings":"X","pattern":"D","legs":"X"},"bonus":0.3600000000000012},{"rt":1671,"stimulus":"bees-with-color/bee-A1SF.svg","response":0,"trial_type":"image-button-response","trial_index":71,"time_elapsed":210926,"internal_node_id":"0.0-4.0-0.32","subject_id":"5ee78cdd0103130133fdb204","study_id":"60edd13110225f80f9f3709b","session_id":"6196bf63e9dfe380e81b53b9","condition":"contingent","relevant_dimensions":["antennae","pattern"],"bee_group":{"antennae":"A","wings":"X","pattern":"D","legs":"X"},"action":"harvest","summary":"good-harvest","bonus":0.3600000000000012},{"rt":560,"stimulus":"\n                    <p><b>Action: <em>harvest</em></b></p>\n                    <p>This is the bee that you just saw.</p>\n                    <img src=\"bees-with-color/bee-A1SF.svg\" width=\"200\">\n                    <p><span class=\"greenText\"><b>Successful harvest!</b></span><br>Your pay has increased by $0.02. Your bonus pay is now $0.56.</p>\n            ","response":0,"trial_type":"html-button-response","trial_index":72,"time_elapsed":211486,"internal_node_id":"0.0-4.0-1.32","subject_id":"5ee78cdd0103130133fdb204","study_id":"60edd13110225f80f9f3709b","session_id":"6196bf63e9dfe380e81b53b9","condition":"contingent","relevant_dimensions":["antennae","pattern"],"bee_group":{"antennae":"A","wings":"X","pattern":"D","legs":"X"},"bonus":0.3600000000000012},{"rt":2896,"stimulus":"bees-with-color/bee-B1DM.svg","response":1,"trial_type":"image-button-response","trial_index":73,"time_elapsed":214382,"internal_node_id":"0.0-4.0-0.33","subject_id":"5ee78cdd0103130133fdb204","study_id":"60edd13110225f80f9f3709b","session_id":"6196bf63e9dfe380e81b53b9","condition":"contingent","relevant_dimensions":["antennae","pattern"],"bee_group":{"antennae":"A","wings":"X","pattern":"D","legs":"X"},"action":"avoid","summary":"bad-avoid","bonus":0.3600000000000012},{"rt":775,"stimulus":"\n                    <p><b>Action: <em>avoid</em></b></p>\n                    <p>This is the bee that you just saw.</p>\n                    <img src=\"bees-with-color/bee-B1DM.svg\" width=\"200\">\n                    <p><br>Your bonus pay is unchanged, and remains at $0.56.</p>\n            ","response":0,"trial_type":"html-button-response","trial_index":74,"time_elapsed":215158,"internal_node_id":"0.0-4.0-1.33","subject_id":"5ee78cdd0103130133fdb204","study_id":"60edd13110225f80f9f3709b","session_id":"6196bf63e9dfe380e81b53b9","condition":"contingent","relevant_dimensions":["antennae","pattern"],"bee_group":{"antennae":"A","wings":"X","pattern":"D","legs":"X"},"bonus":0.3600000000000012},{"rt":1912,"stimulus":"bees-with-color/bee-A1DF.svg","response":0,"trial_type":"image-button-response","trial_index":75,"time_elapsed":217069,"internal_node_id":"0.0-4.0-0.34","subject_id":"5ee78cdd0103130133fdb204","study_id":"60edd13110225f80f9f3709b","session_id":"6196bf63e9dfe380e81b53b9","condition":"contingent","relevant_dimensions":["antennae","pattern"],"bee_group":{"antennae":"A","wings":"X","pattern":"D","legs":"X"},"action":"harvest","summary":"bad-harvest","bonus":0.3600000000000012},{"rt":832,"stimulus":"\n                    <p><b>Action: <em>harvest</em></b></p>\n                    <p>This is the bee that you just saw.</p>\n                    <img src=\"bees-with-color/bee-A1DF.svg\" width=\"200\">\n                    <p><span class=\"redText\">Bad choice, the bee was angry.</span><br><b>You have been stung!</b><br>Your pay has been decreased by $0.10. Your bonus pay is now $0.46.</p>\n            ","response":0,"trial_type":"html-button-response","trial_index":76,"time_elapsed":217902,"internal_node_id":"0.0-4.0-1.34","subject_id":"5ee78cdd0103130133fdb204","study_id":"60edd13110225f80f9f3709b","session_id":"6196bf63e9dfe380e81b53b9","condition":"contingent","relevant_dimensions":["antennae","pattern"],"bee_group":{"antennae":"A","wings":"X","pattern":"D","legs":"X"},"bonus":0.3600000000000012},{"rt":1039,"stimulus":"bees-with-color/bee-A1DM.svg","response":0,"trial_type":"image-button-response","trial_index":77,"time_elapsed":218942,"internal_node_id":"0.0-4.0-0.35","subject_id":"5ee78cdd0103130133fdb204","study_id":"60edd13110225f80f9f3709b","session_id":"6196bf63e9dfe380e81b53b9","condition":"contingent","relevant_dimensions":["antennae","pattern"],"bee_group":{"antennae":"A","wings":"X","pattern":"D","legs":"X"},"action":"harvest","summary":"bad-harvest","bonus":0.3600000000000012},{"rt":583,"stimulus":"\n                    <p><b>Action: <em>harvest</em></b></p>\n                    <p>This is the bee that you just saw.</p>\n                    <img src=\"bees-with-color/bee-A1DM.svg\" width=\"200\">\n                    <p><span class=\"redText\">Bad choice, the bee was angry.</span><br><b>You have been stung!</b><br>Your pay has been decreased by $0.10. Your bonus pay is now $0.36.</p>\n            ","response":0,"trial_type":"html-button-response","trial_index":78,"time_elapsed":219525,"internal_node_id":"0.0-4.0-1.35","subject_id":"5ee78cdd0103130133fdb204","study_id":"60edd13110225f80f9f3709b","session_id":"6196bf63e9dfe380e81b53b9","condition":"contingent","relevant_dimensions":["antennae","pattern"],"bee_group":{"antennae":"A","wings":"X","pattern":"D","legs":"X"},"bonus":0.3600000000000012},{"rt":992,"stimulus":"bees-with-color/bee-A2SF.svg","response":0,"trial_type":"image-button-response","trial_index":79,"time_elapsed":220517,"internal_node_id":"0.0-4.0-0.36","subject_id":"5ee78cdd0103130133fdb204","study_id":"60edd13110225f80f9f3709b","session_id":"6196bf63e9dfe380e81b53b9","condition":"contingent","relevant_dimensions":["antennae","pattern"],"bee_group":{"antennae":"A","wings":"X","pattern":"D","legs":"X"},"action":"harvest","summary":"good-harvest","bonus":0.3600000000000012},{"rt":472,"stimulus":"\n                    <p><b>Action: <em>harvest</em></b></p>\n                    <p>This is the bee that you just saw.</p>\n                    <img src=\"bees-with-color/bee-A2SF.svg\" width=\"200\">\n                    <p><span class=\"greenText\"><b>Successful harvest!</b></span><br>Your pay has increased by $0.02. Your bonus pay is now $0.38.</p>\n            ","response":0,"trial_type":"html-button-response","trial_index":80,"time_elapsed":220990,"internal_node_id":"0.0-4.0-1.36","subject_id":"5ee78cdd0103130133fdb204","study_id":"60edd13110225f80f9f3709b","session_id":"6196bf63e9dfe380e81b53b9","condition":"contingent","relevant_dimensions":["antennae","pattern"],"bee_group":{"antennae":"A","wings":"X","pattern":"D","legs":"X"},"bonus":0.3600000000000012},{"rt":1136,"stimulus":"bees-with-color/bee-B1SM.svg","response":0,"trial_type":"image-button-response","trial_index":81,"time_elapsed":222126,"internal_node_id":"0.0-4.0-0.37","subject_id":"5ee78cdd0103130133fdb204","study_id":"60edd13110225f80f9f3709b","session_id":"6196bf63e9dfe380e81b53b9","condition":"contingent","relevant_dimensions":["antennae","pattern"],"bee_group":{"antennae":"A","wings":"X","pattern":"D","legs":"X"},"action":"harvest","summary":"good-harvest","bonus":0.3600000000000012},{"rt":479,"stimulus":"\n                    <p><b>Action: <em>harvest</em></b></p>\n                    <p>This is the bee that you just saw.</p>\n                    <img src=\"bees-with-color/bee-B1SM.svg\" width=\"200\">\n                    <p><span class=\"greenText\"><b>Successful harvest!</b></span><br>Your pay has increased by $0.02. Your bonus pay is now $0.40.</p>\n            ","response":0,"trial_type":"html-button-response","trial_index":82,"time_elapsed":222606,"internal_node_id":"0.0-4.0-1.37","subject_id":"5ee78cdd0103130133fdb204","study_id":"60edd13110225f80f9f3709b","session_id":"6196bf63e9dfe380e81b53b9","condition":"contingent","relevant_dimensions":["antennae","pattern"],"bee_group":{"antennae":"A","wings":"X","pattern":"D","legs":"X"},"bonus":0.3600000000000012},{"rt":4663,"stimulus":"bees-with-color/bee-B2SF.svg","response":0,"trial_type":"image-button-response","trial_index":83,"time_elapsed":227270,"internal_node_id":"0.0-4.0-0.38","subject_id":"5ee78cdd0103130133fdb204","study_id":"60edd13110225f80f9f3709b","session_id":"6196bf63e9dfe380e81b53b9","condition":"contingent","relevant_dimensions":["antennae","pattern"],"bee_group":{"antennae":"A","wings":"X","pattern":"D","legs":"X"},"action":"harvest","summary":"good-harvest","bonus":0.3600000000000012},{"rt":535,"stimulus":"\n                    <p><b>Action: <em>harvest</em></b></p>\n                    <p>This is the bee that you just saw.</p>\n                    <img src=\"bees-with-color/bee-B2SF.svg\" width=\"200\">\n                    <p><span class=\"greenText\"><b>Successful harvest!</b></span><br>Your pay has increased by $0.02. Your bonus pay is now $0.42.</p>\n            ","response":0,"trial_type":"html-button-response","trial_index":84,"time_elapsed":227806,"internal_node_id":"0.0-4.0-1.38","subject_id":"5ee78cdd0103130133fdb204","study_id":"60edd13110225f80f9f3709b","session_id":"6196bf63e9dfe380e81b53b9","condition":"contingent","relevant_dimensions":["antennae","pattern"],"bee_group":{"antennae":"A","wings":"X","pattern":"D","legs":"X"},"bonus":0.3600000000000012},{"rt":2615,"stimulus":"bees-with-color/bee-A2SM.svg","response":0,"trial_type":"image-button-response","trial_index":85,"time_elapsed":230422,"internal_node_id":"0.0-4.0-0.39","subject_id":"5ee78cdd0103130133fdb204","study_id":"60edd13110225f80f9f3709b","session_id":"6196bf63e9dfe380e81b53b9","condition":"contingent","relevant_dimensions":["antennae","pattern"],"bee_group":{"antennae":"A","wings":"X","pattern":"D","legs":"X"},"action":"harvest","summary":"good-harvest","bonus":0.3600000000000012},{"rt":807,"stimulus":"\n                    <p><b>Action: <em>harvest</em></b></p>\n                    <p>This is the bee that you just saw.</p>\n                    <img src=\"bees-with-color/bee-A2SM.svg\" width=\"200\">\n                    <p><span class=\"greenText\"><b>Successful harvest!</b></span><br>Your pay has increased by $0.02. Your bonus pay is now $0.44.</p>\n            ","response":0,"trial_type":"html-button-response","trial_index":86,"time_elapsed":231230,"internal_node_id":"0.0-4.0-1.39","subject_id":"5ee78cdd0103130133fdb204","study_id":"60edd13110225f80f9f3709b","session_id":"6196bf63e9dfe380e81b53b9","condition":"contingent","relevant_dimensions":["antennae","pattern"],"bee_group":{"antennae":"A","wings":"X","pattern":"D","legs":"X"},"bonus":0.3600000000000012},{"rt":1032,"stimulus":"bees-with-color/bee-A2DM.svg","response":1,"trial_type":"image-button-response","trial_index":87,"time_elapsed":232262,"internal_node_id":"0.0-4.0-0.40","subject_id":"5ee78cdd0103130133fdb204","study_id":"60edd13110225f80f9f3709b","session_id":"6196bf63e9dfe380e81b53b9","condition":"contingent","relevant_dimensions":["antennae","pattern"],"bee_group":{"antennae":"A","wings":"X","pattern":"D","legs":"X"},"action":"avoid","summary":"good-avoid","bonus":0.3600000000000012},{"rt":592,"stimulus":"\n                    <p><b>Action: <em>avoid</em></b></p>\n                    <p>This is the bee that you just saw.</p>\n                    <img src=\"bees-with-color/bee-A2DM.svg\" width=\"200\">\n                    <p><br>Your bonus pay is unchanged, and remains at $0.44.</p>\n            ","response":0,"trial_type":"html-button-response","trial_index":88,"time_elapsed":232854,"internal_node_id":"0.0-4.0-1.40","subject_id":"5ee78cdd0103130133fdb204","study_id":"60edd13110225f80f9f3709b","session_id":"6196bf63e9dfe380e81b53b9","condition":"contingent","relevant_dimensions":["antennae","pattern"],"bee_group":{"antennae":"A","wings":"X","pattern":"D","legs":"X"},"bonus":0.3600000000000012},{"rt":1720,"stimulus":"bees-with-color/bee-A2DF.svg","response":1,"trial_type":"image-button-response","trial_index":89,"time_elapsed":234574,"internal_node_id":"0.0-4.0-0.41","subject_id":"5ee78cdd0103130133fdb204","study_id":"60edd13110225f80f9f3709b","session_id":"6196bf63e9dfe380e81b53b9","condition":"contingent","relevant_dimensions":["antennae","pattern"],"bee_group":{"antennae":"A","wings":"X","pattern":"D","legs":"X"},"action":"avoid","summary":"good-avoid","bonus":0.3600000000000012},{"rt":336,"stimulus":"\n                    <p><b>Action: <em>avoid</em></b></p>\n                    <p>This is the bee that you just saw.</p>\n                    <img src=\"bees-with-color/bee-A2DF.svg\" width=\"200\">\n                    <p><br>Your bonus pay is unchanged, and remains at $0.44.</p>\n            ","response":0,"trial_type":"html-button-response","trial_index":90,"time_elapsed":234910,"internal_node_id":"0.0-4.0-1.41","subject_id":"5ee78cdd0103130133fdb204","study_id":"60edd13110225f80f9f3709b","session_id":"6196bf63e9dfe380e81b53b9","condition":"contingent","relevant_dimensions":["antennae","pattern"],"bee_group":{"antennae":"A","wings":"X","pattern":"D","legs":"X"},"bonus":0.3600000000000012},{"rt":1000,"stimulus":"bees-with-color/bee-B1SF.svg","response":0,"trial_type":"image-button-response","trial_index":91,"time_elapsed":235909,"internal_node_id":"0.0-4.0-0.42","subject_id":"5ee78cdd0103130133fdb204","study_id":"60edd13110225f80f9f3709b","session_id":"6196bf63e9dfe380e81b53b9","condition":"contingent","relevant_dimensions":["antennae","pattern"],"bee_group":{"antennae":"A","wings":"X","pattern":"D","legs":"X"},"action":"harvest","summary":"good-harvest","bonus":0.3600000000000012},{"rt":480,"stimulus":"\n                    <p><b>Action: <em>harvest</em></b></p>\n                    <p>This is the bee that you just saw.</p>\n                    <img src=\"bees-with-color/bee-B1SF.svg\" width=\"200\">\n                    <p><span class=\"greenText\"><b>Successful harvest!</b></span><br>Your pay has increased by $0.02. Your bonus pay is now $0.46.</p>\n            ","response":0,"trial_type":"html-button-response","trial_index":92,"time_elapsed":236390,"internal_node_id":"0.0-4.0-1.42","subject_id":"5ee78cdd0103130133fdb204","study_id":"60edd13110225f80f9f3709b","session_id":"6196bf63e9dfe380e81b53b9","condition":"contingent","relevant_dimensions":["antennae","pattern"],"bee_group":{"antennae":"A","wings":"X","pattern":"D","legs":"X"},"bonus":0.3600000000000012},{"rt":1784,"stimulus":"bees-with-color/bee-B2DM.svg","response":1,"trial_type":"image-button-response","trial_index":93,"time_elapsed":238174,"internal_node_id":"0.0-4.0-0.43","subject_id":"5ee78cdd0103130133fdb204","study_id":"60edd13110225f80f9f3709b","session_id":"6196bf63e9dfe380e81b53b9","condition":"contingent","relevant_dimensions":["antennae","pattern"],"bee_group":{"antennae":"A","wings":"X","pattern":"D","legs":"X"},"action":"avoid","summary":"bad-avoid","bonus":0.3600000000000012},{"rt":432,"stimulus":"\n                    <p><b>Action: <em>avoid</em></b></p>\n                    <p>This is the bee that you just saw.</p>\n                    <img src=\"bees-with-color/bee-B2DM.svg\" width=\"200\">\n                    <p><br>Your bonus pay is unchanged, and remains at $0.46.</p>\n            ","response":0,"trial_type":"html-button-response","trial_index":94,"time_elapsed":238606,"internal_node_id":"0.0-4.0-1.43","subject_id":"5ee78cdd0103130133fdb204","study_id":"60edd13110225f80f9f3709b","session_id":"6196bf63e9dfe380e81b53b9","condition":"contingent","relevant_dimensions":["antennae","pattern"],"bee_group":{"antennae":"A","wings":"X","pattern":"D","legs":"X"},"bonus":0.3600000000000012},{"rt":1703,"stimulus":"bees-with-color/bee-B2DF.svg","response":0,"trial_type":"image-button-response","trial_index":95,"time_elapsed":240310,"internal_node_id":"0.0-4.0-0.44","subject_id":"5ee78cdd0103130133fdb204","study_id":"60edd13110225f80f9f3709b","session_id":"6196bf63e9dfe380e81b53b9","condition":"contingent","relevant_dimensions":["antennae","pattern"],"bee_group":{"antennae":"A","wings":"X","pattern":"D","legs":"X"},"action":"harvest","summary":"good-harvest","bonus":0.3600000000000012},{"rt":536,"stimulus":"\n                    <p><b>Action: <em>harvest</em></b></p>\n                    <p>This is the bee that you just saw.</p>\n                    <img src=\"bees-with-color/bee-B2DF.svg\" width=\"200\">\n                    <p><span class=\"greenText\"><b>Successful harvest!</b></span><br>Your pay has increased by $0.02. Your bonus pay is now $0.48.</p>\n            ","response":0,"trial_type":"html-button-response","trial_index":96,"time_elapsed":240846,"internal_node_id":"0.0-4.0-1.44","subject_id":"5ee78cdd0103130133fdb204","study_id":"60edd13110225f80f9f3709b","session_id":"6196bf63e9dfe380e81b53b9","condition":"contingent","relevant_dimensions":["antennae","pattern"],"bee_group":{"antennae":"A","wings":"X","pattern":"D","legs":"X"},"bonus":0.3600000000000012},{"rt":1464,"stimulus":"bees-with-color/bee-B2SM.svg","response":0,"trial_type":"image-button-response","trial_index":97,"time_elapsed":242310,"internal_node_id":"0.0-4.0-0.45","subject_id":"5ee78cdd0103130133fdb204","study_id":"60edd13110225f80f9f3709b","session_id":"6196bf63e9dfe380e81b53b9","condition":"contingent","relevant_dimensions":["antennae","pattern"],"bee_group":{"antennae":"A","wings":"X","pattern":"D","legs":"X"},"action":"harvest","summary":"good-harvest","bonus":0.3600000000000012},{"rt":487,"stimulus":"\n                    <p><b>Action: <em>harvest</em></b></p>\n                    <p>This is the bee that you just saw.</p>\n                    <img src=\"bees-with-color/bee-B2SM.svg\" width=\"200\">\n                    <p><span class=\"greenText\"><b>Successful harvest!</b></span><br>Your pay has increased by $0.02. Your bonus pay is now $0.50.</p>\n            ","response":0,"trial_type":"html-button-response","trial_index":98,"time_elapsed":242798,"internal_node_id":"0.0-4.0-1.45","subject_id":"5ee78cdd0103130133fdb204","study_id":"60edd13110225f80f9f3709b","session_id":"6196bf63e9dfe380e81b53b9","condition":"contingent","relevant_dimensions":["antennae","pattern"],"bee_group":{"antennae":"A","wings":"X","pattern":"D","legs":"X"},"bonus":0.3600000000000012},{"rt":1247,"stimulus":"bees-with-color/bee-B1DF.svg","response":1,"trial_type":"image-button-response","trial_index":99,"time_elapsed":244046,"internal_node_id":"0.0-4.0-0.46","subject_id":"5ee78cdd0103130133fdb204","study_id":"60edd13110225f80f9f3709b","session_id":"6196bf63e9dfe380e81b53b9","condition":"contingent","relevant_dimensions":["antennae","pattern"],"bee_group":{"antennae":"A","wings":"X","pattern":"D","legs":"X"},"action":"avoid","summary":"bad-avoid","bonus":0.3600000000000012},{"rt":319,"stimulus":"\n                    <p><b>Action: <em>avoid</em></b></p>\n                    <p>This is the bee that you just saw.</p>\n                    <img src=\"bees-with-color/bee-B1DF.svg\" width=\"200\">\n                    <p><br>Your bonus pay is unchanged, and remains at $0.50.</p>\n            ","response":0,"trial_type":"html-button-response","trial_index":100,"time_elapsed":244366,"internal_node_id":"0.0-4.0-1.46","subject_id":"5ee78cdd0103130133fdb204","study_id":"60edd13110225f80f9f3709b","session_id":"6196bf63e9dfe380e81b53b9","condition":"contingent","relevant_dimensions":["antennae","pattern"],"bee_group":{"antennae":"A","wings":"X","pattern":"D","legs":"X"},"bonus":0.3600000000000012},{"rt":2255,"stimulus":"bees-with-color/bee-A1SM.svg","response":0,"trial_type":"image-button-response","trial_index":101,"time_elapsed":246622,"internal_node_id":"0.0-4.0-0.47","subject_id":"5ee78cdd0103130133fdb204","study_id":"60edd13110225f80f9f3709b","session_id":"6196bf63e9dfe380e81b53b9","condition":"contingent","relevant_dimensions":["antennae","pattern"],"bee_group":{"antennae":"A","wings":"X","pattern":"D","legs":"X"},"action":"harvest","summary":"good-harvest","bonus":0.3600000000000012},{"rt":439,"stimulus":"\n                    <p><b>Action: <em>harvest</em></b></p>\n                    <p>This is the bee that you just saw.</p>\n                    <img src=\"bees-with-color/bee-A1SM.svg\" width=\"200\">\n                    <p><span class=\"greenText\"><b>Successful harvest!</b></span><br>Your pay has increased by $0.02. Your bonus pay is now $0.52.</p>\n            ","response":0,"trial_type":"html-button-response","trial_index":102,"time_elapsed":247061,"internal_node_id":"0.0-4.0-1.47","subject_id":"5ee78cdd0103130133fdb204","study_id":"60edd13110225f80f9f3709b","session_id":"6196bf63e9dfe380e81b53b9","condition":"contingent","relevant_dimensions":["antennae","pattern"],"bee_group":{"antennae":"A","wings":"X","pattern":"D","legs":"X"},"bonus":0.3600000000000012},{"rt":1008,"stimulus":"bees-with-color/bee-B2SM.svg","response":0,"trial_type":"image-button-response","trial_index":103,"time_elapsed":248070,"internal_node_id":"0.0-4.0-0.48","subject_id":"5ee78cdd0103130133fdb204","study_id":"60edd13110225f80f9f3709b","session_id":"6196bf63e9dfe380e81b53b9","condition":"contingent","relevant_dimensions":["antennae","pattern"],"bee_group":{"antennae":"A","wings":"X","pattern":"D","legs":"X"},"action":"harvest","summary":"good-harvest","bonus":0.3600000000000012},{"rt":335,"stimulus":"\n                    <p><b>Action: <em>harvest</em></b></p>\n                    <p>This is the bee that you just saw.</p>\n                    <img src=\"bees-with-color/bee-B2SM.svg\" width=\"200\">\n                    <p><span class=\"greenText\"><b>Successful harvest!</b></span><br>Your pay has increased by $0.02. Your bonus pay is now $0.54.</p>\n            ","response":0,"trial_type":"html-button-response","trial_index":104,"time_elapsed":248406,"internal_node_id":"0.0-4.0-1.48","subject_id":"5ee78cdd0103130133fdb204","study_id":"60edd13110225f80f9f3709b","session_id":"6196bf63e9dfe380e81b53b9","condition":"contingent","relevant_dimensions":["antennae","pattern"],"bee_group":{"antennae":"A","wings":"X","pattern":"D","legs":"X"},"bonus":0.3600000000000012},{"rt":1535,"stimulus":"bees-with-color/bee-A1DF.svg","response":1,"trial_type":"image-button-response","trial_index":105,"time_elapsed":249942,"internal_node_id":"0.0-4.0-0.49","subject_id":"5ee78cdd0103130133fdb204","study_id":"60edd13110225f80f9f3709b","session_id":"6196bf63e9dfe380e81b53b9","condition":"contingent","relevant_dimensions":["antennae","pattern"],"bee_group":{"antennae":"A","wings":"X","pattern":"D","legs":"X"},"action":"avoid","summary":"good-avoid","bonus":0.3600000000000012},{"rt":295,"stimulus":"\n                    <p><b>Action: <em>avoid</em></b></p>\n                    <p>This is the bee that you just saw.</p>\n                    <img src=\"bees-with-color/bee-A1DF.svg\" width=\"200\">\n                    <p><br>Your bonus pay is unchanged, and remains at $0.54.</p>\n            ","response":0,"trial_type":"html-button-response","trial_index":106,"time_elapsed":250238,"internal_node_id":"0.0-4.0-1.49","subject_id":"5ee78cdd0103130133fdb204","study_id":"60edd13110225f80f9f3709b","session_id":"6196bf63e9dfe380e81b53b9","condition":"contingent","relevant_dimensions":["antennae","pattern"],"bee_group":{"antennae":"A","wings":"X","pattern":"D","legs":"X"},"bonus":0.3600000000000012},{"rt":1544,"stimulus":"bees-with-color/bee-A1DM.svg","response":0,"trial_type":"image-button-response","trial_index":107,"time_elapsed":251782,"internal_node_id":"0.0-4.0-0.50","subject_id":"5ee78cdd0103130133fdb204","study_id":"60edd13110225f80f9f3709b","session_id":"6196bf63e9dfe380e81b53b9","condition":"contingent","relevant_dimensions":["antennae","pattern"],"bee_group":{"antennae":"A","wings":"X","pattern":"D","legs":"X"},"action":"harvest","summary":"bad-harvest","bonus":0.3600000000000012},{"rt":607,"stimulus":"\n                    <p><b>Action: <em>harvest</em></b></p>\n                    <p>This is the bee that you just saw.</p>\n                    <img src=\"bees-with-color/bee-A1DM.svg\" width=\"200\">\n                    <p><span class=\"redText\">Bad choice, the bee was angry.</span><br><b>You have been stung!</b><br>Your pay has been decreased by $0.10. Your bonus pay is now $0.44.</p>\n            ","response":0,"trial_type":"html-button-response","trial_index":108,"time_elapsed":252390,"internal_node_id":"0.0-4.0-1.50","subject_id":"5ee78cdd0103130133fdb204","study_id":"60edd13110225f80f9f3709b","session_id":"6196bf63e9dfe380e81b53b9","condition":"contingent","relevant_dimensions":["antennae","pattern"],"bee_group":{"antennae":"A","wings":"X","pattern":"D","legs":"X"},"bonus":0.3600000000000012},{"rt":1287,"stimulus":"bees-with-color/bee-B2SF.svg","response":0,"trial_type":"image-button-response","trial_index":109,"time_elapsed":253677,"internal_node_id":"0.0-4.0-0.51","subject_id":"5ee78cdd0103130133fdb204","study_id":"60edd13110225f80f9f3709b","session_id":"6196bf63e9dfe380e81b53b9","condition":"contingent","relevant_dimensions":["antennae","pattern"],"bee_group":{"antennae":"A","wings":"X","pattern":"D","legs":"X"},"action":"harvest","summary":"good-harvest","bonus":0.3600000000000012},{"rt":463,"stimulus":"\n                    <p><b>Action: <em>harvest</em></b></p>\n                    <p>This is the bee that you just saw.</p>\n                    <img src=\"bees-with-color/bee-B2SF.svg\" width=\"200\">\n                    <p><span class=\"greenText\"><b>Successful harvest!</b></span><br>Your pay has increased by $0.02. Your bonus pay is now $0.46.</p>\n            ","response":0,"trial_type":"html-button-response","trial_index":110,"time_elapsed":254142,"internal_node_id":"0.0-4.0-1.51","subject_id":"5ee78cdd0103130133fdb204","study_id":"60edd13110225f80f9f3709b","session_id":"6196bf63e9dfe380e81b53b9","condition":"contingent","relevant_dimensions":["antennae","pattern"],"bee_group":{"antennae":"A","wings":"X","pattern":"D","legs":"X"},"bonus":0.3600000000000012},{"rt":1207,"stimulus":"bees-with-color/bee-B1SM.svg","response":1,"trial_type":"image-button-response","trial_index":111,"time_elapsed":255350,"internal_node_id":"0.0-4.0-0.52","subject_id":"5ee78cdd0103130133fdb204","study_id":"60edd13110225f80f9f3709b","session_id":"6196bf63e9dfe380e81b53b9","condition":"contingent","relevant_dimensions":["antennae","pattern"],"bee_group":{"antennae":"A","wings":"X","pattern":"D","legs":"X"},"action":"avoid","summary":"bad-avoid","bonus":0.3600000000000012},{"rt":399,"stimulus":"\n                    <p><b>Action: <em>avoid</em></b></p>\n                    <p>This is the bee that you just saw.</p>\n                    <img src=\"bees-with-color/bee-B1SM.svg\" width=\"200\">\n                    <p><br>Your bonus pay is unchanged, and remains at $0.46.</p>\n            ","response":0,"trial_type":"html-button-response","trial_index":112,"time_elapsed":255749,"internal_node_id":"0.0-4.0-1.52","subject_id":"5ee78cdd0103130133fdb204","study_id":"60edd13110225f80f9f3709b","session_id":"6196bf63e9dfe380e81b53b9","condition":"contingent","relevant_dimensions":["antennae","pattern"],"bee_group":{"antennae":"A","wings":"X","pattern":"D","legs":"X"},"bonus":0.3600000000000012},{"rt":3215,"stimulus":"bees-with-color/bee-A2SF.svg","response":0,"trial_type":"image-button-response","trial_index":113,"time_elapsed":258965,"internal_node_id":"0.0-4.0-0.53","subject_id":"5ee78cdd0103130133fdb204","study_id":"60edd13110225f80f9f3709b","session_id":"6196bf63e9dfe380e81b53b9","condition":"contingent","relevant_dimensions":["antennae","pattern"],"bee_group":{"antennae":"A","wings":"X","pattern":"D","legs":"X"},"action":"harvest","summary":"good-harvest","bonus":0.3600000000000012},{"rt":424,"stimulus":"\n                    <p><b>Action: <em>harvest</em></b></p>\n                    <p>This is the bee that you just saw.</p>\n                    <img src=\"bees-with-color/bee-A2SF.svg\" width=\"200\">\n                    <p><span class=\"greenText\"><b>Successful harvest!</b></span><br>Your pay has increased by $0.02. Your bonus pay is now $0.48.</p>\n            ","response":0,"trial_type":"html-button-response","trial_index":114,"time_elapsed":259390,"internal_node_id":"0.0-4.0-1.53","subject_id":"5ee78cdd0103130133fdb204","study_id":"60edd13110225f80f9f3709b","session_id":"6196bf63e9dfe380e81b53b9","condition":"contingent","relevant_dimensions":["antennae","pattern"],"bee_group":{"antennae":"A","wings":"X","pattern":"D","legs":"X"},"bonus":0.3600000000000012},{"rt":1776,"stimulus":"bees-with-color/bee-B2DM.svg","response":1,"trial_type":"image-button-response","trial_index":115,"time_elapsed":261166,"internal_node_id":"0.0-4.0-0.54","subject_id":"5ee78cdd0103130133fdb204","study_id":"60edd13110225f80f9f3709b","session_id":"6196bf63e9dfe380e81b53b9","condition":"contingent","relevant_dimensions":["antennae","pattern"],"bee_group":{"antennae":"A","wings":"X","pattern":"D","legs":"X"},"action":"avoid","summary":"bad-avoid","bonus":0.3600000000000012},{"rt":383,"stimulus":"\n                    <p><b>Action: <em>avoid</em></b></p>\n                    <p>This is the bee that you just saw.</p>\n                    <img src=\"bees-with-color/bee-B2DM.svg\" width=\"200\">\n                    <p><br>Your bonus pay is unchanged, and remains at $0.48.</p>\n            ","response":0,"trial_type":"html-button-response","trial_index":116,"time_elapsed":261550,"internal_node_id":"0.0-4.0-1.54","subject_id":"5ee78cdd0103130133fdb204","study_id":"60edd13110225f80f9f3709b","session_id":"6196bf63e9dfe380e81b53b9","condition":"contingent","relevant_dimensions":["antennae","pattern"],"bee_group":{"antennae":"A","wings":"X","pattern":"D","legs":"X"},"bonus":0.3600000000000012},{"rt":927,"stimulus":"bees-with-color/bee-A1SM.svg","response":0,"trial_type":"image-button-response","trial_index":117,"time_elapsed":262478,"internal_node_id":"0.0-4.0-0.55","subject_id":"5ee78cdd0103130133fdb204","study_id":"60edd13110225f80f9f3709b","session_id":"6196bf63e9dfe380e81b53b9","condition":"contingent","relevant_dimensions":["antennae","pattern"],"bee_group":{"antennae":"A","wings":"X","pattern":"D","legs":"X"},"action":"harvest","summary":"good-harvest","bonus":0.3600000000000012},{"rt":367,"stimulus":"\n                    <p><b>Action: <em>harvest</em></b></p>\n                    <p>This is the bee that you just saw.</p>\n                    <img src=\"bees-with-color/bee-A1SM.svg\" width=\"200\">\n                    <p><span class=\"greenText\"><b>Successful harvest!</b></span><br>Your pay has increased by $0.02. Your bonus pay is now $0.50.</p>\n            ","response":0,"trial_type":"html-button-response","trial_index":118,"time_elapsed":262846,"internal_node_id":"0.0-4.0-1.55","subject_id":"5ee78cdd0103130133fdb204","study_id":"60edd13110225f80f9f3709b","session_id":"6196bf63e9dfe380e81b53b9","condition":"contingent","relevant_dimensions":["antennae","pattern"],"bee_group":{"antennae":"A","wings":"X","pattern":"D","legs":"X"},"bonus":0.3600000000000012},{"rt":1063,"stimulus":"bees-with-color/bee-A2DF.svg","response":1,"trial_type":"image-button-response","trial_index":119,"time_elapsed":263910,"internal_node_id":"0.0-4.0-0.56","subject_id":"5ee78cdd0103130133fdb204","study_id":"60edd13110225f80f9f3709b","session_id":"6196bf63e9dfe380e81b53b9","condition":"contingent","relevant_dimensions":["antennae","pattern"],"bee_group":{"antennae":"A","wings":"X","pattern":"D","legs":"X"},"action":"avoid","summary":"good-avoid","bonus":0.3600000000000012},{"rt":320,"stimulus":"\n                    <p><b>Action: <em>avoid</em></b></p>\n                    <p>This is the bee that you just saw.</p>\n                    <img src=\"bees-with-color/bee-A2DF.svg\" width=\"200\">\n                    <p><br>Your bonus pay is unchanged, and remains at $0.50.</p>\n            ","response":0,"trial_type":"html-button-response","trial_index":120,"time_elapsed":264229,"internal_node_id":"0.0-4.0-1.56","subject_id":"5ee78cdd0103130133fdb204","study_id":"60edd13110225f80f9f3709b","session_id":"6196bf63e9dfe380e81b53b9","condition":"contingent","relevant_dimensions":["antennae","pattern"],"bee_group":{"antennae":"A","wings":"X","pattern":"D","legs":"X"},"bonus":0.3600000000000012},{"rt":1295,"stimulus":"bees-with-color/bee-B1DF.svg","response":0,"trial_type":"image-button-response","trial_index":121,"time_elapsed":265526,"internal_node_id":"0.0-4.0-0.57","subject_id":"5ee78cdd0103130133fdb204","study_id":"60edd13110225f80f9f3709b","session_id":"6196bf63e9dfe380e81b53b9","condition":"contingent","relevant_dimensions":["antennae","pattern"],"bee_group":{"antennae":"A","wings":"X","pattern":"D","legs":"X"},"action":"harvest","summary":"good-harvest","bonus":0.3600000000000012},{"rt":511,"stimulus":"\n                    <p><b>Action: <em>harvest</em></b></p>\n                    <p>This is the bee that you just saw.</p>\n                    <img src=\"bees-with-color/bee-B1DF.svg\" width=\"200\">\n                    <p><span class=\"greenText\"><b>Successful harvest!</b></span><br>Your pay has increased by $0.02. Your bonus pay is now $0.52.</p>\n            ","response":0,"trial_type":"html-button-response","trial_index":122,"time_elapsed":266037,"internal_node_id":"0.0-4.0-1.57","subject_id":"5ee78cdd0103130133fdb204","study_id":"60edd13110225f80f9f3709b","session_id":"6196bf63e9dfe380e81b53b9","condition":"contingent","relevant_dimensions":["antennae","pattern"],"bee_group":{"antennae":"A","wings":"X","pattern":"D","legs":"X"},"bonus":0.3600000000000012},{"rt":1176,"stimulus":"bees-with-color/bee-B2DF.svg","response":1,"trial_type":"image-button-response","trial_index":123,"time_elapsed":267213,"internal_node_id":"0.0-4.0-0.58","subject_id":"5ee78cdd0103130133fdb204","study_id":"60edd13110225f80f9f3709b","session_id":"6196bf63e9dfe380e81b53b9","condition":"contingent","relevant_dimensions":["antennae","pattern"],"bee_group":{"antennae":"A","wings":"X","pattern":"D","legs":"X"},"action":"avoid","summary":"bad-avoid","bonus":0.3600000000000012},{"rt":423,"stimulus":"\n                    <p><b>Action: <em>avoid</em></b></p>\n                    <p>This is the bee that you just saw.</p>\n                    <img src=\"bees-with-color/bee-B2DF.svg\" width=\"200\">\n                    <p><br>Your bonus pay is unchanged, and remains at $0.52.</p>\n            ","response":0,"trial_type":"html-button-response","trial_index":124,"time_elapsed":267638,"internal_node_id":"0.0-4.0-1.58","subject_id":"5ee78cdd0103130133fdb204","study_id":"60edd13110225f80f9f3709b","session_id":"6196bf63e9dfe380e81b53b9","condition":"contingent","relevant_dimensions":["antennae","pattern"],"bee_group":{"antennae":"A","wings":"X","pattern":"D","legs":"X"},"bonus":0.3600000000000012},{"rt":1984,"stimulus":"bees-with-color/bee-A2SM.svg","response":0,"trial_type":"image-button-response","trial_index":125,"time_elapsed":269622,"internal_node_id":"0.0-4.0-0.59","subject_id":"5ee78cdd0103130133fdb204","study_id":"60edd13110225f80f9f3709b","session_id":"6196bf63e9dfe380e81b53b9","condition":"contingent","relevant_dimensions":["antennae","pattern"],"bee_group":{"antennae":"A","wings":"X","pattern":"D","legs":"X"},"action":"harvest","summary":"good-harvest","bonus":0.3600000000000012},{"rt":519,"stimulus":"\n                    <p><b>Action: <em>harvest</em></b></p>\n                    <p>This is the bee that you just saw.</p>\n                    <img src=\"bees-with-color/bee-A2SM.svg\" width=\"200\">\n                    <p><span class=\"greenText\"><b>Successful harvest!</b></span><br>Your pay has increased by $0.02. Your bonus pay is now $0.54.</p>\n            ","response":0,"trial_type":"html-button-response","trial_index":126,"time_elapsed":270142,"internal_node_id":"0.0-4.0-1.59","subject_id":"5ee78cdd0103130133fdb204","study_id":"60edd13110225f80f9f3709b","session_id":"6196bf63e9dfe380e81b53b9","condition":"contingent","relevant_dimensions":["antennae","pattern"],"bee_group":{"antennae":"A","wings":"X","pattern":"D","legs":"X"},"bonus":0.3600000000000012},{"rt":928,"stimulus":"bees-with-color/bee-B1DM.svg","response":1,"trial_type":"image-button-response","trial_index":127,"time_elapsed":271069,"internal_node_id":"0.0-4.0-0.60","subject_id":"5ee78cdd0103130133fdb204","study_id":"60edd13110225f80f9f3709b","session_id":"6196bf63e9dfe380e81b53b9","condition":"contingent","relevant_dimensions":["antennae","pattern"],"bee_group":{"antennae":"A","wings":"X","pattern":"D","legs":"X"},"action":"avoid","summary":"bad-avoid","bonus":0.3600000000000012},{"rt":328,"stimulus":"\n                    <p><b>Action: <em>avoid</em></b></p>\n                    <p>This is the bee that you just saw.</p>\n                    <img src=\"bees-with-color/bee-B1DM.svg\" width=\"200\">\n                    <p><br>Your bonus pay is unchanged, and remains at $0.54.</p>\n            ","response":0,"trial_type":"html-button-response","trial_index":128,"time_elapsed":271398,"internal_node_id":"0.0-4.0-1.60","subject_id":"5ee78cdd0103130133fdb204","study_id":"60edd13110225f80f9f3709b","session_id":"6196bf63e9dfe380e81b53b9","condition":"contingent","relevant_dimensions":["antennae","pattern"],"bee_group":{"antennae":"A","wings":"X","pattern":"D","legs":"X"},"bonus":0.3600000000000012},{"rt":1399,"stimulus":"bees-with-color/bee-B1SF.svg","response":0,"trial_type":"image-button-response","trial_index":129,"time_elapsed":272798,"internal_node_id":"0.0-4.0-0.61","subject_id":"5ee78cdd0103130133fdb204","study_id":"60edd13110225f80f9f3709b","session_id":"6196bf63e9dfe380e81b53b9","condition":"contingent","relevant_dimensions":["antennae","pattern"],"bee_group":{"antennae":"A","wings":"X","pattern":"D","legs":"X"},"action":"harvest","summary":"good-harvest","bonus":0.3600000000000012},{"rt":455,"stimulus":"\n                    <p><b>Action: <em>harvest</em></b></p>\n                    <p>This is the bee that you just saw.</p>\n                    <img src=\"bees-with-color/bee-B1SF.svg\" width=\"200\">\n                    <p><span class=\"greenText\"><b>Successful harvest!</b></span><br>Your pay has increased by $0.02. Your bonus pay is now $0.56.</p>\n            ","response":0,"trial_type":"html-button-response","trial_index":130,"time_elapsed":273253,"internal_node_id":"0.0-4.0-1.61","subject_id":"5ee78cdd0103130133fdb204","study_id":"60edd13110225f80f9f3709b","session_id":"6196bf63e9dfe380e81b53b9","condition":"contingent","relevant_dimensions":["antennae","pattern"],"bee_group":{"antennae":"A","wings":"X","pattern":"D","legs":"X"},"bonus":0.3600000000000012},{"rt":1632,"stimulus":"bees-with-color/bee-A1SF.svg","response":1,"trial_type":"image-button-response","trial_index":131,"time_elapsed":274886,"internal_node_id":"0.0-4.0-0.62","subject_id":"5ee78cdd0103130133fdb204","study_id":"60edd13110225f80f9f3709b","session_id":"6196bf63e9dfe380e81b53b9","condition":"contingent","relevant_dimensions":["antennae","pattern"],"bee_group":{"antennae":"A","wings":"X","pattern":"D","legs":"X"},"action":"avoid","summary":"bad-avoid","bonus":0.3600000000000012},{"rt":552,"stimulus":"\n                    <p><b>Action: <em>avoid</em></b></p>\n                    <p>This is the bee that you just saw.</p>\n                    <img src=\"bees-with-color/bee-A1SF.svg\" width=\"200\">\n                    <p><br>Your bonus pay is unchanged, and remains at $0.56.</p>\n            ","response":0,"trial_type":"html-button-response","trial_index":132,"time_elapsed":275438,"internal_node_id":"0.0-4.0-1.62","subject_id":"5ee78cdd0103130133fdb204","study_id":"60edd13110225f80f9f3709b","session_id":"6196bf63e9dfe380e81b53b9","condition":"contingent","relevant_dimensions":["antennae","pattern"],"bee_group":{"antennae":"A","wings":"X","pattern":"D","legs":"X"},"bonus":0.3600000000000012},{"rt":2944,"stimulus":"bees-with-color/bee-A2DM.svg","response":1,"trial_type":"image-button-response","trial_index":133,"time_elapsed":278382,"internal_node_id":"0.0-4.0-0.63","subject_id":"5ee78cdd0103130133fdb204","study_id":"60edd13110225f80f9f3709b","session_id":"6196bf63e9dfe380e81b53b9","condition":"contingent","relevant_dimensions":["antennae","pattern"],"bee_group":{"antennae":"A","wings":"X","pattern":"D","legs":"X"},"action":"avoid","summary":"good-avoid","bonus":0.3600000000000012},{"rt":943,"stimulus":"\n                    <p><b>Action: <em>avoid</em></b></p>\n                    <p>This is the bee that you just saw.</p>\n                    <img src=\"bees-with-color/bee-A2DM.svg\" width=\"200\">\n                    <p><br>Your bonus pay is unchanged, and remains at $0.56.</p>\n            ","response":0,"trial_type":"html-button-response","trial_index":134,"time_elapsed":279326,"internal_node_id":"0.0-4.0-1.63","subject_id":"5ee78cdd0103130133fdb204","study_id":"60edd13110225f80f9f3709b","session_id":"6196bf63e9dfe380e81b53b9","condition":"contingent","relevant_dimensions":["antennae","pattern"],"bee_group":{"antennae":"A","wings":"X","pattern":"D","legs":"X"},"bonus":0.3600000000000012},{"rt":6772,"stimulus":"You have completed the first part of this experiment.<br><br>You will now begin a shorter second part, in which you will receive no feedback.<br>The same rules regarding bonus pay apply.<br><br>Press any key to begin.","response":"enter","trial_type":"html-keyboard-response","trial_index":135,"time_elapsed":286098,"internal_node_id":"0.0-5.0","subject_id":"5ee78cdd0103130133fdb204","study_id":"60edd13110225f80f9f3709b","session_id":"6196bf63e9dfe380e81b53b9","condition":"contingent","relevant_dimensions":["antennae","pattern"],"bee_group":{"antennae":"A","wings":"X","pattern":"D","legs":"X"},"bonus":0.3600000000000012},{"rt":2339,"stimulus":"bees-with-color/bee-A2DF.svg","response":0,"trial_type":"image-button-response","trial_index":136,"time_elapsed":288438,"internal_node_id":"0.0-6.0-0.0","subject_id":"5ee78cdd0103130133fdb204","study_id":"60edd13110225f80f9f3709b","session_id":"6196bf63e9dfe380e81b53b9","condition":"contingent","relevant_dimensions":["antennae","pattern"],"bee_group":{"antennae":"A","wings":"X","pattern":"D","legs":"X"},"bonus":0.3600000000000012},{"rt":1640,"stimulus":"bees-with-color/bee-B2DM.svg","response":0,"trial_type":"image-button-response","trial_index":137,"time_elapsed":290078,"internal_node_id":"0.0-6.0-0.1","subject_id":"5ee78cdd0103130133fdb204","study_id":"60edd13110225f80f9f3709b","session_id":"6196bf63e9dfe380e81b53b9","condition":"contingent","relevant_dimensions":["antennae","pattern"],"bee_group":{"antennae":"A","wings":"X","pattern":"D","legs":"X"},"bonus":0.3600000000000012},{"rt":1095,"stimulus":"bees-with-color/bee-B2DF.svg","response":1,"trial_type":"image-button-response","trial_index":138,"time_elapsed":291173,"internal_node_id":"0.0-6.0-0.2","subject_id":"5ee78cdd0103130133fdb204","study_id":"60edd13110225f80f9f3709b","session_id":"6196bf63e9dfe380e81b53b9","condition":"contingent","relevant_dimensions":["antennae","pattern"],"bee_group":{"antennae":"A","wings":"X","pattern":"D","legs":"X"},"bonus":0.3600000000000012},{"rt":999,"stimulus":"bees-with-color/bee-B1SM.svg","response":0,"trial_type":"image-button-response","trial_index":139,"time_elapsed":292174,"internal_node_id":"0.0-6.0-0.3","subject_id":"5ee78cdd0103130133fdb204","study_id":"60edd13110225f80f9f3709b","session_id":"6196bf63e9dfe380e81b53b9","condition":"contingent","relevant_dimensions":["antennae","pattern"],"bee_group":{"antennae":"A","wings":"X","pattern":"D","legs":"X"},"bonus":0.3600000000000012},{"rt":1855,"stimulus":"bees-with-color/bee-A2DM.svg","response":1,"trial_type":"image-button-response","trial_index":140,"time_elapsed":294030,"internal_node_id":"0.0-6.0-0.4","subject_id":"5ee78cdd0103130133fdb204","study_id":"60edd13110225f80f9f3709b","session_id":"6196bf63e9dfe380e81b53b9","condition":"contingent","relevant_dimensions":["antennae","pattern"],"bee_group":{"antennae":"A","wings":"X","pattern":"D","legs":"X"},"bonus":0.3600000000000012},{"rt":456,"stimulus":"bees-with-color/bee-B1SF.svg","response":0,"trial_type":"image-button-response","trial_index":141,"time_elapsed":294486,"internal_node_id":"0.0-6.0-0.5","subject_id":"5ee78cdd0103130133fdb204","study_id":"60edd13110225f80f9f3709b","session_id":"6196bf63e9dfe380e81b53b9","condition":"contingent","relevant_dimensions":["antennae","pattern"],"bee_group":{"antennae":"A","wings":"X","pattern":"D","legs":"X"},"bonus":0.3600000000000012},{"rt":303,"stimulus":"bees-with-color/bee-B2SM.svg","response":0,"trial_type":"image-button-response","trial_index":142,"time_elapsed":294790,"internal_node_id":"0.0-6.0-0.6","subject_id":"5ee78cdd0103130133fdb204","study_id":"60edd13110225f80f9f3709b","session_id":"6196bf63e9dfe380e81b53b9","condition":"contingent","relevant_dimensions":["antennae","pattern"],"bee_group":{"antennae":"A","wings":"X","pattern":"D","legs":"X"},"bonus":0.3600000000000012},{"rt":343,"stimulus":"bees-with-color/bee-B1DF.svg","response":1,"trial_type":"image-button-response","trial_index":143,"time_elapsed":295134,"internal_node_id":"0.0-6.0-0.7","subject_id":"5ee78cdd0103130133fdb204","study_id":"60edd13110225f80f9f3709b","session_id":"6196bf63e9dfe380e81b53b9","condition":"contingent","relevant_dimensions":["antennae","pattern"],"bee_group":{"antennae":"A","wings":"X","pattern":"D","legs":"X"},"bonus":0.3600000000000012},{"rt":944,"stimulus":"bees-with-color/bee-A1DM.svg","response":1,"trial_type":"image-button-response","trial_index":144,"time_elapsed":296078,"internal_node_id":"0.0-6.0-0.8","subject_id":"5ee78cdd0103130133fdb204","study_id":"60edd13110225f80f9f3709b","session_id":"6196bf63e9dfe380e81b53b9","condition":"contingent","relevant_dimensions":["antennae","pattern"],"bee_group":{"antennae":"A","wings":"X","pattern":"D","legs":"X"},"bonus":0.3600000000000012},{"rt":311,"stimulus":"bees-with-color/bee-B1DM.svg","response":0,"trial_type":"image-button-response","trial_index":145,"time_elapsed":296390,"internal_node_id":"0.0-6.0-0.9","subject_id":"5ee78cdd0103130133fdb204","study_id":"60edd13110225f80f9f3709b","session_id":"6196bf63e9dfe380e81b53b9","condition":"contingent","relevant_dimensions":["antennae","pattern"],"bee_group":{"antennae":"A","wings":"X","pattern":"D","legs":"X"},"bonus":0.3600000000000012},{"rt":127,"stimulus":"bees-with-color/bee-A1SM.svg","response":0,"trial_type":"image-button-response","trial_index":146,"time_elapsed":296518,"internal_node_id":"0.0-6.0-0.10","subject_id":"5ee78cdd0103130133fdb204","study_id":"60edd13110225f80f9f3709b","session_id":"6196bf63e9dfe380e81b53b9","condition":"contingent","relevant_dimensions":["antennae","pattern"],"bee_group":{"antennae":"A","wings":"X","pattern":"D","legs":"X"},"bonus":0.3600000000000012},{"rt":119,"stimulus":"bees-with-color/bee-A2SM.svg","response":0,"trial_type":"image-button-response","trial_index":147,"time_elapsed":296638,"internal_node_id":"0.0-6.0-0.11","subject_id":"5ee78cdd0103130133fdb204","study_id":"60edd13110225f80f9f3709b","session_id":"6196bf63e9dfe380e81b53b9","condition":"contingent","relevant_dimensions":["antennae","pattern"],"bee_group":{"antennae":"A","wings":"X","pattern":"D","legs":"X"},"bonus":0.3600000000000012},{"rt":367,"stimulus":"bees-with-color/bee-A2SF.svg","response":1,"trial_type":"image-button-response","trial_index":148,"time_elapsed":297006,"internal_node_id":"0.0-6.0-0.12","subject_id":"5ee78cdd0103130133fdb204","study_id":"60edd13110225f80f9f3709b","session_id":"6196bf63e9dfe380e81b53b9","condition":"contingent","relevant_dimensions":["antennae","pattern"],"bee_group":{"antennae":"A","wings":"X","pattern":"D","legs":"X"},"bonus":0.3600000000000012},{"rt":152,"stimulus":"bees-with-color/bee-A1DF.svg","response":1,"trial_type":"image-button-response","trial_index":149,"time_elapsed":297158,"internal_node_id":"0.0-6.0-0.13","subject_id":"5ee78cdd0103130133fdb204","study_id":"60edd13110225f80f9f3709b","session_id":"6196bf63e9dfe380e81b53b9","condition":"contingent","relevant_dimensions":["antennae","pattern"],"bee_group":{"antennae":"A","wings":"X","pattern":"D","legs":"X"},"bonus":0.3600000000000012},{"rt":320,"stimulus":"bees-with-color/bee-B2SF.svg","response":0,"trial_type":"image-button-response","trial_index":150,"time_elapsed":297477,"internal_node_id":"0.0-6.0-0.14","subject_id":"5ee78cdd0103130133fdb204","study_id":"60edd13110225f80f9f3709b","session_id":"6196bf63e9dfe380e81b53b9","condition":"contingent","relevant_dimensions":["antennae","pattern"],"bee_group":{"antennae":"A","wings":"X","pattern":"D","legs":"X"},"bonus":0.3600000000000012},{"rt":135,"stimulus":"bees-with-color/bee-A1SF.svg","response":0,"trial_type":"image-button-response","trial_index":151,"time_elapsed":297614,"internal_node_id":"0.0-6.0-0.15","subject_id":"5ee78cdd0103130133fdb204","study_id":"60edd13110225f80f9f3709b","session_id":"6196bf63e9dfe380e81b53b9","condition":"contingent","relevant_dimensions":["antennae","pattern"],"bee_group":{"antennae":"A","wings":"X","pattern":"D","legs":"X"},"bonus":0.3600000000000012},{"rt":168,"stimulus":"bees-with-color/bee-A2DF.svg","response":0,"trial_type":"image-button-response","trial_index":152,"time_elapsed":297782,"internal_node_id":"0.0-6.0-0.16","subject_id":"5ee78cdd0103130133fdb204","study_id":"60edd13110225f80f9f3709b","session_id":"6196bf63e9dfe380e81b53b9","condition":"contingent","relevant_dimensions":["antennae","pattern"],"bee_group":{"antennae":"A","wings":"X","pattern":"D","legs":"X"},"bonus":0.3600000000000012},{"rt":153,"stimulus":"bees-with-color/bee-B2DF.svg","response":0,"trial_type":"image-button-response","trial_index":153,"time_elapsed":297933,"internal_node_id":"0.0-6.0-0.17","subject_id":"5ee78cdd0103130133fdb204","study_id":"60edd13110225f80f9f3709b","session_id":"6196bf63e9dfe380e81b53b9","condition":"contingent","relevant_dimensions":["antennae","pattern"],"bee_group":{"antennae":"A","wings":"X","pattern":"D","legs":"X"},"bonus":0.3600000000000012},{"rt":519,"stimulus":"bees-with-color/bee-B1DM.svg","response":1,"trial_type":"image-button-response","trial_index":154,"time_elapsed":298454,"internal_node_id":"0.0-6.0-0.18","subject_id":"5ee78cdd0103130133fdb204","study_id":"60edd13110225f80f9f3709b","session_id":"6196bf63e9dfe380e81b53b9","condition":"contingent","relevant_dimensions":["antennae","pattern"],"bee_group":{"antennae":"A","wings":"X","pattern":"D","legs":"X"},"bonus":0.3600000000000012},{"rt":543,"stimulus":"bees-with-color/bee-A1DF.svg","response":0,"trial_type":"image-button-response","trial_index":155,"time_elapsed":298998,"internal_node_id":"0.0-6.0-0.19","subject_id":"5ee78cdd0103130133fdb204","study_id":"60edd13110225f80f9f3709b","session_id":"6196bf63e9dfe380e81b53b9","condition":"contingent","relevant_dimensions":["antennae","pattern"],"bee_group":{"antennae":"A","wings":"X","pattern":"D","legs":"X"},"bonus":0.3600000000000012},{"rt":520,"stimulus":"bees-with-color/bee-B2SM.svg","response":1,"trial_type":"image-button-response","trial_index":156,"time_elapsed":299518,"internal_node_id":"0.0-6.0-0.20","subject_id":"5ee78cdd0103130133fdb204","study_id":"60edd13110225f80f9f3709b","session_id":"6196bf63e9dfe380e81b53b9","condition":"contingent","relevant_dimensions":["antennae","pattern"],"bee_group":{"antennae":"A","wings":"X","pattern":"D","legs":"X"},"bonus":0.3600000000000012},{"rt":1080,"stimulus":"bees-with-color/bee-B1SM.svg","response":0,"trial_type":"image-button-response","trial_index":157,"time_elapsed":300598,"internal_node_id":"0.0-6.0-0.21","subject_id":"5ee78cdd0103130133fdb204","study_id":"60edd13110225f80f9f3709b","session_id":"6196bf63e9dfe380e81b53b9","condition":"contingent","relevant_dimensions":["antennae","pattern"],"bee_group":{"antennae":"A","wings":"X","pattern":"D","legs":"X"},"bonus":0.3600000000000012},{"rt":767,"stimulus":"bees-with-color/bee-A1SF.svg","response":1,"trial_type":"image-button-response","trial_index":158,"time_elapsed":301366,"internal_node_id":"0.0-6.0-0.22","subject_id":"5ee78cdd0103130133fdb204","study_id":"60edd13110225f80f9f3709b","session_id":"6196bf63e9dfe380e81b53b9","condition":"contingent","relevant_dimensions":["antennae","pattern"],"bee_group":{"antennae":"A","wings":"X","pattern":"D","legs":"X"},"bonus":0.3600000000000012},{"rt":791,"stimulus":"bees-with-color/bee-A2SF.svg","response":0,"trial_type":"image-button-response","trial_index":159,"time_elapsed":302158,"internal_node_id":"0.0-6.0-0.23","subject_id":"5ee78cdd0103130133fdb204","study_id":"60edd13110225f80f9f3709b","session_id":"6196bf63e9dfe380e81b53b9","condition":"contingent","relevant_dimensions":["antennae","pattern"],"bee_group":{"antennae":"A","wings":"X","pattern":"D","legs":"X"},"bonus":0.3600000000000012},{"rt":247,"stimulus":"bees-with-color/bee-B1SF.svg","response":0,"trial_type":"image-button-response","trial_index":160,"time_elapsed":302406,"internal_node_id":"0.0-6.0-0.24","subject_id":"5ee78cdd0103130133fdb204","study_id":"60edd13110225f80f9f3709b","session_id":"6196bf63e9dfe380e81b53b9","condition":"contingent","relevant_dimensions":["antennae","pattern"],"bee_group":{"antennae":"A","wings":"X","pattern":"D","legs":"X"},"bonus":0.3600000000000012},{"rt":455,"stimulus":"bees-with-color/bee-B1DF.svg","response":1,"trial_type":"image-button-response","trial_index":161,"time_elapsed":302862,"internal_node_id":"0.0-6.0-0.25","subject_id":"5ee78cdd0103130133fdb204","study_id":"60edd13110225f80f9f3709b","session_id":"6196bf63e9dfe380e81b53b9","condition":"contingent","relevant_dimensions":["antennae","pattern"],"bee_group":{"antennae":"A","wings":"X","pattern":"D","legs":"X"},"bonus":0.3600000000000012},{"rt":536,"stimulus":"bees-with-color/bee-A2SM.svg","response":0,"trial_type":"image-button-response","trial_index":162,"time_elapsed":303398,"internal_node_id":"0.0-6.0-0.26","subject_id":"5ee78cdd0103130133fdb204","study_id":"60edd13110225f80f9f3709b","session_id":"6196bf63e9dfe380e81b53b9","condition":"contingent","relevant_dimensions":["antennae","pattern"],"bee_group":{"antennae":"A","wings":"X","pattern":"D","legs":"X"},"bonus":0.3600000000000012},{"rt":416,"stimulus":"bees-with-color/bee-B2DM.svg","response":1,"trial_type":"image-button-response","trial_index":163,"time_elapsed":303814,"internal_node_id":"0.0-6.0-0.27","subject_id":"5ee78cdd0103130133fdb204","study_id":"60edd13110225f80f9f3709b","session_id":"6196bf63e9dfe380e81b53b9","condition":"contingent","relevant_dimensions":["antennae","pattern"],"bee_group":{"antennae":"A","wings":"X","pattern":"D","legs":"X"},"bonus":0.3600000000000012},{"rt":416,"stimulus":"bees-with-color/bee-A1DM.svg","response":0,"trial_type":"image-button-response","trial_index":164,"time_elapsed":304230,"internal_node_id":"0.0-6.0-0.28","subject_id":"5ee78cdd0103130133fdb204","study_id":"60edd13110225f80f9f3709b","session_id":"6196bf63e9dfe380e81b53b9","condition":"contingent","relevant_dimensions":["antennae","pattern"],"bee_group":{"antennae":"A","wings":"X","pattern":"D","legs":"X"},"bonus":0.36000000000