[{"success":true,"trial_type":"fullscreen","trial_index":0,"time_elapsed":3928,"internal_node_id":"0.0-0.0","subject_id":"5fa1e1267a3f7037fd2bdf13","study_id":"60edd13110225f80f9f3709b","session_id":"6196c1edfc9f76cb12eb2f96","condition":"contingent","relevant_dimensions":["antennae","pattern"],"bee_group":{"antennae":"B","wings":"X","pattern":"D","legs":"X"},"bonus":1.300000000000001},{"success":true,"timeout":false,"failed_images":[],"failed_audio":[],"failed_video":[],"trial_type":"preload","trial_index":1,"time_elapsed":6274,"internal_node_id":"0.0-1.0","subject_id":"5fa1e1267a3f7037fd2bdf13","study_id":"60edd13110225f80f9f3709b","session_id":"6196c1edfc9f76cb12eb2f96","condition":"contingent","relevant_dimensions":["antennae","pattern"],"bee_group":{"antennae":"B","wings":"X","pattern":"D","legs":"X"},"bonus":1.300000000000001},{"rt":2564,"stimulus":"Welcome! Press any key to begin.","response":" ","trial_type":"html-keyboard-response","trial_index":2,"time_elapsed":8840,"internal_node_id":"0.0-2.0","subject_id":"5fa1e1267a3f7037fd2bdf13","study_id":"60edd13110225f80f9f3709b","session_id":"6196c1edfc9f76cb12eb2f96","condition":"contingent","relevant_dimensions":["antennae","pattern"],"bee_group":{"antennae":"B","wings":"X","pattern":"D","legs":"X"},"bonus":1.300000000000001},{"view_history":[{"page_index":0,"viewing_time":7128},{"page_index":1,"viewing_time":21811.90000000596},{"page_index":2,"viewing_time":18517.40000000596},{"page_index":3,"viewing_time":15734.59999999404},{"page_index":4,"viewing_time":18346.40000000596},{"page_index":5,"viewing_time":8103.199999988079},{"page_index":6,"viewing_time":20216.20000001788},{"page_index":7,"viewing_time":7300.5},{"page_index":8,"viewing_time":4473.5},{"page_index":9,"viewing_time":5114.5},{"page_index":10,"viewing_time":3496.5},{"page_index":11,"viewing_time":12193.40000000596},{"page_index":12,"viewing_time":6717.5},{"page_index":13,"viewing_time":1852.0999999940395},{"page_index":14,"viewing_time":3741.199999988079}],"rt":154750.60000002384,"trial_type":"instructions","trial_index":3,"time_elapsed":163610,"internal_node_id":"0.0-3.0-0.0","subject_id":"5fa1e1267a3f7037fd2bdf13","study_id":"60edd13110225f80f9f3709b","session_id":"6196c1edfc9f76cb12eb2f96","condition":"contingent","relevant_dimensions":["antennae","pattern"],"bee_group":{"antennae":"B","wings":"X","pattern":"D","legs":"X"},"bonus":1.300000000000001},{"rt":23362.899999976158,"response":{"Q0":["Two or six legs","Stripes or spots on body","Single or double wings","Antennae or no antennae"]},"question_order":[0],"trial_type":"survey-multi-select","trial_index":4,"time_elapsed":186982,"internal_node_id":"0.0-3.0-1.0","subject_id":"5fa1e1267a3f7037fd2bdf13","study_id":"60edd13110225f80f9f3709b","session_id":"6196c1edfc9f76cb12eb2f96","condition":"contingent","relevant_dimensions":["antennae","pattern"],"bee_group":{"antennae":"B","wings":"X","pattern":"D","legs":"X"},"correct":true,"bonus":1.300000000000001},{"rt":35099.89999997616,"response":{"Q1":"Yes.","Q2":"Based on the four features of the bee.","Q3":"You do not learn if it was friendly or dangerous, and do not alter your bonus."},"question_order":[0,1,2],"trial_type":"survey-multi-choice","trial_index":5,"time_elapsed":222091,"internal_node_id":"0.0-3.0-2.0","subject_id":"5fa1e1267a3f7037fd2bdf13","study_id":"60edd13110225f80f9f3709b","session_id":"6196c1edfc9f76cb12eb2f96","condition":"contingent","relevant_dimensions":["antennae","pattern"],"bee_group":{"antennae":"B","wings":"X","pattern":"D","legs":"X"},"correct":false,"bonus":1.300000000000001},{"rt":1426.0999999940395,"stimulus":"<p>You did not answer all comprehension questions correctly.<br>Press <b>continue</b> to review the instructions again.</p>","response":0,"trial_type":"html-button-response","trial_index":6,"time_elapsed":223529,"internal_node_id":"0.0-3.0-3.0","subject_id":"5fa1e1267a3f7037fd2bdf13","study_id":"60edd13110225f80f9f3709b","session_id":"6196c1edfc9f76cb12eb2f96","condition":"contingent","relevant_dimensions":["antennae","pattern"],"bee_group":{"antennae":"B","wings":"X","pattern":"D","legs":"X"},"bonus":1.300000000000001},{"view_history":[{"page_index":0,"viewing_time":3055.0999999940395},{"page_index":1,"viewing_time":2227.300000011921},{"page_index":2,"viewing_time":1171.0999999940395},{"page_index":3,"viewing_time":1505.9000000059605},{"page_index":4,"viewing_time":1130.5999999940395},{"page_index":5,"viewing_time":976.9000000059605},{"page_index":4,"viewing_time":3697.899999976158},{"page_index":5,"viewing_time":3272.5},{"page_index":6,"viewing_time":837.1000000238419},{"page_index":7,"viewing_time":1069.0999999940395},{"page_index":8,"viewing_time":1493.699999988079},{"page_index":9,"viewing_time":618},{"page_index":10,"viewing_time":757.0999999940395},{"page_index":11,"viewing_time":1405.4000000059605},{"page_index":12,"viewing_time":974.3000000119209},{"page_index":13,"viewing_time":1235.2999999821186},{"page_index":14,"viewing_time":634.9000000059605}],"rt":26062.79999998212,"trial_type":"instructions","trial_index":7,"time_elapsed":249593,"internal_node_id":"0.0-3.0-4.0-0.0","subject_id":"5fa1e1267a3f7037fd2bdf13","study_id":"60edd13110225f80f9f3709b","session_id":"6196c1edfc9f76cb12eb2f96","condition":"contingent","relevant_dimensions":["antennae","pattern"],"bee_group":{"antennae":"B","wings":"X","pattern":"D","legs":"X"},"bonus":1.300000000000001},{"rt":9049.699999988079,"response":{"Q0":["Two or six legs","Stripes or spots on body","Single or double wings","Antennae or no antennae"]},"question_order":[0],"trial_type":"survey-multi-select","trial_index":8,"time_elapsed":258650,"internal_node_id":"0.0-3.0-4.0-1.0","subject_id":"5fa1e1267a3f7037fd2bdf13","study_id":"60edd13110225f80f9f3709b","session_id":"6196c1edfc9f76cb12eb2f96","condition":"contingent","relevant_dimensions":["antennae","pattern"],"bee_group":{"antennae":"B","wings":"X","pattern":"D","legs":"X"},"correct":true,"bonus":1.300000000000001},{"rt":14862.699999988079,"response":{"Q1":"No.","Q2":"Based on the four features of the bee.","Q3":"You do not learn if it was friendly or dangerous, and do not alter your bonus."},"question_order":[0,1,2],"trial_type":"survey-multi-choice","trial_index":9,"time_elapsed":273522,"internal_node_id":"0.0-3.0-4.0-2.0","subject_id":"5fa1e1267a3f7037fd2bdf13","study_id":"60edd13110225f80f9f3709b","session_id":"6196c1edfc9f76cb12eb2f96","condition":"contingent","relevant_dimensions":["antennae","pattern"],"bee_group":{"antennae":"B","wings":"X","pattern":"D","legs":"X"},"correct":true,"bonus":1.300000000000001},{"rt":1341.0999999940395,"stimulus":"<p>Congrats, you got everything right<br>When you're ready, click the button below to continue to the experiment.</p>","response":0,"trial_type":"html-button-response","trial_index":10,"time_elapsed":274872,"internal_node_id":"0.0-3.0-4.0-3.0","subject_id":"5fa1e1267a3f7037fd2bdf13","study_id":"60edd13110225f80f9f3709b","session_id":"6196c1edfc9f76cb12eb2f96","condition":"contingent","relevant_dimensions":["antennae","pattern"],"bee_group":{"antennae":"B","wings":"X","pattern":"D","legs":"X"},"bonus":1.300000000000001},{"rt":3519.0999999940395,"stimulus":"bees-with-color/bee-A2SF.svg","response":0,"trial_type":"image-button-response","trial_index":11,"time_elapsed":278399,"internal_node_id":"0.0-4.0-0.0","subject_id":"5fa1e1267a3f7037fd2bdf13","study_id":"60edd13110225f80f9f3709b","session_id":"6196c1edfc9f76cb12eb2f96","condition":"contingent","relevant_dimensions":["antennae","pattern"],"bee_group":{"antennae":"B","wings":"X","pattern":"D","legs":"X"},"action":"harvest","summary":"good-harvest","bonus":1.300000000000001},{"rt":41275.5,"stimulus":"\n                    <p><b>Action: <em>harvest</em></b></p>\n                    <p>This is the bee that you just saw.</p>\n                    <img src=\"bees-with-color/bee-A2SF.svg\" width=\"200\">\n                    <p><span class=\"greenText\"><b>Successful harvest!</b></span><br>Your pay has increased by $0.02. Your bonus pay is now $0.56.</p>\n            ","response":0,"trial_type":"html-button-response","trial_index":12,"time_elapsed":319686,"internal_node_id":"0.0-4.0-1.0","subject_id":"5fa1e1267a3f7037fd2bdf13","study_id":"60edd13110225f80f9f3709b","session_id":"6196c1edfc9f76cb12eb2f96","condition":"contingent","relevant_dimensions":["antennae","pattern"],"bee_group":{"antennae":"B","wings":"X","pattern":"D","legs":"X"},"bonus":1.300000000000001},{"rt":1672.0999999940395,"stimulus":"bees-with-color/bee-B2DM.svg","response":0,"trial_type":"image-button-response","trial_index":13,"time_elapsed":321364,"internal_node_id":"0.0-4.0-0.1","subject_id":"5fa1e1267a3f7037fd2bdf13","study_id":"60edd13110225f80f9f3709b","session_id":"6196c1edfc9f76cb12eb2f96","condition":"contingent","relevant_dimensions":["antennae","pattern"],"bee_group":{"antennae":"B","wings":"X","pattern":"D","legs":"X"},"action":"harvest","summary":"bad-harvest","bonus":1.300000000000001},{"rt":15923.199999988079,"stimulus":"\n                    <p><b>Action: <em>harvest</em></b></p>\n                    <p>This is the bee that you just saw.</p>\n                    <img src=\"bees-with-color/bee-B2DM.svg\" width=\"200\">\n                    <p><span class=\"redText\">Bad choice, the bee was angry.</span><br><b>You have been stung!</b><br>Your pay has been decreased by $0.10. Your bonus pay is now $0.46.</p>\n            ","response":0,"trial_type":"html-button-response","trial_index":14,"time_elapsed":337291,"internal_node_id":"0.0-4.0-1.1","subject_id":"5fa1e1267a3f7037fd2bdf13","study_id":"60edd13110225f80f9f3709b","session_id":"6196c1edfc9f76cb12eb2f96","condition":"contingent","relevant_dimensions":["antennae","pattern"],"bee_group":{"antennae":"B","wings":"X","pattern":"D","legs":"X"},"bonus":1.300000000000001},{"rt":2261.9000000059605,"stimulus":"bees-with-color/bee-B1SF.svg","response":0,"trial_type":"image-button-response","trial_index":15,"time_elapsed":339557,"internal_node_id":"0.0-4.0-0.2","subject_id":"5fa1e1267a3f7037fd2bdf13","study_id":"60edd13110225f80f9f3709b","session_id":"6196c1edfc9f76cb12eb2f96","condition":"contingent","relevant_dimensions":["antennae","pattern"],"bee_group":{"antennae":"B","wings":"X","pattern":"D","legs":"X"},"action":"harvest","summary":"good-harvest","bonus":1.300000000000001},{"rt":21376.90000000596,"stimulus":"\n                    <p><b>Action: <em>harvest</em></b></p>\n                    <p>This is the bee that you just saw.</p>\n                    <img src=\"bees-with-color/bee-B1SF.svg\" width=\"200\">\n                    <p><span class=\"greenText\"><b>Successful harvest!</b></span><br>Your pay has increased by $0.02. Your bonus pay is now $0.48.</p>\n            ","response":0,"trial_type":"html-button-response","trial_index":16,"time_elapsed":360937,"internal_node_id":"0.0-4.0-1.2","subject_id":"5fa1e1267a3f7037fd2bdf13","study_id":"60edd13110225f80f9f3709b","session_id":"6196c1edfc9f76cb12eb2f96","condition":"contingent","relevant_dimensions":["antennae","pattern"],"bee_group":{"antennae":"B","wings":"X","pattern":"D","legs":"X"},"bonus":1.300000000000001},{"rt":1997.800000011921,"stimulus":"bees-with-color/bee-B2SM.svg","response":0,"trial_type":"image-button-response","trial_index":17,"time_elapsed":362939,"internal_node_id":"0.0-4.0-0.3","subject_id":"5fa1e1267a3f7037fd2bdf13","study_id":"60edd13110225f80f9f3709b","session_id":"6196c1edfc9f76cb12eb2f96","condition":"contingent","relevant_dimensions":["antennae","pattern"],"bee_group":{"antennae":"B","wings":"X","pattern":"D","legs":"X"},"action":"harvest","summary":"good-harvest","bonus":1.300000000000001},{"rt":18951.40000000596,"stimulus":"\n                    <p><b>Action: <em>harvest</em></b></p>\n                    <p>This is the bee that you just saw.</p>\n                    <img src=\"bees-with-color/bee-B2SM.svg\" width=\"200\">\n                    <p><span class=\"greenText\"><b>Successful harvest!</b></span><br>Your pay has increased by $0.02. Your bonus pay is now $0.50.</p>\n            ","response":0,"trial_type":"html-button-response","trial_index":18,"time_elapsed":381894,"internal_node_id":"0.0-4.0-1.3","subject_id":"5fa1e1267a3f7037fd2bdf13","study_id":"60edd13110225f80f9f3709b","session_id":"6196c1edfc9f76cb12eb2f96","condition":"contingent","relevant_dimensions":["antennae","pattern"],"bee_group":{"antennae":"B","wings":"X","pattern":"D","legs":"X"},"bonus":1.300000000000001},{"rt":8201.300000011921,"stimulus":"bees-with-color/bee-A2DM.svg","response":1,"trial_type":"image-button-response","trial_index":19,"time_elapsed":390101,"internal_node_id":"0.0-4.0-0.4","subject_id":"5fa1e1267a3f7037fd2bdf13","study_id":"60edd13110225f80f9f3709b","session_id":"6196c1edfc9f76cb12eb2f96","condition":"contingent","relevant_dimensions":["antennae","pattern"],"bee_group":{"antennae":"B","wings":"X","pattern":"D","legs":"X"},"action":"avoid","summary":"bad-avoid","bonus":1.300000000000001},{"rt":2938.899999976158,"stimulus":"\n                    <p><b>Action: <em>avoid</em></b></p>\n                    <p>This is the bee that you just saw.</p>\n                    <img src=\"bees-with-color/bee-A2DM.svg\" width=\"200\">\n                    <p><br>Your bonus pay is unchanged, and remains at $0.50.</p>\n            ","response":0,"trial_type":"html-button-response","trial_index":20,"time_elapsed":393045,"internal_node_id":"0.0-4.0-1.4","subject_id":"5fa1e1267a3f7037fd2bdf13","study_id":"60edd13110225f80f9f3709b","session_id":"6196c1edfc9f76cb12eb2f96","condition":"contingent","relevant_dimensions":["antennae","pattern"],"bee_group":{"antennae":"B","wings":"X","pattern":"D","legs":"X"},"bonus":1.300000000000001},{"rt":4444.0999999940395,"stimulus":"bees-with-color/bee-B1SM.svg","response":0,"trial_type":"image-button-response","trial_index":21,"time_elapsed":397495,"internal_node_id":"0.0-4.0-0.5","subject_id":"5fa1e1267a3f7037fd2bdf13","study_id":"60edd13110225f80f9f3709b","session_id":"6196c1edfc9f76cb12eb2f96","condition":"contingent","relevant_dimensions":["antennae","pattern"],"bee_group":{"antennae":"B","wings":"X","pattern":"D","legs":"X"},"action":"harvest","summary":"good-harvest","bonus":1.300000000000001},{"rt":10838.59999999404,"stimulus":"\n                    <p><b>Action: <em>harvest</em></b></p>\n                    <p>This is the bee that you just saw.</p>\n                    <img src=\"bees-with-color/bee-B1SM.svg\" width=\"200\">\n                    <p><span class=\"greenText\"><b>Successful harvest!</b></span><br>Your pay has increased by $0.02. Your bonus pay is now $0.52.</p>\n            ","response":0,"trial_type":"html-button-response","trial_index":22,"time_elapsed":408338,"internal_node_id":"0.0-4.0-1.5","subject_id":"5fa1e1267a3f7037fd2bdf13","study_id":"60edd13110225f80f9f3709b","session_id":"6196c1edfc9f76cb12eb2f96","condition":"contingent","relevant_dimensions":["antennae","pattern"],"bee_group":{"antennae":"B","wings":"X","pattern":"D","legs":"X"},"bonus":1.300000000000001},{"rt":2134,"stimulus":"bees-with-color/bee-B2SF.svg","response":0,"trial_type":"image-button-response","trial_index":23,"time_elapsed":410477,"internal_node_id":"0.0-4.0-0.6","subject_id":"5fa1e1267a3f7037fd2bdf13","study_id":"60edd13110225f80f9f3709b","session_id":"6196c1edfc9f76cb12eb2f96","condition":"contingent","relevant_dimensions":["antennae","pattern"],"bee_group":{"antennae":"B","wings":"X","pattern":"D","legs":"X"},"action":"harvest","summary":"good-harvest","bonus":1.300000000000001},{"rt":1037.5999999940395,"stimulus":"\n                    <p><b>Action: <em>harvest</em></b></p>\n                    <p>This is the bee that you just saw.</p>\n                    <img src=\"bees-with-color/bee-B2SF.svg\" width=\"200\">\n                    <p><span class=\"greenText\"><b>Successful harvest!</b></span><br>Your pay has increased by $0.02. Your bonus pay is now $0.54.</p>\n            ","response":0,"trial_type":"html-button-response","trial_index":24,"time_elapsed":411519,"internal_node_id":"0.0-4.0-1.6","subject_id":"5fa1e1267a3f7037fd2bdf13","study_id":"60edd13110225f80f9f3709b","session_id":"6196c1edfc9f76cb12eb2f96","condition":"contingent","relevant_dimensions":["antennae","pattern"],"bee_group":{"antennae":"B","wings":"X","pattern":"D","legs":"X"},"bonus":1.300000000000001},{"rt":1449.699999988079,"stimulus":"bees-with-color/bee-B1DM.svg","response":1,"trial_type":"image-button-response","trial_index":25,"time_elapsed":412974,"internal_node_id":"0.0-4.0-0.7","subject_id":"5fa1e1267a3f7037fd2bdf13","study_id":"60edd13110225f80f9f3709b","session_id":"6196c1edfc9f76cb12eb2f96","condition":"contingent","relevant_dimensions":["antennae","pattern"],"bee_group":{"antennae":"B","wings":"X","pattern":"D","legs":"X"},"action":"avoid","summary":"good-avoid","bonus":1.300000000000001},{"rt":1328.2000000178814,"stimulus":"\n                    <p><b>Action: <em>avoid</em></b></p>\n                    <p>This is the bee that you just saw.</p>\n                    <img src=\"bees-with-color/bee-B1DM.svg\" width=\"200\">\n                    <p><br>Your bonus pay is unchanged, and remains at $0.54.</p>\n            ","response":0,"trial_type":"html-button-response","trial_index":26,"time_elapsed":414306,"internal_node_id":"0.0-4.0-1.7","subject_id":"5fa1e1267a3f7037fd2bdf13","study_id":"60edd13110225f80f9f3709b","session_id":"6196c1edfc9f76cb12eb2f96","condition":"contingent","relevant_dimensions":["antennae","pattern"],"bee_group":{"antennae":"B","wings":"X","pattern":"D","legs":"X"},"bonus":1.300000000000001},{"rt":2276.699999988079,"stimulus":"bees-with-color/bee-A1SF.svg","response":0,"trial_type":"image-button-response","trial_index":27,"time_elapsed":416588,"internal_node_id":"0.0-4.0-0.8","subject_id":"5fa1e1267a3f7037fd2bdf13","study_id":"60edd13110225f80f9f3709b","session_id":"6196c1edfc9f76cb12eb2f96","condition":"contingent","relevant_dimensions":["antennae","pattern"],"bee_group":{"antennae":"B","wings":"X","pattern":"D","legs":"X"},"action":"harvest","summary":"good-harvest","bonus":1.300000000000001},{"rt":823,"stimulus":"\n                    <p><b>Action: <em>harvest</em></b></p>\n                    <p>This is the bee that you just saw.</p>\n                    <img src=\"bees-with-color/bee-A1SF.svg\" width=\"200\">\n                    <p><span class=\"greenText\"><b>Successful harvest!</b></span><br>Your pay has increased by $0.02. Your bonus pay is now $0.56.</p>\n            ","response":0,"trial_type":"html-button-response","trial_index":28,"time_elapsed":417417,"internal_node_id":"0.0-4.0-1.8","subject_id":"5fa1e1267a3f7037fd2bdf13","study_id":"60edd13110225f80f9f3709b","session_id":"6196c1edfc9f76cb12eb2f96","condition":"contingent","relevant_dimensions":["antennae","pattern"],"bee_group":{"antennae":"B","wings":"X","pattern":"D","legs":"X"},"bonus":1.300000000000001},{"rt":7479.199999988079,"stimulus":"bees-with-color/bee-B2DF.svg","response":0,"trial_type":"image-button-response","trial_index":29,"time_elapsed":424900,"internal_node_id":"0.0-4.0-0.9","subject_id":"5fa1e1267a3f7037fd2bdf13","study_id":"60edd13110225f80f9f3709b","session_id":"6196c1edfc9f76cb12eb2f96","condition":"contingent","relevant_dimensions":["antennae","pattern"],"bee_group":{"antennae":"B","wings":"X","pattern":"D","legs":"X"},"action":"harvest","summary":"bad-harvest","bonus":1.300000000000001},{"rt":7966.800000011921,"stimulus":"\n                    <p><b>Action: <em>harvest</em></b></p>\n                    <p>This is the bee that you just saw.</p>\n                    <img src=\"bees-with-color/bee-B2DF.svg\" width=\"200\">\n                    <p><span class=\"redText\">Bad choice, the bee was angry.</span><br><b>You have been stung!</b><br>Your pay has been decreased by $0.10. Your bonus pay is now $0.46.</p>\n            ","response":0,"trial_type":"html-button-response","trial_index":30,"time_elapsed":432870,"internal_node_id":"0.0-4.0-1.9","subject_id":"5fa1e1267a3f7037fd2bdf13","study_id":"60edd13110225f80f9f3709b","session_id":"6196c1edfc9f76cb12eb2f96","condition":"contingent","relevant_dimensions":["antennae","pattern"],"bee_group":{"antennae":"B","wings":"X","pattern":"D","legs":"X"},"bonus":1.300000000000001},{"rt":6817.700000017881,"stimulus":"bees-with-color/bee-A2DF.svg","response":1,"trial_type":"image-button-response","trial_index":31,"time_elapsed":439692,"internal_node_id":"0.0-4.0-0.10","subject_id":"5fa1e1267a3f7037fd2bdf13","study_id":"60edd13110225f80f9f3709b","session_id":"6196c1edfc9f76cb12eb2f96","condition":"contingent","relevant_dimensions":["antennae","pattern"],"bee_group":{"antennae":"B","wings":"X","pattern":"D","legs":"X"},"action":"avoid","summary":"bad-avoid","bonus":1.300000000000001},{"rt":1352.7000000178814,"stimulus":"\n                    <p><b>Action: <em>avoid</em></b></p>\n                    <p>This is the bee that you just saw.</p>\n                    <img src=\"bees-with-color/bee-A2DF.svg\" width=\"200\">\n                    <p><br>Your bonus pay is unchanged, and remains at $0.46.</p>\n            ","response":0,"trial_type":"html-button-response","trial_index":32,"time_elapsed":441048,"internal_node_id":"0.0-4.0-1.10","subject_id":"5fa1e1267a3f7037fd2bdf13","study_id":"60edd13110225f80f9f3709b","session_id":"6196c1edfc9f76cb12eb2f96","condition":"contingent","relevant_dimensions":["antennae","pattern"],"bee_group":{"antennae":"B","wings":"X","pattern":"D","legs":"X"},"bonus":1.300000000000001},{"rt":1434.199999988079,"stimulus":"bees-with-color/bee-A2SM.svg","response":0,"trial_type":"image-button-response","trial_index":33,"time_elapsed":442486,"internal_node_id":"0.0-4.0-0.11","subject_id":"5fa1e1267a3f7037fd2bdf13","study_id":"60edd13110225f80f9f3709b","session_id":"6196c1edfc9f76cb12eb2f96","condition":"contingent","relevant_dimensions":["antennae","pattern"],"bee_group":{"antennae":"B","wings":"X","pattern":"D","legs":"X"},"action":"harvest","summary":"good-harvest","bonus":1.300000000000001},{"rt":853.6999999880791,"stimulus":"\n                    <p><b>Action: <em>harvest</em></b></p>\n                    <p>This is the bee that you just saw.</p>\n                    <img src=\"bees-with-color/bee-A2SM.svg\" width=\"200\">\n                    <p><span class=\"greenText\"><b>Successful harvest!</b></span><br>Your pay has increased by $0.02. Your bonus pay is now $0.48.</p>\n            ","response":0,"trial_type":"html-button-response","trial_index":34,"time_elapsed":443342,"internal_node_id":"0.0-4.0-1.11","subject_id":"5fa1e1267a3f7037fd2bdf13","study_id":"60edd13110225f80f9f3709b","session_id":"6196c1edfc9f76cb12eb2f96","condition":"contingent","relevant_dimensions":["antennae","pattern"],"bee_group":{"antennae":"B","wings":"X","pattern":"D","legs":"X"},"bonus":1.300000000000001},{"rt":948.8000000119209,"stimulus":"bees-with-color/bee-A1DF.svg","response":1,"trial_type":"image-button-response","trial_index":35,"time_elapsed":444295,"internal_node_id":"0.0-4.0-0.12","subject_id":"5fa1e1267a3f7037fd2bdf13","study_id":"60edd13110225f80f9f3709b","session_id":"6196c1edfc9f76cb12eb2f96","condition":"contingent","relevant_dimensions":["antennae","pattern"],"bee_group":{"antennae":"B","wings":"X","pattern":"D","legs":"X"},"action":"avoid","summary":"bad-avoid","bonus":1.300000000000001},{"rt":790.4000000059605,"stimulus":"\n                    <p><b>Action: <em>avoid</em></b></p>\n                    <p>This is the bee that you just saw.</p>\n                    <img src=\"bees-with-color/bee-A1DF.svg\" width=\"200\">\n                    <p><br>Your bonus pay is unchanged, and remains at $0.48.</p>\n            ","response":0,"trial_type":"html-button-response","trial_index":36,"time_elapsed":445089,"internal_node_id":"0.0-4.0-1.12","subject_id":"5fa1e1267a3f7037fd2bdf13","study_id":"60edd13110225f80f9f3709b","session_id":"6196c1edfc9f76cb12eb2f96","condition":"contingent","relevant_dimensions":["antennae","pattern"],"bee_group":{"antennae":"B","wings":"X","pattern":"D","legs":"X"},"bonus":1.300000000000001},{"rt":963.6000000238419,"stimulus":"bees-with-color/bee-A1DM.svg","response":1,"trial_type":"image-button-response","trial_index":37,"time_elapsed":446056,"internal_node_id":"0.0-4.0-0.13","subject_id":"5fa1e1267a3f7037fd2bdf13","study_id":"60edd13110225f80f9f3709b","session_id":"6196c1edfc9f76cb12eb2f96","condition":"contingent","relevant_dimensions":["antennae","pattern"],"bee_group":{"antennae":"B","wings":"X","pattern":"D","legs":"X"},"action":"avoid","summary":"bad-avoid","bonus":1.300000000000001},{"rt":922.8000000119209,"stimulus":"\n                    <p><b>Action: <em>avoid</em></b></p>\n                    <p>This is the bee that you just saw.</p>\n                    <img src=\"bees-with-color/bee-A1DM.svg\" width=\"200\">\n                    <p><br>Your bonus pay is unchanged, and remains at $0.48.</p>\n            ","response":0,"trial_type":"html-button-response","trial_index":38,"time_elapsed":446982,"internal_node_id":"0.0-4.0-1.13","subject_id":"5fa1e1267a3f7037fd2bdf13","study_id":"60edd13110225f80f9f3709b","session_id":"6196c1edfc9f76cb12eb2f96","condition":"contingent","relevant_dimensions":["antennae","pattern"],"bee_group":{"antennae":"B","wings":"X","pattern":"D","legs":"X"},"bonus":1.300000000000001},{"rt":1042.5,"stimulus":"bees-with-color/bee-A1SM.svg","response":0,"trial_type":"image-button-response","trial_index":39,"time_elapsed":448029,"internal_node_id":"0.0-4.0-0.14","subject_id":"5fa1e1267a3f7037fd2bdf13","study_id":"60edd13110225f80f9f3709b","session_id":"6196c1edfc9f76cb12eb2f96","condition":"contingent","relevant_dimensions":["antennae","pattern"],"bee_group":{"antennae":"B","wings":"X","pattern":"D","legs":"X"},"action":"harvest","summary":"good-harvest","bonus":1.300000000000001},{"rt":826.5,"stimulus":"\n                    <p><b>Action: <em>harvest</em></b></p>\n                    <p>This is the bee that you just saw.</p>\n                    <img src=\"bees-with-color/bee-A1SM.svg\" width=\"200\">\n                    <p><span class=\"greenText\"><b>Successful harvest!</b></span><br>Your pay has increased by $0.02. Your bonus pay is now $0.50.</p>\n            ","response":0,"trial_type":"html-button-response","trial_index":40,"time_elapsed":448860,"internal_node_id":"0.0-4.0-1.14","subject_id":"5fa1e1267a3f7037fd2bdf13","study_id":"60edd13110225f80f9f3709b","session_id":"6196c1edfc9f76cb12eb2f96","condition":"contingent","relevant_dimensions":["antennae","pattern"],"bee_group":{"antennae":"B","wings":"X","pattern":"D","legs":"X"},"bonus":1.300000000000001},{"rt":1328.5999999940395,"stimulus":"bees-with-color/bee-B1DF.svg","response":1,"trial_type":"image-button-response","trial_index":41,"time_elapsed":450192,"internal_node_id":"0.0-4.0-0.15","subject_id":"5fa1e1267a3f7037fd2bdf13","study_id":"60edd13110225f80f9f3709b","session_id":"6196c1edfc9f76cb12eb2f96","condition":"contingent","relevant_dimensions":["antennae","pattern"],"bee_group":{"antennae":"B","wings":"X","pattern":"D","legs":"X"},"action":"avoid","summary":"good-avoid","bonus":1.300000000000001},{"rt":1022.3000000119209,"stimulus":"\n                    <p><b>Action: <em>avoid</em></b></p>\n                    <p>This is the bee that you just saw.</p>\n                    <img src=\"bees-with-color/bee-B1DF.svg\" width=\"200\">\n                    <p><br>Your bonus pay is unchanged, and remains at $0.50.</p>\n            ","response":0,"trial_type":"html-button-response","trial_index":42,"time_elapsed":451218,"internal_node_id":"0.0-4.0-1.15","subject_id":"5fa1e1267a3f7037fd2bdf13","study_id":"60edd13110225f80f9f3709b","session_id":"6196c1edfc9f76cb12eb2f96","condition":"contingent","relevant_dimensions":["antennae","pattern"],"bee_group":{"antennae":"B","wings":"X","pattern":"D","legs":"X"},"bonus":1.300000000000001},{"rt":1222.300000011921,"stimulus":"bees-with-color/bee-B1SF.svg","response":0,"trial_type":"image-button-response","trial_index":43,"time_elapsed":452446,"internal_node_id":"0.0-4.0-0.16","subject_id":"5fa1e1267a3f7037fd2bdf13","study_id":"60edd13110225f80f9f3709b","session_id":"6196c1edfc9f76cb12eb2f96","condition":"contingent","relevant_dimensions":["antennae","pattern"],"bee_group":{"antennae":"B","wings":"X","pattern":"D","legs":"X"},"action":"harvest","summary":"good-harvest","bonus":1.300000000000001},{"rt":700.1999999880791,"stimulus":"\n                    <p><b>Action: <em>harvest</em></b></p>\n                    <p>This is the bee that you just saw.</p>\n                    <img src=\"bees-with-color/bee-B1SF.svg\" width=\"200\">\n                    <p><span class=\"greenText\"><b>Successful harvest!</b></span><br>Your pay has increased by $0.02. Your bonus pay is now $0.52.</p>\n            ","response":0,"trial_type":"html-button-response","trial_index":44,"time_elapsed":453150,"internal_node_id":"0.0-4.0-1.16","subject_id":"5fa1e1267a3f7037fd2bdf13","study_id":"60edd13110225f80f9f3709b","session_id":"6196c1edfc9f76cb12eb2f96","condition":"contingent","relevant_dimensions":["antennae","pattern"],"bee_group":{"antennae":"B","wings":"X","pattern":"D","legs":"X"},"bonus":1.300000000000001},{"rt":918.5999999940395,"stimulus":"bees-with-color/bee-B1DF.svg","response":1,"trial_type":"image-button-response","trial_index":45,"time_elapsed":454072,"internal_node_id":"0.0-4.0-0.17","subject_id":"5fa1e1267a3f7037fd2bdf13","study_id":"60edd13110225f80f9f3709b","session_id":"6196c1edfc9f76cb12eb2f96","condition":"contingent","relevant_dimensions":["antennae","pattern"],"bee_group":{"antennae":"B","wings":"X","pattern":"D","legs":"X"},"action":"avoid","summary":"good-avoid","bonus":1.300000000000001},{"rt":1142.0999999940395,"stimulus":"\n                    <p><b>Action: <em>avoid</em></b></p>\n                    <p>This is the bee that you just saw.</p>\n                    <img src=\"bees-with-color/bee-B1DF.svg\" width=\"200\">\n                    <p><br>Your bonus pay is unchanged, and remains at $0.52.</p>\n            ","response":0,"trial_type":"html-button-response","trial_index":46,"time_elapsed":455218,"internal_node_id":"0.0-4.0-1.17","subject_id":"5fa1e1267a3f7037fd2bdf13","study_id":"60edd13110225f80f9f3709b","session_id":"6196c1edfc9f76cb12eb2f96","condition":"contingent","relevant_dimensions":["antennae","pattern"],"bee_group":{"antennae":"B","wings":"X","pattern":"D","legs":"X"},"bonus":1.300000000000001},{"rt":916.6999999880791,"stimulus":"bees-with-color/bee-B2DF.svg","response":1,"trial_type":"image-button-response","trial_index":47,"time_elapsed":456139,"internal_node_id":"0.0-4.0-0.18","subject_id":"5fa1e1267a3f7037fd2bdf13","study_id":"60edd13110225f80f9f3709b","session_id":"6196c1edfc9f76cb12eb2f96","condition":"contingent","relevant_dimensions":["antennae","pattern"],"bee_group":{"antennae":"B","wings":"X","pattern":"D","legs":"X"},"action":"avoid","summary":"good-avoid","bonus":1.300000000000001},{"rt":612.2000000178814,"stimulus":"\n                    <p><b>Action: <em>avoid</em></b></p>\n                    <p>This is the bee that you just saw.</p>\n                    <img src=\"bees-with-color/bee-B2DF.svg\" width=\"200\">\n                    <p><br>Your bonus pay is unchanged, and remains at $0.52.</p>\n            ","response":0,"trial_type":"html-button-response","trial_index":48,"time_elapsed":456756,"internal_node_id":"0.0-4.0-1.18","subject_id":"5fa1e1267a3f7037fd2bdf13","study_id":"60edd13110225f80f9f3709b","session_id":"6196c1edfc9f76cb12eb2f96","condition":"contingent","relevant_dimensions":["antennae","pattern"],"bee_group":{"antennae":"B","wings":"X","pattern":"D","legs":"X"},"bonus":1.300000000000001},{"rt":797.2999999821186,"stimulus":"bees-with-color/bee-A1DF.svg","response":1,"trial_type":"image-button-response","trial_index":49,"time_elapsed":457558,"internal_node_id":"0.0-4.0-0.19","subject_id":"5fa1e1267a3f7037fd2bdf13","study_id":"60edd13110225f80f9f3709b","session_id":"6196c1edfc9f76cb12eb2f96","condition":"contingent","relevant_dimensions":["antennae","pattern"],"bee_group":{"antennae":"B","wings":"X","pattern":"D","legs":"X"},"action":"avoid","summary":"bad-avoid","bonus":1.300000000000001},{"rt":640.5,"stimulus":"\n                    <p><b>Action: <em>avoid</em></b></p>\n                    <p>This is the bee that you just saw.</p>\n                    <img src=\"bees-with-color/bee-A1DF.svg\" width=\"200\">\n                    <p><br>Your bonus pay is unchanged, and remains at $0.52.</p>\n            ","response":0,"trial_type":"html-button-response","trial_index":50,"time_elapsed":458202,"internal_node_id":"0.0-4.0-1.19","subject_id":"5fa1e1267a3f7037fd2bdf13","study_id":"60edd13110225f80f9f3709b","session_id":"6196c1edfc9f76cb12eb2f96","condition":"contingent","relevant_dimensions":["antennae","pattern"],"bee_group":{"antennae":"B","wings":"X","pattern":"D","legs":"X"},"bonus":1.300000000000001},{"rt":1019.3000000119209,"stimulus":"bees-with-color/bee-B2SF.svg","response":0,"trial_type":"image-button-response","trial_index":51,"time_elapsed":459225,"internal_node_id":"0.0-4.0-0.20","subject_id":"5fa1e1267a3f7037fd2bdf13","study_id":"60edd13110225f80f9f3709b","session_id":"6196c1edfc9f76cb12eb2f96","condition":"contingent","relevant_dimensions":["antennae","pattern"],"bee_group":{"antennae":"B","wings":"X","pattern":"D","legs":"X"},"action":"harvest","summary":"good-harvest","bonus":1.300000000000001},{"rt":715.9000000059605,"stimulus":"\n                    <p><b>Action: <em>harvest</em></b></p>\n                    <p>This is the bee that you just saw.</p>\n                    <img src=\"bees-with-color/bee-B2SF.svg\" width=\"200\">\n                    <p><span class=\"greenText\"><b>Successful harvest!</b></span><br>Your pay has increased by $0.02. Your bonus pay is now $0.54.</p>\n            ","response":0,"trial_type":"html-button-response","trial_index":52,"time_elapsed":459944,"internal_node_id":"0.0-4.0-1.20","subject_id":"5fa1e1267a3f7037fd2bdf13","study_id":"60edd13110225f80f9f3709b","session_id":"6196c1edfc9f76cb12eb2f96","condition":"contingent","relevant_dimensions":["antennae","pattern"],"bee_group":{"antennae":"B","wings":"X","pattern":"D","legs":"X"},"bonus":1.300000000000001},{"rt":868.5,"stimulus":"bees-with-color/bee-A2DF.svg","response":1,"trial_type":"image-button-response","trial_index":53,"time_elapsed":460817,"internal_node_id":"0.0-4.0-0.21","subject_id":"5fa1e1267a3f7037fd2bdf13","study_id":"60edd13110225f80f9f3709b","session_id":"6196c1edfc9f76cb12eb2f96","condition":"contingent","relevant_dimensions":["antennae","pattern"],"bee_group":{"antennae":"B","wings":"X","pattern":"D","legs":"X"},"action":"avoid","summary":"bad-avoid","bonus":1.300000000000001},{"rt":710,"stimulus":"\n                    <p><b>Action: <em>avoid</em></b></p>\n                    <p>This is the bee that you just saw.</p>\n                    <img src=\"bees-with-color/bee-A2DF.svg\" width=\"200\">\n                    <p><br>Your bonus pay is unchanged, and remains at $0.54.</p>\n            ","response":0,"trial_type":"html-button-response","trial_index":54,"time_elapsed":461532,"internal_node_id":"0.0-4.0-1.21","subject_id":"5fa1e1267a3f7037fd2bdf13","study_id":"60edd13110225f80f9f3709b","session_id":"6196c1edfc9f76cb12eb2f96","condition":"contingent","relevant_dimensions":["antennae","pattern"],"bee_group":{"antennae":"B","wings":"X","pattern":"D","legs":"X"},"bonus":1.300000000000001},{"rt":812.6999999880791,"stimulus":"bees-with-color/bee-B2SM.svg","response":0,"trial_type":"image-button-response","trial_index":55,"time_elapsed":462349,"internal_node_id":"0.0-4.0-0.22","subject_id":"5fa1e1267a3f7037fd2bdf13","study_id":"60edd13110225f80f9f3709b","session_id":"6196c1edfc9f76cb12eb2f96","condition":"contingent","relevant_dimensions":["antennae","pattern"],"bee_group":{"antennae":"B","wings":"X","pattern":"D","legs":"X"},"action":"harvest","summary":"good-harvest","bonus":1.300000000000001},{"rt":704.3000000119209,"stimulus":"\n                    <p><b>Action: <em>harvest</em></b></p>\n                    <p>This is the bee that you just saw.</p>\n                    <img src=\"bees-with-color/bee-B2SM.svg\" width=\"200\">\n                    <p><span class=\"greenText\"><b>Successful harvest!</b></span><br>Your pay has increased by $0.02. Your bonus pay is now $0.56.</p>\n            ","response":0,"trial_type":"html-button-response","trial_index":56,"time_elapsed":463060,"internal_node_id":"0.0-4.0-1.22","subject_id":"5fa1e1267a3f7037fd2bdf13","study_id":"60edd13110225f80f9f3709b","session_id":"6196c1edfc9f76cb12eb2f96","condition":"contingent","relevant_dimensions":["antennae","pattern"],"bee_group":{"antennae":"B","wings":"X","pattern":"D","legs":"X"},"bonus":1.300000000000001},{"rt":1121.0999999940395,"stimulus":"bees-with-color/bee-B1SM.svg","response":0,"trial_type":"image-button-response","trial_index":57,"time_elapsed":464185,"internal_node_id":"0.0-4.0-0.23","subject_id":"5fa1e1267a3f7037fd2bdf13","study_id":"60edd13110225f80f9f3709b","session_id":"6196c1edfc9f76cb12eb2f96","condition":"contingent","relevant_dimensions":["antennae","pattern"],"bee_group":{"antennae":"B","wings":"X","pattern":"D","legs":"X"},"action":"harvest","summary":"good-harvest","bonus":1.300000000000001},{"rt":607.2999999821186,"stimulus":"\n                    <p><b>Action: <em>harvest</em></b></p>\n                    <p>This is the bee that you just saw.</p>\n                    <img src=\"bees-with-color/bee-B1SM.svg\" width=\"200\">\n                    <p><span class=\"greenText\"><b>Successful harvest!</b></span><br>Your pay has increased by $0.02. Your bonus pay is now $0.58.</p>\n            ","response":0,"trial_type":"html-button-response","trial_index":58,"time_elapsed":464795,"internal_node_id":"0.0-4.0-1.23","subject_id":"5fa1e1267a3f7037fd2bdf13","study_id":"60edd13110225f80f9f3709b","session_id":"6196c1edfc9f76cb12eb2f96","condition":"contingent","relevant_dimensions":["antennae","pattern"],"bee_group":{"antennae":"B","wings":"X","pattern":"D","legs":"X"},"bonus":1.300000000000001},{"rt":905.4000000059605,"stimulus":"bees-with-color/bee-B1DM.svg","response":1,"trial_type":"image-button-response","trial_index":59,"time_elapsed":465704,"internal_node_id":"0.0-4.0-0.24","subject_id":"5fa1e1267a3f7037fd2bdf13","study_id":"60edd13110225f80f9f3709b","session_id":"6196c1edfc9f76cb12eb2f96","condition":"contingent","relevant_dimensions":["antennae","pattern"],"bee_group":{"antennae":"B","wings":"X","pattern":"D","legs":"X"},"action":"avoid","summary":"good-avoid","bonus":1.300000000000001},{"rt":676.3000000119209,"stimulus":"\n                    <p><b>Action: <em>avoid</em></b></p>\n                    <p>This is the bee that you just saw.</p>\n                    <img src=\"bees-with-color/bee-B1DM.svg\" width=\"200\">\n                    <p><br>Your bonus pay is unchanged, and remains at $0.58.</p>\n            ","response":0,"trial_type":"html-button-response","trial_index":60,"time_elapsed":466382,"internal_node_id":"0.0-4.0-1.24","subject_id":"5fa1e1267a3f7037fd2bdf13","study_id":"60edd13110225f80f9f3709b","session_id":"6196c1edfc9f76cb12eb2f96","condition":"contingent","relevant_dimensions":["antennae","pattern"],"bee_group":{"antennae":"B","wings":"X","pattern":"D","legs":"X"},"bonus":1.300000000000001},{"rt":984.2000000178814,"stimulus":"bees-with-color/bee-A1DM.svg","response":1,"trial_type":"image-button-response","trial_index":61,"time_elapsed":467369,"internal_node_id":"0.0-4.0-0.25","subject_id":"5fa1e1267a3f7037fd2bdf13","study_id":"60edd13110225f80f9f3709b","session_id":"6196c1edfc9f76cb12eb2f96","condition":"contingent","relevant_dimensions":["antennae","pattern"],"bee_group":{"antennae":"B","wings":"X","pattern":"D","legs":"X"},"action":"avoid","summary":"bad-avoid","bonus":1.300000000000001},{"rt":682.8000000119209,"stimulus":"\n                    <p><b>Action: <em>avoid</em></b></p>\n                    <p>This is the bee that you just saw.</p>\n                    <img src=\"bees-with-color/bee-A1DM.svg\" width=\"200\">\n                    <p><br>Your bonus pay is unchanged, and remains at $0.58.</p>\n            ","response":0,"trial_type":"html-button-response","trial_index":62,"time_elapsed":468055,"internal_node_id":"0.0-4.0-1.25","subject_id":"5fa1e1267a3f7037fd2bdf13","study_id":"60edd13110225f80f9f3709b","session_id":"6196c1edfc9f76cb12eb2f96","condition":"contingent","relevant_dimensions":["antennae","pattern"],"bee_group":{"antennae":"B","wings":"X","pattern":"D","legs":"X"},"bonus":1.300000000000001},{"rt":812.4000000059605,"stimulus":"bees-with-color/bee-A2DM.svg","response":1,"trial_type":"image-button-response","trial_index":63,"time_elapsed":468870,"internal_node_id":"0.0-4.0-0.26","subject_id":"5fa1e1267a3f7037fd2bdf13","study_id":"60edd13110225f80f9f3709b","session_id":"6196c1edfc9f76cb12eb2f96","condition":"contingent","relevant_dimensions":["antennae","pattern"],"bee_group":{"antennae":"B","wings":"X","pattern":"D","legs":"X"},"action":"avoid","summary":"bad-avoid","bonus":1.300000000000001},{"rt":636.5999999940395,"stimulus":"\n                    <p><b>Action: <em>avoid</em></b></p>\n                    <p>This is the bee that you just saw.</p>\n                    <img src=\"bees-with-color/bee-A2DM.svg\" width=\"200\">\n                    <p><br>Your bonus pay is unchanged, and remains at $0.58.</p>\n            ","response":0,"trial_type":"html-button-response","trial_index":64,"time_elapsed":469510,"internal_node_id":"0.0-4.0-1.26","subject_id":"5fa1e1267a3f7037fd2bdf13","study_id":"60edd13110225f80f9f3709b","session_id":"6196c1edfc9f76cb12eb2f96","condition":"contingent","relevant_dimensions":["antennae","pattern"],"bee_group":{"antennae":"B","wings":"X","pattern":"D","legs":"X"},"bonus":1.300000000000001},{"rt":928.5999999940395,"stimulus":"bees-with-color/bee-A1SM.svg","response":0,"trial_type":"image-button-response","trial_index":65,"time_elapsed":470442,"internal_node_id":"0.0-4.0-0.27","subject_id":"5fa1e1267a3f7037fd2bdf13","study_id":"60edd13110225f80f9f3709b","session_id":"6196c1edfc9f76cb12eb2f96","condition":"contingent","relevant_dimensions":["antennae","pattern"],"bee_group":{"antennae":"B","wings":"X","pattern":"D","legs":"X"},"action":"harvest","summary":"good-harvest","bonus":1.300000000000001},{"rt":642.3000000119209,"stimulus":"\n                    <p><b>Action: <em>harvest</em></b></p>\n                    <p>This is the bee that you just saw.</p>\n                    <img src=\"bees-with-color/bee-A1SM.svg\" width=\"200\">\n                    <p><span class=\"greenText\"><b>Successful harvest!</b></span><br>Your pay has increased by $0.02. Your bonus pay is now $0.60.</p>\n            ","response":0,"trial_type":"html-button-response","trial_index":66,"time_elapsed":471088,"internal_node_id":"0.0-4.0-1.27","subject_id":"5fa1e1267a3f7037fd2bdf13","study_id":"60edd13110225f80f9f3709b","session_id":"6196c1edfc9f76cb12eb2f96","condition":"contingent","relevant_dimensions":["antennae","pattern"],"bee_group":{"antennae":"B","wings":"X","pattern":"D","legs":"X"},"bonus":1.300000000000001},{"rt":876.6999999880791,"stimulus":"bees-with-color/bee-A2SM.svg","response":0,"trial_type":"image-button-response","trial_index":67,"time_elapsed":471967,"internal_node_id":"0.0-4.0-0.28","subject_id":"5fa1e1267a3f7037fd2bdf13","study_id":"60edd13110225f80f9f3709b","session_id":"6196c1edfc9f76cb12eb2f96","condition":"contingent","relevant_dimensions":["antennae","pattern"],"bee_group":{"antennae":"B","wings":"X","pattern":"D","legs":"X"},"action":"harvest","summary":"good-harvest","bonus":1.300000000000001},{"rt":613.1999999880791,"stimulus":"\n                    <p><b>Action: <em>harvest</em></b></p>\n                    <p>This is the bee that you just saw.</p>\n                    <img src=\"bees-with-color/bee-A2SM.svg\" width=\"200\">\n                    <p><span class=\"greenText\"><b>Successful harvest!</b></span><br>Your pay has increased by $0.02. Your bonus pay is now $0.62.</p>\n            ","response":0,"trial_type":"html-button-response","trial_index":68,"time_elapsed":472583,"internal_node_id":"0.0-4.0-1.28","subject_id":"5fa1e1267a3f7037fd2bdf13","study_id":"60edd13110225f80f9f3709b","session_id":"6196c1edfc9f76cb12eb2f96","condition":"contingent","relevant_dimensions":["antennae","pattern"],"bee_group":{"antennae":"B","wings":"X","pattern":"D","legs":"X"},"bonus":1.300000000000001},{"rt":868.5999999940395,"stimulus":"bees-with-color/bee-A2SF.svg","response":0,"trial_type":"image-button-response","trial_index":69,"time_elapsed":473455,"internal_node_id":"0.0-4.0-0.29","subject_id":"5fa1e1267a3f7037fd2bdf13","study_id":"60edd13110225f80f9f3709b","session_id":"6196c1edfc9f76cb12eb2f96","condition":"contingent","relevant_dimensions":["antennae","pattern"],"bee_group":{"antennae":"B","wings":"X","pattern":"D","legs":"X"},"action":"harvest","summary":"good-harvest","bonus":1.300000000000001},{"rt":1236.9000000059605,"stimulus":"\n                    <p><b>Action: <em>harvest</em></b></p>\n                    <p>This is the bee that you just saw.</p>\n                    <img src=\"bees-with-color/bee-A2SF.svg\" width=\"200\">\n                    <p><span class=\"greenText\"><b>Successful harvest!</b></span><br>Your pay has increased by $0.02. Your bonus pay is now $0.64.</p>\n            ","response":0,"trial_type":"html-button-response","trial_index":70,"time_elapsed":474695,"internal_node_id":"0.0-4.0-1.29","subject_id":"5fa1e1267a3f7037fd2bdf13","study_id":"60edd13110225f80f9f3709b","session_id":"6196c1edfc9f76cb12eb2f96","condition":"contingent","relevant_dimensions":["antennae","pattern"],"bee_group":{"antennae":"B","wings":"X","pattern":"D","legs":"X"},"bonus":1.300000000000001},{"rt":849.3000000119209,"stimulus":"bees-with-color/bee-A1SF.svg","response":0,"trial_type":"image-button-response","trial_index":71,"time_elapsed":475547,"internal_node_id":"0.0-4.0-0.30","subject_id":"5fa1e1267a3f7037fd2bdf13","study_id":"60edd13110225f80f9f3709b","session_id":"6196c1edfc9f76cb12eb2f96","condition":"contingent","relevant_dimensions":["antennae","pattern"],"bee_group":{"antennae":"B","wings":"X","pattern":"D","legs":"X"},"action":"harvest","summary":"good-harvest","bonus":1.300000000000001},{"rt":551.9000000059605,"stimulus":"\n                    <p><b>Action: <em>harvest</em></b></p>\n                    <p>This is the bee that you just saw.</p>\n                    <img src=\"bees-with-color/bee-A1SF.svg\" width=\"200\">\n                    <p><span class=\"greenText\"><b>Successful harvest!</b></span><br>Your pay has increased by $0.02. Your bonus pay is now $0.66.</p>\n            ","response":0,"trial_type":"html-button-response","trial_index":72,"time_elapsed":476103,"internal_node_id":"0.0-4.0-1.30","subject_id":"5fa1e1267a3f7037fd2bdf13","study_id":"60edd13110225f80f9f3709b","session_id":"6196c1edfc9f76cb12eb2f96","condition":"contingent","relevant_dimensions":["antennae","pattern"],"bee_group":{"antennae":"B","wings":"X","pattern":"D","legs":"X"},"bonus":1.300000000000001},{"rt":889.4000000059605,"stimulus":"bees-with-color/bee-B2DM.svg","response":1,"trial_type":"image-button-response","trial_index":73,"time_elapsed":476995,"internal_node_id":"0.0-4.0-0.31","subject_id":"5fa1e1267a3f7037fd2bdf13","study_id":"60edd13110225f80f9f3709b","session_id":"6196c1edfc9f76cb12eb2f96","condition":"contingent","relevant_dimensions":["antennae","pattern"],"bee_group":{"antennae":"B","wings":"X","pattern":"D","legs":"X"},"action":"avoid","summary":"good-avoid","bonus":1.300000000000001},{"rt":627.3999999761581,"stimulus":"\n                    <p><b>Action: <em>avoid</em></b></p>\n                    <p>This is the bee that you just saw.</p>\n                    <img src=\"bees-with-color/bee-B2DM.svg\" width=\"200\">\n                    <p><br>Your bonus pay is unchanged, and remains at $0.66.</p>\n            ","response":0,"trial_type":"html-button-response","trial_index":74,"time_elapsed":477626,"internal_node_id":"0.0-4.0-1.31","subject_id":"5fa1e1267a3f7037fd2bdf13","study_id":"60edd13110225f80f9f3709b","session_id":"6196c1edfc9f76cb12eb2f96","condition":"contingent","relevant_dimensions":["antennae","pattern"],"bee_group":{"antennae":"B","wings":"X","pattern":"D","legs":"X"},"bonus":1.300000000000001},{"rt":863.8000000119209,"stimulus":"bees-with-color/bee-A1SM.svg","response":0,"trial_type":"image-button-response","trial_index":75,"time_elapsed":478493,"internal_node_id":"0.0-4.0-0.32","subject_id":"5fa1e1267a3f7037fd2bdf13","study_id":"60edd13110225f80f9f3709b","session_id":"6196c1edfc9f76cb12eb2f96","condition":"contingent","relevant_dimensions":["antennae","pattern"],"bee_group":{"antennae":"B","wings":"X","pattern":"D","legs":"X"},"action":"harvest","summary":"good-harvest","bonus":1.300000000000001},{"rt":550.5,"stimulus":"\n                    <p><b>Action: <em>harvest</em></b></p>\n                    <p>This is the bee that you just saw.</p>\n                    <img src=\"bees-with-color/bee-A1SM.svg\" width=\"200\">\n                    <p><span class=\"greenText\"><b>Successful harvest!</b></span><br>Your pay has increased by $0.02. Your bonus pay is now $0.68.</p>\n            ","response":0,"trial_type":"html-button-response","trial_index":76,"time_elapsed":479048,"internal_node_id":"0.0-4.0-1.32","subject_id":"5fa1e1267a3f7037fd2bdf13","study_id":"60edd13110225f80f9f3709b","session_id":"6196c1edfc9f76cb12eb2f96","condition":"contingent","relevant_dimensions":["antennae","pattern"],"bee_group":{"antennae":"B","wings":"X","pattern":"D","legs":"X"},"bonus":1.300000000000001},{"rt":1334.5,"stimulus":"bees-with-color/bee-A2SF.svg","response":0,"trial_type":"image-button-response","trial_index":77,"time_elapsed":480387,"internal_node_id":"0.0-4.0-0.33","subject_id":"5fa1e1267a3f7037fd2bdf13","study_id":"60edd13110225f80f9f3709b","session_id":"6196c1edfc9f76cb12eb2f96","condition":"contingent","relevant_dimensions":["antennae","pattern"],"bee_group":{"antennae":"B","wings":"X","pattern":"D","legs":"X"},"action":"harvest","summary":"good-harvest","bonus":1.300000000000001},{"rt":613.3999999761581,"stimulus":"\n                    <p><b>Action: <em>harvest</em></b></p>\n                    <p>This is the bee that you just saw.</p>\n                    <img src=\"bees-with-color/bee-A2SF.svg\" width=\"200\">\n                    <p><span class=\"greenText\"><b>Successful harvest!</b></span><br>Your pay has increased by $0.02. Your bonus pay is now $0.70.</p>\n            ","response":0,"trial_type":"html-button-response","trial_index":78,"time_elapsed":481004,"internal_node_id":"0.0-4.0-1.33","subject_id":"5fa1e1267a3f7037fd2bdf13","study_id":"60edd13110225f80f9f3709b","session_id":"6196c1edfc9f76cb12eb2f96","condition":"contingent","relevant_dimensions":["antennae","pattern"],"bee_group":{"antennae":"B","wings":"X","pattern":"D","legs":"X"},"bonus":1.300000000000001},{"rt":742.9000000059605,"stimulus":"bees-with-color/bee-B1SF.svg","response":0,"trial_type":"image-button-response","trial_index":79,"time_elapsed":481751,"internal_node_id":"0.0-4.0-0.34","subject_id":"5fa1e1267a3f7037fd2bdf13","study_id":"60edd13110225f80f9f3709b","session_id":"6196c1edfc9f76cb12eb2f96","condition":"contingent","relevant_dimensions":["antennae","pattern"],"bee_group":{"antennae":"B","wings":"X","pattern":"D","legs":"X"},"action":"harvest","summary":"good-harvest","bonus":1.300000000000001},{"rt":666.0999999940395,"stimulus":"\n                    <p><b>Action: <em>harvest</em></b></p>\n                    <p>This is the bee that you just saw.</p>\n                    <img src=\"bees-with-color/bee-B1SF.svg\" width=\"200\">\n                    <p><span class=\"greenText\"><b>Successful harvest!</b></span><br>Your pay has increased by $0.02. Your bonus pay is now $0.72.</p>\n            ","response":0,"trial_type":"html-button-response","trial_index":80,"time_elapsed":482420,"internal_node_id":"0.0-4.0-1.34","subject_id":"5fa1e1267a3f7037fd2bdf13","study_id":"60edd13110225f80f9f3709b","session_id":"6196c1edfc9f76cb12eb2f96","condition":"contingent","relevant_dimensions":["antennae","pattern"],"bee_group":{"antennae":"B","wings":"X","pattern":"D","legs":"X"},"bonus":1.300000000000001},{"rt":1004,"stimulus":"bees-with-color/bee-A2DF.svg","response":1,"trial_type":"image-button-response","trial_index":81,"time_elapsed":483427,"internal_node_id":"0.0-4.0-0.35","subject_id":"5fa1e1267a3f7037fd2bdf13","study_id":"60edd13110225f80f9f3709b","session_id":"6196c1edfc9f76cb12eb2f96","condition":"contingent","relevant_dimensions":["antennae","pattern"],"bee_group":{"antennae":"B","wings":"X","pattern":"D","legs":"X"},"action":"avoid","summary":"bad-avoid","bonus":1.300000000000001},{"rt":649.8000000119209,"stimulus":"\n                    <p><b>Action: <em>avoid</em></b></p>\n                    <p>This is the bee that you just saw.</p>\n                    <img src=\"bees-with-color/bee-A2DF.svg\" width=\"200\">\n                    <p><br>Your bonus pay is unchanged, and remains at $0.72.</p>\n            ","response":0,"trial_type":"html-button-response","trial_index":82,"time_elapsed":484080,"internal_node_id":"0.0-4.0-1.35","subject_id":"5fa1e1267a3f7037fd2bdf13","study_id":"60edd13110225f80f9f3709b","session_id":"6196c1edfc9f76cb12eb2f96","condition":"contingent","relevant_dimensions":["antennae","pattern"],"bee_group":{"antennae":"B","wings":"X","pattern":"D","legs":"X"},"bonus":1.300000000000001},{"rt":774.6000000238419,"stimulus":"bees-with-color/bee-B1DM.svg","response":1,"trial_type":"image-button-response","trial_index":83,"time_elapsed":484859,"internal_node_id":"0.0-4.0-0.36","subject_id":"5fa1e1267a3f7037fd2bdf13","study_id":"60edd13110225f80f9f3709b","session_id":"6196c1edfc9f76cb12eb2f96","condition":"contingent","relevant_dimensions":["antennae","pattern"],"bee_group":{"antennae":"B","wings":"X","pattern":"D","legs":"X"},"action":"avoid","summary":"good-avoid","bonus":1.300000000000001},{"rt":639.4000000059605,"stimulus":"\n                    <p><b>Action: <em>avoid</em></b></p>\n                    <p>This is the bee that you just saw.</p>\n                    <img src=\"bees-with-color/bee-B1DM.svg\" width=\"200\">\n                    <p><br>Your bonus pay is unchanged, and remains at $0.72.</p>\n            ","response":0,"trial_type":"html-button-response","trial_index":84,"time_elapsed":485503,"internal_node_id":"0.0-4.0-1.36","subject_id":"5fa1e1267a3f7037fd2bdf13","study_id":"60edd13110225f80f9f3709b","session_id":"6196c1edfc9f76cb12eb2f96","condition":"contingent","relevant_dimensions":["antennae","pattern"],"bee_group":{"antennae":"B","wings":"X","pattern":"D","legs":"X"},"bonus":1.300000000000001},{"rt":886,"stimulus":"bees-with-color/bee-B2SM.svg","response":0,"trial_type":"image-button-response","trial_index":85,"time_elapsed":486393,"internal_node_id":"0.0-4.0-0.37","subject_id":"5fa1e1267a3f7037fd2bdf13","study_id":"60edd13110225f80f9f3709b","session_id":"6196c1edfc9f76cb12eb2f96","condition":"contingent","relevant_dimensions":["antennae","pattern"],"bee_group":{"antennae":"B","wings":"X","pattern":"D","legs":"X"},"action":"harvest","summary":"good-harvest","bonus":1.300000000000001},{"rt":580,"stimulus":"\n                    <p><b>Action: <em>harvest</em></b></p>\n                    <p>This is the bee that you just saw.</p>\n                    <img src=\"bees-with-color/bee-B2SM.svg\" width=\"200\">\n                    <p><span class=\"greenText\"><b>Successful harvest!</b></span><br>Your pay has increased by $0.02. Your bonus pay is now $0.74.</p>\n            ","response":0,"trial_type":"html-button-response","trial_index":86,"time_elapsed":486977,"internal_node_id":"0.0-4.0-1.37","subject_id":"5fa1e1267a3f7037fd2bdf13","study_id":"60edd13110225f80f9f3709b","session_id":"6196c1edfc9f76cb12eb2f96","condition":"contingent","relevant_dimensions":["antennae","pattern"],"bee_group":{"antennae":"B","wings":"X","pattern":"D","legs":"X"},"bonus":1.300000000000001},{"rt":871.5,"stimulus":"bees-with-color/bee-B2DF.svg","response":1,"trial_type":"image-button-response","trial_index":87,"time_elapsed":487853,"internal_node_id":"0.0-4.0-0.38","subject_id":"5fa1e1267a3f7037fd2bdf13","study_id":"60edd13110225f80f9f3709b","session_id":"6196c1edfc9f76cb12eb2f96","condition":"contingent","relevant_dimensions":["antennae","pattern"],"bee_group":{"antennae":"B","wings":"X","pattern":"D","legs":"X"},"action":"avoid","summary":"good-avoid","bonus":1.300000000000001},{"rt":530.4000000059605,"stimulus":"\n                    <p><b>Action: <em>avoid</em></b></p>\n                    <p>This is the bee that you just saw.</p>\n                    <img src=\"bees-with-color/bee-B2DF.svg\" width=\"200\">\n                    <p><br>Your bonus pay is unchanged, and remains at $0.74.</p>\n            ","response":0,"trial_type":"html-button-response","trial_index":88,"time_elapsed":488391,"internal_node_id":"0.0-4.0-1.38","subject_id":"5fa1e1267a3f7037fd2bdf13","study_id":"60edd13110225f80f9f3709b","session_id":"6196c1edfc9f76cb12eb2f96","condition":"contingent","relevant_dimensions":["antennae","pattern"],"bee_group":{"antennae":"B","wings":"X","pattern":"D","legs":"X"},"bonus":1.300000000000001},{"rt":844.9000000059605,"stimulus":"bees-with-color/bee-A1DM.svg","response":1,"trial_type":"image-button-response","trial_index":89,"time_elapsed":489240,"internal_node_id":"0.0-4.0-0.39","subject_id":"5fa1e1267a3f7037fd2bdf13","study_id":"60edd13110225f80f9f3709b","session_id":"6196c1edfc9f76cb12eb2f96","condition":"contingent","relevant_dimensions":["antennae","pattern"],"bee_group":{"antennae":"B","wings":"X","pattern":"D","legs":"X"},"action":"avoid","summary":"bad-avoid","bonus":1.300000000000001},{"rt":526.2000000178814,"stimulus":"\n                    <p><b>Action: <em>avoid</em></b></p>\n                    <p>This is the bee that you just saw.</p>\n                    <img src=\"bees-with-color/bee-A1DM.svg\" width=\"200\">\n                    <p><br>Your bonus pay is unchanged, and remains at $0.74.</p>\n            ","response":0,"trial_type":"html-button-response","trial_index":90,"time_elapsed":489774,"internal_node_id":"0.0-4.0-1.39","subject_id":"5fa1e1267a3f7037fd2bdf13","study_id":"60edd13110225f80f9f3709b","session_id":"6196c1edfc9f76cb12eb2f96","condition":"contingent","relevant_dimensions":["antennae","pattern"],"bee_group":{"antennae":"B","wings":"X","pattern":"D","legs":"X"},"bonus":1.300000000000001},{"rt":915.2999999821186,"stimulus":"bees-with-color/bee-A1SF.svg","response":0,"trial_type":"image-button-response","trial_index":91,"time_elapsed":490694,"internal_node_id":"0.0-4.0-0.40","subject_id":"5fa1e1267a3f7037fd2bdf13","study_id":"60edd13110225f80f9f3709b","session_id":"6196c1edfc9f76cb12eb2f96","condition":"contingent","relevant_dimensions":["antennae","pattern"],"bee_group":{"antennae":"B","wings":"X","pattern":"D","legs":"X"},"action":"harvest","summary":"good-harvest","bonus":1.300000000000001},{"rt":560.4000000059605,"stimulus":"\n                    <p><b>Action: <em>harvest</em></b></p>\n                    <p>This is the bee that you just saw.</p>\n                    <img src=\"bees-with-color/bee-A1SF.svg\" width=\"200\">\n                    <p><span class=\"greenText\"><b>Successful harvest!</b></span><br>Your pay has increased by $0.02. Your bonus pay is now $0.76.</p>\n            ","response":0,"trial_type":"html-button-response","trial_index":92,"time_elapsed":491258,"internal_node_id":"0.0-4.0-1.40","subject_id":"5fa1e1267a3f7037fd2bdf13","study_id":"60edd13110225f80f9f3709b","session_id":"6196c1edfc9f76cb12eb2f96","condition":"contingent","relevant_dimensions":["antennae","pattern"],"bee_group":{"antennae":"B","wings":"X","pattern":"D","legs":"X"},"bonus":1.300000000000001},{"rt":1586.0999999940395,"stimulus":"bees-with-color/bee-A2SM.svg","response":0,"trial_type":"image-button-response","trial_index":93,"time_elapsed":492849,"internal_node_id":"0.0-4.0-0.41","subject_id":"5fa1e1267a3f7037fd2bdf13","study_id":"60edd13110225f80f9f3709b","session_id":"6196c1edfc9f76cb12eb2f96","condition":"contingent","relevant_dimensions":["antennae","pattern"],"bee_group":{"antennae":"B","wings":"X","pattern":"D","legs":"X"},"action":"harvest","summary":"good-harvest","bonus":1.300000000000001},{"rt":645,"stimulus":"\n                    <p><b>Action: <em>harvest</em></b></p>\n                    <p>This is the bee that you just saw.</p>\n                    <img src=\"bees-with-color/bee-A2SM.svg\" width=\"200\">\n                    <p><span class=\"greenText\"><b>Successful harvest!</b></span><br>Your pay has increased by $0.02. Your bonus pay is now $0.78.</p>\n            ","response":0,"trial_type":"html-button-response","trial_index":94,"time_elapsed":493499,"internal_node_id":"0.0-4.0-1.41","subject_id":"5fa1e1267a3f7037fd2bdf13","study_id":"60edd13110225f80f9f3709b","session_id":"6196c1edfc9f76cb12eb2f96","condition":"contingent","relevant_dimensions":["antennae","pattern"],"bee_group":{"antennae":"B","wings":"X","pattern":"D","legs":"X"},"bonus":1.300000000000001},{"rt":780.7999999821186,"stimulus":"bees-with-color/bee-B2SF.svg","response":0,"trial_type":"image-button-response","trial_index":95,"time_elapsed":494283,"internal_node_id":"0.0-4.0-0.42","subject_id":"5fa1e1267a3f7037fd2bdf13","study_id":"60edd13110225f80f9f3709b","session_id":"6196c1edfc9f76cb12eb2f96","condition":"contingent","relevant_dimensions":["antennae","pattern"],"bee_group":{"antennae":"B","wings":"X","pattern":"D","legs":"X"},"action":"harvest","summary":"good-harvest","bonus":1.300000000000001},{"rt":981.8000000119209,"stimulus":"\n                    <p><b>Action: <em>harvest</em></b></p>\n                    <p>This is the bee that you just saw.</p>\n                    <img src=\"bees-with-color/bee-B2SF.svg\" width=\"200\">\n                    <p><span class=\"greenText\"><b>Successful harvest!</b></span><br>Your pay has increased by $0.02. Your bonus pay is now $0.80.</p>\n            ","response":0,"trial_type":"html-button-response","trial_index":96,"time_elapsed":495267,"internal_node_id":"0.0-4.0-1.42","subject_id":"5fa1e1267a3f7037fd2bdf13","study_id":"60edd13110225f80f9f3709b","session_id":"6196c1edfc9f76cb12eb2f96","condition":"contingent","relevant_dimensions":["antennae","pattern"],"bee_group":{"antennae":"B","wings":"X","pattern":"D","legs":"X"},"bonus":1.300000000000001},{"rt":820.5,"stimulus":"bees-with-color/bee-B1SM.svg","response":0,"trial_type":"image-button-response","trial_index":97,"time_elapsed":496090,"internal_node_id":"0.0-4.0-0.43","subject_id":"5fa1e1267a3f7037fd2bdf13","study_id":"60edd13110225f80f9f3709b","session_id":"6196c1edfc9f76cb12eb2f96","condition":"contingent","relevant_dimensions":["antennae","pattern"],"bee_group":{"antennae":"B","wings":"X","pattern":"D","legs":"X"},"action":"harvest","summary":"good-harvest","bonus":1.300000000000001},{"rt":724,"stimulus":"\n                    <p><b>Action: <em>harvest</em></b></p>\n                    <p>This is the bee that you just saw.</p>\n                    <img src=\"bees-with-color/bee-B1SM.svg\" width=\"200\">\n                    <p><span class=\"greenText\"><b>Successful harvest!</b></span><br>Your pay has increased by $0.02. Your bonus pay is now $0.82.</p>\n            ","response":0,"trial_type":"html-button-response","trial_index":98,"time_elapsed":496817,"internal_node_id":"0.0-4.0-1.43","subject_id":"5fa1e1267a3f7037fd2bdf13","study_id":"60edd13110225f80f9f3709b","session_id":"6196c1edfc9f76cb12eb2f96","condition":"contingent","relevant_dimensions":["antennae","pattern"],"bee_group":{"antennae":"B","wings":"X","pattern":"D","legs":"X"},"bonus":1.300000000000001},{"rt":1103.5,"stimulus":"bees-with-color/bee-B2DM.svg","response":1,"trial_type":"image-button-response","trial_index":99,"time_elapsed":497924,"internal_node_id":"0.0-4.0-0.44","subject_id":"5fa1e1267a3f7037fd2bdf13","study_id":"60edd13110225f80f9f3709b","session_id":"6196c1edfc9f76cb12eb2f96","condition":"contingent","relevant_dimensions":["antennae","pattern"],"bee_group":{"antennae":"B","wings":"X","pattern":"D","legs":"X"},"action":"avoid","summary":"good-avoid","bonus":1.300000000000001},{"rt":706.5999999940395,"stimulus":"\n                    <p><b>Action: <em>avoid</em></b></p>\n                    <p>This is the bee that you just saw.</p>\n                    <img src=\"bees-with-color/bee-B2DM.svg\" width=\"200\">\n                    <p><br>Your bonus pay is unchanged, and remains at $0.82.</p>\n            ","response":0,"trial_type":"html-button-response","trial_index":100,"time_elapsed":498633,"internal_node_id":"0.0-4.0-1.44","subject_id":"5fa1e1267a3f7037fd2bdf13","study_id":"60edd13110225f80f9f3709b","session_id":"6196c1edfc9f76cb12eb2f96","condition":"contingent","relevant_dimensions":["antennae","pattern"],"bee_group":{"antennae":"B","wings":"X","pattern":"D","legs":"X"},"bonus":1.300000000000001},{"rt":958.4000000059605,"stimulus":"bees-with-color/bee-B1DF.svg","response":1,"trial_type":"image-button-response","trial_index":101,"time_elapsed":499594,"internal_node_id":"0.0-4.0-0.45","subject_id":"5fa1e1267a3f7037fd2bdf13","study_id":"60edd13110225f80f9f3709b","session_id":"6196c1edfc9f76cb12eb2f96","condition":"contingent","relevant_dimensions":["antennae","pattern"],"bee_group":{"antennae":"B","wings":"X","pattern":"D","legs":"X"},"action":"avoid","summary":"good-avoid","bonus":1.300000000000001},{"rt":661.9000000059605,"stimulus":"\n                    <p><b>Action: <em>avoid</em></b></p>\n                    <p>This is the bee that you just saw.</p>\n                    <img src=\"bees-with-color/bee-B1DF.svg\" width=\"200\">\n                    <p><br>Your bonus pay is unchanged, and remains at $0.82.</p>\n            ","response":0,"trial_type":"html-button-response","trial_index":102,"time_elapsed":500259,"internal_node_id":"0.0-4.0-1.45","subject_id":"5fa1e1267a3f7037fd2bdf13","study_id":"60edd13110225f80f9f3709b","session_id":"6196c1edfc9f76cb12eb2f96","condition":"contingent","relevant_dimensions":["antennae","pattern"],"bee_group":{"antennae":"B","wings":"X","pattern":"D","legs":"X"},"bonus":1.300000000000001},{"rt":807.1999999880791,"stimulus":"bees-with-color/bee-A2DM.svg","response":1,"trial_type":"image-button-response","trial_index":103,"time_elapsed":501070,"internal_node_id":"0.0-4.0-0.46","subject_id":"5fa1e1267a3f7037fd2bdf13","study_id":"60edd13110225f80f9f3709b","session_id":"6196c1edfc9f76cb12eb2f96","condition":"contingent","relevant_dimensions":["antennae","pattern"],"bee_group":{"antennae":"B","wings":"X","pattern":"D","legs":"X"},"action":"avoid","summary":"bad-avoid","bonus":1.300000000000001},{"rt":661,"stimulus":"\n                    <p><b>Action: <em>avoid</em></b></p>\n                    <p>This is the bee that you just saw.</p>\n                    <img src=\"bees-with-color/bee-A2DM.svg\" width=\"200\">\n                    <p><br>Your bonus pay is unchanged, and remains at $0.82.</p>\n            ","response":0,"trial_type":"html-button-response","trial_index":104,"time_elapsed":501733,"internal_node_id":"0.0-4.0-1.46","subject_id":"5fa1e1267a3f7037fd2bdf13","study_id":"60edd13110225f80f9f3709b","session_id":"6196c1edfc9f76cb12eb2f96","condition":"contingent","relevant_dimensions":["antennae","pattern"],"bee_group":{"antennae":"B","wings":"X","pattern":"D","legs":"X"},"bonus":1.300000000000001},{"rt":746.8999999761581,"stimulus":"bees-with-color/bee-A1DF.svg","response":1,"trial_type":"image-button-response","trial_index":105,"time_elapsed":502483,"internal_node_id":"0.0-4.0-0.47","subject_id":"5fa1e1267a3f7037fd2bdf13","study_id":"60edd13110225f80f9f3709b","session_id":"6196c1edfc9f76cb12eb2f96","condition":"contingent","relevant_dimensions":["antennae","pattern"],"bee_group":{"antennae":"B","wings":"X","pattern":"D","legs":"X"},"action":"avoid","summary":"bad-avoid","bonus":1.300000000000001},{"rt":687.6000000238419,"stimulus":"\n                    <p><b>Action: <em>avoid</em></b></p>\n                    <p>This is the bee that you just saw.</p>\n                    <img src=\"bees-with-color/bee-A1DF.svg\" width=\"200\">\n                    <p><br>Your bonus pay is unchanged, and remains at $0.82.</p>\n            ","response":0,"trial_type":"html-button-response","trial_index":106,"time_elapsed":503173,"internal_node_id":"0.0-4.0-1.47","subject_id":"5fa1e1267a3f7037fd2bdf13","study_id":"60edd13110225f80f9f3709b","session_id":"6196c1edfc9f76cb12eb2f96","condition":"contingent","relevant_dimensions":["antennae","pattern"],"bee_group":{"antennae":"B","wings":"X","pattern":"D","legs":"X"},"bonus":1.300000000000001},{"rt":661.5,"stimulus":"bees-with-color/bee-A2DM.svg","response":1,"trial_type":"image-button-response","trial_index":107,"time_elapsed":503837,"internal_node_id":"0.0-4.0-0.48","subject_id":"5fa1e1267a3f7037fd2bdf13","study_id":"60edd13110225f80f9f3709b","session_id":"6196c1edfc9f76cb12eb2f96","condition":"contingent","relevant_dimensions":["antennae","pattern"],"bee_group":{"antennae":"B","wings":"X","pattern":"D","legs":"X"},"action":"avoid","summary":"bad-avoid","bonus":1.300000000000001},{"rt":687.6999999880791,"stimulus":"\n                    <p><b>Action: <em>avoid</em></b></p>\n                    <p>This is the bee that you just saw.</p>\n                    <img src=\"bees-with-color/bee-A2DM.svg\" width=\"200\">\n                    <p><br>Your bonus pay is unchanged, and remains at $0.82.</p>\n            ","response":0,"trial_type":"html-button-response","trial_index":108,"time_elapsed":504528,"internal_node_id":"0.0-4.0-1.48","subject_id":"5fa1e1267a3f7037fd2bdf13","study_id":"60edd13110225f80f9f3709b","session_id":"6196c1edfc9f76cb12eb2f96","condition":"contingent","relevant_dimensions":["antennae","pattern"],"bee_group":{"antennae":"B","wings":"X","pattern":"D","legs":"X"},"bonus":1.300000000000001},{"rt":1091.7999999821186,"stimulus":"bees-with-color/bee-A2SM.svg","response":0,"trial_type":"image-button-response","trial_index":109,"time_elapsed":505622,"internal_node_id":"0.0-4.0-0.49","subject_id":"5fa1e1267a3f7037fd2bdf13","study_id":"60edd13110225f80f9f3709b","session_id":"6196c1edfc9f76cb12eb2f96","condition":"contingent","relevant_dimensions":["antennae","pattern"],"bee_group":{"antennae":"B","wings":"X","pattern":"D","legs":"X"},"action":"harvest","summary":"good-harvest","bonus":1.300000000000001},{"rt":597.2000000178814,"stimulus":"\n                    <p><b>Action: <em>harvest</em></b></p>\n                    <p>This is the bee that you just saw.</p>\n                    <img src=\"bees-with-color/bee-A2SM.svg\" width=\"200\">\n                    <p><span class=\"greenText\"><b>Successful harvest!</b></span><br>Your pay has increased by $0.02. Your bonus pay is now $0.84.</p>\n            ","response":0,"trial_type":"html-button-response","trial_index":110,"time_elapsed":506224,"internal_node_id":"0.0-4.0-1.49","subject_id":"5fa1e1267a3f7037fd2bdf13","study_id":"60edd13110225f80f9f3709b","session_id":"6196c1edfc9f76cb12eb2f96","condition":"contingent","relevant_dimensions":["antennae","pattern"],"bee_group":{"antennae":"B","wings":"X","pattern":"D","legs":"X"},"bonus":1.300000000000001},{"rt":939.4000000059605,"stimulus":"bees-with-color/bee-A1SM.svg","response":0,"trial_type":"image-button-response","trial_index":111,"time_elapsed":507166,"internal_node_id":"0.0-4.0-0.50","subject_id":"5fa1e1267a3f7037fd2bdf13","study_id":"60edd13110225f80f9f3709b","session_id":"6196c1edfc9f76cb12eb2f96","condition":"contingent","relevant_dimensions":["antennae","pattern"],"bee_group":{"antennae":"B","wings":"X","pattern":"D","legs":"X"},"action":"harvest","summary":"good-harvest","bonus":1.300000000000001},{"rt":606.8999999761581,"stimulus":"\n                    <p><b>Action: <em>harvest</em></b></p>\n                    <p>This is the bee that you just saw.</p>\n                    <img src=\"bees-with-color/bee-A1SM.svg\" width=\"200\">\n                    <p><span class=\"greenText\"><b>Successful harvest!</b></span><br>Your pay has increased by $0.02. Your bonus pay is now $0.86.</p>\n            ","response":0,"trial_type":"html-button-response","trial_index":112,"time_elapsed":507776,"internal_node_id":"0.0-4.0-1.50","subject_id":"5fa1e1267a3f7037fd2bdf13","study_id":"60edd13110225f80f9f3709b","session_id":"6196c1edfc9f76cb12eb2f96","condition":"contingent","relevant_dimensions":["antennae","pattern"],"bee_group":{"antennae":"B","wings":"X","pattern":"D","legs":"X"},"bonus":1.300000000000001},{"rt":1488.2999999821186,"stimulus":"bees-with-color/bee-B2SF.svg","response":0,"trial_type":"image-button-response","trial_index":113,"time_elapsed":509268,"internal_node_id":"0.0-4.0-0.51","subject_id":"5fa1e1267a3f7037fd2bdf13","study_id":"60edd13110225f80f9f3709b","session_id":"6196c1edfc9f76cb12eb2f96","condition":"contingent","relevant_dimensions":["antennae","pattern"],"bee_group":{"antennae":"B","wings":"X","pattern":"D","legs":"X"},"action":"harvest","summary":"good-harvest","bonus":1.300000000000001},{"rt":809.2999999821186,"stimulus":"\n                    <p><b>Action: <em>harvest</em></b></p>\n                    <p>This is the bee that you just saw.</p>\n                    <img src=\"bees-with-color/bee-B2SF.svg\" width=\"200\">\n                    <p><span class=\"greenText\"><b>Successful harvest!</b></span><br>Your pay has increased by $0.02. Your bonus pay is now $0.88.</p>\n            ","response":0,"trial_type":"html-button-response","trial_index":114,"time_elapsed":510081,"internal_node_id":"0.0-4.0-1.51","subject_id":"5fa1e1267a3f7037fd2bdf13","study_id":"60edd13110225f80f9f3709b","session_id":"6196c1edfc9f76cb12eb2f96","condition":"contingent","relevant_dimensions":["antennae","pattern"],"bee_group":{"antennae":"B","wings":"X","pattern":"D","legs":"X"},"bonus":1.300000000000001},{"rt":908.6999999880791,"stimulus":"bees-with-color/bee-B1SM.svg","response":0,"trial_type":"image-button-response","trial_index":115,"time_elapsed":510994,"internal_node_id":"0.0-4.0-0.52","subject_id":"5fa1e1267a3f7037fd2bdf13","study_id":"60edd13110225f80f9f3709b","session_id":"6196c1edfc9f76cb12eb2f96","condition":"contingent","relevant_dimensions":["antennae","pattern"],"bee_group":{"antennae":"B","wings":"X","pattern":"D","legs":"X"},"action":"harvest","summary":"good-harvest","bonus":1.300000000000001},{"rt":757,"stimulus":"\n                    <p><b>Action: <em>harvest</em></b></p>\n                    <p>This is the bee that you just saw.</p>\n                    <img src=\"bees-with-color/bee-B1SM.svg\" width=\"200\">\n                    <p><span class=\"greenText\"><b>Successful harvest!</b></span><br>Your pay has increased by $0.02. Your bonus pay is now $0.90.</p>\n            ","response":0,"trial_type":"html-button-response","trial_index":116,"time_elapsed":511754,"internal_node_id":"0.0-4.0-1.52","subject_id":"5fa1e1267a3f7037fd2bdf13","study_id":"60edd13110225f80f9f3709b","session_id":"6196c1edfc9f76cb12eb2f96","condition":"contingent","relevant_dimensions":["antennae","pattern"],"bee_group":{"antennae":"B","wings":"X","pattern":"D","legs":"X"},"bonus":1.300000000000001},{"rt":1023.2000000178814,"stimulus":"bees-with-color/bee-A1DF.svg","response":1,"trial_type":"image-button-response","trial_index":117,"time_elapsed":512781,"internal_node_id":"0.0-4.0-0.53","subject_id":"5fa1e1267a3f7037fd2bdf13","study_id":"60edd13110225f80f9f3709b","session_id":"6196c1edfc9f76cb12eb2f96","condition":"contingent","relevant_dimensions":["antennae","pattern"],"bee_group":{"antennae":"B","wings":"X","pattern":"D","legs":"X"},"action":"avoid","summary":"bad-avoid","bonus":1.300000000000001},{"rt":547.5999999940395,"stimulus":"\n                    <p><b>Action: <em>avoid</em></b></p>\n                    <p>This is the bee that you just saw.</p>\n                    <img src=\"bees-with-color/bee-A1DF.svg\" width=\"200\">\n                    <p><br>Your bonus pay is unchanged, and remains at $0.90.</p>\n            ","response":0,"trial_type":"html-button-response","trial_index":118,"time_elapsed":513333,"internal_node_id":"0.0-4.0-1.53","subject_id":"5fa1e1267a3f7037fd2bdf13","study_id":"60edd13110225f80f9f3709b","session_id":"6196c1edfc9f76cb12eb2f96","condition":"contingent","relevant_dimensions":["antennae","pattern"],"bee_group":{"antennae":"B","wings":"X","pattern":"D","legs":"X"},"bonus":1.300000000000001},{"rt":963.0999999940395,"stimulus":"bees-with-color/bee-B2DM.svg","response":1,"trial_type":"image-button-response","trial_index":119,"time_elapsed":514300,"internal_node_id":"0.0-4.0-0.54","subject_id":"5fa1e1267a3f7037fd2bdf13","study_id":"60edd13110225f80f9f3709b","session_id":"6196c1edfc9f76cb12eb2f96","condition":"contingent","relevant_dimensions":["antennae","pattern"],"bee_group":{"antennae":"B","wings":"X","pattern":"D","legs":"X"},"action":"avoid","summary":"good-avoid","bonus":1.300000000000001},{"rt":648,"stimulus":"\n                    <p><b>Action: <em>avoid</em></b></p>\n                    <p>This is the bee that you just saw.</p>\n                    <img src=\"bees-with-color/bee-B2DM.svg\" width=\"200\">\n                    <p><br>Your bonus pay is unchanged, and remains at $0.90.</p>\n            ","response":0,"trial_type":"html-button-response","trial_index":120,"time_elapsed":514952,"internal_node_id":"0.0-4.0-1.54","subject_id":"5fa1e1267a3f7037fd2bdf13","study_id":"60edd13110225f80f9f3709b","session_id":"6196c1edfc9f76cb12eb2f96","condition":"contingent","relevant_dimensions":["antennae","pattern"],"bee_group":{"antennae":"B","wings":"X","pattern":"D","legs":"X"},"bonus":1.300000000000001},{"rt":788.1999999880791,"stimulus":"bees-with-color/bee-B1DF.svg","response":1,"trial_type":"image-button-response","trial_index":121,"time_elapsed":515744,"internal_node_id":"0.0-4.0-0.55","subject_id":"5fa1e1267a3f7037fd2bdf13","study_id":"60edd13110225f80f9f3709b","session_id":"6196c1edfc9f76cb12eb2f96","condition":"contingent","relevant_dimensions":["antennae","pattern"],"bee_group":{"antennae":"B","wings":"X","pattern":"D","legs":"X"},"action":"avoid","summary":"good-avoid","bonus":1.300000000000001},{"rt":652.1999999880791,"stimulus":"\n                    <p><b>Action: <em>avoid</em></b></p>\n                    <p>This is the bee that you just saw.</p>\n                    <img src=\"bees-with-color/bee-B1DF.svg\" width=\"200\">\n                    <p><br>Your bonus pay is unchanged, and remains at $0.90.</p>\n            ","response":0,"trial_type":"html-button-response","trial_index":122,"time_elapsed":516400,"internal_node_id":"0.0-4.0-1.55","subject_id":"5fa1e1267a3f7037fd2bdf13","study_id":"60edd13110225f80f9f3709b","session_id":"6196c1edfc9f76cb12eb2f96","condition":"contingent","relevant_dimensions":["antennae","pattern"],"bee_group":{"antennae":"B","wings":"X","pattern":"D","legs":"X"},"bonus":1.300000000000001},{"rt":977.0999999940395,"stimulus":"bees-with-color/bee-B1SF.svg","response":0,"trial_type":"image-button-response","trial_index":123,"time_elapsed":517380,"internal_node_id":"0.0-4.0-0.56","subject_id":"5fa1e1267a3f7037fd2bdf13","study_id":"60edd13110225f80f9f3709b","session_id":"6196c1edfc9f76cb12eb2f96","condition":"contingent","relevant_dimensions":["antennae","pattern"],"bee_group":{"antennae":"B","wings":"X","pattern":"D","legs":"X"},"action":"harvest","summary":"good-harvest","bonus":1.300000000000001},{"rt":571.7000000178814,"stimulus":"\n                    <p><b>Action: <em>harvest</em></b></p>\n                    <p>This is the bee that you just saw.</p>\n                    <img src=\"bees-with-color/bee-B1SF.svg\" width=\"200\">\n                    <p><span class=\"greenText\"><b>Successful harvest!</b></span><br>Your pay has increased by $0.02. Your bonus pay is now $0.92.</p>\n            ","response":0,"trial_type":"html-button-response","trial_index":124,"time_elapsed":517956,"internal_node_id":"0.0-4.0-1.56","subject_id":"5fa1e1267a3f7037fd2bdf13","study_id":"60edd13110225f80f9f3709b","session_id":"6196c1edfc9f76cb12eb2f96","condition":"contingent","relevant_dimensions":["antennae","pattern"],"bee_group":{"antennae":"B","wings":"X","pattern":"D","legs":"X"},"bonus":1.300000000000001},{"rt":939.1999999880791,"stimulus":"bees-with-color/bee-A1DM.svg","response":1,"trial_type":"image-button-response","trial_index":125,"time_elapsed":518898,"internal_node_id":"0.0-4.0-0.57","subject_id":"5fa1e1267a3f7037fd2bdf13","study_id":"60edd13110225f80f9f3709b","session_id":"6196c1edfc9f76cb12eb2f96","condition":"contingent","relevant_dimensions":["antennae","pattern"],"bee_group":{"antennae":"B","wings":"X","pattern":"D","legs":"X"},"action":"avoid","summary":"bad-avoid","bonus":1.300000000000001},{"rt":525.1999999880791,"stimulus":"\n                    <p><b>Action: <em>avoid</em></b></p>\n                    <p>This is the bee that you just saw.</p>\n                    <img src=\"bees-with-color/bee-A1DM.svg\" width=\"200\">\n                    <p><br>Your bonus pay is unchanged, and remains at $0.92.</p>\n            ","response":0,"trial_type":"html-button-response","trial_index":126,"time_elapsed":519428,"internal_node_id":"0.0-4.0-1.57","subject_id":"5fa1e1267a3f7037fd2bdf13","study_id":"60edd13110225f80f9f3709b","session_id":"6196c1edfc9f76cb12eb2f96","condition":"contingent","relevant_dimensions":["antennae","pattern"],"bee_group":{"antennae":"B","wings":"X","pattern":"D","legs":"X"},"bonus":1.300000000000001},{"rt":1528.7000000178814,"stimulus":"bees-with-color/bee-A1SF.svg","response":0,"trial_type":"image-button-response","trial_index":127,"time_elapsed":520959,"internal_node_id":"0.0-4.0-0.58","subject_id":"5fa1e1267a3f7037fd2bdf13","study_id":"60edd13110225f80f9f3709b","session_id":"6196c1edfc9f76cb12eb2f96","condition":"contingent","relevant_dimensions":["antennae","pattern"],"bee_group":{"antennae":"B","wings":"X","pattern":"D","legs":"X"},"action":"harvest","summary":"good-harvest","bonus":1.300000000000001},{"rt":732.7000000178814,"stimulus":"\n                    <p><b>Action: <em>harvest</em></b></p>\n                    <p>This is the bee that you just saw.</p>\n                    <img src=\"bees-with-color/bee-A1SF.svg\" width=\"200\">\n                    <p><span class=\"greenText\"><b>Successful harvest!</b></span><br>Your pay has increased by $0.02. Your bonus pay is now $0.94.</p>\n            ","response":0,"trial_type":"html-button-response","trial_index":128,"time_elapsed":521696,"internal_node_id":"0.0-4.0-1.58","subject_id":"5fa1e1267a3f7037fd2bdf13","study_id":"60edd13110225f80f9f3709b","session_id":"6196c1edfc9f76cb12eb2f96","condition":"contingent","relevant_dimensions":["antennae","pattern"],"bee_group":{"antennae":"B","wings":"X","pattern":"D","legs":"X"},"bonus":1.300000000000001},{"rt":865.5,"stimulus":"bees-with-color/bee-B2DF.svg","response":1,"trial_type":"image-button-response","trial_index":129,"time_elapsed":522567,"internal_node_id":"0.0-4.0-0.59","subject_id":"5fa1e1267a3f7037fd2bdf13","study_id":"60edd13110225f80f9f3709b","session_id":"6196c1edfc9f76cb12eb2f96","condition":"contingent","relevant_dimensions":["antennae","pattern"],"bee_group":{"antennae":"B","wings":"X","pattern":"D","legs":"X"},"action":"avoid","summary":"good-avoid","bonus":1.300000000000001},{"rt":575.6999999880791,"stimulus":"\n                    <p><b>Action: <em>avoid</em></b></p>\n                    <p>This is the bee that you just saw.</p>\n                    <img src=\"bees-with-color/bee-B2DF.svg\" width=\"200\">\n                    <p><br>Your bonus pay is unchanged, and remains at $0.94.</p>\n            ","response":0,"trial_type":"html-button-response","trial_index":130,"time_elapsed":523147,"internal_node_id":"0.0-4.0-1.59","subject_id":"5fa1e1267a3f7037fd2bdf13","study_id":"60edd13110225f80f9f3709b","session_id":"6196c1edfc9f76cb12eb2f96","condition":"contingent","relevant_dimensions":["antennae","pattern"],"bee_group":{"antennae":"B","wings":"X","pattern":"D","legs":"X"},"bonus":1.300000000000001},{"rt":962.5,"stimulus":"bees-with-color/bee-B1DM.svg","response":1,"trial_type":"image-button-response","trial_index":131,"time_elapsed":524113,"internal_node_id":"0.0-4.0-0.60","subject_id":"5fa1e1267a3f7037fd2bdf13","study_id":"60edd13110225f80f9f3709b","session_id":"6196c1edfc9f76cb12eb2f96","condition":"contingent","relevant_dimensions":["antennae","pattern"],"bee_group":{"antennae":"B","wings":"X","pattern":"D","legs":"X"},"action":"avoid","summary":"good-avoid","bonus":1.300000000000001},{"rt":596.5,"stimulus":"\n                    <p><b>Action: <em>avoid</em></b></p>\n                    <p>This is the bee that you just saw.</p>\n                    <img src=\"bees-with-color/bee-B1DM.svg\" width=\"200\">\n                    <p><br>Your bonus pay is unchanged, and remains at $0.94.</p>\n            ","response":0,"trial_type":"html-button-response","trial_index":132,"time_elapsed":524714,"internal_node_id":"0.0-4.0-1.60","subject_id":"5fa1e1267a3f7037fd2bdf13","study_id":"60edd13110225f80f9f3709b","session_id":"6196c1edfc9f76cb12eb2f96","condition":"contingent","relevant_dimensions":["antennae","pattern"],"bee_group":{"antennae":"B","wings":"X","pattern":"D","legs":"X"},"bonus":1.300000000000001},{"rt":993.2000000178814,"stimulus":"bees-with-color/bee-A2SF.svg","response":0,"trial_type":"image-button-response","trial_index":133,"time_elapsed":525711,"internal_node_id":"0.0-4.0-0.61","subject_id":"5fa1e1267a3f7037fd2bdf13","study_id":"60edd13110225f80f9f3709b","session_id":"6196c1edfc9f76cb12eb2f96","condition":"contingent","relevant_dimensions":["antennae","pattern"],"bee_group":{"antennae":"B","wings":"X","pattern":"D","legs":"X"},"action":"harvest","summary":"good-harvest","bonus":1.300000000000001},{"rt":566.7999999821186,"stimulus":"\n                    <p><b>Action: <em>harvest</em></b></p>\n                    <p>This is the bee that you just saw.</p>\n                    <img src=\"bees-with-color/bee-A2SF.svg\" width=\"200\">\n                    <p><span class=\"greenText\"><b>Successful harvest!</b></span><br>Your pay has increased by $0.02. Your bonus pay is now $0.96.</p>\n            ","response":0,"trial_type":"html-button-response","trial_index":134,"time_elapsed":526281,"internal_node_id":"0.0-4.0-1.61","subject_id":"5fa1e1267a3f7037fd2bdf13","study_id":"60edd13110225f80f9f3709b","session_id":"6196c1edfc9f76cb12eb2f96","condition":"contingent","relevant_dimensions":["antennae","pattern"],"bee_group":{"antennae":"B","wings":"X","pattern":"D","legs":"X"},"bonus":1.300000000000001},{"rt":1087.5,"stimulus":"bees-with-color/bee-B2SM.svg","response":0,"trial_type":"image-button-response","trial_index":135,"time_elapsed":527371,"internal_node_id":"0.0-4.0-0.62","subject_id":"5fa1e1267a3f7037fd2bdf13","study_id":"60edd13110225f80f9f3709b","session_id":"6196c1edfc9f76cb12eb2f96","condition":"contingent","relevant_dimensions":["antennae","pattern"],"bee_group":{"antennae":"B","wings":"X","pattern":"D","legs":"X"},"action":"harvest","summary":"good-harvest","bonus":1.300000000000001},{"rt":597.2000000178814,"stimulus":"\n                    <p><b>Action: <em>harvest</em></b></p>\n                    <p>This is the bee that you just saw.</p>\n                    <img src=\"bees-with-color/bee-B2SM.svg\" width=\"200\">\n                    <p><span class=\"greenText\"><b>Successful harvest!</b></span><br>Your pay has increased by $0.02. Your bonus pay is now $0.98.</p>\n            ","response":0,"trial_type":"html-button-response","trial_index":136,"time_elapsed":527970,"internal_node_id":"0.0-4.0-1.62","subject_id":"5fa1e1267a3f7037fd2bdf13","study_id":"60edd13110225f80f9f3709b","session_id":"6196c1edfc9f76cb12eb2f96","condition":"contingent","relevant_dimensions":["antennae","pattern"],"bee_group":{"antennae":"B","wings":"X","pattern":"D","legs":"X"},"bonus":1.300000000000001},{"rt":2424.5999999940395,"stimulus":"bees-with-color/bee-A2DF.svg","response":1,"trial_type":"image-button-response","trial_index":137,"time_elapsed":530399,"internal_node_id":"0.0-4.0-0.63","subject_id":"5fa1e1267a3f7037fd2bdf13","study_id":"60edd13110225f80f9f3709b","session_id":"6196c1edfc9f76cb12eb2f96","condition":"contingent","relevant_dimensions":["antennae","pattern"],"bee_group":{"antennae":"B","wings":"X","pattern":"D","legs":"X"},"action":"avoid","summary":"bad-avoid","bonus":1.300000000000001},{"rt":639.2999999821186,"stimulus":"\n                    <p><b>Action: <em>avoid</em></b></p>\n                    <p>This is the bee that you just saw.</p>\n                    <img src=\"bees-with-color/bee-A2DF.svg\" width=\"200\">\n                    <p><br>Your bonus pay is unchanged, and remains at $0.98.</p>\n            ","response":0,"trial_type":"html-button-response","trial_index":138,"time_elapsed":531040,"internal_node_id":"0.0-4.0-1.63","subject_id":"5fa1e1267a3f7037fd2bdf13","study_id":"60edd13110225f80f9f3709b","session_id":"6196c1edfc9f76cb12eb2f96","condition":"contingent","relevant_dimensions":["antennae","pattern"],"bee_group":{"antennae":"B","wings":"X","pattern":"D","legs":"X"},"bonus":1.300000000000001},{"rt":11485,"stimulus":"You have completed the first part of this experiment.<br><br>You will now begin a shorter second part, in which you will receive no feedback.<br>The same rules regarding bonus pay apply.<br><br>Press any key to begin.","response":" ","trial_type":"html-keyboard-response","trial_index":139,"time_elapsed":542530,"internal_node_id":"0.0-5.0","subject_id":"5fa1e1267a3f7037fd2bdf13","study_id":"60edd13110225f80f9f3709b","session_id":"6196c1edfc9f76cb12eb2f96","condition":"contingent","relevant_dimensions":["antennae","pattern"],"bee_group":{"antennae":"B","wings":"X","pattern":"D","legs":"X"},"bonus":1.300000000000001},{"rt":1576.5999999940395,"stimulus":"bees-with-color/bee-A1SF.svg","response":0,"trial_type":"image-button-response","trial_index":140,"time_elapsed":544126,"internal_node_id":"0.0-6.0-0.0","subject_id":"5fa1e1267a3f7037fd2bdf13","study_id":"60edd13110225f80f9f3709b","session_id":"6196c1edfc9f76cb12eb2f96","condition":"contingent","relevant_dimensions":["antennae","pattern"],"bee_group":{"antennae":"B","wings":"X","pattern":"D","legs":"X"},"bonus":1.300000000000001},{"rt":1120.4000000059605,"stimulus":"bees-with-color/bee-B1SF.svg","response":0,"trial_type":"image-button-response","trial_index":141,"time_elapsed":545252,"internal_node_id":"0.0-6.0-0.1","subject_id":"5fa1e1267a3f7037fd2bdf13","study_id":"60edd13110225f80f9f3709b","session_id":"6196c1edfc9f76cb12eb2f96","condition":"contingent","relevant_dimensions":["antennae","pattern"],"bee_group":{"antennae":"B","wings":"X","pattern":"D","legs":"X"},"bonus":1.300000000000001},{"rt":1050,"stimulus":"bees-with-color/bee-A1DM.svg","response":1,"trial_type":"image-button-response","trial_index":142,"time_elapsed":546308,"internal_node_id":"0.0-6.0-0.2","subject_id":"5fa1e1267a3f7037fd2bdf13","study_id":"60edd13110225f80f9f3709b","session_id":"6196c1edfc9f76cb12eb2f96","condition":"contingent","relevant_dimensions":["antennae","pattern"],"bee_group":{"antennae":"B","wings":"X","pattern":"D","legs":"X"},"bonus":1.300000000000001},{"rt":965.3000000119209,"stimulus":"bees-with-color/bee-A2SM.svg","response":0,"trial_type":"image-button-response","trial_index":143,"time_elapsed":547279,"internal_node_id":"0.0-6.0-0.3","subject_id":"5fa1e1267a3f7037fd2bdf13","study_id":"60edd13110225f80f9f3709b","session_id":"6196c1edfc9f76cb12eb2f96","condition":"contingent","relevant_dimensions":["antennae","pattern"],"bee_group":{"antennae":"B","wings":"X","pattern":"D","legs":"X"},"bonus":1.300000000000001},{"rt":972,"stimulus":"bees-with-color/bee-B2DM.svg","response":1,"trial_type":"image-button-response","trial_index":144,"time_elapsed":548256,"internal_node_id":"0.0-6.0-0.4","subject_id":"5fa1e1267a3f7037fd2bdf13","study_id":"60edd13110225f80f9f3709b","session_id":"6196c1edfc9f76cb12eb2f96","condition":"contingent","relevant_dimensions":["antennae","pattern"],"bee_group":{"antennae":"B","wings":"X","pattern":"D","legs":"X"},"bonus":1.300000000000001},{"rt":822.8000000119209,"stimulus":"bees-with-color/bee-A1DF.svg","response":1,"trial_type":"image-button-response","trial_index":145,"time_elapsed":549083,"internal_node_id":"0.0-6.0-0.5","subject_id":"5fa1e1267a3f7037fd2bdf13","study_id":"60edd13110225f80f9f3709b","session_id":"6196c1edfc9f76cb12eb2f96","condition":"contingent","relevant_dimensions":["antennae","pattern"],"bee_group":{"antennae":"B","wings":"X","pattern":"D","legs":"X"},"bonus":1.300000000000001},{"rt":749.7999999821186,"stimulus":"bees-with-color/bee-B1DM.svg","response":1,"trial_type":"image-button-response","trial_index":146,"time_elapsed":549839,"internal_node_id":"0.0-6.0-0.6","subject_id":"5fa1e1267a3f7037fd2bdf13","study_id":"60edd13110225f80f9f3709b","session_id":"6196c1edfc9f76cb12eb2f96","condition":"contingent","relevant_dimensions":["antennae","pattern"],"bee_group":{"antennae":"B","wings":"X","pattern":"D","legs":"X"},"bonus":1.300000000000001},{"rt":907.1999999880791,"stimulus":"bees-with-color/bee-B2SM.svg","response":0,"trial_type":"image-button-response","trial_index":147,"time_elapsed":550750,"internal_node_id":"0.0-6.0-0.7","subject_id":"5fa1e1267a3f7037fd2bdf13","study_id":"60edd13110225f80f9f3709b","session_id":"6196c1edfc9f76cb12eb2f96","condition":"contingent","relevant_dimensions":["antennae","pattern"],"bee_group":{"antennae":"B","wings":"X","pattern":"D","legs":"X"},"bonus":1.300000000000001},{"rt":781.8000000119209,"stimulus":"bees-with-color/bee-A1SM.svg","response":0,"trial_type":"image-button-response","trial_index":148,"time_elapsed":551538,"internal_node_id":"0.0-6.0-0.8","subject_id":"5fa1e1267a3f7037fd2bdf13","study_id":"60edd13110225f80f9f3709b","session_id":"6196c1edfc9f76cb12eb2f96","condition":"contingent","relevant_dimensions":["antennae","pattern"],"bee_group":{"antennae":"B","wings":"X","pattern":"D","legs":"X"},"bonus":1.300000000000001},{"rt":898.2999999821186,"stimulus":"bees-with-color/bee-B2DF.svg","response":1,"trial_type":"image-button-response","trial_index":149,"time_elapsed":552442,"internal_node_id":"0.0-6.0-0.9","subject_id":"5fa1e1267a3f7037fd2bdf13","study_id":"60edd13110225f80f9f3709b","session_id":"6196c1edfc9f76cb12eb2f96","condition":"contingent","relevant_dimensions":["antennae","pattern"],"bee_group":{"antennae":"B","wings":"X","pattern":"D","legs":"X"},"bonus":1.300000000000001},{"rt":612.3000000119209,"stimulus":"bees-with-color/bee-B1DF.svg","response":1,"trial_type":"image-button-response","trial_index":150,"time_elapsed":553059,"internal_node_id":"0.0-6.0-0.10","subject_id":"5fa1e1267a3f7037fd2bdf13","study_id":"60edd13110225f80f9f3709b","session_id":"6196c1edfc9f76cb12eb2f96","condition":"contingent","relevant_dimensions":["antennae","pattern"],"bee_group":{"antennae":"B","wings":"X","pattern":"D","legs":"X"},"bonus":1.300000000000001},{"rt":703.0999999940395,"stimulus":"bees-with-color/bee-A2DM.svg","response":1,"trial_type":"image-button-response","trial_index":151,"time_elapsed":553767,"internal_node_id":"0.0-6.0-0.11","subject_id":"5fa1e1267a3f7037fd2bdf13","study_id":"60edd13110225f80f9f3709b","session_id":"6196c1edfc9f76cb12eb2f96","condition":"contingent","relevant_dimensions":["antennae","pattern"],"bee_group":{"antennae":"B","wings":"X","pattern":"D","legs":"X"},"bonus":1.300000000000001},{"rt":835.5,"stimulus":"bees-with-color/bee-A2SF.svg","response":0,"trial_type":"image-button-response","trial_index":152,"time_elapsed":554607,"internal_node_id":"0.0-6.0-0.12","subject_id":"5fa1e1267a3f7037fd2bdf13","study_id":"60edd13110225f80f9f3709b","session_id":"6196c1edfc9f76cb12eb2f96","condition":"contingent","relevant_dimensions":["antennae","pattern"],"bee_group":{"antennae":"B","wings":"X","pattern":"D","legs":"X"},"bonus":1.300000000000001},{"rt":845.6999999880791,"stimulus":"bees-with-color/bee-B2SF.svg","response":0,"trial_type":"image-button-response","trial_index":153,"time_elapsed":555457,"internal_node_id":"0.0-6.0-0.13","subject_id":"5fa1e1267a3f7037fd2bdf13","study_id":"60edd13110225f80f9f3709b","session_id":"6196c1edfc9f76cb12eb2f96","condition":"contingent","relevant_dimensions":["antennae","pattern"],"bee_group":{"antennae":"B","wings":"X","pattern":"D","legs":"X"},"bonus":1.300000000000001},{"rt":950.5,"stimulus":"bees-with-color/bee-B1SM.svg","response":0,"trial_type":"image-button-response","trial_index":154,"time_elapsed":556413,"internal_node_id":"0.0-6.0-0.14","subject_id":"5fa1e1267a3f7037fd2bdf13","study_id":"60edd13110225f80f9f3709b","session_id":"6196c1edfc9f76cb12eb2f96","condition":"contingent","relevant_dimensions":["antennae","pattern"],"bee_group":{"antennae":"B","wings":"X","pattern":"D","legs":"X"},"bonus":1.300000000000001},{"rt":797.4000000059605,"stimulus":"bees-with-color/bee-A2DF.svg","response":1,"trial_type":"image-button-response","trial_index":155,"time_elapsed":557215,"internal_node_id":"0.0-6.0-0.15","subject_id":"5fa1e1267a3f7037fd2bdf13","study_id":"60edd13110225f80f9f3709b","session_id":"6196c1edfc9f76cb12eb2f96","condition":"contingent","relevant_dimensions":["antennae","pattern"],"bee_group":{"antennae":"B","wings":"X","pattern":"D","legs":"X"},"bonus":1.300000000000001},{"rt":821,"stimulus":"bees-with-color/bee-B2SF.svg","response":0,"trial_type":"image-button-response","trial_index":156,"time_elapsed":558040,"internal_node_id":"0.0-6.0-0.16","subject_id":"5fa1e1267a3f7037fd2bdf13","study_id":"60edd13110225f80f9f3709b","session_id":"6196c1edfc9f76cb12eb2f96","condition":"contingent","relevant_dimensions":["antennae","pattern"],"bee_group":{"antennae":"B","wings":"X","pattern":"D","legs":"X"},"bonus":1.300000000000001},{"rt":799.4000000059605,"stimulus":"bees-with-color/bee-A1DF.svg","response":1,"trial_type":"image-button-response","trial_index":157,"time_elapsed":558843,"internal_node_id":"0.0-6.0-0.17","subject_id":"5fa1e1267a3f7037fd2bdf13","study_id":"60edd13110225f80f9f3709b","session_id":"6196c1edfc9f76cb12eb2f96","condition":"contingent","relevant_dimensions":["antennae","pattern"],"bee_group":{"antennae":"B","wings":"X","pattern":"D","legs":"X"},"bonus":1.300000000000001},{"rt":778.6999999880791,"stimulus":"bees-with-color/bee-A2DF.svg","response":1,"trial_type":"image-button-response","trial_index":158,"time_elapsed":559625,"internal_node_id":"0.0-6.0-0.18","subject_id":"5fa1e1267a3f7037fd2bdf13","study_id":"60edd13110225f80f9f3709b","session_id":"6196c1edfc9f76cb12eb2f96","condition":"contingent","relevant_dimensions":["antennae","pattern"],"bee_group":{"antennae":"B","wings":"X","pattern":"D","legs":"X"},"bonus":1.300000000000001},{"rt":639.0999999940395,"stimulus":"bees-with-color/bee-B1DF.svg","response":1,"trial_type":"image-button-response","trial_index":159,"time_elapsed":560269,"internal_node_id":"0.0-6.0-0.19","subject_id":"5fa1e1267a3f7037fd2bdf13","study_id":"60edd13110225f80f9f3709b","session_id":"6196c1edfc9f76cb12eb2f96","condition":"contingent","relevant_dimensions":["antennae","pattern"],"bee_group":{"antennae":"B","wings":"X","pattern":"D","legs":"X"},"bonus":1.300000000000001},{"rt":824.1000000238419,"stimulus":"bees-with-color/bee-A1SF.svg","response":0,"trial_type":"image-button-response","trial_index":160,"time_elapsed":561097,"internal_node_id":"0.0-6.0-0.20","subject_id":"5fa1e1267a3f7037fd2bdf13","study_id":"60edd13110225f80f9f3709b","session_id":"6196c1edfc9f76cb12eb2f96","condition":"contingent","relevant_dimensions":["antennae","pattern"],"bee_group":{"antennae":"B","wings":"X","pattern":"D","legs":"X"},"bonus":1.300000000000001},{"rt":846.4000000059605,"stimulus":"bees-with-color/bee-B1DM.svg","response":1,"trial_type":"image-button-response","trial_index":161,"time_elapsed":561947,"internal_node_id":"0.0-6.0-0.21","subject_id":"5fa1e1267a3f7037fd2