[{"success":true,"trial_type":"fullscreen","trial_index":0,"time_elapsed":4849,"internal_node_id":"0.0-0.0","subject_id":"5d8e154af2858200171fdb95","study_id":"6197b3f67c2b5cd3b6d9596a","session_id":"619be31c67b5e7e91deefb39","condition":"full-information","relevant_dimensions":["pattern","legs"],"bee_group":{"antennae":"X","wings":"X","pattern":"S","legs":"M"},"bonus":1.680000000000001},{"success":true,"timeout":false,"failed_images":[],"failed_audio":[],"failed_video":[],"trial_type":"preload","trial_index":1,"time_elapsed":6387,"internal_node_id":"0.0-1.0","subject_id":"5d8e154af2858200171fdb95","study_id":"6197b3f67c2b5cd3b6d9596a","session_id":"619be31c67b5e7e91deefb39","condition":"full-information","relevant_dimensions":["pattern","legs"],"bee_group":{"antennae":"X","wings":"X","pattern":"S","legs":"M"},"bonus":1.680000000000001},{"rt":7304.799999952316,"stimulus":"Welcome! Press any key to begin.","response":" ","trial_type":"html-keyboard-response","trial_index":2,"time_elapsed":13694,"internal_node_id":"0.0-2.0","subject_id":"5d8e154af2858200171fdb95","study_id":"6197b3f67c2b5cd3b6d9596a","session_id":"619be31c67b5e7e91deefb39","condition":"full-information","relevant_dimensions":["pattern","legs"],"bee_group":{"antennae":"X","wings":"X","pattern":"S","legs":"M"},"bonus":1.680000000000001},{"view_history":[{"page_index":0,"viewing_time":3678},{"page_index":1,"viewing_time":8198.799999952316},{"page_index":2,"viewing_time":6023.300000190735},{"page_index":3,"viewing_time":19428.799999952316},{"page_index":4,"viewing_time":3987.5999999046326},{"page_index":5,"viewing_time":3800.2999999523163},{"page_index":6,"viewing_time":11770.300000190735},{"page_index":7,"viewing_time":7500.5},{"page_index":8,"viewing_time":6109.899999856949},{"page_index":9,"viewing_time":1875.5},{"page_index":10,"viewing_time":1820.9000000953674},{"page_index":11,"viewing_time":8783.599999904633},{"page_index":12,"viewing_time":5908.600000143051},{"page_index":13,"viewing_time":1179.5},{"page_index":14,"viewing_time":2107.2999999523163}],"rt":92173.5,"trial_type":"instructions","trial_index":3,"time_elapsed":105869,"internal_node_id":"0.0-3.0-0.0","subject_id":"5d8e154af2858200171fdb95","study_id":"6197b3f67c2b5cd3b6d9596a","session_id":"619be31c67b5e7e91deefb39","condition":"full-information","relevant_dimensions":["pattern","legs"],"bee_group":{"antennae":"X","wings":"X","pattern":"S","legs":"M"},"bonus":1.680000000000001},{"rt":7858.299999952316,"response":{"Q0":["Two or six legs","Stripes or spots on body","Single or double wings","Antennae or no antennae"]},"question_order":[0],"trial_type":"survey-multi-select","trial_index":4,"time_elapsed":113734,"internal_node_id":"0.0-3.0-1.0","subject_id":"5d8e154af2858200171fdb95","study_id":"6197b3f67c2b5cd3b6d9596a","session_id":"619be31c67b5e7e91deefb39","condition":"full-information","relevant_dimensions":["pattern","legs"],"bee_group":{"antennae":"X","wings":"X","pattern":"S","legs":"M"},"correct":true,"bonus":1.680000000000001},{"rt":21095.099999904633,"response":{"Q1":"No.","Q2":"Based on the four features of the bee.","Q3":"You learn if it was friendly or dangerous, but do not alter your bonus."},"question_order":[0,1,2],"trial_type":"survey-multi-choice","trial_index":5,"time_elapsed":134832,"internal_node_id":"0.0-3.0-2.0","subject_id":"5d8e154af2858200171fdb95","study_id":"6197b3f67c2b5cd3b6d9596a","session_id":"619be31c67b5e7e91deefb39","condition":"full-information","relevant_dimensions":["pattern","legs"],"bee_group":{"antennae":"X","wings":"X","pattern":"S","legs":"M"},"correct":true,"bonus":1.680000000000001},{"rt":2255.399999856949,"stimulus":"<p>Congrats, you got everything right<br>When you're ready, click the button below to continue to the experiment.</p>","response":0,"trial_type":"html-button-response","trial_index":6,"time_elapsed":137089,"internal_node_id":"0.0-3.0-3.0","subject_id":"5d8e154af2858200171fdb95","study_id":"6197b3f67c2b5cd3b6d9596a","session_id":"619be31c67b5e7e91deefb39","condition":"full-information","relevant_dimensions":["pattern","legs"],"bee_group":{"antennae":"X","wings":"X","pattern":"S","legs":"M"},"bonus":1.680000000000001},{"rt":5293,"stimulus":"bees-with-color/bee-B2SF.svg","response":0,"trial_type":"image-button-response","trial_index":7,"time_elapsed":142385,"internal_node_id":"0.0-4.0-0.0","subject_id":"5d8e154af2858200171fdb95","study_id":"6197b3f67c2b5cd3b6d9596a","session_id":"619be31c67b5e7e91deefb39","condition":"full-information","relevant_dimensions":["pattern","legs"],"bee_group":{"antennae":"X","wings":"X","pattern":"S","legs":"M"},"action":"harvest","summary":"good-harvest","bonus":1.680000000000001},{"rt":13141.599999904633,"stimulus":"\n                    <p><b>Action: <em>harvest</em></b></p>\n                    <p>This is the bee that you just saw.</p>\n                    <img src=\"bees-with-color/bee-B2SF.svg\" width=\"200\">\n                    <p><span class=\"greenText\"><b>Successful harvest!</b></span><br>Your pay has increased by $0.02. Your bonus pay is now $0.56.</p>\n            ","response":0,"trial_type":"html-button-response","trial_index":8,"time_elapsed":155533,"internal_node_id":"0.0-4.0-1.0","subject_id":"5d8e154af2858200171fdb95","study_id":"6197b3f67c2b5cd3b6d9596a","session_id":"619be31c67b5e7e91deefb39","condition":"full-information","relevant_dimensions":["pattern","legs"],"bee_group":{"antennae":"X","wings":"X","pattern":"S","legs":"M"},"bonus":1.680000000000001},{"rt":2014.8999998569489,"stimulus":"bees-with-color/bee-B2DM.svg","response":0,"trial_type":"image-button-response","trial_index":9,"time_elapsed":157550,"internal_node_id":"0.0-4.0-0.1","subject_id":"5d8e154af2858200171fdb95","study_id":"6197b3f67c2b5cd3b6d9596a","session_id":"619be31c67b5e7e91deefb39","condition":"full-information","relevant_dimensions":["pattern","legs"],"bee_group":{"antennae":"X","wings":"X","pattern":"S","legs":"M"},"action":"harvest","summary":"good-harvest","bonus":1.680000000000001},{"rt":5748.200000047684,"stimulus":"\n                    <p><b>Action: <em>harvest</em></b></p>\n                    <p>This is the bee that you just saw.</p>\n                    <img src=\"bees-with-color/bee-B2DM.svg\" width=\"200\">\n                    <p><span class=\"greenText\"><b>Successful harvest!</b></span><br>Your pay has increased by $0.02. Your bonus pay is now $0.58.</p>\n            ","response":0,"trial_type":"html-button-response","trial_index":10,"time_elapsed":163303,"internal_node_id":"0.0-4.0-1.1","subject_id":"5d8e154af2858200171fdb95","study_id":"6197b3f67c2b5cd3b6d9596a","session_id":"619be31c67b5e7e91deefb39","condition":"full-information","relevant_dimensions":["pattern","legs"],"bee_group":{"antennae":"X","wings":"X","pattern":"S","legs":"M"},"bonus":1.680000000000001},{"rt":1445.7999999523163,"stimulus":"bees-with-color/bee-A1SF.svg","response":1,"trial_type":"image-button-response","trial_index":11,"time_elapsed":164753,"internal_node_id":"0.0-4.0-0.2","subject_id":"5d8e154af2858200171fdb95","study_id":"6197b3f67c2b5cd3b6d9596a","session_id":"619be31c67b5e7e91deefb39","condition":"full-information","relevant_dimensions":["pattern","legs"],"bee_group":{"antennae":"X","wings":"X","pattern":"S","legs":"M"},"action":"avoid","summary":"bad-avoid","bonus":1.680000000000001},{"rt":4743.899999856949,"stimulus":"\n                    <p><b>Action: <em>avoid</em></b></p>\n                    <p>This is the bee that you just saw.</p>\n                    <img src=\"bees-with-color/bee-A1SF.svg\" width=\"200\">\n                    <p><span class=\"redText\">Bad choice,</span> the bee was friendly.<br>Your bonus pay is unchanged, and remains at $0.58.</p>\n            ","response":0,"trial_type":"html-button-response","trial_index":12,"time_elapsed":169498,"internal_node_id":"0.0-4.0-1.2","subject_id":"5d8e154af2858200171fdb95","study_id":"6197b3f67c2b5cd3b6d9596a","session_id":"619be31c67b5e7e91deefb39","condition":"full-information","relevant_dimensions":["pattern","legs"],"bee_group":{"antennae":"X","wings":"X","pattern":"S","legs":"M"},"bonus":1.680000000000001},{"rt":2271.5999999046326,"stimulus":"bees-with-color/bee-A2SF.svg","response":0,"trial_type":"image-button-response","trial_index":13,"time_elapsed":171772,"internal_node_id":"0.0-4.0-0.3","subject_id":"5d8e154af2858200171fdb95","study_id":"6197b3f67c2b5cd3b6d9596a","session_id":"619be31c67b5e7e91deefb39","condition":"full-information","relevant_dimensions":["pattern","legs"],"bee_group":{"antennae":"X","wings":"X","pattern":"S","legs":"M"},"action":"harvest","summary":"good-harvest","bonus":1.680000000000001},{"rt":2752.7000000476837,"stimulus":"\n                    <p><b>Action: <em>harvest</em></b></p>\n                    <p>This is the bee that you just saw.</p>\n                    <img src=\"bees-with-color/bee-A2SF.svg\" width=\"200\">\n                    <p><span class=\"greenText\"><b>Successful harvest!</b></span><br>Your pay has increased by $0.02. Your bonus pay is now $0.60.</p>\n            ","response":0,"trial_type":"html-button-response","trial_index":14,"time_elapsed":174527,"internal_node_id":"0.0-4.0-1.3","subject_id":"5d8e154af2858200171fdb95","study_id":"6197b3f67c2b5cd3b6d9596a","session_id":"619be31c67b5e7e91deefb39","condition":"full-information","relevant_dimensions":["pattern","legs"],"bee_group":{"antennae":"X","wings":"X","pattern":"S","legs":"M"},"bonus":1.680000000000001},{"rt":1331.4000000953674,"stimulus":"bees-with-color/bee-A1DF.svg","response":1,"trial_type":"image-button-response","trial_index":15,"time_elapsed":175863,"internal_node_id":"0.0-4.0-0.4","subject_id":"5d8e154af2858200171fdb95","study_id":"6197b3f67c2b5cd3b6d9596a","session_id":"619be31c67b5e7e91deefb39","condition":"full-information","relevant_dimensions":["pattern","legs"],"bee_group":{"antennae":"X","wings":"X","pattern":"S","legs":"M"},"action":"avoid","summary":"bad-avoid","bonus":1.680000000000001},{"rt":4730,"stimulus":"\n                    <p><b>Action: <em>avoid</em></b></p>\n                    <p>This is the bee that you just saw.</p>\n                    <img src=\"bees-with-color/bee-A1DF.svg\" width=\"200\">\n                    <p><span class=\"redText\">Bad choice,</span> the bee was friendly.<br>Your bonus pay is unchanged, and remains at $0.60.</p>\n            ","response":0,"trial_type":"html-button-response","trial_index":16,"time_elapsed":180597,"internal_node_id":"0.0-4.0-1.4","subject_id":"5d8e154af2858200171fdb95","study_id":"6197b3f67c2b5cd3b6d9596a","session_id":"619be31c67b5e7e91deefb39","condition":"full-information","relevant_dimensions":["pattern","legs"],"bee_group":{"antennae":"X","wings":"X","pattern":"S","legs":"M"},"bonus":1.680000000000001},{"rt":1922.5999999046326,"stimulus":"bees-with-color/bee-A2SM.svg","response":1,"trial_type":"image-button-response","trial_index":17,"time_elapsed":182522,"internal_node_id":"0.0-4.0-0.5","subject_id":"5d8e154af2858200171fdb95","study_id":"6197b3f67c2b5cd3b6d9596a","session_id":"619be31c67b5e7e91deefb39","condition":"full-information","relevant_dimensions":["pattern","legs"],"bee_group":{"antennae":"X","wings":"X","pattern":"S","legs":"M"},"action":"avoid","summary":"good-avoid","bonus":1.680000000000001},{"rt":5395.299999952316,"stimulus":"\n                    <p><b>Action: <em>avoid</em></b></p>\n                    <p>This is the bee that you just saw.</p>\n                    <img src=\"bees-with-color/bee-A2SM.svg\" width=\"200\">\n                    <p><span class=\"greenText\">Good choice!</span>  This bee would have stung you.<br>Your bonus pay is unchanged, and remains at $0.60.</p>\n            ","response":0,"trial_type":"html-button-response","trial_index":18,"time_elapsed":187920,"internal_node_id":"0.0-4.0-1.5","subject_id":"5d8e154af2858200171fdb95","study_id":"6197b3f67c2b5cd3b6d9596a","session_id":"619be31c67b5e7e91deefb39","condition":"full-information","relevant_dimensions":["pattern","legs"],"bee_group":{"antennae":"X","wings":"X","pattern":"S","legs":"M"},"bonus":1.680000000000001},{"rt":1238.5,"stimulus":"bees-with-color/bee-B1SM.svg","response":1,"trial_type":"image-button-response","trial_index":19,"time_elapsed":189162,"internal_node_id":"0.0-4.0-0.6","subject_id":"5d8e154af2858200171fdb95","study_id":"6197b3f67c2b5cd3b6d9596a","session_id":"619be31c67b5e7e91deefb39","condition":"full-information","relevant_dimensions":["pattern","legs"],"bee_group":{"antennae":"X","wings":"X","pattern":"S","legs":"M"},"action":"avoid","summary":"good-avoid","bonus":1.680000000000001},{"rt":1926.9000000953674,"stimulus":"\n                    <p><b>Action: <em>avoid</em></b></p>\n                    <p>This is the bee that you just saw.</p>\n                    <img src=\"bees-with-color/bee-B1SM.svg\" width=\"200\">\n                    <p><span class=\"greenText\">Good choice!</span>  This bee would have stung you.<br>Your bonus pay is unchanged, and remains at $0.60.</p>\n            ","response":0,"trial_type":"html-button-response","trial_index":20,"time_elapsed":191091,"internal_node_id":"0.0-4.0-1.6","subject_id":"5d8e154af2858200171fdb95","study_id":"6197b3f67c2b5cd3b6d9596a","session_id":"619be31c67b5e7e91deefb39","condition":"full-information","relevant_dimensions":["pattern","legs"],"bee_group":{"antennae":"X","wings":"X","pattern":"S","legs":"M"},"bonus":1.680000000000001},{"rt":1491.7999999523163,"stimulus":"bees-with-color/bee-B1DF.svg","response":0,"trial_type":"image-button-response","trial_index":21,"time_elapsed":192584,"internal_node_id":"0.0-4.0-0.7","subject_id":"5d8e154af2858200171fdb95","study_id":"6197b3f67c2b5cd3b6d9596a","session_id":"619be31c67b5e7e91deefb39","condition":"full-information","relevant_dimensions":["pattern","legs"],"bee_group":{"antennae":"X","wings":"X","pattern":"S","legs":"M"},"action":"harvest","summary":"good-harvest","bonus":1.680000000000001},{"rt":2386.9000000953674,"stimulus":"\n                    <p><b>Action: <em>harvest</em></b></p>\n                    <p>This is the bee that you just saw.</p>\n                    <img src=\"bees-with-color/bee-B1DF.svg\" width=\"200\">\n                    <p><span class=\"greenText\"><b>Successful harvest!</b></span><br>Your pay has increased by $0.02. Your bonus pay is now $0.62.</p>\n            ","response":0,"trial_type":"html-button-response","trial_index":22,"time_elapsed":194973,"internal_node_id":"0.0-4.0-1.7","subject_id":"5d8e154af2858200171fdb95","study_id":"6197b3f67c2b5cd3b6d9596a","session_id":"619be31c67b5e7e91deefb39","condition":"full-information","relevant_dimensions":["pattern","legs"],"bee_group":{"antennae":"X","wings":"X","pattern":"S","legs":"M"},"bonus":1.680000000000001},{"rt":1024.2000000476837,"stimulus":"bees-with-color/bee-A1DM.svg","response":1,"trial_type":"image-button-response","trial_index":23,"time_elapsed":195999,"internal_node_id":"0.0-4.0-0.8","subject_id":"5d8e154af2858200171fdb95","study_id":"6197b3f67c2b5cd3b6d9596a","session_id":"619be31c67b5e7e91deefb39","condition":"full-information","relevant_dimensions":["pattern","legs"],"bee_group":{"antennae":"X","wings":"X","pattern":"S","legs":"M"},"action":"avoid","summary":"bad-avoid","bonus":1.680000000000001},{"rt":6430.199999809265,"stimulus":"\n                    <p><b>Action: <em>avoid</em></b></p>\n                    <p>This is the bee that you just saw.</p>\n                    <img src=\"bees-with-color/bee-A1DM.svg\" width=\"200\">\n                    <p><span class=\"redText\">Bad choice,</span> the bee was friendly.<br>Your bonus pay is unchanged, and remains at $0.62.</p>\n            ","response":0,"trial_type":"html-button-response","trial_index":24,"time_elapsed":202431,"internal_node_id":"0.0-4.0-1.8","subject_id":"5d8e154af2858200171fdb95","study_id":"6197b3f67c2b5cd3b6d9596a","session_id":"619be31c67b5e7e91deefb39","condition":"full-information","relevant_dimensions":["pattern","legs"],"bee_group":{"antennae":"X","wings":"X","pattern":"S","legs":"M"},"bonus":1.680000000000001},{"rt":1808.4000000953674,"stimulus":"bees-with-color/bee-B2DF.svg","response":0,"trial_type":"image-button-response","trial_index":25,"time_elapsed":204243,"internal_node_id":"0.0-4.0-0.9","subject_id":"5d8e154af2858200171fdb95","study_id":"6197b3f67c2b5cd3b6d9596a","session_id":"619be31c67b5e7e91deefb39","condition":"full-information","relevant_dimensions":["pattern","legs"],"bee_group":{"antennae":"X","wings":"X","pattern":"S","legs":"M"},"action":"harvest","summary":"good-harvest","bonus":1.680000000000001},{"rt":1161,"stimulus":"\n                    <p><b>Action: <em>harvest</em></b></p>\n                    <p>This is the bee that you just saw.</p>\n                    <img src=\"bees-with-color/bee-B2DF.svg\" width=\"200\">\n                    <p><span class=\"greenText\"><b>Successful harvest!</b></span><br>Your pay has increased by $0.02. Your bonus pay is now $0.64.</p>\n            ","response":0,"trial_type":"html-button-response","trial_index":26,"time_elapsed":205406,"internal_node_id":"0.0-4.0-1.9","subject_id":"5d8e154af2858200171fdb95","study_id":"6197b3f67c2b5cd3b6d9596a","session_id":"619be31c67b5e7e91deefb39","condition":"full-information","relevant_dimensions":["pattern","legs"],"bee_group":{"antennae":"X","wings":"X","pattern":"S","legs":"M"},"bonus":1.680000000000001},{"rt":2285.5999999046326,"stimulus":"bees-with-color/bee-A2DM.svg","response":0,"trial_type":"image-button-response","trial_index":27,"time_elapsed":207692,"internal_node_id":"0.0-4.0-0.10","subject_id":"5d8e154af2858200171fdb95","study_id":"6197b3f67c2b5cd3b6d9596a","session_id":"619be31c67b5e7e91deefb39","condition":"full-information","relevant_dimensions":["pattern","legs"],"bee_group":{"antennae":"X","wings":"X","pattern":"S","legs":"M"},"action":"harvest","summary":"good-harvest","bonus":1.680000000000001},{"rt":848.5,"stimulus":"\n                    <p><b>Action: <em>harvest</em></b></p>\n                    <p>This is the bee that you just saw.</p>\n                    <img src=\"bees-with-color/bee-A2DM.svg\" width=\"200\">\n                    <p><span class=\"greenText\"><b>Successful harvest!</b></span><br>Your pay has increased by $0.02. Your bonus pay is now $0.66.</p>\n            ","response":0,"trial_type":"html-button-response","trial_index":28,"time_elapsed":208542,"internal_node_id":"0.0-4.0-1.10","subject_id":"5d8e154af2858200171fdb95","study_id":"6197b3f67c2b5cd3b6d9596a","session_id":"619be31c67b5e7e91deefb39","condition":"full-information","relevant_dimensions":["pattern","legs"],"bee_group":{"antennae":"X","wings":"X","pattern":"S","legs":"M"},"bonus":1.680000000000001},{"rt":1000.5999999046326,"stimulus":"bees-with-color/bee-A2DF.svg","response":0,"trial_type":"image-button-response","trial_index":29,"time_elapsed":209547,"internal_node_id":"0.0-4.0-0.11","subject_id":"5d8e154af2858200171fdb95","study_id":"6197b3f67c2b5cd3b6d9596a","session_id":"619be31c67b5e7e91deefb39","condition":"full-information","relevant_dimensions":["pattern","legs"],"bee_group":{"antennae":"X","wings":"X","pattern":"S","legs":"M"},"action":"harvest","summary":"good-harvest","bonus":1.680000000000001},{"rt":654.1000001430511,"stimulus":"\n                    <p><b>Action: <em>harvest</em></b></p>\n                    <p>This is the bee that you just saw.</p>\n                    <img src=\"bees-with-color/bee-A2DF.svg\" width=\"200\">\n                    <p><span class=\"greenText\"><b>Successful harvest!</b></span><br>Your pay has increased by $0.02. Your bonus pay is now $0.68.</p>\n            ","response":0,"trial_type":"html-button-response","trial_index":30,"time_elapsed":210203,"internal_node_id":"0.0-4.0-1.11","subject_id":"5d8e154af2858200171fdb95","study_id":"6197b3f67c2b5cd3b6d9596a","session_id":"619be31c67b5e7e91deefb39","condition":"full-information","relevant_dimensions":["pattern","legs"],"bee_group":{"antennae":"X","wings":"X","pattern":"S","legs":"M"},"bonus":1.680000000000001},{"rt":1565.1000001430511,"stimulus":"bees-with-color/bee-B1SF.svg","response":1,"trial_type":"image-button-response","trial_index":31,"time_elapsed":211770,"internal_node_id":"0.0-4.0-0.12","subject_id":"5d8e154af2858200171fdb95","study_id":"6197b3f67c2b5cd3b6d9596a","session_id":"619be31c67b5e7e91deefb39","condition":"full-information","relevant_dimensions":["pattern","legs"],"bee_group":{"antennae":"X","wings":"X","pattern":"S","legs":"M"},"action":"avoid","summary":"bad-avoid","bonus":1.680000000000001},{"rt":1513.0999999046326,"stimulus":"\n                    <p><b>Action: <em>avoid</em></b></p>\n                    <p>This is the bee that you just saw.</p>\n                    <img src=\"bees-with-color/bee-B1SF.svg\" width=\"200\">\n                    <p><span class=\"redText\">Bad choice,</span> the bee was friendly.<br>Your bonus pay is unchanged, and remains at $0.68.</p>\n            ","response":0,"trial_type":"html-button-response","trial_index":32,"time_elapsed":213284,"internal_node_id":"0.0-4.0-1.12","subject_id":"5d8e154af2858200171fdb95","study_id":"6197b3f67c2b5cd3b6d9596a","session_id":"619be31c67b5e7e91deefb39","condition":"full-information","relevant_dimensions":["pattern","legs"],"bee_group":{"antennae":"X","wings":"X","pattern":"S","legs":"M"},"bonus":1.680000000000001},{"rt":1511.5999999046326,"stimulus":"bees-with-color/bee-B1DM.svg","response":0,"trial_type":"image-button-response","trial_index":33,"time_elapsed":214797,"internal_node_id":"0.0-4.0-0.13","subject_id":"5d8e154af2858200171fdb95","study_id":"6197b3f67c2b5cd3b6d9596a","session_id":"619be31c67b5e7e91deefb39","condition":"full-information","relevant_dimensions":["pattern","legs"],"bee_group":{"antennae":"X","wings":"X","pattern":"S","legs":"M"},"action":"harvest","summary":"good-harvest","bonus":1.680000000000001},{"rt":977.1999998092651,"stimulus":"\n                    <p><b>Action: <em>harvest</em></b></p>\n                    <p>This is the bee that you just saw.</p>\n                    <img src=\"bees-with-color/bee-B1DM.svg\" width=\"200\">\n                    <p><span class=\"greenText\"><b>Successful harvest!</b></span><br>Your pay has increased by $0.02. Your bonus pay is now $0.70.</p>\n            ","response":0,"trial_type":"html-button-response","trial_index":34,"time_elapsed":215776,"internal_node_id":"0.0-4.0-1.13","subject_id":"5d8e154af2858200171fdb95","study_id":"6197b3f67c2b5cd3b6d9596a","session_id":"619be31c67b5e7e91deefb39","condition":"full-information","relevant_dimensions":["pattern","legs"],"bee_group":{"antennae":"X","wings":"X","pattern":"S","legs":"M"},"bonus":1.680000000000001},{"rt":1249.9000000953674,"stimulus":"bees-with-color/bee-A1SM.svg","response":1,"trial_type":"image-button-response","trial_index":35,"time_elapsed":217029,"internal_node_id":"0.0-4.0-0.14","subject_id":"5d8e154af2858200171fdb95","study_id":"6197b3f67c2b5cd3b6d9596a","session_id":"619be31c67b5e7e91deefb39","condition":"full-information","relevant_dimensions":["pattern","legs"],"bee_group":{"antennae":"X","wings":"X","pattern":"S","legs":"M"},"action":"avoid","summary":"good-avoid","bonus":1.680000000000001},{"rt":991.4000000953674,"stimulus":"\n                    <p><b>Action: <em>avoid</em></b></p>\n                    <p>This is the bee that you just saw.</p>\n                    <img src=\"bees-with-color/bee-A1SM.svg\" width=\"200\">\n                    <p><span class=\"greenText\">Good choice!</span>  This bee would have stung you.<br>Your bonus pay is unchanged, and remains at $0.70.</p>\n            ","response":0,"trial_type":"html-button-response","trial_index":36,"time_elapsed":218023,"internal_node_id":"0.0-4.0-1.14","subject_id":"5d8e154af2858200171fdb95","study_id":"6197b3f67c2b5cd3b6d9596a","session_id":"619be31c67b5e7e91deefb39","condition":"full-information","relevant_dimensions":["pattern","legs"],"bee_group":{"antennae":"X","wings":"X","pattern":"S","legs":"M"},"bonus":1.680000000000001},{"rt":1208.7000000476837,"stimulus":"bees-with-color/bee-B2SM.svg","response":1,"trial_type":"image-button-response","trial_index":37,"time_elapsed":219234,"internal_node_id":"0.0-4.0-0.15","subject_id":"5d8e154af2858200171fdb95","study_id":"6197b3f67c2b5cd3b6d9596a","session_id":"619be31c67b5e7e91deefb39","condition":"full-information","relevant_dimensions":["pattern","legs"],"bee_group":{"antennae":"X","wings":"X","pattern":"S","legs":"M"},"action":"avoid","summary":"good-avoid","bonus":1.680000000000001},{"rt":1523.8000001907349,"stimulus":"\n                    <p><b>Action: <em>avoid</em></b></p>\n                    <p>This is the bee that you just saw.</p>\n                    <img src=\"bees-with-color/bee-B2SM.svg\" width=\"200\">\n                    <p><span class=\"greenText\">Good choice!</span>  This bee would have stung you.<br>Your bonus pay is unchanged, and remains at $0.70.</p>\n            ","response":0,"trial_type":"html-button-response","trial_index":38,"time_elapsed":220760,"internal_node_id":"0.0-4.0-1.15","subject_id":"5d8e154af2858200171fdb95","study_id":"6197b3f67c2b5cd3b6d9596a","session_id":"619be31c67b5e7e91deefb39","condition":"full-information","relevant_dimensions":["pattern","legs"],"bee_group":{"antennae":"X","wings":"X","pattern":"S","legs":"M"},"bonus":1.680000000000001},{"rt":959.4000000953674,"stimulus":"bees-with-color/bee-B2SM.svg","response":1,"trial_type":"image-button-response","trial_index":39,"time_elapsed":221721,"internal_node_id":"0.0-4.0-0.16","subject_id":"5d8e154af2858200171fdb95","study_id":"6197b3f67c2b5cd3b6d9596a","session_id":"619be31c67b5e7e91deefb39","condition":"full-information","relevant_dimensions":["pattern","legs"],"bee_group":{"antennae":"X","wings":"X","pattern":"S","legs":"M"},"action":"avoid","summary":"good-avoid","bonus":1.680000000000001},{"rt":559.7999999523163,"stimulus":"\n                    <p><b>Action: <em>avoid</em></b></p>\n                    <p>This is the bee that you just saw.</p>\n                    <img src=\"bees-with-color/bee-B2SM.svg\" width=\"200\">\n                    <p><span class=\"greenText\">Good choice!</span>  This bee would have stung you.<br>Your bonus pay is unchanged, and remains at $0.70.</p>\n            ","response":0,"trial_type":"html-button-response","trial_index":40,"time_elapsed":222283,"internal_node_id":"0.0-4.0-1.16","subject_id":"5d8e154af2858200171fdb95","study_id":"6197b3f67c2b5cd3b6d9596a","session_id":"619be31c67b5e7e91deefb39","condition":"full-information","relevant_dimensions":["pattern","legs"],"bee_group":{"antennae":"X","wings":"X","pattern":"S","legs":"M"},"bonus":1.680000000000001},{"rt":1029.5999999046326,"stimulus":"bees-with-color/bee-A2SF.svg","response":1,"trial_type":"image-button-response","trial_index":41,"time_elapsed":223315,"internal_node_id":"0.0-4.0-0.17","subject_id":"5d8e154af2858200171fdb95","study_id":"6197b3f67c2b5cd3b6d9596a","session_id":"619be31c67b5e7e91deefb39","condition":"full-information","relevant_dimensions":["pattern","legs"],"bee_group":{"antennae":"X","wings":"X","pattern":"S","legs":"M"},"action":"avoid","summary":"bad-avoid","bonus":1.680000000000001},{"rt":542.9000000953674,"stimulus":"\n                    <p><b>Action: <em>avoid</em></b></p>\n                    <p>This is the bee that you just saw.</p>\n                    <img src=\"bees-with-color/bee-A2SF.svg\" width=\"200\">\n                    <p><span class=\"redText\">Bad choice,</span> the bee was friendly.<br>Your bonus pay is unchanged, and remains at $0.70.</p>\n            ","response":0,"trial_type":"html-button-response","trial_index":42,"time_elapsed":223859,"internal_node_id":"0.0-4.0-1.17","subject_id":"5d8e154af2858200171fdb95","study_id":"6197b3f67c2b5cd3b6d9596a","session_id":"619be31c67b5e7e91deefb39","condition":"full-information","relevant_dimensions":["pattern","legs"],"bee_group":{"antennae":"X","wings":"X","pattern":"S","legs":"M"},"bonus":1.680000000000001},{"rt":1571.1999998092651,"stimulus":"bees-with-color/bee-B2SF.svg","response":0,"trial_type":"image-button-response","trial_index":43,"time_elapsed":225432,"internal_node_id":"0.0-4.0-0.18","subject_id":"5d8e154af2858200171fdb95","study_id":"6197b3f67c2b5cd3b6d9596a","session_id":"619be31c67b5e7e91deefb39","condition":"full-information","relevant_dimensions":["pattern","legs"],"bee_group":{"antennae":"X","wings":"X","pattern":"S","legs":"M"},"action":"harvest","summary":"good-harvest","bonus":1.680000000000001},{"rt":728.6000001430511,"stimulus":"\n                    <p><b>Action: <em>harvest</em></b></p>\n                    <p>This is the bee that you just saw.</p>\n                    <img src=\"bees-with-color/bee-B2SF.svg\" width=\"200\">\n                    <p><span class=\"greenText\"><b>Successful harvest!</b></span><br>Your pay has increased by $0.02. Your bonus pay is now $0.72.</p>\n            ","response":0,"trial_type":"html-button-response","trial_index":44,"time_elapsed":226163,"internal_node_id":"0.0-4.0-1.18","subject_id":"5d8e154af2858200171fdb95","study_id":"6197b3f67c2b5cd3b6d9596a","session_id":"619be31c67b5e7e91deefb39","condition":"full-information","relevant_dimensions":["pattern","legs"],"bee_group":{"antennae":"X","wings":"X","pattern":"S","legs":"M"},"bonus":1.680000000000001},{"rt":1042.6999998092651,"stimulus":"bees-with-color/bee-B2DF.svg","response":0,"trial_type":"image-button-response","trial_index":45,"time_elapsed":227209,"internal_node_id":"0.0-4.0-0.19","subject_id":"5d8e154af2858200171fdb95","study_id":"6197b3f67c2b5cd3b6d9596a","session_id":"619be31c67b5e7e91deefb39","condition":"full-information","relevant_dimensions":["pattern","legs"],"bee_group":{"antennae":"X","wings":"X","pattern":"S","legs":"M"},"action":"harvest","summary":"good-harvest","bonus":1.680000000000001},{"rt":698.4000000953674,"stimulus":"\n                    <p><b>Action: <em>harvest</em></b></p>\n                    <p>This is the bee that you just saw.</p>\n                    <img src=\"bees-with-color/bee-B2DF.svg\" width=\"200\">\n                    <p><span class=\"greenText\"><b>Successful harvest!</b></span><br>Your pay has increased by $0.02. Your bonus pay is now $0.74.</p>\n            ","response":0,"trial_type":"html-button-response","trial_index":46,"time_elapsed":227909,"internal_node_id":"0.0-4.0-1.19","subject_id":"5d8e154af2858200171fdb95","study_id":"6197b3f67c2b5cd3b6d9596a","session_id":"619be31c67b5e7e91deefb39","condition":"full-information","relevant_dimensions":["pattern","legs"],"bee_group":{"antennae":"X","wings":"X","pattern":"S","legs":"M"},"bonus":1.680000000000001},{"rt":940.0999999046326,"stimulus":"bees-with-color/bee-B1DF.svg","response":0,"trial_type":"image-button-response","trial_index":47,"time_elapsed":228852,"internal_node_id":"0.0-4.0-0.20","subject_id":"5d8e154af2858200171fdb95","study_id":"6197b3f67c2b5cd3b6d9596a","session_id":"619be31c67b5e7e91deefb39","condition":"full-information","relevant_dimensions":["pattern","legs"],"bee_group":{"antennae":"X","wings":"X","pattern":"S","legs":"M"},"action":"harvest","summary":"good-harvest","bonus":1.680000000000001},{"rt":776.3999998569489,"stimulus":"\n                    <p><b>Action: <em>harvest</em></b></p>\n                    <p>This is the bee that you just saw.</p>\n                    <img src=\"bees-with-color/bee-B1DF.svg\" width=\"200\">\n                    <p><span class=\"greenText\"><b>Successful harvest!</b></span><br>Your pay has increased by $0.02. Your bonus pay is now $0.76.</p>\n            ","response":0,"trial_type":"html-button-response","trial_index":48,"time_elapsed":229631,"internal_node_id":"0.0-4.0-1.20","subject_id":"5d8e154af2858200171fdb95","study_id":"6197b3f67c2b5cd3b6d9596a","session_id":"619be31c67b5e7e91deefb39","condition":"full-information","relevant_dimensions":["pattern","legs"],"bee_group":{"antennae":"X","wings":"X","pattern":"S","legs":"M"},"bonus":1.680000000000001},{"rt":1962.0999999046326,"stimulus":"bees-with-color/bee-A1SM.svg","response":1,"trial_type":"image-button-response","trial_index":49,"time_elapsed":231596,"internal_node_id":"0.0-4.0-0.21","subject_id":"5d8e154af2858200171fdb95","study_id":"6197b3f67c2b5cd3b6d9596a","session_id":"619be31c67b5e7e91deefb39","condition":"full-information","relevant_dimensions":["pattern","legs"],"bee_group":{"antennae":"X","wings":"X","pattern":"S","legs":"M"},"action":"avoid","summary":"good-avoid","bonus":1.680000000000001},{"rt":743,"stimulus":"\n                    <p><b>Action: <em>avoid</em></b></p>\n                    <p>This is the bee that you just saw.</p>\n                    <img src=\"bees-with-color/bee-A1SM.svg\" width=\"200\">\n                    <p><span class=\"greenText\">Good choice!</span>  This bee would have stung you.<br>Your bonus pay is unchanged, and remains at $0.76.</p>\n            ","response":0,"trial_type":"html-button-response","trial_index":50,"time_elapsed":232341,"internal_node_id":"0.0-4.0-1.21","subject_id":"5d8e154af2858200171fdb95","study_id":"6197b3f67c2b5cd3b6d9596a","session_id":"619be31c67b5e7e91deefb39","condition":"full-information","relevant_dimensions":["pattern","legs"],"bee_group":{"antennae":"X","wings":"X","pattern":"S","legs":"M"},"bonus":1.680000000000001},{"rt":1144,"stimulus":"bees-with-color/bee-A1DM.svg","response":0,"trial_type":"image-button-response","trial_index":51,"time_elapsed":233486,"internal_node_id":"0.0-4.0-0.22","subject_id":"5d8e154af2858200171fdb95","study_id":"6197b3f67c2b5cd3b6d9596a","session_id":"619be31c67b5e7e91deefb39","condition":"full-information","relevant_dimensions":["pattern","legs"],"bee_group":{"antennae":"X","wings":"X","pattern":"S","legs":"M"},"action":"harvest","summary":"good-harvest","bonus":1.680000000000001},{"rt":950.5999999046326,"stimulus":"\n                    <p><b>Action: <em>harvest</em></b></p>\n                    <p>This is the bee that you just saw.</p>\n                    <img src=\"bees-with-color/bee-A1DM.svg\" width=\"200\">\n                    <p><span class=\"greenText\"><b>Successful harvest!</b></span><br>Your pay has increased by $0.02. Your bonus pay is now $0.78.</p>\n            ","response":0,"trial_type":"html-button-response","trial_index":52,"time_elapsed":234439,"internal_node_id":"0.0-4.0-1.22","subject_id":"5d8e154af2858200171fdb95","study_id":"6197b3f67c2b5cd3b6d9596a","session_id":"619be31c67b5e7e91deefb39","condition":"full-information","relevant_dimensions":["pattern","legs"],"bee_group":{"antennae":"X","wings":"X","pattern":"S","legs":"M"},"bonus":1.680000000000001},{"rt":2842.0999999046326,"stimulus":"bees-with-color/bee-B1SF.svg","response":0,"trial_type":"image-button-response","trial_index":53,"time_elapsed":237282,"internal_node_id":"0.0-4.0-0.23","subject_id":"5d8e154af2858200171fdb95","study_id":"6197b3f67c2b5cd3b6d9596a","session_id":"619be31c67b5e7e91deefb39","condition":"full-information","relevant_dimensions":["pattern","legs"],"bee_group":{"antennae":"X","wings":"X","pattern":"S","legs":"M"},"action":"harvest","summary":"good-harvest","bonus":1.680000000000001},{"rt":802.7999999523163,"stimulus":"\n                    <p><b>Action: <em>harvest</em></b></p>\n                    <p>This is the bee that you just saw.</p>\n                    <img src=\"bees-with-color/bee-B1SF.svg\" width=\"200\">\n                    <p><span class=\"greenText\"><b>Successful harvest!</b></span><br>Your pay has increased by $0.02. Your bonus pay is now $0.80.</p>\n            ","response":0,"trial_type":"html-button-response","trial_index":54,"time_elapsed":238086,"internal_node_id":"0.0-4.0-1.23","subject_id":"5d8e154af2858200171fdb95","study_id":"6197b3f67c2b5cd3b6d9596a","session_id":"619be31c67b5e7e91deefb39","condition":"full-information","relevant_dimensions":["pattern","legs"],"bee_group":{"antennae":"X","wings":"X","pattern":"S","legs":"M"},"bonus":1.680000000000001},{"rt":1357.5,"stimulus":"bees-with-color/bee-B1SM.svg","response":1,"trial_type":"image-button-response","trial_index":55,"time_elapsed":239449,"internal_node_id":"0.0-4.0-0.24","subject_id":"5d8e154af2858200171fdb95","study_id":"6197b3f67c2b5cd3b6d9596a","session_id":"619be31c67b5e7e91deefb39","condition":"full-information","relevant_dimensions":["pattern","legs"],"bee_group":{"antennae":"X","wings":"X","pattern":"S","legs":"M"},"action":"avoid","summary":"good-avoid","bonus":1.680000000000001},{"rt":960.2000000476837,"stimulus":"\n                    <p><b>Action: <em>avoid</em></b></p>\n                    <p>This is the bee that you just saw.</p>\n                    <img src=\"bees-with-color/bee-B1SM.svg\" width=\"200\">\n                    <p><span class=\"greenText\">Good choice!</span>  This bee would have stung you.<br>Your bonus pay is unchanged, and remains at $0.80.</p>\n            ","response":0,"trial_type":"html-button-response","trial_index":56,"time_elapsed":240413,"internal_node_id":"0.0-4.0-1.24","subject_id":"5d8e154af2858200171fdb95","study_id":"6197b3f67c2b5cd3b6d9596a","session_id":"619be31c67b5e7e91deefb39","condition":"full-information","relevant_dimensions":["pattern","legs"],"bee_group":{"antennae":"X","wings":"X","pattern":"S","legs":"M"},"bonus":1.680000000000001},{"rt":781.0999999046326,"stimulus":"bees-with-color/bee-A2DF.svg","response":0,"trial_type":"image-button-response","trial_index":57,"time_elapsed":241196,"internal_node_id":"0.0-4.0-0.25","subject_id":"5d8e154af2858200171fdb95","study_id":"6197b3f67c2b5cd3b6d9596a","session_id":"619be31c67b5e7e91deefb39","condition":"full-information","relevant_dimensions":["pattern","legs"],"bee_group":{"antennae":"X","wings":"X","pattern":"S","legs":"M"},"action":"harvest","summary":"good-harvest","bonus":1.680000000000001},{"rt":557.4000000953674,"stimulus":"\n                    <p><b>Action: <em>harvest</em></b></p>\n                    <p>This is the bee that you just saw.</p>\n                    <img src=\"bees-with-color/bee-A2DF.svg\" width=\"200\">\n                    <p><span class=\"greenText\"><b>Successful harvest!</b></span><br>Your pay has increased by $0.02. Your bonus pay is now $0.82.</p>\n            ","response":0,"trial_type":"html-button-response","trial_index":58,"time_elapsed":241757,"internal_node_id":"0.0-4.0-1.25","subject_id":"5d8e154af2858200171fdb95","study_id":"6197b3f67c2b5cd3b6d9596a","session_id":"619be31c67b5e7e91deefb39","condition":"full-information","relevant_dimensions":["pattern","legs"],"bee_group":{"antennae":"X","wings":"X","pattern":"S","legs":"M"},"bonus":1.680000000000001},{"rt":2741.899999856949,"stimulus":"bees-with-color/bee-A2SM.svg","response":0,"trial_type":"image-button-response","trial_index":59,"time_elapsed":244503,"internal_node_id":"0.0-4.0-0.26","subject_id":"5d8e154af2858200171fdb95","study_id":"6197b3f67c2b5cd3b6d9596a","session_id":"619be31c67b5e7e91deefb39","condition":"full-information","relevant_dimensions":["pattern","legs"],"bee_group":{"antennae":"X","wings":"X","pattern":"S","legs":"M"},"action":"harvest","summary":"bad-harvest","bonus":1.680000000000001},{"rt":715.9000000953674,"stimulus":"\n                    <p><b>Action: <em>harvest</em></b></p>\n                    <p>This is the bee that you just saw.</p>\n                    <img src=\"bees-with-color/bee-A2SM.svg\" width=\"200\">\n                    <p><span class=\"redText\">Bad choice, the bee was angry.</span><br><b>You have been stung!</b><br>Your pay has been decreased by $0.10. Your bonus pay is now $0.72.</p>\n            ","response":0,"trial_type":"html-button-response","trial_index":60,"time_elapsed":245222,"internal_node_id":"0.0-4.0-1.26","subject_id":"5d8e154af2858200171fdb95","study_id":"6197b3f67c2b5cd3b6d9596a","session_id":"619be31c67b5e7e91deefb39","condition":"full-information","relevant_dimensions":["pattern","legs"],"bee_group":{"antennae":"X","wings":"X","pattern":"S","legs":"M"},"bonus":1.680000000000001},{"rt":3663.899999856949,"stimulus":"bees-with-color/bee-A1SF.svg","response":0,"trial_type":"image-button-response","trial_index":61,"time_elapsed":248889,"internal_node_id":"0.0-4.0-0.27","subject_id":"5d8e154af2858200171fdb95","study_id":"6197b3f67c2b5cd3b6d9596a","session_id":"619be31c67b5e7e91deefb39","condition":"full-information","relevant_dimensions":["pattern","legs"],"bee_group":{"antennae":"X","wings":"X","pattern":"S","legs":"M"},"action":"harvest","summary":"good-harvest","bonus":1.680000000000001},{"rt":659.3999998569489,"stimulus":"\n                    <p><b>Action: <em>harvest</em></b></p>\n                    <p>This is the bee that you just saw.</p>\n                    <img src=\"bees-with-color/bee-A1SF.svg\" width=\"200\">\n                    <p><span class=\"greenText\"><b>Successful harvest!</b></span><br>Your pay has increased by $0.02. Your bonus pay is now $0.74.</p>\n            ","response":0,"trial_type":"html-button-response","trial_index":62,"time_elapsed":249550,"internal_node_id":"0.0-4.0-1.27","subject_id":"5d8e154af2858200171fdb95","study_id":"6197b3f67c2b5cd3b6d9596a","session_id":"619be31c67b5e7e91deefb39","condition":"full-information","relevant_dimensions":["pattern","legs"],"bee_group":{"antennae":"X","wings":"X","pattern":"S","legs":"M"},"bonus":1.680000000000001},{"rt":782.5,"stimulus":"bees-with-color/bee-A1DF.svg","response":0,"trial_type":"image-button-response","trial_index":63,"time_elapsed":250336,"internal_node_id":"0.0-4.0-0.28","subject_id":"5d8e154af2858200171fdb95","study_id":"6197b3f67c2b5cd3b6d9596a","session_id":"619be31c67b5e7e91deefb39","condition":"full-information","relevant_dimensions":["pattern","legs"],"bee_group":{"antennae":"X","wings":"X","pattern":"S","legs":"M"},"action":"harvest","summary":"good-harvest","bonus":1.680000000000001},{"rt":480.2000000476837,"stimulus":"\n                    <p><b>Action: <em>harvest</em></b></p>\n                    <p>This is the bee that you just saw.</p>\n                    <img src=\"bees-with-color/bee-A1DF.svg\" width=\"200\">\n                    <p><span class=\"greenText\"><b>Successful harvest!</b></span><br>Your pay has increased by $0.02. Your bonus pay is now $0.76.</p>\n            ","response":0,"trial_type":"html-button-response","trial_index":64,"time_elapsed":250818,"internal_node_id":"0.0-4.0-1.28","subject_id":"5d8e154af2858200171fdb95","study_id":"6197b3f67c2b5cd3b6d9596a","session_id":"619be31c67b5e7e91deefb39","condition":"full-information","relevant_dimensions":["pattern","legs"],"bee_group":{"antennae":"X","wings":"X","pattern":"S","legs":"M"},"bonus":1.680000000000001},{"rt":1435.7999999523163,"stimulus":"bees-with-color/bee-B1DM.svg","response":0,"trial_type":"image-button-response","trial_index":65,"time_elapsed":252255,"internal_node_id":"0.0-4.0-0.29","subject_id":"5d8e154af2858200171fdb95","study_id":"6197b3f67c2b5cd3b6d9596a","session_id":"619be31c67b5e7e91deefb39","condition":"full-information","relevant_dimensions":["pattern","legs"],"bee_group":{"antennae":"X","wings":"X","pattern":"S","legs":"M"},"action":"harvest","summary":"good-harvest","bonus":1.680000000000001},{"rt":647.1000001430511,"stimulus":"\n                    <p><b>Action: <em>harvest</em></b></p>\n                    <p>This is the bee that you just saw.</p>\n                    <img src=\"bees-with-color/bee-B1DM.svg\" width=\"200\">\n                    <p><span class=\"greenText\"><b>Successful harvest!</b></span><br>Your pay has increased by $0.02. Your bonus pay is now $0.78.</p>\n            ","response":0,"trial_type":"html-button-response","trial_index":66,"time_elapsed":252905,"internal_node_id":"0.0-4.0-1.29","subject_id":"5d8e154af2858200171fdb95","study_id":"6197b3f67c2b5cd3b6d9596a","session_id":"619be31c67b5e7e91deefb39","condition":"full-information","relevant_dimensions":["pattern","legs"],"bee_group":{"antennae":"X","wings":"X","pattern":"S","legs":"M"},"bonus":1.680000000000001},{"rt":1519,"stimulus":"bees-with-color/bee-A2DM.svg","response":0,"trial_type":"image-button-response","trial_index":67,"time_elapsed":254427,"internal_node_id":"0.0-4.0-0.30","subject_id":"5d8e154af2858200171fdb95","study_id":"6197b3f67c2b5cd3b6d9596a","session_id":"619be31c67b5e7e91deefb39","condition":"full-information","relevant_dimensions":["pattern","legs"],"bee_group":{"antennae":"X","wings":"X","pattern":"S","legs":"M"},"action":"harvest","summary":"good-harvest","bonus":1.680000000000001},{"rt":586.6999998092651,"stimulus":"\n                    <p><b>Action: <em>harvest</em></b></p>\n                    <p>This is the bee that you just saw.</p>\n                    <img src=\"bees-with-color/bee-A2DM.svg\" width=\"200\">\n                    <p><span class=\"greenText\"><b>Successful harvest!</b></span><br>Your pay has increased by $0.02. Your bonus pay is now $0.80.</p>\n            ","response":0,"trial_type":"html-button-response","trial_index":68,"time_elapsed":255016,"internal_node_id":"0.0-4.0-1.30","subject_id":"5d8e154af2858200171fdb95","study_id":"6197b3f67c2b5cd3b6d9596a","session_id":"619be31c67b5e7e91deefb39","condition":"full-information","relevant_dimensions":["pattern","legs"],"bee_group":{"antennae":"X","wings":"X","pattern":"S","legs":"M"},"bonus":1.680000000000001},{"rt":741.9000000953674,"stimulus":"bees-with-color/bee-B2DM.svg","response":0,"trial_type":"image-button-response","trial_index":69,"time_elapsed":255759,"internal_node_id":"0.0-4.0-0.31","subject_id":"5d8e154af2858200171fdb95","study_id":"6197b3f67c2b5cd3b6d9596a","session_id":"619be31c67b5e7e91deefb39","condition":"full-information","relevant_dimensions":["pattern","legs"],"bee_group":{"antennae":"X","wings":"X","pattern":"S","legs":"M"},"action":"harvest","summary":"good-harvest","bonus":1.680000000000001},{"rt":473.80000019073486,"stimulus":"\n                    <p><b>Action: <em>harvest</em></b></p>\n                    <p>This is the bee that you just saw.</p>\n                    <img src=\"bees-with-color/bee-B2DM.svg\" width=\"200\">\n                    <p><span class=\"greenText\"><b>Successful harvest!</b></span><br>Your pay has increased by $0.02. Your bonus pay is now $0.82.</p>\n            ","response":0,"trial_type":"html-button-response","trial_index":70,"time_elapsed":256236,"internal_node_id":"0.0-4.0-1.31","subject_id":"5d8e154af2858200171fdb95","study_id":"6197b3f67c2b5cd3b6d9596a","session_id":"619be31c67b5e7e91deefb39","condition":"full-information","relevant_dimensions":["pattern","legs"],"bee_group":{"antennae":"X","wings":"X","pattern":"S","legs":"M"},"bonus":1.680000000000001},{"rt":1099,"stimulus":"bees-with-color/bee-B1SM.svg","response":1,"trial_type":"image-button-response","trial_index":71,"time_elapsed":257337,"internal_node_id":"0.0-4.0-0.32","subject_id":"5d8e154af2858200171fdb95","study_id":"6197b3f67c2b5cd3b6d9596a","session_id":"619be31c67b5e7e91deefb39","condition":"full-information","relevant_dimensions":["pattern","legs"],"bee_group":{"antennae":"X","wings":"X","pattern":"S","legs":"M"},"action":"avoid","summary":"good-avoid","bonus":1.680000000000001},{"rt":665.5,"stimulus":"\n                    <p><b>Action: <em>avoid</em></b></p>\n                    <p>This is the bee that you just saw.</p>\n                    <img src=\"bees-with-color/bee-B1SM.svg\" width=\"200\">\n                    <p><span class=\"greenText\">Good choice!</span>  This bee would have stung you.<br>Your bonus pay is unchanged, and remains at $0.82.</p>\n            ","response":0,"trial_type":"html-button-response","trial_index":72,"time_elapsed":258004,"internal_node_id":"0.0-4.0-1.32","subject_id":"5d8e154af2858200171fdb95","study_id":"6197b3f67c2b5cd3b6d9596a","session_id":"619be31c67b5e7e91deefb39","condition":"full-information","relevant_dimensions":["pattern","legs"],"bee_group":{"antennae":"X","wings":"X","pattern":"S","legs":"M"},"bonus":1.680000000000001},{"rt":1944.3999998569489,"stimulus":"bees-with-color/bee-A2SF.svg","response":0,"trial_type":"image-button-response","trial_index":73,"time_elapsed":259951,"internal_node_id":"0.0-4.0-0.33","subject_id":"5d8e154af2858200171fdb95","study_id":"6197b3f67c2b5cd3b6d9596a","session_id":"619be31c67b5e7e91deefb39","condition":"full-information","relevant_dimensions":["pattern","legs"],"bee_group":{"antennae":"X","wings":"X","pattern":"S","legs":"M"},"action":"harvest","summary":"good-harvest","bonus":1.680000000000001},{"rt":672.6000001430511,"stimulus":"\n                    <p><b>Action: <em>harvest</em></b></p>\n                    <p>This is the bee that you just saw.</p>\n                    <img src=\"bees-with-color/bee-A2SF.svg\" width=\"200\">\n                    <p><span class=\"greenText\"><b>Successful harvest!</b></span><br>Your pay has increased by $0.02. Your bonus pay is now $0.84.</p>\n            ","response":0,"trial_type":"html-button-response","trial_index":74,"time_elapsed":260624,"internal_node_id":"0.0-4.0-1.33","subject_id":"5d8e154af2858200171fdb95","study_id":"6197b3f67c2b5cd3b6d9596a","session_id":"619be31c67b5e7e91deefb39","condition":"full-information","relevant_dimensions":["pattern","legs"],"bee_group":{"antennae":"X","wings":"X","pattern":"S","legs":"M"},"bonus":1.680000000000001},{"rt":872.2999999523163,"stimulus":"bees-with-color/bee-A2DF.svg","response":0,"trial_type":"image-button-response","trial_index":75,"time_elapsed":261499,"internal_node_id":"0.0-4.0-0.34","subject_id":"5d8e154af2858200171fdb95","study_id":"6197b3f67c2b5cd3b6d9596a","session_id":"619be31c67b5e7e91deefb39","condition":"full-information","relevant_dimensions":["pattern","legs"],"bee_group":{"antennae":"X","wings":"X","pattern":"S","legs":"M"},"action":"harvest","summary":"good-harvest","bonus":1.680000000000001},{"rt":700.9000000953674,"stimulus":"\n                    <p><b>Action: <em>harvest</em></b></p>\n                    <p>This is the bee that you just saw.</p>\n                    <img src=\"bees-with-color/bee-A2DF.svg\" width=\"200\">\n                    <p><span class=\"greenText\"><b>Successful harvest!</b></span><br>Your pay has increased by $0.02. Your bonus pay is now $0.86.</p>\n            ","response":0,"trial_type":"html-button-response","trial_index":76,"time_elapsed":262203,"internal_node_id":"0.0-4.0-1.34","subject_id":"5d8e154af2858200171fdb95","study_id":"6197b3f67c2b5cd3b6d9596a","session_id":"619be31c67b5e7e91deefb39","condition":"full-information","relevant_dimensions":["pattern","legs"],"bee_group":{"antennae":"X","wings":"X","pattern":"S","legs":"M"},"bonus":1.680000000000001},{"rt":675.5999999046326,"stimulus":"bees-with-color/bee-B1DF.svg","response":0,"trial_type":"image-button-response","trial_index":77,"time_elapsed":262880,"internal_node_id":"0.0-4.0-0.35","subject_id":"5d8e154af2858200171fdb95","study_id":"6197b3f67c2b5cd3b6d9596a","session_id":"619be31c67b5e7e91deefb39","condition":"full-information","relevant_dimensions":["pattern","legs"],"bee_group":{"antennae":"X","wings":"X","pattern":"S","legs":"M"},"action":"harvest","summary":"good-harvest","bonus":1.680000000000001},{"rt":614.3999998569489,"stimulus":"\n                    <p><b>Action: <em>harvest</em></b></p>\n                    <p>This is the bee that you just saw.</p>\n                    <img src=\"bees-with-color/bee-B1DF.svg\" width=\"200\">\n                    <p><span class=\"greenText\"><b>Successful harvest!</b></span><br>Your pay has increased by $0.02. Your bonus pay is now $0.88.</p>\n            ","response":0,"trial_type":"html-button-response","trial_index":78,"time_elapsed":263497,"internal_node_id":"0.0-4.0-1.35","subject_id":"5d8e154af2858200171fdb95","study_id":"6197b3f67c2b5cd3b6d9596a","session_id":"619be31c67b5e7e91deefb39","condition":"full-information","relevant_dimensions":["pattern","legs"],"bee_group":{"antennae":"X","wings":"X","pattern":"S","legs":"M"},"bonus":1.680000000000001},{"rt":670,"stimulus":"bees-with-color/bee-B1DM.svg","response":0,"trial_type":"image-button-response","trial_index":79,"time_elapsed":264169,"internal_node_id":"0.0-4.0-0.36","subject_id":"5d8e154af2858200171fdb95","study_id":"6197b3f67c2b5cd3b6d9596a","session_id":"619be31c67b5e7e91deefb39","condition":"full-information","relevant_dimensions":["pattern","legs"],"bee_group":{"antennae":"X","wings":"X","pattern":"S","legs":"M"},"action":"harvest","summary":"good-harvest","bonus":1.680000000000001},{"rt":574.9000000953674,"stimulus":"\n                    <p><b>Action: <em>harvest</em></b></p>\n                    <p>This is the bee that you just saw.</p>\n                    <img src=\"bees-with-color/bee-B1DM.svg\" width=\"200\">\n                    <p><span class=\"greenText\"><b>Successful harvest!</b></span><br>Your pay has increased by $0.02. Your bonus pay is now $0.90.</p>\n            ","response":0,"trial_type":"html-button-response","trial_index":80,"time_elapsed":264747,"internal_node_id":"0.0-4.0-1.36","subject_id":"5d8e154af2858200171fdb95","study_id":"6197b3f67c2b5cd3b6d9596a","session_id":"619be31c67b5e7e91deefb39","condition":"full-information","relevant_dimensions":["pattern","legs"],"bee_group":{"antennae":"X","wings":"X","pattern":"S","legs":"M"},"bonus":1.680000000000001},{"rt":1470.2000000476837,"stimulus":"bees-with-color/bee-A1DM.svg","response":0,"trial_type":"image-button-response","trial_index":81,"time_elapsed":266219,"internal_node_id":"0.0-4.0-0.37","subject_id":"5d8e154af2858200171fdb95","study_id":"6197b3f67c2b5cd3b6d9596a","session_id":"619be31c67b5e7e91deefb39","condition":"full-information","relevant_dimensions":["pattern","legs"],"bee_group":{"antennae":"X","wings":"X","pattern":"S","legs":"M"},"action":"harvest","summary":"good-harvest","bonus":1.680000000000001},{"rt":639.7999999523163,"stimulus":"\n                    <p><b>Action: <em>harvest</em></b></p>\n                    <p>This is the bee that you just saw.</p>\n                    <img src=\"bees-with-color/bee-A1DM.svg\" width=\"200\">\n                    <p><span class=\"greenText\"><b>Successful harvest!</b></span><br>Your pay has increased by $0.02. Your bonus pay is now $0.92.</p>\n            ","response":0,"trial_type":"html-button-response","trial_index":82,"time_elapsed":266860,"internal_node_id":"0.0-4.0-1.37","subject_id":"5d8e154af2858200171fdb95","study_id":"6197b3f67c2b5cd3b6d9596a","session_id":"619be31c67b5e7e91deefb39","condition":"full-information","relevant_dimensions":["pattern","legs"],"bee_group":{"antennae":"X","wings":"X","pattern":"S","legs":"M"},"bonus":1.680000000000001},{"rt":640,"stimulus":"bees-with-color/bee-B2DM.svg","response":0,"trial_type":"image-button-response","trial_index":83,"time_elapsed":267501,"internal_node_id":"0.0-4.0-0.38","subject_id":"5d8e154af2858200171fdb95","study_id":"6197b3f67c2b5cd3b6d9596a","session_id":"619be31c67b5e7e91deefb39","condition":"full-information","relevant_dimensions":["pattern","legs"],"bee_group":{"antennae":"X","wings":"X","pattern":"S","legs":"M"},"action":"harvest","summary":"good-harvest","bonus":1.680000000000001},{"rt":970.3999998569489,"stimulus":"\n                    <p><b>Action: <em>harvest</em></b></p>\n                    <p>This is the bee that you just saw.</p>\n                    <img src=\"bees-with-color/bee-B2DM.svg\" width=\"200\">\n                    <p><span class=\"greenText\"><b>Successful harvest!</b></span><br>Your pay has increased by $0.02. Your bonus pay is now $0.94.</p>\n            ","response":0,"trial_type":"html-button-response","trial_index":84,"time_elapsed":268474,"internal_node_id":"0.0-4.0-1.38","subject_id":"5d8e154af2858200171fdb95","study_id":"6197b3f67c2b5cd3b6d9596a","session_id":"619be31c67b5e7e91deefb39","condition":"full-information","relevant_dimensions":["pattern","legs"],"bee_group":{"antennae":"X","wings":"X","pattern":"S","legs":"M"},"bonus":1.680000000000001},{"rt":2202.399999856949,"stimulus":"bees-with-color/bee-A1SM.svg","response":1,"trial_type":"image-button-response","trial_index":85,"time_elapsed":270678,"internal_node_id":"0.0-4.0-0.39","subject_id":"5d8e154af2858200171fdb95","study_id":"6197b3f67c2b5cd3b6d9596a","session_id":"619be31c67b5e7e91deefb39","condition":"full-information","relevant_dimensions":["pattern","legs"],"bee_group":{"antennae":"X","wings":"X","pattern":"S","legs":"M"},"action":"avoid","summary":"good-avoid","bonus":1.680000000000001},{"rt":774.4000000953674,"stimulus":"\n                    <p><b>Action: <em>avoid</em></b></p>\n                    <p>This is the bee that you just saw.</p>\n                    <img src=\"bees-with-color/bee-A1SM.svg\" width=\"200\">\n                    <p><span class=\"greenText\">Good choice!</span>  This bee would have stung you.<br>Your bonus pay is unchanged, and remains at $0.94.</p>\n            ","response":0,"trial_type":"html-button-response","trial_index":86,"time_elapsed":271455,"internal_node_id":"0.0-4.0-1.39","subject_id":"5d8e154af2858200171fdb95","study_id":"6197b3f67c2b5cd3b6d9596a","session_id":"619be31c67b5e7e91deefb39","condition":"full-information","relevant_dimensions":["pattern","legs"],"bee_group":{"antennae":"X","wings":"X","pattern":"S","legs":"M"},"bonus":1.680000000000001},{"rt":2284.300000190735,"stimulus":"bees-with-color/bee-A2SM.svg","response":1,"trial_type":"image-button-response","trial_index":87,"time_elapsed":273740,"internal_node_id":"0.0-4.0-0.40","subject_id":"5d8e154af2858200171fdb95","study_id":"6197b3f67c2b5cd3b6d9596a","session_id":"619be31c67b5e7e91deefb39","condition":"full-information","relevant_dimensions":["pattern","legs"],"bee_group":{"antennae":"X","wings":"X","pattern":"S","legs":"M"},"action":"avoid","summary":"good-avoid","bonus":1.680000000000001},{"rt":1425,"stimulus":"\n                    <p><b>Action: <em>avoid</em></b></p>\n                    <p>This is the bee that you just saw.</p>\n                    <img src=\"bees-with-color/bee-A2SM.svg\" width=\"200\">\n                    <p><span class=\"greenText\">Good choice!</span>  This bee would have stung you.<br>Your bonus pay is unchanged, and remains at $0.94.</p>\n            ","response":0,"trial_type":"html-button-response","trial_index":88,"time_elapsed":275167,"internal_node_id":"0.0-4.0-1.40","subject_id":"5d8e154af2858200171fdb95","study_id":"6197b3f67c2b5cd3b6d9596a","session_id":"619be31c67b5e7e91deefb39","condition":"full-information","relevant_dimensions":["pattern","legs"],"bee_group":{"antennae":"X","wings":"X","pattern":"S","legs":"M"},"bonus":1.680000000000001},{"rt":907.7999999523163,"stimulus":"bees-with-color/bee-B2SM.svg","response":1,"trial_type":"image-button-response","trial_index":89,"time_elapsed":276078,"internal_node_id":"0.0-4.0-0.41","subject_id":"5d8e154af2858200171fdb95","study_id":"6197b3f67c2b5cd3b6d9596a","session_id":"619be31c67b5e7e91deefb39","condition":"full-information","relevant_dimensions":["pattern","legs"],"bee_group":{"antennae":"X","wings":"X","pattern":"S","legs":"M"},"action":"avoid","summary":"good-avoid","bonus":1.680000000000001},{"rt":477.30000019073486,"stimulus":"\n                    <p><b>Action: <em>avoid</em></b></p>\n                    <p>This is the bee that you just saw.</p>\n                    <img src=\"bees-with-color/bee-B2SM.svg\" width=\"200\">\n                    <p><span class=\"greenText\">Good choice!</span>  This bee would have stung you.<br>Your bonus pay is unchanged, and remains at $0.94.</p>\n            ","response":0,"trial_type":"html-button-response","trial_index":90,"time_elapsed":276557,"internal_node_id":"0.0-4.0-1.41","subject_id":"5d8e154af2858200171fdb95","study_id":"6197b3f67c2b5cd3b6d9596a","session_id":"619be31c67b5e7e91deefb39","condition":"full-information","relevant_dimensions":["pattern","legs"],"bee_group":{"antennae":"X","wings":"X","pattern":"S","legs":"M"},"bonus":1.680000000000001},{"rt":1008.5,"stimulus":"bees-with-color/bee-B2DF.svg","response":0,"trial_type":"image-button-response","trial_index":91,"time_elapsed":277566,"internal_node_id":"0.0-4.0-0.42","subject_id":"5d8e154af2858200171fdb95","study_id":"6197b3f67c2b5cd3b6d9596a","session_id":"619be31c67b5e7e91deefb39","condition":"full-information","relevant_dimensions":["pattern","legs"],"bee_group":{"antennae":"X","wings":"X","pattern":"S","legs":"M"},"action":"harvest","summary":"good-harvest","bonus":1.680000000000001},{"rt":658.8000001907349,"stimulus":"\n                    <p><b>Action: <em>harvest</em></b></p>\n                    <p>This is the bee that you just saw.</p>\n                    <img src=\"bees-with-color/bee-B2DF.svg\" width=\"200\">\n                    <p><span class=\"greenText\"><b>Successful harvest!</b></span><br>Your pay has increased by $0.02. Your bonus pay is now $0.96.</p>\n            ","response":0,"trial_type":"html-button-response","trial_index":92,"time_elapsed":278227,"internal_node_id":"0.0-4.0-1.42","subject_id":"5d8e154af2858200171fdb95","study_id":"6197b3f67c2b5cd3b6d9596a","session_id":"619be31c67b5e7e91deefb39","condition":"full-information","relevant_dimensions":["pattern","legs"],"bee_group":{"antennae":"X","wings":"X","pattern":"S","legs":"M"},"bonus":1.680000000000001},{"rt":1428.6999998092651,"stimulus":"bees-with-color/bee-A1SF.svg","response":0,"trial_type":"image-button-response","trial_index":93,"time_elapsed":279658,"internal_node_id":"0.0-4.0-0.43","subject_id":"5d8e154af2858200171fdb95","study_id":"6197b3f67c2b5cd3b6d9596a","session_id":"619be31c67b5e7e91deefb39","condition":"full-information","relevant_dimensions":["pattern","legs"],"bee_group":{"antennae":"X","wings":"X","pattern":"S","legs":"M"},"action":"harvest","summary":"good-harvest","bonus":1.680000000000001},{"rt":677.5999999046326,"stimulus":"\n                    <p><b>Action: <em>harvest</em></b></p>\n                    <p>This is the bee that you just saw.</p>\n                    <img src=\"bees-with-color/bee-A1SF.svg\" width=\"200\">\n                    <p><span class=\"greenText\"><b>Successful harvest!</b></span><br>Your pay has increased by $0.02. Your bonus pay is now $0.98.</p>\n            ","response":0,"trial_type":"html-button-response","trial_index":94,"time_elapsed":280337,"internal_node_id":"0.0-4.0-1.43","subject_id":"5d8e154af2858200171fdb95","study_id":"6197b3f67c2b5cd3b6d9596a","session_id":"619be31c67b5e7e91deefb39","condition":"full-information","relevant_dimensions":["pattern","legs"],"bee_group":{"antennae":"X","wings":"X","pattern":"S","legs":"M"},"bonus":1.680000000000001},{"rt":1829,"stimulus":"bees-with-color/bee-B1SF.svg","response":0,"trial_type":"image-button-response","trial_index":95,"time_elapsed":282168,"internal_node_id":"0.0-4.0-0.44","subject_id":"5d8e154af2858200171fdb95","study_id":"6197b3f67c2b5cd3b6d9596a","session_id":"619be31c67b5e7e91deefb39","condition":"full-information","relevant_dimensions":["pattern","legs"],"bee_group":{"antennae":"X","wings":"X","pattern":"S","legs":"M"},"action":"harvest","summary":"good-harvest","bonus":1.680000000000001},{"rt":592,"stimulus":"\n                    <p><b>Action: <em>harvest</em></b></p>\n                    <p>This is the bee that you just saw.</p>\n                    <img src=\"bees-with-color/bee-B1SF.svg\" width=\"200\">\n                    <p><span class=\"greenText\"><b>Successful harvest!</b></span><br>Your pay has increased by $0.02. Your bonus pay is now $1.00.</p>\n            ","response":0,"trial_type":"html-button-response","trial_index":96,"time_elapsed":282762,"internal_node_id":"0.0-4.0-1.44","subject_id":"5d8e154af2858200171fdb95","study_id":"6197b3f67c2b5cd3b6d9596a","session_id":"619be31c67b5e7e91deefb39","condition":"full-information","relevant_dimensions":["pattern","legs"],"bee_group":{"antennae":"X","wings":"X","pattern":"S","legs":"M"},"bonus":1.680000000000001},{"rt":829.2000000476837,"stimulus":"bees-with-color/bee-A1DF.svg","response":0,"trial_type":"image-button-response","trial_index":97,"time_elapsed":283592,"internal_node_id":"0.0-4.0-0.45","subject_id":"5d8e154af2858200171fdb95","study_id":"6197b3f67c2b5cd3b6d9596a","session_id":"619be31c67b5e7e91deefb39","condition":"full-information","relevant_dimensions":["pattern","legs"],"bee_group":{"antennae":"X","wings":"X","pattern":"S","legs":"M"},"action":"harvest","summary":"good-harvest","bonus":1.680000000000001},{"rt":366.30000019073486,"stimulus":"\n                    <p><b>Action: <em>harvest</em></b></p>\n                    <p>This is the bee that you just saw.</p>\n                    <img src=\"bees-with-color/bee-A1DF.svg\" width=\"200\">\n                    <p><span class=\"greenText\"><b>Successful harvest!</b></span><br>Your pay has increased by $0.02. Your bonus pay is now $1.02.</p>\n            ","response":0,"trial_type":"html-button-response","trial_index":98,"time_elapsed":283962,"internal_node_id":"0.0-4.0-1.45","subject_id":"5d8e154af2858200171fdb95","study_id":"6197b3f67c2b5cd3b6d9596a","session_id":"619be31c67b5e7e91deefb39","condition":"full-information","relevant_dimensions":["pattern","legs"],"bee_group":{"antennae":"X","wings":"X","pattern":"S","legs":"M"},"bonus":1.680000000000001},{"rt":991.2000000476837,"stimulus":"bees-with-color/bee-A2DM.svg","response":1,"trial_type":"image-button-response","trial_index":99,"time_elapsed":284956,"internal_node_id":"0.0-4.0-0.46","subject_id":"5d8e154af2858200171fdb95","study_id":"6197b3f67c2b5cd3b6d9596a","session_id":"619be31c67b5e7e91deefb39","condition":"full-information","relevant_dimensions":["pattern","legs"],"bee_group":{"antennae":"X","wings":"X","pattern":"S","legs":"M"},"action":"avoid","summary":"bad-avoid","bonus":1.680000000000001},{"rt":427,"stimulus":"\n                    <p><b>Action: <em>avoid</em></b></p>\n                    <p>This is the bee that you just saw.</p>\n                    <img src=\"bees-with-color/bee-A2DM.svg\" width=\"200\">\n                    <p><span class=\"redText\">Bad choice,</span> the bee was friendly.<br>Your bonus pay is unchanged, and remains at $1.02.</p>\n            ","response":0,"trial_type":"html-button-response","trial_index":100,"time_elapsed":285385,"internal_node_id":"0.0-4.0-1.46","subject_id":"5d8e154af2858200171fdb95","study_id":"6197b3f67c2b5cd3b6d9596a","session_id":"619be31c67b5e7e91deefb39","condition":"full-information","relevant_dimensions":["pattern","legs"],"bee_group":{"antennae":"X","wings":"X","pattern":"S","legs":"M"},"bonus":1.680000000000001},{"rt":2869.699999809265,"stimulus":"bees-with-color/bee-B2SF.svg","response":0,"trial_type":"image-button-response","trial_index":101,"time_elapsed":288256,"internal_node_id":"0.0-4.0-0.47","subject_id":"5d8e154af2858200171fdb95","study_id":"6197b3f67c2b5cd3b6d9596a","session_id":"619be31c67b5e7e91deefb39","condition":"full-information","relevant_dimensions":["pattern","legs"],"bee_group":{"antennae":"X","wings":"X","pattern":"S","legs":"M"},"action":"harvest","summary":"good-harvest","bonus":1.680000000000001},{"rt":643.7999999523163,"stimulus":"\n                    <p><b>Action: <em>harvest</em></b></p>\n                    <p>This is the bee that you just saw.</p>\n                    <img src=\"bees-with-color/bee-B2SF.svg\" width=\"200\">\n                    <p><span class=\"greenText\"><b>Successful harvest!</b></span><br>Your pay has increased by $0.02. Your bonus pay is now $1.04.</p>\n            ","response":0,"trial_type":"html-button-response","trial_index":102,"time_elapsed":288901,"internal_node_id":"0.0-4.0-1.47","subject_id":"5d8e154af2858200171fdb95","study_id":"6197b3f67c2b5cd3b6d9596a","session_id":"619be31c67b5e7e91deefb39","condition":"full-information","relevant_dimensions":["pattern","legs"],"bee_group":{"antennae":"X","wings":"X","pattern":"S","legs":"M"},"bonus":1.680000000000001},{"rt":2258.399999856949,"stimulus":"bees-with-color/bee-A2SM.svg","response":1,"trial_type":"image-button-response","trial_index":103,"time_elapsed":291162,"internal_node_id":"0.0-4.0-0.48","subject_id":"5d8e154af2858200171fdb95","study_id":"6197b3f67c2b5cd3b6d9596a","session_id":"619be31c67b5e7e91deefb39","condition":"full-information","relevant_dimensions":["pattern","legs"],"bee_group":{"antennae":"X","wings":"X","pattern":"S","legs":"M"},"action":"avoid","summary":"good-avoid","bonus":1.680000000000001},{"rt":578.3000001907349,"stimulus":"\n                    <p><b>Action: <em>avoid</em></b></p>\n                    <p>This is the bee that you just saw.</p>\n                    <img src=\"bees-with-color/bee-A2SM.svg\" width=\"200\">\n                    <p><span class=\"greenText\">Good choice!</span>  This bee would have stung you.<br>Your bonus pay is unchanged, and remains at $1.04.</p>\n            ","response":0,"trial_type":"html-button-response","trial_index":104,"time_elapsed":291743,"internal_node_id":"0.0-4.0-1.48","subject_id":"5d8e154af2858200171fdb95","study_id":"6197b3f67c2b5cd3b6d9596a","session_id":"619be31c67b5e7e91deefb39","condition":"full-information","relevant_dimensions":["pattern","legs"],"bee_group":{"antennae":"X","wings":"X","pattern":"S","legs":"M"},"bonus":1.680000000000001},{"rt":1927.5999999046326,"stimulus":"bees-with-color/bee-B2SF.svg","response":0,"trial_type":"image-button-response","trial_index":105,"time_elapsed":293673,"internal_node_id":"0.0-4.0-0.49","subject_id":"5d8e154af2858200171fdb95","study_id":"6197b3f67c2b5cd3b6d9596a","session_id":"619be31c67b5e7e91deefb39","condition":"full-information","relevant_dimensions":["pattern","legs"],"bee_group":{"antennae":"X","wings":"X","pattern":"S","legs":"M"},"action":"harvest","summary":"good-harvest","bonus":1.680000000000001},{"rt":520.5999999046326,"stimulus":"\n                    <p><b>Action: <em>harvest</em></b></p>\n                    <p>This is the bee that you just saw.</p>\n                    <img src=\"bees-with-color/bee-B2SF.svg\" width=\"200\">\n                    <p><span class=\"greenText\"><b>Successful harvest!</b></span><br>Your pay has increased by $0.02. Your bonus pay is now $1.06.</p>\n            ","response":0,"trial_type":"html-button-response","trial_index":106,"time_elapsed":294195,"internal_node_id":"0.0-4.0-1.49","subject_id":"5d8e154af2858200171fdb95","study_id":"6197b3f67c2b5cd3b6d9596a","session_id":"619be31c67b5e7e91deefb39","condition":"full-information","relevant_dimensions":["pattern","legs"],"bee_group":{"antennae":"X","wings":"X","pattern":"S","legs":"M"},"bonus":1.680000000000001},{"rt":649.1999998092651,"stimulus":"bees-with-color/bee-B1DM.svg","response":0,"trial_type":"image-button-response","trial_index":107,"time_elapsed":294847,"internal_node_id":"0.0-4.0-0.50","subject_id":"5d8e154af2858200171fdb95","study_id":"6197b3f67c2b5cd3b6d9596a","session_id":"619be31c67b5e7e91deefb39","condition":"full-information","relevant_dimensions":["pattern","legs"],"bee_group":{"antennae":"X","wings":"X","pattern":"S","legs":"M"},"action":"harvest","summary":"good-harvest","bonus":1.680000000000001},{"rt":397.2999999523163,"stimulus":"\n                    <p><b>Action: <em>harvest</em></b></p>\n                    <p>This is the bee that you just saw.</p>\n                    <img src=\"bees-with-color/bee-B1DM.svg\" width=\"200\">\n                    <p><span class=\"greenText\"><b>Successful harvest!</b></span><br>Your pay has increased by $0.02. Your bonus pay is now $1.08.</p>\n            ","response":0,"trial_type":"html-button-response","trial_index":108,"time_elapsed":295247,"internal_node_id":"0.0-4.0-1.50","subject_id":"5d8e154af2858200171fdb95","study_id":"6197b3f67c2b5cd3b6d9596a","session_id":"619be31c67b5e7e91deefb39","condition":"full-information","relevant_dimensions":["pattern","legs"],"bee_group":{"antennae":"X","wings":"X","pattern":"S","legs":"M"},"bonus":1.680000000000001},{"rt":751,"stimulus":"bees-with-color/bee-B1SM.svg","response":1,"trial_type":"image-button-response","trial_index":109,"time_elapsed":296000,"internal_node_id":"0.0-4.0-0.51","subject_id":"5d8e154af2858200171fdb95","study_id":"6197b3f67c2b5cd3b6d9596a","session_id":"619be31c67b5e7e91deefb39","condition":"full-information","relevant_dimensions":["pattern","legs"],"bee_group":{"antennae":"X","wings":"X","pattern":"S","legs":"M"},"action":"avoid","summary":"good-avoid","bonus":1.680000000000001},{"rt":424.7999999523163,"stimulus":"\n                    <p><b>Action: <em>avoid</em></b></p>\n                    <p>This is the bee that you just saw.</p>\n                    <img src=\"bees-with-color/bee-B1SM.svg\" width=\"200\">\n                    <p><span class=\"greenText\">Good choice!</span>  This bee would have stung you.<br>Your bonus pay is unchanged, and remains at $1.08.</p>\n            ","response":0,"trial_type":"html-button-response","trial_index":110,"time_elapsed":296426,"internal_node_id":"0.0-4.0-1.51","subject_id":"5d8e154af2858200171fdb95","study_id":"6197b3f67c2b5cd3b6d9596a","session_id":"619be31c67b5e7e91deefb39","condition":"full-information","relevant_dimensions":["pattern","legs"],"bee_group":{"antennae":"X","wings":"X","pattern":"S","legs":"M"},"bonus":1.680000000000001},{"rt":850.7000000476837,"stimulus":"bees-with-color/bee-A2DF.svg","response":0,"trial_type":"image-button-response","trial_index":111,"time_elapsed":297278,"internal_node_id":"0.0-4.0-0.52","subject_id":"5d8e154af2858200171fdb95","study_id":"6197b3f67c2b5cd3b6d9596a","session_id":"619be31c67b5e7e91deefb39","condition":"full-information","relevant_dimensions":["pattern","legs"],"bee_group":{"antennae":"X","wings":"X","pattern":"S","legs":"M"},"action":"harvest","summary":"good-harvest","bonus":1.680000000000001},{"rt":530.0999999046326,"stimulus":"\n                    <p><b>Action: <em>harvest</em></b></p>\n                    <p>This is the bee that you just saw.</p>\n                    <img src=\"bees-with-color/bee-A2DF.svg\" width=\"200\">\n                    <p><span class=\"greenText\"><b>Successful harvest!</b></span><br>Your pay has increased by $0.02. Your bonus pay is now $1.10.</p>\n            ","response":0,"trial_type":"html-button-response","trial_index":112,"time_elapsed":297810,"internal_node_id":"0.0-4.0-1.52","subject_id":"5d8e154af2858200171fdb95","study_id":"6197b3f67c2b5cd3b6d9596a","session_id":"619be31c67b5e7e91deefb39","condition":"full-information","relevant_dimensions":["pattern","legs"],"bee_group":{"antennae":"X","wings":"X","pattern":"S","legs":"M"},"bonus":1.680000000000001},{"rt":590.6000001430511,"stimulus":"bees-with-color/bee-B1DF.svg","response":0,"trial_type":"image-button-response","trial_index":113,"time_elapsed":298401,"internal_node_id":"0.0-4.0-0.53","subject_id":"5d8e154af2858200171fdb95","study_id":"6197b3f67c2b5cd3b6d9596a","session_id":"619be31c67b5e7e91deefb39","condition":"full-information","relevant_dimensions":["pattern","legs"],"bee_group":{"antennae":"X","wings":"X","pattern":"S","legs":"M"},"action":"harvest","summary":"good-harvest","bonus":1.680000000000001},{"rt":402.5,"stimulus":"\n                    <p><b>Action: <em>harvest</em></b></p>\n                    <p>This is the bee that you just saw.</p>\n                    <img src=\"bees-with-color/bee-B1DF.svg\" width=\"200\">\n                    <p><span class=\"greenText\"><b>Successful harvest!</b></span><br>Your pay has increased by $0.02. Your bonus pay is now $1.12.</p>\n            ","response":0,"trial_type":"html-button-response","trial_index":114,"time_elapsed":298806,"internal_node_id":"0.0-4.0-1.53","subject_id":"5d8e154af2858200171fdb95","study_id":"6197b3f67c2b5cd3b6d9596a","session_id":"619be31c67b5e7e91deefb39","condition":"full-information","relevant_dimensions":["pattern","legs"],"bee_group":{"antennae":"X","wings":"X","pattern":"S","legs":"M"},"bonus":1.680000000000001},{"rt":1039.5999999046326,"stimulus":"bees-with-color/bee-B2DM.svg","response":1,"trial_type":"image-button-response","trial_index":115,"time_elapsed":299847,"internal_node_id":"0.0-4.0-0.54","subject_id":"5d8e154af2858200171fdb95","study_id":"6197b3f67c2b5cd3b6d9596a","session_id":"619be31c67b5e7e91deefb39","condition":"full-information","relevant_dimensions":["pattern","legs"],"bee_group":{"antennae":"X","wings":"X","pattern":"S","legs":"M"},"action":"avoid","summary":"bad-avoid","bonus":1.680000000000001},{"rt":657.7000000476837,"stimulus":"\n                    <p><b>Action: <em>avoid</em></b></p>\n                    <p>This is the bee that you just saw.</p>\n                    <img src=\"bees-with-color/bee-B2DM.svg\" width=\"200\">\n                    <p><span class=\"redText\">Bad choice,</span> the bee was friendly.<br>Your bonus pay is unchanged, and remains at $1.12.</p>\n            ","response":0,"trial_type":"html-button-response","trial_index":116,"time_elapsed":300506,"internal_node_id":"0.0-4.0-1.54","subject_id":"5d8e154af2858200171fdb95","study_id":"6197b3f67c2b5cd3b6d9596a","session_id":"619be31c67b5e7e91deefb39","condition":"full-information","relevant_dimensions":["pattern","legs"],"bee_group":{"antennae":"X","wings":"X","pattern":"S","legs":"M"},"bonus":1.680000000000001},{"rt":1372.1000001430511,"stimulus":"bees-with-color/bee-A1SF.svg","response":0,"trial_type":"image-button-response","trial_index":117,"time_elapsed":301880,"internal_node_id":"0.0-4.0-0.55","subject_id":"5d8e154af2858200171fdb95","study_id":"6197b3f67c2b5cd3b6d9596a","session_id":"619be31c67b5e7e91deefb39","condition":"full-information","relevant_dimensions":["pattern","legs"],"bee_group":{"antennae":"X","wings":"X","pattern":"S","legs":"M"},"action":"harvest","summary":"good-harvest","bonus":1.680000000000001},{"rt":466.90000009536743,"stimulus":"\n                    <p><b>Action: <em>harvest</em></b></p>\n                    <p>This is the bee that you just saw.</p>\n                    <img src=\"bees-with-color/bee-A1SF.svg\" width=\"200\">\n                    <p><span class=\"greenText\"><b>Successful harvest!</b></span><br>Your pay has increased by $0.02. Your bonus pay is now $1.14.</p>\n            ","response":0,"trial_type":"html-button-response","trial_index":118,"time_elapsed":302348,"internal_node_id":"0.0-4.0-1.55","subject_id":"5d8e154af2858200171fdb95","study_id":"6197b3f67c2b5cd3b6d9596a","session_id":"619be31c67b5e7e91deefb39","condition":"full-information","relevant_dimensions":["pattern","legs"],"bee_group":{"antennae":"X","wings":"X","pattern":"S","legs":"M"},"bonus":1.680000000000001},{"rt":1286.7000000476837,"stimulus":"bees-with-color/bee-B1SF.svg","response":1,"trial_type":"image-button-response","trial_index":119,"time_elapsed":303636,"internal_node_id":"0.0-4.0-0.56","subject_id":"5d8e154af2858200171fdb95","study_id":"6197b3f67c2b5cd3b6d9596a","session_id":"619be31c67b5e7e91deefb39","condition":"full-information","relevant_dimensions":["pattern","legs"],"bee_group":{"antennae":"X","wings":"X","pattern":"S","legs":"M"},"action":"avoid","summary":"bad-avoid","bonus":1.680000000000001},{"rt":737.3999998569489,"stimulus":"\n                    <p><b>Action: <em>avoid</em></b></p>\n                    <p>This is the bee that you just saw.</p>\n                    <img src=\"bees-with-color/bee-B1SF.svg\" width=\"200\">\n                    <p><span class=\"redText\">Bad choice,</span> the bee was friendly.<br>Your bonus pay is unchanged, and remains at $1.14.</p>\n            ","response":0,"trial_type":"html-button-response","trial_index":120,"time_elapsed":304376,"internal_node_id":"0.0-4.0-1.56","subject_id":"5d8e154af2858200171fdb95","study_id":"6197b3f67c2b5cd3b6d9596a","session_id":"619be31c67b5e7e91deefb39","condition":"full-information","relevant_dimensions":["pattern","legs"],"bee_group":{"antennae":"X","wings":"X","pattern":"S","legs":"M"},"bonus":1.680000000000001},{"rt":597.5,"stimulus":"bees-with-color/bee-A2DM.svg","response":0,"trial_type":"image-button-response","trial_index":121,"time_elapsed":304976,"internal_node_id":"0.0-4.0-0.57","subject_id":"5d8e154af2858200171fdb95","study_id":"6197b3f67c2b5cd3b6d9596a","session_id":"619be31c67b5e7e91deefb39","condition":"full-information","relevant_dimensions":["pattern","legs"],"bee_group":{"antennae":"X","wings":"X","pattern":"S","legs":"M"},"action":"harvest","summary":"good-harvest","bonus":1.680000000000001},{"rt":635.5,"stimulus":"\n                    <p><b>Action: <em>harvest</em></b></p>\n                    <p>This is the bee that you just saw.</p>\n                    <img src=\"bees-with-color/bee-A2DM.svg\" width=\"200\">\n                    <p><span class=\"greenText\"><b>Successful harvest!</b></span><br>Your pay has increased by $0.02. Your bonus pay is now $1.16.</p>\n            ","response":0,"trial_type":"html-button-response","trial_index":122,"time_elapsed":305615,"internal_node_id":"0.0-4.0-1.57","subject_id":"5d8e154af2858200171fdb95","study_id":"6197b3f67c2b5cd3b6d9596a","session_id":"619be31c67b5e7e91deefb39","condition":"full-information","relevant_dimensions":["pattern","legs"],"bee_group":{"antennae":"X","wings":"X","pattern":"S","legs":"M"},"bonus":1.680000000000001},{"rt":910.2999999523163,"stimulus":"bees-with-color/bee-B2SM.svg","response":1,"trial_type":"image-button-response","trial_index":123,"time_elapsed":306526,"internal_node_id":"0.0-4.0-0.58","subject_id":"5d8e154af2858200171fdb95","study_id":"6197b3f67c2b5cd3b6d9596a","session_id":"619be31c67b5e7e91deefb39","condition":"full-information","relevant_dimensions":["pattern","legs"],"bee_group":{"antennae":"X","wings":"X","pattern":"S","legs":"M"},"action":"avoid","summary":"good-avoid","bonus":1.680000000000001},{"rt":480.09999990463257,"stimulus":"\n                    <p><b>Action: <em>avoid</em></b></p>\n                    <p>This is the bee that you just saw.</p>\n                    <img src=\"bees-with-color/bee-B2SM.svg\" width=\"200\">\n                    <p><span class=\"greenText\">Good choice!</span>  This bee would have stung you.<br>Your bonus pay is unchanged, and remains at $1.16.</p>\n            ","response":0,"trial_type":"html-button-response","trial_index":124,"time_elapsed":307008,"internal_node_id":"0.0-4.0-1.58","subject_id":"5d8e154af2858200171fdb95","study_id":"6197b3f67c2b5cd3b6d9596a","session_id":"619be31c67b5e7e91deefb39","condition":"full-information","relevant_dimensions":["pattern","legs"],"bee_group":{"antennae":"X","wings":"X","pattern":"S","legs":"M"},"bonus":1.680000000000001},{"rt":1062.5999999046326,"stimulus":"bees-with-color/bee-B2DF.svg","response":0,"trial_type":"image-button-response","trial_index":125,"time_elapsed":308073,"internal_node_id":"0.0-4.0-0.59","subject_id":"5d8e154af2858200171fdb95","study_id":"6197b3f67c2b5cd3b6d9596a","session_id":"619be31c67b5e7e91deefb39","condition":"full-information","relevant_dimensions":["pattern","legs"],"bee_group":{"antennae":"X","wings":"X","pattern":"S","legs":"M"},"action":"harvest","summary":"good-harvest","bonus":1.680000000000001},{"rt":11988.300000190735,"stimulus":"\n                    <p><b>Action: <em>harvest</em></b></p>\n                    <p>This is the bee that you just saw.</p>\n                    <img src=\"bees-with-color/bee-B2DF.svg\" width=\"200\">\n                    <p><span class=\"greenText\"><b>Successful harvest!</b></span><br>Your pay has increased by $0.02. Your bonus pay is now $1.18.</p>\n            ","response":0,"trial_type":"html-button-response","trial_index":126,"time_elapsed":320063,"internal_node_id":"0.0-4.0-1.59","subject_id":"5d8e154af2858200171fdb95","study_id":"6197b3f67c2b5cd3b6d9596a","session_id":"619be31c67b5e7e91deefb39","condition":"full-information","relevant_dimensions":["pattern","legs"],"bee_group":{"antennae":"X","wings":"X","pattern":"S","legs":"M"},"bonus":1.680000000000001},{"rt":1650.7000000476837,"stimulus":"bees-with-color/bee-A2SF.svg","response":0,"trial_type":"image-button-response","trial_index":127,"time_elapsed":321716,"internal_node_id":"0.0-4.0-0.60","subject_id":"5d8e154af2858200171fdb95","study_id":"6197b3f67c2b5cd3b6d9596a","session_id":"619be31c67b5e7e91deefb39","condition":"full-information","relevant_dimensions":["pattern","legs"],"bee_group":{"antennae":"X","wings":"X","pattern":"S","legs":"M"},"action":"harvest","summary":"good-harvest","bonus":1.680000000000001},{"rt":569.5,"stimulus":"\n                    <p><b>Action: <em>harvest</em></b></p>\n                    <p>This is the bee that you just saw.</p>\n                    <img src=\"bees-with-color/bee-A2SF.svg\" width=\"200\">\n                    <p><span class=\"greenText\"><b>Successful harvest!</b></span><br>Your pay has increased by $0.02. Your bonus pay is now $1.20.</p>\n            ","response":0,"trial_type":"html-button-response","trial_index":128,"time_elapsed":322288,"internal_node_id":"0.0-4.0-1.60","subject_id":"5d8e154af2858200171fdb95","study_id":"6197b3f67c2b5cd3b6d9596a","session_id":"619be31c67b5e7e91deefb39","condition":"full-information","relevant_dimensions":["pattern","legs"],"bee_group":{"antennae":"X","wings":"X","pattern":"S","legs":"M"},"bonus":1.680000000000001},{"rt":837.5,"stimulus":"bees-with-color/bee-A1SM.svg","response":1,"trial_type":"image-button-response","trial_index":129,"time_elapsed":323127,"internal_node_id":"0.0-4.0-0.61","subject_id":"5d8e154af2858200171fdb95","study_id":"6197b3f67c2b5cd3b6d9596a","session_id":"619be31c67b5e7e91deefb39","condition":"full-information","relevant_dimensions":["pattern","legs"],"bee_group":{"antennae":"X","wings":"X","pattern":"S","legs":"M"},"action":"avoid","summary":"good-avoid","bonus":1.680000000000001},{"rt":471.2999999523163,"stimulus":"\n                    <p><b>Action: <em>avoid</em></b></p>\n                    <p>This is the bee that you just saw.</p>\n                    <img src=\"bees-with-color/bee-A1SM.svg\" width=\"200\">\n                    <p><span class=\"greenText\">Good choice!</span>  This bee would have stung you.<br>Your bonus pay is unchanged, and remains at $1.20.</p>\n            ","response":0,"trial_type":"html-button-response","trial_index":130,"time_elapsed":323600,"internal_node_id":"0.0-4.0-1.61","subject_id":"5d8e154af2858200171fdb95","study_id":"6197b3f67c2b5cd3b6d9596a","session_id":"619be31c67b5e7e91deefb39","condition":"full-information","relevant_dimensions":["pattern","legs"],"bee_group":{"antennae":"X","wings":"X","pattern":"S","legs":"M"},"bonus":1.680000000000001},{"rt":548,"stimulus":"bees-with-color/bee-A1DM.svg","response":1,"trial_type":"image-button-response","trial_index":131,"time_elapsed":324149,"internal_node_id":"0.0-4.0-0.62","subject_id":"5d8e154af2858200171fdb95","study_id":"6197b3f67c2b5cd3b6d9596a","session_id":"619be31c67b5e7e91deefb39","condition":"full-information","relevant_dimensions":["pattern","legs"],"bee_group":{"antennae":"X","wings":"X","pattern":"S","legs":"M"},"action":"avoid","summary":"bad-avoid","bonus":1.680000000000001},{"rt":367.5,"stimulus":"\n                    <p><b>Action: <em>avoid</em></b></p>\n                    <p>This is the bee that you just saw.</p>\n                    <img src=\"bees-with-color/bee-A1DM.svg\" width=\"200\">\n                    <p><span class=\"redText\">Bad choice,</span> the bee was friendly.<br>Your bonus pay is unchanged, and remains at $1.20.</p>\n            ","response":0,"trial_type":"html-button-response","trial_index":132,"time_elapsed":324519,"internal_node_id":"0.0-4.0-1.62","subject_id":"5d8e154af2858200171fdb95","study_id":"6197b3f67c2b5cd3b6d9596a","session_id":"619be31c67b5e7e91deefb39","condition":"full-information","relevant_dimensions":["pattern","legs"],"bee_group":{"antennae":"X","wings":"X","pattern":"S","legs":"M"},"bonus":1.680000000000001},{"rt":1321.7000000476837,"stimulus":"bees-with-color/bee-A1DF.svg","response":0,"trial_type":"image-button-response","trial_index":133,"time_elapsed":325842,"internal_node_id":"0.0-4.0-0.63","subject_id":"5d8e154af2858200171fdb95","study_id":"6197b3f67c2b5cd3b6d9596a","session_id":"619be31c67b5e7e91deefb39","condition":"full-information","relevant_dimensions":["pattern","legs"],"bee_group":{"antennae":"X","wings":"X","pattern":"S","legs":"M"},"action":"harvest","summary":"good-harvest","bonus":1.680000000000001},{"rt":327.5,"stimulus":"\n                    <p><b>Action: <em>harvest</em></b></p>\n                    <p>This is the bee that you just saw.</p>\n                    <img src=\"bees-with-color/bee-A1DF.svg\" width=\"200\">\n                    <p><span class=\"greenText\"><b>Successful harvest!</b></span><br>Your pay has increased by $0.02. Your bonus pay is now $1.22.</p>\n            ","response":0,"trial_type":"html-button-response","trial_index":134,"time_elapsed":326171,"internal_node_id":"0.0-4.0-1.63","subject_id":"5d8e154af2858200171fdb95","study_id":"6197b3f67c2b5cd3b6d9596a","session_id":"619be31c67b5e7e91deefb39","condition":"full-information","relevant_dimensions":["pattern","legs"],"bee_group":{"antennae":"X","wings":"X","pattern":"S","legs":"M"},"bonus":1.680000000000001},{"rt":3667,"stimulus":"You have completed the first part of this experiment.<br><br>You will now begin a shorter second part, in which you will receive no feedback.<br>The same rules regarding bonus pay apply.<br><br>Press any key to begin.","response":" ","trial_type":"html-keyboard-response","trial_index":135,"time_elapsed":329840,"internal_node_id":"0.0-5.0","subject_id":"5d8e154af2858200171fdb95","study_id":"6197b3f67c2b5cd3b6d9596a","session_id":"619be31c67b5e7e91deefb39","condition":"full-information","relevant_dimensions":["pattern","legs"],"bee_group":{"antennae":"X","wings":"X","pattern":"S","legs":"M"},"bonus":1.680000000000001},{"rt":1383.5,"stimulus":"bees-with-color/bee-A1DF.svg","response":0,"trial_type":"image-button-response","trial_index":136,"time_elapsed":331236,"internal_node_id":"0.0-6.0-0.0","subject_id":"5d8e154af2858200171fdb95","study_id":"6197b3f67c2b5cd3b6d9596a","session_id":"619be31c67b5e7e91deefb39","condition":"full-information","relevant_dimensions":["pattern","legs"],"bee_group":{"antennae":"X","wings":"X","pattern":"S","legs":"M"},"bonus":1.680000000000001},{"rt":1362.5999999046326,"stimulus":"bees-with-color/bee-B2DM.svg","response":0,"trial_type":"image-button-response","trial_index":137,"time_elapsed":332603,"internal_node_id":"0.0-6.0-0.1","subject_id":"5d8e154af2858200171fdb95","study_id":"6197b3f67c2b5cd3b6d9596a","session_id":"619be31c67b5e7e91deefb39","condition":"full-information","relevant_dimensions":["pattern","legs"],"bee_group":{"antennae":"X","wings":"X","pattern":"S","legs":"M"},"bonus":1.680000000000001},{"rt":841.6999998092651,"stimulus":"bees-with-color/bee-A2DM.svg","response":0,"trial_type":"image-button-response","trial_index":138,"time_elapsed":333448,"internal_node_id":"0.0-6.0-0.2","subject_id":"5d8e154af2858200171fdb95","study_id":"6197b3f67c2b5cd3b6d9596a","session_id":"619be31c67b5e7e91deefb39","condition":"full-information","relevant_dimensions":["pattern","legs"],"bee_group":{"antennae":"X","wings":"X","pattern":"S","legs":"M"},"bonus":1.680000000000001},{"rt":941.6000001430511,"stimulus":"bees-with-color/bee-B2DF.svg","response":0,"trial_type":"image-button-response","trial_index":139,"time_elapsed":334393,"internal_node_id":"0.0-6.0-0.3","subject_id":"5d8e154af2858200171fdb95","study_id":"6197b3f67c2b5cd3b6d9596a","session_id":"619be31c67b5e7e91deefb39","condition":"full-information","relevant_dimensions":["pattern","legs"],"bee_group":{"antennae":"X","wings":"X","pattern":"S","legs":"M"},"bonus":1.680000000000001},{"rt":537.1000001430511,"stimulus":"bees-with-color/bee-B1DM.svg","response":0,"trial_type":"image-button-response","trial_index":140,"time_elapsed":334934,"internal_node_id":"0.0-6.0-0.4","subject_id":"5d8e154af2858200171fdb95","study_id":"6197b3f67c2b5cd3b6d9596a","session_id":"619be31c67b5e7e91deefb39","condition":"full-information","relevant_dimensions":["pattern","legs"],"bee_group":{"antennae":"X","wings":"X","pattern":"S","legs":"M"},"bonus":1.680000000000001},{"rt":1909.0999999046326,"stimulus":"bees-with-color/bee-A2SF.svg","response":0,"trial_type":"image-button-response","trial_index":141,"time_elapsed":336846,"internal_node_id":"0.0-6.0-0.5","subject_id":"5d8e154af2858200171fdb95","study_id":"6197b3f67c2b5cd3b6d9596a","session_id":"619be31c67b5e7e91deefb39","condition":"full-information","relevant_dimensions":["pattern","legs"],"bee_group":{"antennae":"X","wings":"X","pattern":"S","legs":"M"},"bonus":1.680000000000001},{"rt":831.1000001430511,"stimulus":"bees-with-color/bee-A2SM.svg","response":1,"trial_type":"image-button-response","trial_index":142,"time_elapsed":337681,"internal_node_id":"0.0-6.0-0.6","subject_id":"5d8e154af2858200171fdb95","study_id":"6197b3f67c2b5cd3b6d9596a","session_id":"619be31c67b5e7e91deefb39","condition":"full-information","relevant_dimensions":["pattern","legs"],"bee_group":{"antennae":"X","wings":"X","pattern":"S","legs":"M"},"bonus":1.680000000000001},{"rt":1569.3999998569489,"stimulus":"bees-with-color/bee-B1SM.svg","response":1,"trial_type":"image-button-response","trial_index":143,"time_elapsed":339254,"internal_node_id":"0.0-6.0-0.7","subject_id":"5d8e154af2858200171fdb95","study_id":"6197b3f67c2b5cd3b6d9596a","session_id":"619be31c67b5e7e91deefb39","condition":"full-information","relevant_dimensions":["pattern","legs"],"bee_group":{"antennae":"X","wings":"X","pattern":"S","legs":"M"},"bonus":1.680000000000001},{"rt":1088,"stimulus":"bees-with-color/bee-B2SM.svg","response":1,"trial_type":"image-button-response","trial_index":144,"time_elapsed":340345,"internal_node_id":"0.0-6.0-0.8","subject_id":"5d8e154af2858200171fdb95","study_id":"6197b3f67c2b5cd3b6d9596a","session_id":"619be31c67b5e7e91deefb39","condition":"full-information","relevant_dimensions":["pattern","legs"],"bee_group":{"antennae":"X","wings":"X","pattern":"S","legs":"M"},"bonus":1.680000000000001},{"rt":1285,"stimulus":"bees-with-color/bee-A1SM.svg","response":1,"trial_type":"image-button-response","trial_index":145,"time_elapsed":341633,"internal_node_id":"0.0-6.0-0.9","subject_id":"5d8e154af2858200171fdb95","study_id":"6197b3f67c2b5cd3b6d9596a","session_id":"619be31c67b5e7e91deefb39","condition":"full-information","relevant_dimensions":["pattern","legs"],"bee_group":{"antennae":"X","wings":"X","pattern":"S","legs":"M"},"bonus":1.680000000000001},{"rt":683.3000001907349,"stimulus":"bees-with-color/bee-A2DF.svg","response":0,"trial_type":"image-button-response","trial_index":146,"time_elapsed":342319,"internal_node_id":"0.0-6.0-0.10","subject_id":"5d8e154af2858200171fdb95","study_id":"6197b3f67c2b5cd3b6d9596a","session_id":"619be31c67b5e7e91deefb39","condition":"full-information","relevant_dimensions":["pattern","legs"],"bee_group":{"antennae":"X","wings":"X","pattern":"S","legs":"M"},"bonus":1.680000000000001},{"rt":1393.3999998569489,"stimulus":"bees-with-color/bee-B1SF.svg","response":0,"trial_type":"image-button-response","trial_index":147,"time_elapsed":343714,"internal_node_id":"0.0-6.0-0.11","subject_id":"5d8e154af2858200171fdb95","study_id":"6197b3f67c2b5cd3b6d9596a","session_id":"619be31c67b5e7e91deefb39","condition":"full-information","relevant_dimensions":["pattern","legs"],"bee_group":{"antennae":"X","wings":"X","pattern":"S","legs":"M"},"bonus":1.680000000000001},{"rt":846.5,"stimulus":"bees-with-color/bee-B2SF.svg","response":0,"trial_type":"image-button-response","trial_index":148,"time_elapsed":344563,"internal_node_id":"0.0-6.0-0.12","subject_id":"5d8e154af2858200171fdb95","study_id":"6197b3f67c2b5cd3b6d9596a","session_id":"619be31c67b5e7e91deefb39","condition":"full-information","relevant_dimensions":["pattern","legs"],"bee_group":{"antennae":"X","wings":"X","pattern":"S","legs":"M"},"bonus":1.680000000000001},{"rt":772.5,"stimulus":"bees-with-color/bee-B1DF.svg","response":0,"trial_type":"image-button-response","trial_index":149,"time_elapsed":345338,"internal_node_id":"0.0-6.0-0.13","subject_id":"5d8e154af2858200171fdb95","study_id":"6197b3f67c2b5cd3b6d9596a","session_id":"619be31c67b5e7e91deefb39","condition":"full-information","relevant_dimensions":["pattern","legs"],"bee_group":{"antennae":"X","wings":"X","pattern":"S","legs":"M"},"bonus":1.680000000000001},{"rt":876,"stimulus":"bees-with-color/bee-A1SF.svg","response":0,"trial_type":"image-button-response","trial_index":150,"time_elapsed":346216,"internal_node_id":"0.0-6.0-0.14","subject_id":"5d8e154af2858200171fdb95","study_id":"6197b3f67c2b5cd3b6d9596a","session_id":"619be31c67b5e7e91deefb39","condition":"full-information","relevant_dimensions":["pattern","legs"],"bee_group":{"antennae":"X","wings":"X","pattern":"S","legs":"M"},"bonus":1.680000000000001},{"rt":841.5,"stimulus":"bees-with-color/bee-A1DM.svg","response":1,"trial_type":"image-button-response","trial_index":151,"time_elapsed":347060,"internal_node_id":"0.0-6.0-0.15","subject_id":"5d8e154af2858200171fdb95","study_id":"6197b3f67c2b5cd3b6d9596a","session_id":"619be31c67b5e7e91deefb39","condition":"full-information","relevant_dimensions":["pattern","legs"],"bee_group":{"antennae":"X","wings":"X","pattern":"S","legs":"M"},"bonus":1.680000000000001},{"rt":1771.8999998569489,"stimulus":"bees-with-color/bee-B1SF.svg","response":0,"trial_type":"image-button-response","trial_index":152,"time_elapsed":348833,"internal_node_id":"0.0-6.0-0.16","subject_id":"5d8e154af2858200171fdb95","study_id":"6197b3f67c2b5cd3b6d9596a","session_id":"619be31c67b5e7e91deefb39","condition":"full-information","relevant_dimensions":["pattern","legs"],"bee_group":{"antennae":"X","wings":"X","pattern":"S","legs":"M"},"bonus":1.680000000000001},{"rt":667.5999999046326,"stimulus":"bees-with-color/bee-B1DF.svg","response":0,"trial_type":"image-button-response","trial_index":153,"time_elapsed":349503,"internal_node_id":"0.0-6.0-0.17","subject_id":"5d8e154af2858200171fdb95","study_id":"6197b3f67c2b5cd3b6d9596a","session_id":"619be31c67b5e7e91deefb39","condition":"full-information","relevant_dimensions":["pattern","legs"],"bee_group":{"antennae":"X","wings":"X","pattern":"S","legs":"M"},"bonus":1.680000000000001},{"rt":798,"stimulus":"bees-with-color/bee-A1SM.svg","response":1,"trial_type":"image-button-response","trial_index":154,"time_elapsed":350305,"internal_node_id":"0.0-6.0-0.18","subject_id":"5d8e154af2858200171fdb95","study_id":"6197b3f67c2b5cd3b6d9596a","session_id":"619be31c67b5e7e91deefb39","condition":"full-information","relevant_dimensions":["pattern","legs"],"bee_group":{"antennae":"X","wings":"X","pattern":"S","legs":"M"},"bonus":1.680000000000001},{"rt":1096.4000000953674,"stimulus":"bees-with-color/bee-A1SF.svg","response":0,"trial_type":"image-button-response","trial_index":155,"time_elapsed":351403,"internal_node_id":"0.0-6.0-0.19","subject_id":"5d8e154af2858200171fdb95","study_id":"6197b3f67c2b5cd3b6d9596a","session_id":"619be31c67b5e7e91deefb39","condition":"full-information","relevant_dimensions":["pattern","legs"],"bee_group":{"antennae":"X","wings":"X","pattern":"S","legs":"M"},"bonus":1.680000000000001},{"rt":2001.0999999046326,"stimulus":"bees-with-color/bee-A1DM.svg","response":0,"trial_type":"image-button-response","trial_index":156,"time_elapsed":353407,"internal_node_id":"0.0-6.0-0.20","subject_id":"5d8e154af2858200171fdb95","study_id":"6197b3f67c2b5cd3b6d9596a","session_id":"619be31c67b5e7e91deefb39","condition":"full-information","relevant_dimensions":["pattern","legs"],"bee_group":{"antennae":"X","wings":"X","pattern":"S","legs":"M"},"bonus":1.680000000000001},{"rt":790.3999998569489,"stimulus":"bees-with-color/bee-A2DM.svg","response":0,"trial_type":"image-button-response","trial_index":157,"time_elapsed":354201,"internal_node_id":"0.0-6.0-0.21","subject_id":"5d8e154af2858200171fdb95","study_id":"6197b3f67c2b5cd3b6d9596a","session_id":"619be31c67b5e7e91deefb39","condition":"full-information","relevant_dimensions":["pattern","legs"],"bee_group":{"antennae":"X","wings":"X","pattern":"S","legs":"M"},"bonus":1.680000000000001},{"rt":1229.2999999523163,"stimulus":"bees-with-color/bee-B1SM.svg","response":1,"trial_type":"image-button-response","trial_index":158,"time_elapsed":355433,"internal_node_id":"0.0-6.0-0.22","subject_id":"5d8e154af2858200171fdb95","study_id":"6197b3f67c2b5cd3b6d9596a","session_id":"619be31c67b5e7e91deefb39","cond