[{"success":true,"trial_type":"fullscreen","trial_index":0,"time_elapsed":3796,"internal_node_id":"0.0-0.0","subject_id":"5d67b6d92b7448000173d95a","study_id":"6197b3f67c2b5cd3b6d9596a","session_id":"6197c74d23edbbf10a4ce35f","condition":"full-information","relevant_dimensions":["wings","pattern"],"bee_group":{"antennae":"X","wings":"2","pattern":"D","legs":"X"},"bonus":0.760000000000001},{"success":true,"timeout":false,"failed_images":[],"failed_audio":[],"failed_video":[],"trial_type":"preload","trial_index":1,"time_elapsed":5389,"internal_node_id":"0.0-1.0","subject_id":"5d67b6d92b7448000173d95a","study_id":"6197b3f67c2b5cd3b6d9596a","session_id":"6197c74d23edbbf10a4ce35f","condition":"full-information","relevant_dimensions":["wings","pattern"],"bee_group":{"antennae":"X","wings":"2","pattern":"D","legs":"X"},"bonus":0.760000000000001},{"rt":1433.2000000029802,"stimulus":"Welcome! Press any key to begin.","response":" ","trial_type":"html-keyboard-response","trial_index":2,"time_elapsed":6822,"internal_node_id":"0.0-2.0","subject_id":"5d67b6d92b7448000173d95a","study_id":"6197b3f67c2b5cd3b6d9596a","session_id":"6197c74d23edbbf10a4ce35f","condition":"full-information","relevant_dimensions":["wings","pattern"],"bee_group":{"antennae":"X","wings":"2","pattern":"D","legs":"X"},"bonus":0.760000000000001},{"view_history":[{"page_index":0,"viewing_time":4022.5},{"page_index":1,"viewing_time":11396},{"page_index":2,"viewing_time":10173.29999999702},{"page_index":3,"viewing_time":11747.29999999702},{"page_index":4,"viewing_time":6166.5},{"page_index":5,"viewing_time":9610.10000000894},{"page_index":6,"viewing_time":14766},{"page_index":7,"viewing_time":5008.79999999702},{"page_index":8,"viewing_time":2614.0999999940395},{"page_index":9,"viewing_time":34313.40000000596},{"page_index":10,"viewing_time":4044.4000000059605},{"page_index":11,"viewing_time":4449.5999999940395},{"page_index":12,"viewing_time":9968.70000000298},{"page_index":13,"viewing_time":1313.0999999940395},{"page_index":14,"viewing_time":2468}],"rt":132061.90000000596,"trial_type":"instructions","trial_index":3,"time_elapsed":138885,"internal_node_id":"0.0-3.0-0.0","subject_id":"5d67b6d92b7448000173d95a","study_id":"6197b3f67c2b5cd3b6d9596a","session_id":"6197c74d23edbbf10a4ce35f","condition":"full-information","relevant_dimensions":["wings","pattern"],"bee_group":{"antennae":"X","wings":"2","pattern":"D","legs":"X"},"bonus":0.760000000000001},{"rt":15287.89999999106,"response":{"Q0":["Two or six legs","Stripes or spots on body","Single or double wings","Antennae or no antennae"]},"question_order":[0],"trial_type":"survey-multi-select","trial_index":4,"time_elapsed":154175,"internal_node_id":"0.0-3.0-1.0","subject_id":"5d67b6d92b7448000173d95a","study_id":"6197b3f67c2b5cd3b6d9596a","session_id":"6197c74d23edbbf10a4ce35f","condition":"full-information","relevant_dimensions":["wings","pattern"],"bee_group":{"antennae":"X","wings":"2","pattern":"D","legs":"X"},"correct":true,"bonus":0.760000000000001},{"rt":23652.60000000894,"response":{"Q1":"No.","Q2":"Based on the four features of the bee.","Q3":"You learn if it was friendly or dangerous, but do not alter your bonus."},"question_order":[0,1,2],"trial_type":"survey-multi-choice","trial_index":5,"time_elapsed":177829,"internal_node_id":"0.0-3.0-2.0","subject_id":"5d67b6d92b7448000173d95a","study_id":"6197b3f67c2b5cd3b6d9596a","session_id":"6197c74d23edbbf10a4ce35f","condition":"full-information","relevant_dimensions":["wings","pattern"],"bee_group":{"antennae":"X","wings":"2","pattern":"D","legs":"X"},"correct":true,"bonus":0.760000000000001},{"rt":2518.8999999910593,"stimulus":"<p>Congrats, you got everything right<br>When you're ready, click the button below to continue to the experiment.</p>","response":0,"trial_type":"html-button-response","trial_index":6,"time_elapsed":180351,"internal_node_id":"0.0-3.0-3.0","subject_id":"5d67b6d92b7448000173d95a","study_id":"6197b3f67c2b5cd3b6d9596a","session_id":"6197c74d23edbbf10a4ce35f","condition":"full-information","relevant_dimensions":["wings","pattern"],"bee_group":{"antennae":"X","wings":"2","pattern":"D","legs":"X"},"bonus":0.760000000000001},{"rt":10125,"stimulus":"bees-with-color/bee-B2DF.svg","response":1,"trial_type":"image-button-response","trial_index":7,"time_elapsed":190477,"internal_node_id":"0.0-4.0-0.0","subject_id":"5d67b6d92b7448000173d95a","study_id":"6197b3f67c2b5cd3b6d9596a","session_id":"6197c74d23edbbf10a4ce35f","condition":"full-information","relevant_dimensions":["wings","pattern"],"bee_group":{"antennae":"X","wings":"2","pattern":"D","legs":"X"},"action":"avoid","summary":"good-avoid","bonus":0.760000000000001},{"rt":12976.59999999404,"stimulus":"\n                    <p><b>Action: <em>avoid</em></b></p>\n                    <p>This is the bee that you just saw.</p>\n                    <img src=\"bees-with-color/bee-B2DF.svg\" width=\"200\">\n                    <p><span class=\"greenText\">Good choice!</span>  This bee would have stung you.<br>Your bonus pay is unchanged, and remains at $0.54.</p>\n            ","response":0,"trial_type":"html-button-response","trial_index":8,"time_elapsed":203455,"internal_node_id":"0.0-4.0-1.0","subject_id":"5d67b6d92b7448000173d95a","study_id":"6197b3f67c2b5cd3b6d9596a","session_id":"6197c74d23edbbf10a4ce35f","condition":"full-information","relevant_dimensions":["wings","pattern"],"bee_group":{"antennae":"X","wings":"2","pattern":"D","legs":"X"},"bonus":0.760000000000001},{"rt":2016.0999999940395,"stimulus":"bees-with-color/bee-A2SM.svg","response":1,"trial_type":"image-button-response","trial_index":9,"time_elapsed":205472,"internal_node_id":"0.0-4.0-0.1","subject_id":"5d67b6d92b7448000173d95a","study_id":"6197b3f67c2b5cd3b6d9596a","session_id":"6197c74d23edbbf10a4ce35f","condition":"full-information","relevant_dimensions":["wings","pattern"],"bee_group":{"antennae":"X","wings":"2","pattern":"D","legs":"X"},"action":"avoid","summary":"bad-avoid","bonus":0.760000000000001},{"rt":40643.10000000894,"stimulus":"\n                    <p><b>Action: <em>avoid</em></b></p>\n                    <p>This is the bee that you just saw.</p>\n                    <img src=\"bees-with-color/bee-A2SM.svg\" width=\"200\">\n                    <p><span class=\"redText\">Bad choice,</span> the bee was friendly.<br>Your bonus pay is unchanged, and remains at $0.54.</p>\n            ","response":0,"trial_type":"html-button-response","trial_index":10,"time_elapsed":246117,"internal_node_id":"0.0-4.0-1.1","subject_id":"5d67b6d92b7448000173d95a","study_id":"6197b3f67c2b5cd3b6d9596a","session_id":"6197c74d23edbbf10a4ce35f","condition":"full-information","relevant_dimensions":["wings","pattern"],"bee_group":{"antennae":"X","wings":"2","pattern":"D","legs":"X"},"bonus":0.760000000000001},{"rt":1284.5999999940395,"stimulus":"bees-with-color/bee-A1DF.svg","response":1,"trial_type":"image-button-response","trial_index":11,"time_elapsed":247402,"internal_node_id":"0.0-4.0-0.2","subject_id":"5d67b6d92b7448000173d95a","study_id":"6197b3f67c2b5cd3b6d9596a","session_id":"6197c74d23edbbf10a4ce35f","condition":"full-information","relevant_dimensions":["wings","pattern"],"bee_group":{"antennae":"X","wings":"2","pattern":"D","legs":"X"},"action":"avoid","summary":"bad-avoid","bonus":0.760000000000001},{"rt":6480.20000000298,"stimulus":"\n                    <p><b>Action: <em>avoid</em></b></p>\n                    <p>This is the bee that you just saw.</p>\n                    <img src=\"bees-with-color/bee-A1DF.svg\" width=\"200\">\n                    <p><span class=\"redText\">Bad choice,</span> the bee was friendly.<br>Your bonus pay is unchanged, and remains at $0.54.</p>\n            ","response":0,"trial_type":"html-button-response","trial_index":12,"time_elapsed":253883,"internal_node_id":"0.0-4.0-1.2","subject_id":"5d67b6d92b7448000173d95a","study_id":"6197b3f67c2b5cd3b6d9596a","session_id":"6197c74d23edbbf10a4ce35f","condition":"full-information","relevant_dimensions":["wings","pattern"],"bee_group":{"antennae":"X","wings":"2","pattern":"D","legs":"X"},"bonus":0.760000000000001},{"rt":3484.4000000059605,"stimulus":"bees-with-color/bee-B2SM.svg","response":1,"trial_type":"image-button-response","trial_index":13,"time_elapsed":257368,"internal_node_id":"0.0-4.0-0.3","subject_id":"5d67b6d92b7448000173d95a","study_id":"6197b3f67c2b5cd3b6d9596a","session_id":"6197c74d23edbbf10a4ce35f","condition":"full-information","relevant_dimensions":["wings","pattern"],"bee_group":{"antennae":"X","wings":"2","pattern":"D","legs":"X"},"action":"avoid","summary":"bad-avoid","bonus":0.760000000000001},{"rt":1955.5,"stimulus":"\n                    <p><b>Action: <em>avoid</em></b></p>\n                    <p>This is the bee that you just saw.</p>\n                    <img src=\"bees-with-color/bee-B2SM.svg\" width=\"200\">\n                    <p><span class=\"redText\">Bad choice,</span> the bee was friendly.<br>Your bonus pay is unchanged, and remains at $0.54.</p>\n            ","response":0,"trial_type":"html-button-response","trial_index":14,"time_elapsed":259325,"internal_node_id":"0.0-4.0-1.3","subject_id":"5d67b6d92b7448000173d95a","study_id":"6197b3f67c2b5cd3b6d9596a","session_id":"6197c74d23edbbf10a4ce35f","condition":"full-information","relevant_dimensions":["wings","pattern"],"bee_group":{"antennae":"X","wings":"2","pattern":"D","legs":"X"},"bonus":0.760000000000001},{"rt":4155.5999999940395,"stimulus":"bees-with-color/bee-A1DM.svg","response":1,"trial_type":"image-button-response","trial_index":15,"time_elapsed":263481,"internal_node_id":"0.0-4.0-0.4","subject_id":"5d67b6d92b7448000173d95a","study_id":"6197b3f67c2b5cd3b6d9596a","session_id":"6197c74d23edbbf10a4ce35f","condition":"full-information","relevant_dimensions":["wings","pattern"],"bee_group":{"antennae":"X","wings":"2","pattern":"D","legs":"X"},"action":"avoid","summary":"bad-avoid","bonus":0.760000000000001},{"rt":1333.5999999940395,"stimulus":"\n                    <p><b>Action: <em>avoid</em></b></p>\n                    <p>This is the bee that you just saw.</p>\n                    <img src=\"bees-with-color/bee-A1DM.svg\" width=\"200\">\n                    <p><span class=\"redText\">Bad choice,</span> the bee was friendly.<br>Your bonus pay is unchanged, and remains at $0.54.</p>\n            ","response":0,"trial_type":"html-button-response","trial_index":16,"time_elapsed":264815,"internal_node_id":"0.0-4.0-1.4","subject_id":"5d67b6d92b7448000173d95a","study_id":"6197b3f67c2b5cd3b6d9596a","session_id":"6197c74d23edbbf10a4ce35f","condition":"full-information","relevant_dimensions":["wings","pattern"],"bee_group":{"antennae":"X","wings":"2","pattern":"D","legs":"X"},"bonus":0.760000000000001},{"rt":2130.0999999940395,"stimulus":"bees-with-color/bee-B1DM.svg","response":1,"trial_type":"image-button-response","trial_index":17,"time_elapsed":266946,"internal_node_id":"0.0-4.0-0.5","subject_id":"5d67b6d92b7448000173d95a","study_id":"6197b3f67c2b5cd3b6d9596a","session_id":"6197c74d23edbbf10a4ce35f","condition":"full-information","relevant_dimensions":["wings","pattern"],"bee_group":{"antennae":"X","wings":"2","pattern":"D","legs":"X"},"action":"avoid","summary":"bad-avoid","bonus":0.760000000000001},{"rt":875,"stimulus":"\n                    <p><b>Action: <em>avoid</em></b></p>\n                    <p>This is the bee that you just saw.</p>\n                    <img src=\"bees-with-color/bee-B1DM.svg\" width=\"200\">\n                    <p><span class=\"redText\">Bad choice,</span> the bee was friendly.<br>Your bonus pay is unchanged, and remains at $0.54.</p>\n            ","response":0,"trial_type":"html-button-response","trial_index":18,"time_elapsed":267822,"internal_node_id":"0.0-4.0-1.5","subject_id":"5d67b6d92b7448000173d95a","study_id":"6197b3f67c2b5cd3b6d9596a","session_id":"6197c74d23edbbf10a4ce35f","condition":"full-information","relevant_dimensions":["wings","pattern"],"bee_group":{"antennae":"X","wings":"2","pattern":"D","legs":"X"},"bonus":0.760000000000001},{"rt":1065.2999999970198,"stimulus":"bees-with-color/bee-B1DF.svg","response":0,"trial_type":"image-button-response","trial_index":19,"time_elapsed":268888,"internal_node_id":"0.0-4.0-0.6","subject_id":"5d67b6d92b7448000173d95a","study_id":"6197b3f67c2b5cd3b6d9596a","session_id":"6197c74d23edbbf10a4ce35f","condition":"full-information","relevant_dimensions":["wings","pattern"],"bee_group":{"antennae":"X","wings":"2","pattern":"D","legs":"X"},"action":"harvest","summary":"good-harvest","bonus":0.760000000000001},{"rt":1587.4000000059605,"stimulus":"\n                    <p><b>Action: <em>harvest</em></b></p>\n                    <p>This is the bee that you just saw.</p>\n                    <img src=\"bees-with-color/bee-B1DF.svg\" width=\"200\">\n                    <p><span class=\"greenText\"><b>Successful harvest!</b></span><br>Your pay has increased by $0.02. Your bonus pay is now $0.56.</p>\n            ","response":0,"trial_type":"html-button-response","trial_index":20,"time_elapsed":270477,"internal_node_id":"0.0-4.0-1.6","subject_id":"5d67b6d92b7448000173d95a","study_id":"6197b3f67c2b5cd3b6d9596a","session_id":"6197c74d23edbbf10a4ce35f","condition":"full-information","relevant_dimensions":["wings","pattern"],"bee_group":{"antennae":"X","wings":"2","pattern":"D","legs":"X"},"bonus":0.760000000000001},{"rt":3570.7999999970198,"stimulus":"bees-with-color/bee-B2DM.svg","response":0,"trial_type":"image-button-response","trial_index":21,"time_elapsed":274048,"internal_node_id":"0.0-4.0-0.7","subject_id":"5d67b6d92b7448000173d95a","study_id":"6197b3f67c2b5cd3b6d9596a","session_id":"6197c74d23edbbf10a4ce35f","condition":"full-information","relevant_dimensions":["wings","pattern"],"bee_group":{"antennae":"X","wings":"2","pattern":"D","legs":"X"},"action":"harvest","summary":"bad-harvest","bonus":0.760000000000001},{"rt":2517.2999999970198,"stimulus":"\n                    <p><b>Action: <em>harvest</em></b></p>\n                    <p>This is the bee that you just saw.</p>\n                    <img src=\"bees-with-color/bee-B2DM.svg\" width=\"200\">\n                    <p><span class=\"redText\">Bad choice, the bee was angry.</span><br><b>You have been stung!</b><br>Your pay has been decreased by $0.10. Your bonus pay is now $0.46.</p>\n            ","response":0,"trial_type":"html-button-response","trial_index":22,"time_elapsed":276567,"internal_node_id":"0.0-4.0-1.7","subject_id":"5d67b6d92b7448000173d95a","study_id":"6197b3f67c2b5cd3b6d9596a","session_id":"6197c74d23edbbf10a4ce35f","condition":"full-information","relevant_dimensions":["wings","pattern"],"bee_group":{"antennae":"X","wings":"2","pattern":"D","legs":"X"},"bonus":0.760000000000001},{"rt":2093.5,"stimulus":"bees-with-color/bee-A1SM.svg","response":0,"trial_type":"image-button-response","trial_index":23,"time_elapsed":278661,"internal_node_id":"0.0-4.0-0.8","subject_id":"5d67b6d92b7448000173d95a","study_id":"6197b3f67c2b5cd3b6d9596a","session_id":"6197c74d23edbbf10a4ce35f","condition":"full-information","relevant_dimensions":["wings","pattern"],"bee_group":{"antennae":"X","wings":"2","pattern":"D","legs":"X"},"action":"harvest","summary":"good-harvest","bonus":0.760000000000001},{"rt":1038.3999999910593,"stimulus":"\n                    <p><b>Action: <em>harvest</em></b></p>\n                    <p>This is the bee that you just saw.</p>\n                    <img src=\"bees-with-color/bee-A1SM.svg\" width=\"200\">\n                    <p><span class=\"greenText\"><b>Successful harvest!</b></span><br>Your pay has increased by $0.02. Your bonus pay is now $0.48.</p>\n            ","response":0,"trial_type":"html-button-response","trial_index":24,"time_elapsed":279701,"internal_node_id":"0.0-4.0-1.8","subject_id":"5d67b6d92b7448000173d95a","study_id":"6197b3f67c2b5cd3b6d9596a","session_id":"6197c74d23edbbf10a4ce35f","condition":"full-information","relevant_dimensions":["wings","pattern"],"bee_group":{"antennae":"X","wings":"2","pattern":"D","legs":"X"},"bonus":0.760000000000001},{"rt":1813.9000000059605,"stimulus":"bees-with-color/bee-A2SF.svg","response":0,"trial_type":"image-button-response","trial_index":25,"time_elapsed":281515,"internal_node_id":"0.0-4.0-0.9","subject_id":"5d67b6d92b7448000173d95a","study_id":"6197b3f67c2b5cd3b6d9596a","session_id":"6197c74d23edbbf10a4ce35f","condition":"full-information","relevant_dimensions":["wings","pattern"],"bee_group":{"antennae":"X","wings":"2","pattern":"D","legs":"X"},"action":"harvest","summary":"good-harvest","bonus":0.760000000000001},{"rt":769.3999999910593,"stimulus":"\n                    <p><b>Action: <em>harvest</em></b></p>\n                    <p>This is the bee that you just saw.</p>\n                    <img src=\"bees-with-color/bee-A2SF.svg\" width=\"200\">\n                    <p><span class=\"greenText\"><b>Successful harvest!</b></span><br>Your pay has increased by $0.02. Your bonus pay is now $0.50.</p>\n            ","response":0,"trial_type":"html-button-response","trial_index":26,"time_elapsed":282285,"internal_node_id":"0.0-4.0-1.9","subject_id":"5d67b6d92b7448000173d95a","study_id":"6197b3f67c2b5cd3b6d9596a","session_id":"6197c74d23edbbf10a4ce35f","condition":"full-information","relevant_dimensions":["wings","pattern"],"bee_group":{"antennae":"X","wings":"2","pattern":"D","legs":"X"},"bonus":0.760000000000001},{"rt":1114.5999999940395,"stimulus":"bees-with-color/bee-A1SF.svg","response":0,"trial_type":"image-button-response","trial_index":27,"time_elapsed":283400,"internal_node_id":"0.0-4.0-0.10","subject_id":"5d67b6d92b7448000173d95a","study_id":"6197b3f67c2b5cd3b6d9596a","session_id":"6197c74d23edbbf10a4ce35f","condition":"full-information","relevant_dimensions":["wings","pattern"],"bee_group":{"antennae":"X","wings":"2","pattern":"D","legs":"X"},"action":"harvest","summary":"good-harvest","bonus":0.760000000000001},{"rt":759.1000000089407,"stimulus":"\n                    <p><b>Action: <em>harvest</em></b></p>\n                    <p>This is the bee that you just saw.</p>\n                    <img src=\"bees-with-color/bee-A1SF.svg\" width=\"200\">\n                    <p><span class=\"greenText\"><b>Successful harvest!</b></span><br>Your pay has increased by $0.02. Your bonus pay is now $0.52.</p>\n            ","response":0,"trial_type":"html-button-response","trial_index":28,"time_elapsed":284160,"internal_node_id":"0.0-4.0-1.10","subject_id":"5d67b6d92b7448000173d95a","study_id":"6197b3f67c2b5cd3b6d9596a","session_id":"6197c74d23edbbf10a4ce35f","condition":"full-information","relevant_dimensions":["wings","pattern"],"bee_group":{"antennae":"X","wings":"2","pattern":"D","legs":"X"},"bonus":0.760000000000001},{"rt":1156.2000000029802,"stimulus":"bees-with-color/bee-A2DM.svg","response":1,"trial_type":"image-button-response","trial_index":29,"time_elapsed":285317,"internal_node_id":"0.0-4.0-0.11","subject_id":"5d67b6d92b7448000173d95a","study_id":"6197b3f67c2b5cd3b6d9596a","session_id":"6197c74d23edbbf10a4ce35f","condition":"full-information","relevant_dimensions":["wings","pattern"],"bee_group":{"antennae":"X","wings":"2","pattern":"D","legs":"X"},"action":"avoid","summary":"good-avoid","bonus":0.760000000000001},{"rt":1499.7999999970198,"stimulus":"\n                    <p><b>Action: <em>avoid</em></b></p>\n                    <p>This is the bee that you just saw.</p>\n                    <img src=\"bees-with-color/bee-A2DM.svg\" width=\"200\">\n                    <p><span class=\"greenText\">Good choice!</span>  This bee would have stung you.<br>Your bonus pay is unchanged, and remains at $0.52.</p>\n            ","response":0,"trial_type":"html-button-response","trial_index":30,"time_elapsed":286818,"internal_node_id":"0.0-4.0-1.11","subject_id":"5d67b6d92b7448000173d95a","study_id":"6197b3f67c2b5cd3b6d9596a","session_id":"6197c74d23edbbf10a4ce35f","condition":"full-information","relevant_dimensions":["wings","pattern"],"bee_group":{"antennae":"X","wings":"2","pattern":"D","legs":"X"},"bonus":0.760000000000001},{"rt":1259,"stimulus":"bees-with-color/bee-B1SM.svg","response":0,"trial_type":"image-button-response","trial_index":31,"time_elapsed":288077,"internal_node_id":"0.0-4.0-0.12","subject_id":"5d67b6d92b7448000173d95a","study_id":"6197b3f67c2b5cd3b6d9596a","session_id":"6197c74d23edbbf10a4ce35f","condition":"full-information","relevant_dimensions":["wings","pattern"],"bee_group":{"antennae":"X","wings":"2","pattern":"D","legs":"X"},"action":"harvest","summary":"good-harvest","bonus":0.760000000000001},{"rt":734,"stimulus":"\n                    <p><b>Action: <em>harvest</em></b></p>\n                    <p>This is the bee that you just saw.</p>\n                    <img src=\"bees-with-color/bee-B1SM.svg\" width=\"200\">\n                    <p><span class=\"greenText\"><b>Successful harvest!</b></span><br>Your pay has increased by $0.02. Your bonus pay is now $0.54.</p>\n            ","response":0,"trial_type":"html-button-response","trial_index":32,"time_elapsed":288812,"internal_node_id":"0.0-4.0-1.12","subject_id":"5d67b6d92b7448000173d95a","study_id":"6197b3f67c2b5cd3b6d9596a","session_id":"6197c74d23edbbf10a4ce35f","condition":"full-information","relevant_dimensions":["wings","pattern"],"bee_group":{"antennae":"X","wings":"2","pattern":"D","legs":"X"},"bonus":0.760000000000001},{"rt":2013.5999999940395,"stimulus":"bees-with-color/bee-A2DF.svg","response":1,"trial_type":"image-button-response","trial_index":33,"time_elapsed":290826,"internal_node_id":"0.0-4.0-0.13","subject_id":"5d67b6d92b7448000173d95a","study_id":"6197b3f67c2b5cd3b6d9596a","session_id":"6197c74d23edbbf10a4ce35f","condition":"full-information","relevant_dimensions":["wings","pattern"],"bee_group":{"antennae":"X","wings":"2","pattern":"D","legs":"X"},"action":"avoid","summary":"good-avoid","bonus":0.760000000000001},{"rt":800,"stimulus":"\n                    <p><b>Action: <em>avoid</em></b></p>\n                    <p>This is the bee that you just saw.</p>\n                    <img src=\"bees-with-color/bee-A2DF.svg\" width=\"200\">\n                    <p><span class=\"greenText\">Good choice!</span>  This bee would have stung you.<br>Your bonus pay is unchanged, and remains at $0.54.</p>\n            ","response":0,"trial_type":"html-button-response","trial_index":34,"time_elapsed":291627,"internal_node_id":"0.0-4.0-1.13","subject_id":"5d67b6d92b7448000173d95a","study_id":"6197b3f67c2b5cd3b6d9596a","session_id":"6197c74d23edbbf10a4ce35f","condition":"full-information","relevant_dimensions":["wings","pattern"],"bee_group":{"antennae":"X","wings":"2","pattern":"D","legs":"X"},"bonus":0.760000000000001},{"rt":1094.5999999940395,"stimulus":"bees-with-color/bee-B1SF.svg","response":0,"trial_type":"image-button-response","trial_index":35,"time_elapsed":292722,"internal_node_id":"0.0-4.0-0.14","subject_id":"5d67b6d92b7448000173d95a","study_id":"6197b3f67c2b5cd3b6d9596a","session_id":"6197c74d23edbbf10a4ce35f","condition":"full-information","relevant_dimensions":["wings","pattern"],"bee_group":{"antennae":"X","wings":"2","pattern":"D","legs":"X"},"action":"harvest","summary":"good-harvest","bonus":0.760000000000001},{"rt":894,"stimulus":"\n                    <p><b>Action: <em>harvest</em></b></p>\n                    <p>This is the bee that you just saw.</p>\n                    <img src=\"bees-with-color/bee-B1SF.svg\" width=\"200\">\n                    <p><span class=\"greenText\"><b>Successful harvest!</b></span><br>Your pay has increased by $0.02. Your bonus pay is now $0.56.</p>\n            ","response":0,"trial_type":"html-button-response","trial_index":36,"time_elapsed":293617,"internal_node_id":"0.0-4.0-1.14","subject_id":"5d67b6d92b7448000173d95a","study_id":"6197b3f67c2b5cd3b6d9596a","session_id":"6197c74d23edbbf10a4ce35f","condition":"full-information","relevant_dimensions":["wings","pattern"],"bee_group":{"antennae":"X","wings":"2","pattern":"D","legs":"X"},"bonus":0.760000000000001},{"rt":1931.2999999970198,"stimulus":"bees-with-color/bee-B2SF.svg","response":0,"trial_type":"image-button-response","trial_index":37,"time_elapsed":295549,"internal_node_id":"0.0-4.0-0.15","subject_id":"5d67b6d92b7448000173d95a","study_id":"6197b3f67c2b5cd3b6d9596a","session_id":"6197c74d23edbbf10a4ce35f","condition":"full-information","relevant_dimensions":["wings","pattern"],"bee_group":{"antennae":"X","wings":"2","pattern":"D","legs":"X"},"action":"harvest","summary":"good-harvest","bonus":0.760000000000001},{"rt":768.1000000089407,"stimulus":"\n                    <p><b>Action: <em>harvest</em></b></p>\n                    <p>This is the bee that you just saw.</p>\n                    <img src=\"bees-with-color/bee-B2SF.svg\" width=\"200\">\n                    <p><span class=\"greenText\"><b>Successful harvest!</b></span><br>Your pay has increased by $0.02. Your bonus pay is now $0.58.</p>\n            ","response":0,"trial_type":"html-button-response","trial_index":38,"time_elapsed":296318,"internal_node_id":"0.0-4.0-1.15","subject_id":"5d67b6d92b7448000173d95a","study_id":"6197b3f67c2b5cd3b6d9596a","session_id":"6197c74d23edbbf10a4ce35f","condition":"full-information","relevant_dimensions":["wings","pattern"],"bee_group":{"antennae":"X","wings":"2","pattern":"D","legs":"X"},"bonus":0.760000000000001},{"rt":4626.5,"stimulus":"bees-with-color/bee-B1DM.svg","response":0,"trial_type":"image-button-response","trial_index":39,"time_elapsed":300945,"internal_node_id":"0.0-4.0-0.16","subject_id":"5d67b6d92b7448000173d95a","study_id":"6197b3f67c2b5cd3b6d9596a","session_id":"6197c74d23edbbf10a4ce35f","condition":"full-information","relevant_dimensions":["wings","pattern"],"bee_group":{"antennae":"X","wings":"2","pattern":"D","legs":"X"},"action":"harvest","summary":"good-harvest","bonus":0.760000000000001},{"rt":774.0999999940395,"stimulus":"\n                    <p><b>Action: <em>harvest</em></b></p>\n                    <p>This is the bee that you just saw.</p>\n                    <img src=\"bees-with-color/bee-B1DM.svg\" width=\"200\">\n                    <p><span class=\"greenText\"><b>Successful harvest!</b></span><br>Your pay has increased by $0.02. Your bonus pay is now $0.60.</p>\n            ","response":0,"trial_type":"html-button-response","trial_index":40,"time_elapsed":301720,"internal_node_id":"0.0-4.0-1.16","subject_id":"5d67b6d92b7448000173d95a","study_id":"6197b3f67c2b5cd3b6d9596a","session_id":"6197c74d23edbbf10a4ce35f","condition":"full-information","relevant_dimensions":["wings","pattern"],"bee_group":{"antennae":"X","wings":"2","pattern":"D","legs":"X"},"bonus":0.760000000000001},{"rt":940.3999999910593,"stimulus":"bees-with-color/bee-B1SF.svg","response":0,"trial_type":"image-button-response","trial_index":41,"time_elapsed":302661,"internal_node_id":"0.0-4.0-0.17","subject_id":"5d67b6d92b7448000173d95a","study_id":"6197b3f67c2b5cd3b6d9596a","session_id":"6197c74d23edbbf10a4ce35f","condition":"full-information","relevant_dimensions":["wings","pattern"],"bee_group":{"antennae":"X","wings":"2","pattern":"D","legs":"X"},"action":"harvest","summary":"good-harvest","bonus":0.760000000000001},{"rt":472.59999999403954,"stimulus":"\n                    <p><b>Action: <em>harvest</em></b></p>\n                    <p>This is the bee that you just saw.</p>\n                    <img src=\"bees-with-color/bee-B1SF.svg\" width=\"200\">\n                    <p><span class=\"greenText\"><b>Successful harvest!</b></span><br>Your pay has increased by $0.02. Your bonus pay is now $0.62.</p>\n            ","response":0,"trial_type":"html-button-response","trial_index":42,"time_elapsed":303134,"internal_node_id":"0.0-4.0-1.17","subject_id":"5d67b6d92b7448000173d95a","study_id":"6197b3f67c2b5cd3b6d9596a","session_id":"6197c74d23edbbf10a4ce35f","condition":"full-information","relevant_dimensions":["wings","pattern"],"bee_group":{"antennae":"X","wings":"2","pattern":"D","legs":"X"},"bonus":0.760000000000001},{"rt":784.2000000029802,"stimulus":"bees-with-color/bee-A1SF.svg","response":0,"trial_type":"image-button-response","trial_index":43,"time_elapsed":303919,"internal_node_id":"0.0-4.0-0.18","subject_id":"5d67b6d92b7448000173d95a","study_id":"6197b3f67c2b5cd3b6d9596a","session_id":"6197c74d23edbbf10a4ce35f","condition":"full-information","relevant_dimensions":["wings","pattern"],"bee_group":{"antennae":"X","wings":"2","pattern":"D","legs":"X"},"action":"harvest","summary":"good-harvest","bonus":0.760000000000001},{"rt":508.1000000089407,"stimulus":"\n                    <p><b>Action: <em>harvest</em></b></p>\n                    <p>This is the bee that you just saw.</p>\n                    <img src=\"bees-with-color/bee-A1SF.svg\" width=\"200\">\n                    <p><span class=\"greenText\"><b>Successful harvest!</b></span><br>Your pay has increased by $0.02. Your bonus pay is now $0.64.</p>\n            ","response":0,"trial_type":"html-button-response","trial_index":44,"time_elapsed":304428,"internal_node_id":"0.0-4.0-1.18","subject_id":"5d67b6d92b7448000173d95a","study_id":"6197b3f67c2b5cd3b6d9596a","session_id":"6197c74d23edbbf10a4ce35f","condition":"full-information","relevant_dimensions":["wings","pattern"],"bee_group":{"antennae":"X","wings":"2","pattern":"D","legs":"X"},"bonus":0.760000000000001},{"rt":762.5,"stimulus":"bees-with-color/bee-A1SM.svg","response":0,"trial_type":"image-button-response","trial_index":45,"time_elapsed":305191,"internal_node_id":"0.0-4.0-0.19","subject_id":"5d67b6d92b7448000173d95a","study_id":"6197b3f67c2b5cd3b6d9596a","session_id":"6197c74d23edbbf10a4ce35f","condition":"full-information","relevant_dimensions":["wings","pattern"],"bee_group":{"antennae":"X","wings":"2","pattern":"D","legs":"X"},"action":"harvest","summary":"good-harvest","bonus":0.760000000000001},{"rt":532.6999999880791,"stimulus":"\n                    <p><b>Action: <em>harvest</em></b></p>\n                    <p>This is the bee that you just saw.</p>\n                    <img src=\"bees-with-color/bee-A1SM.svg\" width=\"200\">\n                    <p><span class=\"greenText\"><b>Successful harvest!</b></span><br>Your pay has increased by $0.02. Your bonus pay is now $0.66.</p>\n            ","response":0,"trial_type":"html-button-response","trial_index":46,"time_elapsed":305725,"internal_node_id":"0.0-4.0-1.19","subject_id":"5d67b6d92b7448000173d95a","study_id":"6197b3f67c2b5cd3b6d9596a","session_id":"6197c74d23edbbf10a4ce35f","condition":"full-information","relevant_dimensions":["wings","pattern"],"bee_group":{"antennae":"X","wings":"2","pattern":"D","legs":"X"},"bonus":0.760000000000001},{"rt":1394,"stimulus":"bees-with-color/bee-B2DM.svg","response":0,"trial_type":"image-button-response","trial_index":47,"time_elapsed":307120,"internal_node_id":"0.0-4.0-0.20","subject_id":"5d67b6d92b7448000173d95a","study_id":"6197b3f67c2b5cd3b6d9596a","session_id":"6197c74d23edbbf10a4ce35f","condition":"full-information","relevant_dimensions":["wings","pattern"],"bee_group":{"antennae":"X","wings":"2","pattern":"D","legs":"X"},"action":"harvest","summary":"bad-harvest","bonus":0.760000000000001},{"rt":2259.5999999940395,"stimulus":"\n                    <p><b>Action: <em>harvest</em></b></p>\n                    <p>This is the bee that you just saw.</p>\n                    <img src=\"bees-with-color/bee-B2DM.svg\" width=\"200\">\n                    <p><span class=\"redText\">Bad choice, the bee was angry.</span><br><b>You have been stung!</b><br>Your pay has been decreased by $0.10. Your bonus pay is now $0.56.</p>\n            ","response":0,"trial_type":"html-button-response","trial_index":48,"time_elapsed":309380,"internal_node_id":"0.0-4.0-1.20","subject_id":"5d67b6d92b7448000173d95a","study_id":"6197b3f67c2b5cd3b6d9596a","session_id":"6197c74d23edbbf10a4ce35f","condition":"full-information","relevant_dimensions":["wings","pattern"],"bee_group":{"antennae":"X","wings":"2","pattern":"D","legs":"X"},"bonus":0.760000000000001},{"rt":1270.7000000029802,"stimulus":"bees-with-color/bee-A2SM.svg","response":0,"trial_type":"image-button-response","trial_index":49,"time_elapsed":310651,"internal_node_id":"0.0-4.0-0.21","subject_id":"5d67b6d92b7448000173d95a","study_id":"6197b3f67c2b5cd3b6d9596a","session_id":"6197c74d23edbbf10a4ce35f","condition":"full-information","relevant_dimensions":["wings","pattern"],"bee_group":{"antennae":"X","wings":"2","pattern":"D","legs":"X"},"action":"harvest","summary":"good-harvest","bonus":0.760000000000001},{"rt":712.3999999910593,"stimulus":"\n                    <p><b>Action: <em>harvest</em></b></p>\n                    <p>This is the bee that you just saw.</p>\n                    <img src=\"bees-with-color/bee-A2SM.svg\" width=\"200\">\n                    <p><span class=\"greenText\"><b>Successful harvest!</b></span><br>Your pay has increased by $0.02. Your bonus pay is now $0.58.</p>\n            ","response":0,"trial_type":"html-button-response","trial_index":50,"time_elapsed":311365,"internal_node_id":"0.0-4.0-1.21","subject_id":"5d67b6d92b7448000173d95a","study_id":"6197b3f67c2b5cd3b6d9596a","session_id":"6197c74d23edbbf10a4ce35f","condition":"full-information","relevant_dimensions":["wings","pattern"],"bee_group":{"antennae":"X","wings":"2","pattern":"D","legs":"X"},"bonus":0.760000000000001},{"rt":1172.5,"stimulus":"bees-with-color/bee-A2DF.svg","response":0,"trial_type":"image-button-response","trial_index":51,"time_elapsed":312538,"internal_node_id":"0.0-4.0-0.22","subject_id":"5d67b6d92b7448000173d95a","study_id":"6197b3f67c2b5cd3b6d9596a","session_id":"6197c74d23edbbf10a4ce35f","condition":"full-information","relevant_dimensions":["wings","pattern"],"bee_group":{"antennae":"X","wings":"2","pattern":"D","legs":"X"},"action":"harvest","summary":"bad-harvest","bonus":0.760000000000001},{"rt":1757.2000000029802,"stimulus":"\n                    <p><b>Action: <em>harvest</em></b></p>\n                    <p>This is the bee that you just saw.</p>\n                    <img src=\"bees-with-color/bee-A2DF.svg\" width=\"200\">\n                    <p><span class=\"redText\">Bad choice, the bee was angry.</span><br><b>You have been stung!</b><br>Your pay has been decreased by $0.10. Your bonus pay is now $0.48.</p>\n            ","response":0,"trial_type":"html-button-response","trial_index":52,"time_elapsed":314296,"internal_node_id":"0.0-4.0-1.22","subject_id":"5d67b6d92b7448000173d95a","study_id":"6197b3f67c2b5cd3b6d9596a","session_id":"6197c74d23edbbf10a4ce35f","condition":"full-information","relevant_dimensions":["wings","pattern"],"bee_group":{"antennae":"X","wings":"2","pattern":"D","legs":"X"},"bonus":0.760000000000001},{"rt":1199.8999999910593,"stimulus":"bees-with-color/bee-B1DF.svg","response":0,"trial_type":"image-button-response","trial_index":53,"time_elapsed":315497,"internal_node_id":"0.0-4.0-0.23","subject_id":"5d67b6d92b7448000173d95a","study_id":"6197b3f67c2b5cd3b6d9596a","session_id":"6197c74d23edbbf10a4ce35f","condition":"full-information","relevant_dimensions":["wings","pattern"],"bee_group":{"antennae":"X","wings":"2","pattern":"D","legs":"X"},"action":"harvest","summary":"good-harvest","bonus":0.760000000000001},{"rt":650.2000000029802,"stimulus":"\n                    <p><b>Action: <em>harvest</em></b></p>\n                    <p>This is the bee that you just saw.</p>\n                    <img src=\"bees-with-color/bee-B1DF.svg\" width=\"200\">\n                    <p><span class=\"greenText\"><b>Successful harvest!</b></span><br>Your pay has increased by $0.02. Your bonus pay is now $0.50.</p>\n            ","response":0,"trial_type":"html-button-response","trial_index":54,"time_elapsed":316148,"internal_node_id":"0.0-4.0-1.23","subject_id":"5d67b6d92b7448000173d95a","study_id":"6197b3f67c2b5cd3b6d9596a","session_id":"6197c74d23edbbf10a4ce35f","condition":"full-information","relevant_dimensions":["wings","pattern"],"bee_group":{"antennae":"X","wings":"2","pattern":"D","legs":"X"},"bonus":0.760000000000001},{"rt":5661.29999999702,"stimulus":"bees-with-color/bee-A2SF.svg","response":0,"trial_type":"image-button-response","trial_index":55,"time_elapsed":321809,"internal_node_id":"0.0-4.0-0.24","subject_id":"5d67b6d92b7448000173d95a","study_id":"6197b3f67c2b5cd3b6d9596a","session_id":"6197c74d23edbbf10a4ce35f","condition":"full-information","relevant_dimensions":["wings","pattern"],"bee_group":{"antennae":"X","wings":"2","pattern":"D","legs":"X"},"action":"harvest","summary":"good-harvest","bonus":0.760000000000001},{"rt":562.5,"stimulus":"\n                    <p><b>Action: <em>harvest</em></b></p>\n                    <p>This is the bee that you just saw.</p>\n                    <img src=\"bees-with-color/bee-A2SF.svg\" width=\"200\">\n                    <p><span class=\"greenText\"><b>Successful harvest!</b></span><br>Your pay has increased by $0.02. Your bonus pay is now $0.52.</p>\n            ","response":0,"trial_type":"html-button-response","trial_index":56,"time_elapsed":322373,"internal_node_id":"0.0-4.0-1.24","subject_id":"5d67b6d92b7448000173d95a","study_id":"6197b3f67c2b5cd3b6d9596a","session_id":"6197c74d23edbbf10a4ce35f","condition":"full-information","relevant_dimensions":["wings","pattern"],"bee_group":{"antennae":"X","wings":"2","pattern":"D","legs":"X"},"bonus":0.760000000000001},{"rt":1165.7999999970198,"stimulus":"bees-with-color/bee-B2SF.svg","response":0,"trial_type":"image-button-response","trial_index":57,"time_elapsed":323539,"internal_node_id":"0.0-4.0-0.25","subject_id":"5d67b6d92b7448000173d95a","study_id":"6197b3f67c2b5cd3b6d9596a","session_id":"6197c74d23edbbf10a4ce35f","condition":"full-information","relevant_dimensions":["wings","pattern"],"bee_group":{"antennae":"X","wings":"2","pattern":"D","legs":"X"},"action":"harvest","summary":"good-harvest","bonus":0.760000000000001},{"rt":659.7000000029802,"stimulus":"\n                    <p><b>Action: <em>harvest</em></b></p>\n                    <p>This is the bee that you just saw.</p>\n                    <img src=\"bees-with-color/bee-B2SF.svg\" width=\"200\">\n                    <p><span class=\"greenText\"><b>Successful harvest!</b></span><br>Your pay has increased by $0.02. Your bonus pay is now $0.54.</p>\n            ","response":0,"trial_type":"html-button-response","trial_index":58,"time_elapsed":324200,"internal_node_id":"0.0-4.0-1.25","subject_id":"5d67b6d92b7448000173d95a","study_id":"6197b3f67c2b5cd3b6d9596a","session_id":"6197c74d23edbbf10a4ce35f","condition":"full-information","relevant_dimensions":["wings","pattern"],"bee_group":{"antennae":"X","wings":"2","pattern":"D","legs":"X"},"bonus":0.760000000000001},{"rt":3031.1000000089407,"stimulus":"bees-with-color/bee-B2DF.svg","response":1,"trial_type":"image-button-response","trial_index":59,"time_elapsed":327231,"internal_node_id":"0.0-4.0-0.26","subject_id":"5d67b6d92b7448000173d95a","study_id":"6197b3f67c2b5cd3b6d9596a","session_id":"6197c74d23edbbf10a4ce35f","condition":"full-information","relevant_dimensions":["wings","pattern"],"bee_group":{"antennae":"X","wings":"2","pattern":"D","legs":"X"},"action":"avoid","summary":"good-avoid","bonus":0.760000000000001},{"rt":1498.5,"stimulus":"\n                    <p><b>Action: <em>avoid</em></b></p>\n                    <p>This is the bee that you just saw.</p>\n                    <img src=\"bees-with-color/bee-B2DF.svg\" width=\"200\">\n                    <p><span class=\"greenText\">Good choice!</span>  This bee would have stung you.<br>Your bonus pay is unchanged, and remains at $0.54.</p>\n            ","response":0,"trial_type":"html-button-response","trial_index":60,"time_elapsed":328731,"internal_node_id":"0.0-4.0-1.26","subject_id":"5d67b6d92b7448000173d95a","study_id":"6197b3f67c2b5cd3b6d9596a","session_id":"6197c74d23edbbf10a4ce35f","condition":"full-information","relevant_dimensions":["wings","pattern"],"bee_group":{"antennae":"X","wings":"2","pattern":"D","legs":"X"},"bonus":0.760000000000001},{"rt":1532.2999999970198,"stimulus":"bees-with-color/bee-A1DM.svg","response":1,"trial_type":"image-button-response","trial_index":61,"time_elapsed":330264,"internal_node_id":"0.0-4.0-0.27","subject_id":"5d67b6d92b7448000173d95a","study_id":"6197b3f67c2b5cd3b6d9596a","session_id":"6197c74d23edbbf10a4ce35f","condition":"full-information","relevant_dimensions":["wings","pattern"],"bee_group":{"antennae":"X","wings":"2","pattern":"D","legs":"X"},"action":"avoid","summary":"bad-avoid","bonus":0.760000000000001},{"rt":787.0999999940395,"stimulus":"\n                    <p><b>Action: <em>avoid</em></b></p>\n                    <p>This is the bee that you just saw.</p>\n                    <img src=\"bees-with-color/bee-A1DM.svg\" width=\"200\">\n                    <p><span class=\"redText\">Bad choice,</span> the bee was friendly.<br>Your bonus pay is unchanged, and remains at $0.54.</p>\n            ","response":0,"trial_type":"html-button-response","trial_index":62,"time_elapsed":331052,"internal_node_id":"0.0-4.0-1.27","subject_id":"5d67b6d92b7448000173d95a","study_id":"6197b3f67c2b5cd3b6d9596a","session_id":"6197c74d23edbbf10a4ce35f","condition":"full-information","relevant_dimensions":["wings","pattern"],"bee_group":{"antennae":"X","wings":"2","pattern":"D","legs":"X"},"bonus":0.760000000000001},{"rt":1712.5999999940395,"stimulus":"bees-with-color/bee-B1SM.svg","response":1,"trial_type":"image-button-response","trial_index":63,"time_elapsed":332765,"internal_node_id":"0.0-4.0-0.28","subject_id":"5d67b6d92b7448000173d95a","study_id":"6197b3f67c2b5cd3b6d9596a","session_id":"6197c74d23edbbf10a4ce35f","condition":"full-information","relevant_dimensions":["wings","pattern"],"bee_group":{"antennae":"X","wings":"2","pattern":"D","legs":"X"},"action":"avoid","summary":"bad-avoid","bonus":0.760000000000001},{"rt":873,"stimulus":"\n                    <p><b>Action: <em>avoid</em></b></p>\n                    <p>This is the bee that you just saw.</p>\n                    <img src=\"bees-with-color/bee-B1SM.svg\" width=\"200\">\n                    <p><span class=\"redText\">Bad choice,</span> the bee was friendly.<br>Your bonus pay is unchanged, and remains at $0.54.</p>\n            ","response":0,"trial_type":"html-button-response","trial_index":64,"time_elapsed":333639,"internal_node_id":"0.0-4.0-1.28","subject_id":"5d67b6d92b7448000173d95a","study_id":"6197b3f67c2b5cd3b6d9596a","session_id":"6197c74d23edbbf10a4ce35f","condition":"full-information","relevant_dimensions":["wings","pattern"],"bee_group":{"antennae":"X","wings":"2","pattern":"D","legs":"X"},"bonus":0.760000000000001},{"rt":1241.2000000029802,"stimulus":"bees-with-color/bee-A2DM.svg","response":1,"trial_type":"image-button-response","trial_index":65,"time_elapsed":334881,"internal_node_id":"0.0-4.0-0.29","subject_id":"5d67b6d92b7448000173d95a","study_id":"6197b3f67c2b5cd3b6d9596a","session_id":"6197c74d23edbbf10a4ce35f","condition":"full-information","relevant_dimensions":["wings","pattern"],"bee_group":{"antennae":"X","wings":"2","pattern":"D","legs":"X"},"action":"avoid","summary":"good-avoid","bonus":0.760000000000001},{"rt":767.5,"stimulus":"\n                    <p><b>Action: <em>avoid</em></b></p>\n                    <p>This is the bee that you just saw.</p>\n                    <img src=\"bees-with-color/bee-A2DM.svg\" width=\"200\">\n                    <p><span class=\"greenText\">Good choice!</span>  This bee would have stung you.<br>Your bonus pay is unchanged, and remains at $0.54.</p>\n            ","response":0,"trial_type":"html-button-response","trial_index":66,"time_elapsed":335649,"internal_node_id":"0.0-4.0-1.29","subject_id":"5d67b6d92b7448000173d95a","study_id":"6197b3f67c2b5cd3b6d9596a","session_id":"6197c74d23edbbf10a4ce35f","condition":"full-information","relevant_dimensions":["wings","pattern"],"bee_group":{"antennae":"X","wings":"2","pattern":"D","legs":"X"},"bonus":0.760000000000001},{"rt":1827.7999999970198,"stimulus":"bees-with-color/bee-A1DF.svg","response":0,"trial_type":"image-button-response","trial_index":67,"time_elapsed":337477,"internal_node_id":"0.0-4.0-0.30","subject_id":"5d67b6d92b7448000173d95a","study_id":"6197b3f67c2b5cd3b6d9596a","session_id":"6197c74d23edbbf10a4ce35f","condition":"full-information","relevant_dimensions":["wings","pattern"],"bee_group":{"antennae":"X","wings":"2","pattern":"D","legs":"X"},"action":"harvest","summary":"good-harvest","bonus":0.760000000000001},{"rt":691.6999999880791,"stimulus":"\n                    <p><b>Action: <em>harvest</em></b></p>\n                    <p>This is the bee that you just saw.</p>\n                    <img src=\"bees-with-color/bee-A1DF.svg\" width=\"200\">\n                    <p><span class=\"greenText\"><b>Successful harvest!</b></span><br>Your pay has increased by $0.02. Your bonus pay is now $0.56.</p>\n            ","response":0,"trial_type":"html-button-response","trial_index":68,"time_elapsed":338170,"internal_node_id":"0.0-4.0-1.30","subject_id":"5d67b6d92b7448000173d95a","study_id":"6197b3f67c2b5cd3b6d9596a","session_id":"6197c74d23edbbf10a4ce35f","condition":"full-information","relevant_dimensions":["wings","pattern"],"bee_group":{"antennae":"X","wings":"2","pattern":"D","legs":"X"},"bonus":0.760000000000001},{"rt":1635,"stimulus":"bees-with-color/bee-B2SM.svg","response":1,"trial_type":"image-button-response","trial_index":69,"time_elapsed":339805,"internal_node_id":"0.0-4.0-0.31","subject_id":"5d67b6d92b7448000173d95a","study_id":"6197b3f67c2b5cd3b6d9596a","session_id":"6197c74d23edbbf10a4ce35f","condition":"full-information","relevant_dimensions":["wings","pattern"],"bee_group":{"antennae":"X","wings":"2","pattern":"D","legs":"X"},"action":"avoid","summary":"bad-avoid","bonus":0.760000000000001},{"rt":806.5,"stimulus":"\n                    <p><b>Action: <em>avoid</em></b></p>\n                    <p>This is the bee that you just saw.</p>\n                    <img src=\"bees-with-color/bee-B2SM.svg\" width=\"200\">\n                    <p><span class=\"redText\">Bad choice,</span> the bee was friendly.<br>Your bonus pay is unchanged, and remains at $0.56.</p>\n            ","response":0,"trial_type":"html-button-response","trial_index":70,"time_elapsed":340613,"internal_node_id":"0.0-4.0-1.31","subject_id":"5d67b6d92b7448000173d95a","study_id":"6197b3f67c2b5cd3b6d9596a","session_id":"6197c74d23edbbf10a4ce35f","condition":"full-information","relevant_dimensions":["wings","pattern"],"bee_group":{"antennae":"X","wings":"2","pattern":"D","legs":"X"},"bonus":0.760000000000001},{"rt":833.5,"stimulus":"bees-with-color/bee-B1SF.svg","response":0,"trial_type":"image-button-response","trial_index":71,"time_elapsed":341447,"internal_node_id":"0.0-4.0-0.32","subject_id":"5d67b6d92b7448000173d95a","study_id":"6197b3f67c2b5cd3b6d9596a","session_id":"6197c74d23edbbf10a4ce35f","condition":"full-information","relevant_dimensions":["wings","pattern"],"bee_group":{"antennae":"X","wings":"2","pattern":"D","legs":"X"},"action":"harvest","summary":"good-harvest","bonus":0.760000000000001},{"rt":588,"stimulus":"\n                    <p><b>Action: <em>harvest</em></b></p>\n                    <p>This is the bee that you just saw.</p>\n                    <img src=\"bees-with-color/bee-B1SF.svg\" width=\"200\">\n                    <p><span class=\"greenText\"><b>Successful harvest!</b></span><br>Your pay has increased by $0.02. Your bonus pay is now $0.58.</p>\n            ","response":0,"trial_type":"html-button-response","trial_index":72,"time_elapsed":342035,"internal_node_id":"0.0-4.0-1.32","subject_id":"5d67b6d92b7448000173d95a","study_id":"6197b3f67c2b5cd3b6d9596a","session_id":"6197c74d23edbbf10a4ce35f","condition":"full-information","relevant_dimensions":["wings","pattern"],"bee_group":{"antennae":"X","wings":"2","pattern":"D","legs":"X"},"bonus":0.760000000000001},{"rt":1109.4000000059605,"stimulus":"bees-with-color/bee-B1DM.svg","response":1,"trial_type":"image-button-response","trial_index":73,"time_elapsed":343145,"internal_node_id":"0.0-4.0-0.33","subject_id":"5d67b6d92b7448000173d95a","study_id":"6197b3f67c2b5cd3b6d9596a","session_id":"6197c74d23edbbf10a4ce35f","condition":"full-information","relevant_dimensions":["wings","pattern"],"bee_group":{"antennae":"X","wings":"2","pattern":"D","legs":"X"},"action":"avoid","summary":"bad-avoid","bonus":0.760000000000001},{"rt":680.0999999940395,"stimulus":"\n                    <p><b>Action: <em>avoid</em></b></p>\n                    <p>This is the bee that you just saw.</p>\n                    <img src=\"bees-with-color/bee-B1DM.svg\" width=\"200\">\n                    <p><span class=\"redText\">Bad choice,</span> the bee was friendly.<br>Your bonus pay is unchanged, and remains at $0.58.</p>\n            ","response":0,"trial_type":"html-button-response","trial_index":74,"time_elapsed":343826,"internal_node_id":"0.0-4.0-1.33","subject_id":"5d67b6d92b7448000173d95a","study_id":"6197b3f67c2b5cd3b6d9596a","session_id":"6197c74d23edbbf10a4ce35f","condition":"full-information","relevant_dimensions":["wings","pattern"],"bee_group":{"antennae":"X","wings":"2","pattern":"D","legs":"X"},"bonus":0.760000000000001},{"rt":1428.9000000059605,"stimulus":"bees-with-color/bee-B2SM.svg","response":1,"trial_type":"image-button-response","trial_index":75,"time_elapsed":345256,"internal_node_id":"0.0-4.0-0.34","subject_id":"5d67b6d92b7448000173d95a","study_id":"6197b3f67c2b5cd3b6d9596a","session_id":"6197c74d23edbbf10a4ce35f","condition":"full-information","relevant_dimensions":["wings","pattern"],"bee_group":{"antennae":"X","wings":"2","pattern":"D","legs":"X"},"action":"avoid","summary":"bad-avoid","bonus":0.760000000000001},{"rt":660.2999999970198,"stimulus":"\n                    <p><b>Action: <em>avoid</em></b></p>\n                    <p>This is the bee that you just saw.</p>\n                    <img src=\"bees-with-color/bee-B2SM.svg\" width=\"200\">\n                    <p><span class=\"redText\">Bad choice,</span> the bee was friendly.<br>Your bonus pay is unchanged, and remains at $0.58.</p>\n            ","response":0,"trial_type":"html-button-response","trial_index":76,"time_elapsed":345916,"internal_node_id":"0.0-4.0-1.34","subject_id":"5d67b6d92b7448000173d95a","study_id":"6197b3f67c2b5cd3b6d9596a","session_id":"6197c74d23edbbf10a4ce35f","condition":"full-information","relevant_dimensions":["wings","pattern"],"bee_group":{"antennae":"X","wings":"2","pattern":"D","legs":"X"},"bonus":0.760000000000001},{"rt":1357.8999999910593,"stimulus":"bees-with-color/bee-A2SF.svg","response":0,"trial_type":"image-button-response","trial_index":77,"time_elapsed":347275,"internal_node_id":"0.0-4.0-0.35","subject_id":"5d67b6d92b7448000173d95a","study_id":"6197b3f67c2b5cd3b6d9596a","session_id":"6197c74d23edbbf10a4ce35f","condition":"full-information","relevant_dimensions":["wings","pattern"],"bee_group":{"antennae":"X","wings":"2","pattern":"D","legs":"X"},"action":"harvest","summary":"good-harvest","bonus":0.760000000000001},{"rt":715,"stimulus":"\n                    <p><b>Action: <em>harvest</em></b></p>\n                    <p>This is the bee that you just saw.</p>\n                    <img src=\"bees-with-color/bee-A2SF.svg\" width=\"200\">\n                    <p><span class=\"greenText\"><b>Successful harvest!</b></span><br>Your pay has increased by $0.02. Your bonus pay is now $0.60.</p>\n            ","response":0,"trial_type":"html-button-response","trial_index":78,"time_elapsed":347991,"internal_node_id":"0.0-4.0-1.35","subject_id":"5d67b6d92b7448000173d95a","study_id":"6197b3f67c2b5cd3b6d9596a","session_id":"6197c74d23edbbf10a4ce35f","condition":"full-information","relevant_dimensions":["wings","pattern"],"bee_group":{"antennae":"X","wings":"2","pattern":"D","legs":"X"},"bonus":0.760000000000001},{"rt":980,"stimulus":"bees-with-color/bee-A2DM.svg","response":1,"trial_type":"image-button-response","trial_index":79,"time_elapsed":348971,"internal_node_id":"0.0-4.0-0.36","subject_id":"5d67b6d92b7448000173d95a","study_id":"6197b3f67c2b5cd3b6d9596a","session_id":"6197c74d23edbbf10a4ce35f","condition":"full-information","relevant_dimensions":["wings","pattern"],"bee_group":{"antennae":"X","wings":"2","pattern":"D","legs":"X"},"action":"avoid","summary":"good-avoid","bonus":0.760000000000001},{"rt":688.6999999880791,"stimulus":"\n                    <p><b>Action: <em>avoid</em></b></p>\n                    <p>This is the bee that you just saw.</p>\n                    <img src=\"bees-with-color/bee-A2DM.svg\" width=\"200\">\n                    <p><span class=\"greenText\">Good choice!</span>  This bee would have stung you.<br>Your bonus pay is unchanged, and remains at $0.60.</p>\n            ","response":0,"trial_type":"html-button-response","trial_index":80,"time_elapsed":349661,"internal_node_id":"0.0-4.0-1.36","subject_id":"5d67b6d92b7448000173d95a","study_id":"6197b3f67c2b5cd3b6d9596a","session_id":"6197c74d23edbbf10a4ce35f","condition":"full-information","relevant_dimensions":["wings","pattern"],"bee_group":{"antennae":"X","wings":"2","pattern":"D","legs":"X"},"bonus":0.760000000000001},{"rt":1089.9000000059605,"stimulus":"bees-with-color/bee-B2DM.svg","response":1,"trial_type":"image-button-response","trial_index":81,"time_elapsed":350751,"internal_node_id":"0.0-4.0-0.37","subject_id":"5d67b6d92b7448000173d95a","study_id":"6197b3f67c2b5cd3b6d9596a","session_id":"6197c74d23edbbf10a4ce35f","condition":"full-information","relevant_dimensions":["wings","pattern"],"bee_group":{"antennae":"X","wings":"2","pattern":"D","legs":"X"},"action":"avoid","summary":"good-avoid","bonus":0.760000000000001},{"rt":678.3999999910593,"stimulus":"\n                    <p><b>Action: <em>avoid</em></b></p>\n                    <p>This is the bee that you just saw.</p>\n                    <img src=\"bees-with-color/bee-B2DM.svg\" width=\"200\">\n                    <p><span class=\"greenText\">Good choice!</span>  This bee would have stung you.<br>Your bonus pay is unchanged, and remains at $0.60.</p>\n            ","response":0,"trial_type":"html-button-response","trial_index":82,"time_elapsed":351431,"internal_node_id":"0.0-4.0-1.37","subject_id":"5d67b6d92b7448000173d95a","study_id":"6197b3f67c2b5cd3b6d9596a","session_id":"6197c74d23edbbf10a4ce35f","condition":"full-information","relevant_dimensions":["wings","pattern"],"bee_group":{"antennae":"X","wings":"2","pattern":"D","legs":"X"},"bonus":0.760000000000001},{"rt":1189.2999999970198,"stimulus":"bees-with-color/bee-A1SF.svg","response":0,"trial_type":"image-button-response","trial_index":83,"time_elapsed":352620,"internal_node_id":"0.0-4.0-0.38","subject_id":"5d67b6d92b7448000173d95a","study_id":"6197b3f67c2b5cd3b6d9596a","session_id":"6197c74d23edbbf10a4ce35f","condition":"full-information","relevant_dimensions":["wings","pattern"],"bee_group":{"antennae":"X","wings":"2","pattern":"D","legs":"X"},"action":"harvest","summary":"good-harvest","bonus":0.760000000000001},{"rt":506.29999999701977,"stimulus":"\n                    <p><b>Action: <em>harvest</em></b></p>\n                    <p>This is the bee that you just saw.</p>\n                    <img src=\"bees-with-color/bee-A1SF.svg\" width=\"200\">\n                    <p><span class=\"greenText\"><b>Successful harvest!</b></span><br>Your pay has increased by $0.02. Your bonus pay is now $0.62.</p>\n            ","response":0,"trial_type":"html-button-response","trial_index":84,"time_elapsed":353127,"internal_node_id":"0.0-4.0-1.38","subject_id":"5d67b6d92b7448000173d95a","study_id":"6197b3f67c2b5cd3b6d9596a","session_id":"6197c74d23edbbf10a4ce35f","condition":"full-information","relevant_dimensions":["wings","pattern"],"bee_group":{"antennae":"X","wings":"2","pattern":"D","legs":"X"},"bonus":0.760000000000001},{"rt":968.5,"stimulus":"bees-with-color/bee-B1SM.svg","response":0,"trial_type":"image-button-response","trial_index":85,"time_elapsed":354097,"internal_node_id":"0.0-4.0-0.39","subject_id":"5d67b6d92b7448000173d95a","study_id":"6197b3f67c2b5cd3b6d9596a","session_id":"6197c74d23edbbf10a4ce35f","condition":"full-information","relevant_dimensions":["wings","pattern"],"bee_group":{"antennae":"X","wings":"2","pattern":"D","legs":"X"},"action":"harvest","summary":"good-harvest","bonus":0.760000000000001},{"rt":563.2000000029802,"stimulus":"\n                    <p><b>Action: <em>harvest</em></b></p>\n                    <p>This is the bee that you just saw.</p>\n                    <img src=\"bees-with-color/bee-B1SM.svg\" width=\"200\">\n                    <p><span class=\"greenText\"><b>Successful harvest!</b></span><br>Your pay has increased by $0.02. Your bonus pay is now $0.64.</p>\n            ","response":0,"trial_type":"html-button-response","trial_index":86,"time_elapsed":354661,"internal_node_id":"0.0-4.0-1.39","subject_id":"5d67b6d92b7448000173d95a","study_id":"6197b3f67c2b5cd3b6d9596a","session_id":"6197c74d23edbbf10a4ce35f","condition":"full-information","relevant_dimensions":["wings","pattern"],"bee_group":{"antennae":"X","wings":"2","pattern":"D","legs":"X"},"bonus":0.760000000000001},{"rt":1071.5999999940395,"stimulus":"bees-with-color/bee-A2DF.svg","response":0,"trial_type":"image-button-response","trial_index":87,"time_elapsed":355733,"internal_node_id":"0.0-4.0-0.40","subject_id":"5d67b6d92b7448000173d95a","study_id":"6197b3f67c2b5cd3b6d9596a","session_id":"6197c74d23edbbf10a4ce35f","condition":"full-information","relevant_dimensions":["wings","pattern"],"bee_group":{"antennae":"X","wings":"2","pattern":"D","legs":"X"},"action":"harvest","summary":"bad-harvest","bonus":0.760000000000001},{"rt":1544.9000000059605,"stimulus":"\n                    <p><b>Action: <em>harvest</em></b></p>\n                    <p>This is the bee that you just saw.</p>\n                    <img src=\"bees-with-color/bee-A2DF.svg\" width=\"200\">\n                    <p><span class=\"redText\">Bad choice, the bee was angry.</span><br><b>You have been stung!</b><br>Your pay has been decreased by $0.10. Your bonus pay is now $0.54.</p>\n            ","response":0,"trial_type":"html-button-response","trial_index":88,"time_elapsed":357279,"internal_node_id":"0.0-4.0-1.40","subject_id":"5d67b6d92b7448000173d95a","study_id":"6197b3f67c2b5cd3b6d9596a","session_id":"6197c74d23edbbf10a4ce35f","condition":"full-information","relevant_dimensions":["wings","pattern"],"bee_group":{"antennae":"X","wings":"2","pattern":"D","legs":"X"},"bonus":0.760000000000001},{"rt":1542.2000000029802,"stimulus":"bees-with-color/bee-B2DF.svg","response":1,"trial_type":"image-button-response","trial_index":89,"time_elapsed":358822,"internal_node_id":"0.0-4.0-0.41","subject_id":"5d67b6d92b7448000173d95a","study_id":"6197b3f67c2b5cd3b6d9596a","session_id":"6197c74d23edbbf10a4ce35f","condition":"full-information","relevant_dimensions":["wings","pattern"],"bee_group":{"antennae":"X","wings":"2","pattern":"D","legs":"X"},"action":"avoid","summary":"good-avoid","bonus":0.760000000000001},{"rt":1002.2999999970198,"stimulus":"\n                    <p><b>Action: <em>avoid</em></b></p>\n                    <p>This is the bee that you just saw.</p>\n                    <img src=\"bees-with-color/bee-B2DF.svg\" width=\"200\">\n                    <p><span class=\"greenText\">Good choice!</span>  This bee would have stung you.<br>Your bonus pay is unchanged, and remains at $0.54.</p>\n            ","response":0,"trial_type":"html-button-response","trial_index":90,"time_elapsed":359825,"internal_node_id":"0.0-4.0-1.41","subject_id":"5d67b6d92b7448000173d95a","study_id":"6197b3f67c2b5cd3b6d9596a","session_id":"6197c74d23edbbf10a4ce35f","condition":"full-information","relevant_dimensions":["wings","pattern"],"bee_group":{"antennae":"X","wings":"2","pattern":"D","legs":"X"},"bonus":0.760000000000001},{"rt":1714.2999999970198,"stimulus":"bees-with-color/bee-B2SF.svg","response":0,"trial_type":"image-button-response","trial_index":91,"time_elapsed":361539,"internal_node_id":"0.0-4.0-0.42","subject_id":"5d67b6d92b7448000173d95a","study_id":"6197b3f67c2b5cd3b6d9596a","session_id":"6197c74d23edbbf10a4ce35f","condition":"full-information","relevant_dimensions":["wings","pattern"],"bee_group":{"antennae":"X","wings":"2","pattern":"D","legs":"X"},"action":"harvest","summary":"good-harvest","bonus":0.760000000000001},{"rt":601.6999999880791,"stimulus":"\n                    <p><b>Action: <em>harvest</em></b></p>\n                    <p>This is the bee that you just saw.</p>\n                    <img src=\"bees-with-color/bee-B2SF.svg\" width=\"200\">\n                    <p><span class=\"greenText\"><b>Successful harvest!</b></span><br>Your pay has increased by $0.02. Your bonus pay is now $0.56.</p>\n            ","response":0,"trial_type":"html-button-response","trial_index":92,"time_elapsed":362142,"internal_node_id":"0.0-4.0-1.42","subject_id":"5d67b6d92b7448000173d95a","study_id":"6197b3f67c2b5cd3b6d9596a","session_id":"6197c74d23edbbf10a4ce35f","condition":"full-information","relevant_dimensions":["wings","pattern"],"bee_group":{"antennae":"X","wings":"2","pattern":"D","legs":"X"},"bonus":0.760000000000001},{"rt":987.0999999940395,"stimulus":"bees-with-color/bee-A1DF.svg","response":0,"trial_type":"image-button-response","trial_index":93,"time_elapsed":363129,"internal_node_id":"0.0-4.0-0.43","subject_id":"5d67b6d92b7448000173d95a","study_id":"6197b3f67c2b5cd3b6d9596a","session_id":"6197c74d23edbbf10a4ce35f","condition":"full-information","relevant_dimensions":["wings","pattern"],"bee_group":{"antennae":"X","wings":"2","pattern":"D","legs":"X"},"action":"harvest","summary":"good-harvest","bonus":0.760000000000001},{"rt":485.5,"stimulus":"\n                    <p><b>Action: <em>harvest</em></b></p>\n                    <p>This is the bee that you just saw.</p>\n                    <img src=\"bees-with-color/bee-A1DF.svg\" width=\"200\">\n                    <p><span class=\"greenText\"><b>Successful harvest!</b></span><br>Your pay has increased by $0.02. Your bonus pay is now $0.58.</p>\n            ","response":0,"trial_type":"html-button-response","trial_index":94,"time_elapsed":363616,"internal_node_id":"0.0-4.0-1.43","subject_id":"5d67b6d92b7448000173d95a","study_id":"6197b3f67c2b5cd3b6d9596a","session_id":"6197c74d23edbbf10a4ce35f","condition":"full-information","relevant_dimensions":["wings","pattern"],"bee_group":{"antennae":"X","wings":"2","pattern":"D","legs":"X"},"bonus":0.760000000000001},{"rt":938.5999999940395,"stimulus":"bees-with-color/bee-B1DF.svg","response":0,"trial_type":"image-button-response","trial_index":95,"time_elapsed":364555,"internal_node_id":"0.0-4.0-0.44","subject_id":"5d67b6d92b7448000173d95a","study_id":"6197b3f67c2b5cd3b6d9596a","session_id":"6197c74d23edbbf10a4ce35f","condition":"full-information","relevant_dimensions":["wings","pattern"],"bee_group":{"antennae":"X","wings":"2","pattern":"D","legs":"X"},"action":"harvest","summary":"good-harvest","bonus":0.760000000000001},{"rt":467,"stimulus":"\n                    <p><b>Action: <em>harvest</em></b></p>\n                    <p>This is the bee that you just saw.</p>\n                    <img src=\"bees-with-color/bee-B1DF.svg\" width=\"200\">\n                    <p><span class=\"greenText\"><b>Successful harvest!</b></span><br>Your pay has increased by $0.02. Your bonus pay is now $0.60.</p>\n            ","response":0,"trial_type":"html-button-response","trial_index":96,"time_elapsed":365022,"internal_node_id":"0.0-4.0-1.44","subject_id":"5d67b6d92b7448000173d95a","study_id":"6197b3f67c2b5cd3b6d9596a","session_id":"6197c74d23edbbf10a4ce35f","condition":"full-information","relevant_dimensions":["wings","pattern"],"bee_group":{"antennae":"X","wings":"2","pattern":"D","legs":"X"},"bonus":0.760000000000001},{"rt":999.5999999940395,"stimulus":"bees-with-color/bee-A2SM.svg","response":1,"trial_type":"image-button-response","trial_index":97,"time_elapsed":366022,"internal_node_id":"0.0-4.0-0.45","subject_id":"5d67b6d92b7448000173d95a","study_id":"6197b3f67c2b5cd3b6d9596a","session_id":"6197c74d23edbbf10a4ce35f","condition":"full-information","relevant_dimensions":["wings","pattern"],"bee_group":{"antennae":"X","wings":"2","pattern":"D","legs":"X"},"action":"avoid","summary":"bad-avoid","bonus":0.760000000000001},{"rt":711.5,"stimulus":"\n                    <p><b>Action: <em>avoid</em></b></p>\n                    <p>This is the bee that you just saw.</p>\n                    <img src=\"bees-with-color/bee-A2SM.svg\" width=\"200\">\n                    <p><span class=\"redText\">Bad choice,</span> the bee was friendly.<br>Your bonus pay is unchanged, and remains at $0.60.</p>\n            ","response":0,"trial_type":"html-button-response","trial_index":98,"time_elapsed":366734,"internal_node_id":"0.0-4.0-1.45","subject_id":"5d67b6d92b7448000173d95a","study_id":"6197b3f67c2b5cd3b6d9596a","session_id":"6197c74d23edbbf10a4ce35f","condition":"full-information","relevant_dimensions":["wings","pattern"],"bee_group":{"antennae":"X","wings":"2","pattern":"D","legs":"X"},"bonus":0.760000000000001},{"rt":1290.8999999910593,"stimulus":"bees-with-color/bee-A1SM.svg","response":0,"trial_type":"image-button-response","trial_index":99,"time_elapsed":368025,"internal_node_id":"0.0-4.0-0.46","subject_id":"5d67b6d92b7448000173d95a","study_id":"6197b3f67c2b5cd3b6d9596a","session_id":"6197c74d23edbbf10a4ce35f","condition":"full-information","relevant_dimensions":["wings","pattern"],"bee_group":{"antennae":"X","wings":"2","pattern":"D","legs":"X"},"action":"harvest","summary":"good-harvest","bonus":0.760000000000001},{"rt":548.7000000029802,"stimulus":"\n                    <p><b>Action: <em>harvest</em></b></p>\n                    <p>This is the bee that you just saw.</p>\n                    <img src=\"bees-with-color/bee-A1SM.svg\" width=\"200\">\n                    <p><span class=\"greenText\"><b>Successful harvest!</b></span><br>Your pay has increased by $0.02. Your bonus pay is now $0.62.</p>\n            ","response":0,"trial_type":"html-button-response","trial_index":100,"time_elapsed":368575,"internal_node_id":"0.0-4.0-1.46","subject_id":"5d67b6d92b7448000173d95a","study_id":"6197b3f67c2b5cd3b6d9596a","session_id":"6197c74d23edbbf10a4ce35f","condition":"full-information","relevant_dimensions":["wings","pattern"],"bee_group":{"antennae":"X","wings":"2","pattern":"D","legs":"X"},"bonus":0.760000000000001},{"rt":869,"stimulus":"bees-with-color/bee-A1DM.svg","response":1,"trial_type":"image-button-response","trial_index":101,"time_elapsed":369445,"internal_node_id":"0.0-4.0-0.47","subject_id":"5d67b6d92b7448000173d95a","study_id":"6197b3f67c2b5cd3b6d9596a","session_id":"6197c74d23edbbf10a4ce35f","condition":"full-information","relevant_dimensions":["wings","pattern"],"bee_group":{"antennae":"X","wings":"2","pattern":"D","legs":"X"},"action":"avoid","summary":"bad-avoid","bonus":0.760000000000001},{"rt":661.5999999940395,"stimulus":"\n                    <p><b>Action: <em>avoid</em></b></p>\n                    <p>This is the bee that you just saw.</p>\n                    <img src=\"bees-with-color/bee-A1DM.svg\" width=\"200\">\n                    <p><span class=\"redText\">Bad choice,</span> the bee was friendly.<br>Your bonus pay is unchanged, and remains at $0.62.</p>\n            ","response":0,"trial_type":"html-button-response","trial_index":102,"time_elapsed":370107,"internal_node_id":"0.0-4.0-1.47","subject_id":"5d67b6d92b7448000173d95a","study_id":"6197b3f67c2b5cd3b6d9596a","session_id":"6197c74d23edbbf10a4ce35f","condition":"full-information","relevant_dimensions":["wings","pattern"],"bee_group":{"antennae":"X","wings":"2","pattern":"D","legs":"X"},"bonus":0.760000000000001},{"rt":958.9000000059605,"stimulus":"bees-with-color/bee-A1DF.svg","response":0,"trial_type":"image-button-response","trial_index":103,"time_elapsed":371067,"internal_node_id":"0.0-4.0-0.48","subject_id":"5d67b6d92b7448000173d95a","study_id":"6197b3f67c2b5cd3b6d9596a","session_id":"6197c74d23edbbf10a4ce35f","condition":"full-information","relevant_dimensions":["wings","pattern"],"bee_group":{"antennae":"X","wings":"2","pattern":"D","legs":"X"},"action":"harvest","summary":"good-harvest","bonus":0.760000000000001},{"rt":454.69999998807907,"stimulus":"\n                    <p><b>Action: <em>harvest</em></b></p>\n                    <p>This is the bee that you just saw.</p>\n                    <img src=\"bees-with-color/bee-A1DF.svg\" width=\"200\">\n                    <p><span class=\"greenText\"><b>Successful harvest!</b></span><br>Your pay has increased by $0.02. Your bonus pay is now $0.64.</p>\n            ","response":0,"trial_type":"html-button-response","trial_index":104,"time_elapsed":371522,"internal_node_id":"0.0-4.0-1.48","subject_id":"5d67b6d92b7448000173d95a","study_id":"6197b3f67c2b5cd3b6d9596a","session_id":"6197c74d23edbbf10a4ce35f","condition":"full-information","relevant_dimensions":["wings","pattern"],"bee_group":{"antennae":"X","wings":"2","pattern":"D","legs":"X"},"bonus":0.760000000000001},{"rt":3101.2999999970198,"stimulus":"bees-with-color/bee-A2SF.svg","response":0,"trial_type":"image-button-response","trial_index":105,"time_elapsed":374624,"internal_node_id":"0.0-4.0-0.49","subject_id":"5d67b6d92b7448000173d95a","study_id":"6197b3f67c2b5cd3b6d9596a","session_id":"6197c74d23edbbf10a4ce35f","condition":"full-information","relevant_dimensions":["wings","pattern"],"bee_group":{"antennae":"X","wings":"2","pattern":"D","legs":"X"},"action":"harvest","summary":"good-harvest","bonus":0.760000000000001},{"rt":625.2000000029802,"stimulus":"\n                    <p><b>Action: <em>harvest</em></b></p>\n                    <p>This is the bee that you just saw.</p>\n                    <img src=\"bees-with-color/bee-A2SF.svg\" width=\"200\">\n                    <p><span class=\"greenText\"><b>Successful harvest!</b></span><br>Your pay has increased by $0.02. Your bonus pay is now $0.66.</p>\n            ","response":0,"trial_type":"html-button-response","trial_index":106,"time_elapsed":375250,"internal_node_id":"0.0-4.0-1.49","subject_id":"5d67b6d92b7448000173d95a","study_id":"6197b3f67c2b5cd3b6d9596a","session_id":"6197c74d23edbbf10a4ce35f","condition":"full-information","relevant_dimensions":["wings","pattern"],"bee_group":{"antennae":"X","wings":"2","pattern":"D","legs":"X"},"bonus":0.760000000000001},{"rt":1052.8999999910593,"stimulus":"bees-with-color/bee-B1DF.svg","response":0,"trial_type":"image-button-response","trial_index":107,"time_elapsed":376303,"internal_node_id":"0.0-4.0-0.50","subject_id":"5d67b6d92b7448000173d95a","study_id":"6197b3f67c2b5cd3b6d9596a","session_id":"6197c74d23edbbf10a4ce35f","condition":"full-information","relevant_dimensions":["wings","pattern"],"bee_group":{"antennae":"X","wings":"2","pattern":"D","legs":"X"},"action":"harvest","summary":"good-harvest","bonus":0.760000000000001},{"rt":525.5,"stimulus":"\n                    <p><b>Action: <em>harvest</em></b></p>\n                    <p>This is the bee that you just saw.</p>\n                    <img src=\"bees-with-color/bee-B1DF.svg\" width=\"200\">\n                    <p><span class=\"greenText\"><b>Successful harvest!</b></span><br>Your pay has increased by $0.02. Your bonus pay is now $0.68.</p>\n            ","response":0,"trial_type":"html-button-response","trial_index":108,"time_elapsed":376830,"internal_node_id":"0.0-4.0-1.50","subject_id":"5d67b6d92b7448000173d95a","study_id":"6197b3f67c2b5cd3b6d9596a","session_id":"6197c74d23edbbf10a4ce35f","condition":"full-information","relevant_dimensions":["wings","pattern"],"bee_group":{"antennae":"X","wings":"2","pattern":"D","legs":"X"},"bonus":0.760000000000001},{"rt":1157.5999999940395,"stimulus":"bees-with-color/bee-B2SM.svg","response":1,"trial_type":"image-button-response","trial_index":109,"time_elapsed":377988,"internal_node_id":"0.0-4.0-0.51","subject_id":"5d67b6d92b7448000173d95a","study_id":"6197b3f67c2b5cd3b6d9596a","session_id":"6197c74d23edbbf10a4ce35f","condition":"full-information","relevant_dimensions":["wings","pattern"],"bee_group":{"antennae":"X","wings":"2","pattern":"D","legs":"X"},"action":"avoid","summary":"bad-avoid","bonus":0.760000000000001},{"rt":786.5999999940395,"stimulus":"\n                    <p><b>Action: <em>avoid</em></b></p>\n                    <p>This is the bee that you just saw.</p>\n                    <img src=\"bees-with-color/bee-B2SM.svg\" width=\"200\">\n                    <p><span class=\"redText\">Bad choice,</span> the bee was friendly.<br>Your bonus pay is unchanged, and remains at $0.68.</p>\n            ","response":0,"trial_type":"html-button-response","trial_index":110,"time_elapsed":378775,"internal_node_id":"0.0-4.0-1.51","subject_id":"5d67b6d92b7448000173d95a","study_id":"6197b3f67c2b5cd3b6d9596a","session_id":"6197c74d23edbbf10a4ce35f","condition":"full-information","relevant_dimensions":["wings","pattern"],"bee_group":{"antennae":"X","wings":"2","pattern":"D","legs":"X"},"bonus":0.760000000000001},{"rt":1721.2000000029802,"stimulus":"bees-with-color/bee-B2DF.svg","response":0,"trial_type":"image-button-response","trial_index":111,"time_elapsed":380497,"internal_node_id":"0.0-4.0-0.52","subject_id":"5d67b6d92b7448000173d95a","study_id":"6197b3f67c2b5cd3b6d9596a","session_id":"6197c74d23edbbf10a4ce35f","condition":"full-information","relevant_dimensions":["wings","pattern"],"bee_group":{"antennae":"X","wings":"2","pattern":"D","legs":"X"},"action":"harvest","summary":"bad-harvest","bonus":0.760000000000001},{"rt":4170.5999999940395,"stimulus":"\n                    <p><b>Action: <em>harvest</em></b></p>\n                    <p>This is the bee that you just saw.</p>\n                    <img src=\"bees-with-color/bee-B2DF.svg\" width=\"200\">\n                    <p><span class=\"redText\">Bad choice, the bee was angry.</span><br><b>You have been stung!</b><br>Your pay has been decreased by $0.10. Your bonus pay is now $0.58.</p>\n            ","response":0,"trial_type":"html-button-response","trial_index":112,"time_elapsed":384668,"internal_node_id":"0.0-4.0-1.52","subject_id":"5d67b6d92b7448000173d95a","study_id":"6197b3f67c2b5cd3b6d9596a","session_id":"6197c74d23edbbf10a4ce35f","condition":"full-information","relevant_dimensions":["wings","pattern"],"bee_group":{"antennae":"X","wings":"2","pattern":"D","legs":"X"},"bonus":0.760000000000001},{"rt":1565,"stimulus":"bees-with-color/bee-A2DM.svg","response":1,"trial_type":"image-button-response","trial_index":113,"time_elapsed":386234,"internal_node_id":"0.0-4.0-0.53","subject_id":"5d67b6d92b7448000173d95a","study_id":"6197b3f67c2b5cd3b6d9596a","session_id":"6197c74d23edbbf10a4ce35f","condition":"full-information","relevant_dimensions":["wings","pattern"],"bee_group":{"antennae":"X","wings":"2","pattern":"D","legs":"X"},"action":"avoid","summary":"good-avoid","bonus":0.760000000000001},{"rt":734.2999999970198,"stimulus":"\n                    <p><b>Action: <em>avoid</em></b></p>\n                    <p>This is the bee that you just saw.</p>\n                    <img src=\"bees-with-color/bee-A2DM.svg\" width=\"200\">\n                    <p><span class=\"greenText\">Good choice!</span>  This bee would have stung you.<br>Your bonus pay is unchanged, and remains at $0.58.</p>\n            ","response":0,"trial_type":"html-button-response","trial_index":114,"time_elapsed":386969,"internal_node_id":"0.0-4.0-1.53","subject_id":"5d67b6d92b7448000173d95a","study_id":"6197b3f67c2b5cd3b6d9596a","session_id":"6197c74d23edbbf10a4ce35f","condition":"full-information","relevant_dimensions":["wings","pattern"],"bee_group":{"antennae":"X","wings":"2","pattern":"D","legs":"X"},"bonus":0.760000000000001},{"rt":1155.8999999910593,"stimulus":"bees-with-color/bee-B1SF.svg","response":0,"trial_type":"image-button-response","trial_index":115,"time_elapsed":388126,"internal_node_id":"0.0-4.0-0.54","subject_id":"5d67b6d92b7448000173d95a","study_id":"6197b3f67c2b5cd3b6d9596a","session_id":"6197c74d23edbbf10a4ce35f","condition":"full-information","relevant_dimensions":["wings","pattern"],"bee_group":{"antennae":"X","wings":"2","pattern":"D","legs":"X"},"action":"harvest","summary":"good-harvest","bonus":0.760000000000001},{"rt":865.2999999970198,"stimulus":"\n                    <p><b>Action: <em>harvest</em></b></p>\n                    <p>This is the bee that you just saw.</p>\n                    <img src=\"bees-with-color/bee-B1SF.svg\" width=\"200\">\n                    <p><span class=\"greenText\"><b>Successful harvest!</b></span><br>Your pay has increased by $0.02. Your bonus pay is now $0.60.</p>\n            ","response":0,"trial_type":"html-button-response","trial_index":116,"time_elapsed":388992,"internal_node_id":"0.0-4.0-1.54","subject_id":"5d67b6d92b7448000173d95a","study_id":"6197b3f67c2b5cd3b6d9596a","session_id":"6197c74d23edbbf10a4ce35f","condition":"full-information","relevant_dimensions":["wings","pattern"],"bee_group":{"antennae":"X","wings":"2","pattern":"D","legs":"X"},"bonus":0.760000000000001},{"rt":2167.0999999940395,"stimulus":"bees-with-color/bee-A1DM.svg","response":1,"trial_type":"image-button-response","trial_index":117,"time_elapsed":391160,"internal_node_id":"0.0-4.0-0.55","subject_id":"5d67b6d92b7448000173d95a","study_id":"6197b3f67c2b5cd3b6d9596a","session_id":"6197c74d23edbbf10a4ce35f","condition":"full-information","relevant_dimensions":["wings","pattern"],"bee_group":{"antennae":"X","wings":"2","pattern":"D","legs":"X"},"action":"avoid","summary":"bad-avoid","bonus":0.760000000000001},{"rt":643.6999999880791,"stimulus":"\n                    <p><b>Action: <em>avoid</em></b></p>\n                    <p>This is the bee that you just saw.</p>\n                    <img src=\"bees-with-color/bee-A1DM.svg\" width=\"200\">\n                    <p><span class=\"redText\">Bad choice,</span> the bee was friendly.<br>Your bonus pay is unchanged, and remains at $0.60.</p>\n            ","response":0,"trial_type":"html-button-response","trial_index":118,"time_elapsed":391804,"internal_node_id":"0.0-4.0-1.55","subject_id":"5d67b6d92b7448000173d95a","study_id":"6197b3f67c2b5cd3b6d9596a","session_id":"6197c74d23edbbf10a4ce35f","condition":"full-information","relevant_dimensions":["wings","pattern"],"bee_group":{"antennae":"X","wings":"2","pattern":"D","legs":"X"},"bonus":0.760000000000001},{"rt":3520.8999999910593,"stimulus":"bees-with-color/bee-A2SM.svg","response":1,"trial_type":"image-button-response","trial_index":119,"time_elapsed":395326,"internal_node_id":"0.0-4.0-0.56","subject_id":"5d67b6d92b7448000173d95a","study_id":"6197b3f67c2b5cd3b6d9596a","session_id":"6197c74d23edbbf10a4ce35f","condition":"full-information","relevant_dimensions":["wings","pattern"],"bee_group":{"antennae":"X","wings":"2","pattern":"D","legs":"X"},"action":"avoid","summary":"bad-avoid","bonus":0.760000000000001},{"rt":648.5999999940395,"stimulus":"\n                    <p><b>Action: <em>avoid</em></b></p>\n                    <p>This is the bee that you just saw.</p>\n                    <img src=\"bees-with-color/bee-A2SM.svg\" width=\"200\">\n                    <p><span class=\"redText\">Bad choice,</span> the bee was friendly.<br>Your bonus pay is unchanged, and remains at $0.60.</p>\n            ","response":0,"trial_type":"html-button-response","trial_index":120,"time_elapsed":395975,"internal_node_id":"0.0-4.0-1.56","subject_id":"5d67b6d92b7448000173d95a","study_id":"6197b3f67c2b5cd3b6d9596a","session_id":"6197c74d23edbbf10a4ce35f","condition":"full-information","relevant_dimensions":["wings","pattern"],"bee_group":{"antennae":"X","wings":"2","pattern":"D","legs":"X"},"bonus":0.760000000000001},{"rt":843.2999999970198,"stimulus":"bees-with-color/bee-A1SF.svg","response":0,"trial_type":"image-button-response","trial_index":121,"time_elapsed":396819,"internal_node_id":"0.0-4.0-0.57","subject_id":"5d67b6d92b7448000173d95a","study_id":"6197b3f67c2b5cd3b6d9596a","session_id":"6197c74d23edbbf10a4ce35f","condition":"full-information","relevant_dimensions":["wings","pattern"],"bee_group":{"antennae":"X","wings":"2","pattern":"D","legs":"X"},"action":"harvest","summary":"good-harvest","bonus":0.760000000000001},{"rt":500.20000000298023,"stimulus":"\n                    <p><b>Action: <em>harvest</em></b></p>\n                    <p>This is the bee that you just saw.</p>\n                    <img src=\"bees-with-color/bee-A1SF.svg\" width=\"200\">\n                    <p><span class=\"greenText\"><b>Successful harvest!</b></span><br>Your pay has increased by $0.02. Your bonus pay is now $0.62.</p>\n            ","response":0,"trial_type":"html-button-response","trial_index":122,"time_elapsed":397320,"internal_node_id":"0.0-4.0-1.57","subject_id":"5d67b6d92b7448000173d95a","study_id":"6197b3f67c2b5cd3b6d9596a","session_id":"6197c74d23edbbf10a4ce35f","condition":"full-information","relevant_dimensions":["wings","pattern"],"bee_group":{"antennae":"X","wings":"2","pattern":"D","legs":"X"},"bonus":0.760000000000001},{"rt":998.2999999970198,"stimulus":"bees-with-color/bee-A1SM.svg","response":1,"trial_type":"image-button-response","trial_index":123,"time_elapsed":398319,"internal_node_id":"0.0-4.0-0.58","subject_id":"5d67b6d92b7448000173d95a","study_id":"6197b3f67c2b5cd3b6d9596a","session_id":"6197c74d23edbbf10a4ce35f","condition":"full-information","relevant_dimensions":["wings","pattern"],"bee_group":{"antennae":"X","wings":"2","pattern":"D","legs":"X"},"action":"avoid","summary":"bad-avoid","bonus":0.760000000000001},{"rt":556.2999999970198,"stimulus":"\n                    <p><b>Action: <em>avoid</em></b></p>\n                    <p>This is the bee that you just saw.</p>\n                    <img src=\"bees-with-color/bee-A1SM.svg\" width=\"200\">\n                    <p><span class=\"redText\">Bad choice,</span> the bee was friendly.<br>Your bonus pay is unchanged, and remains at $0.62.</p>\n            ","response":0,"trial_type":"html-button-response","trial_index":124,"time_elapsed":398876,"internal_node_id":"0.0-4.0-1.58","subject_id":"5d67b6d92b7448000173d95a","study_id":"6197b3f67c2b5cd3b6d9596a","session_id":"6197c74d23edbbf10a4ce35f","condition":"full-information","relevant_dimensions":["wings","pattern"],"bee_group":{"antennae":"X","wings":"2","pattern":"D","legs":"X"},"bonus":0.760000000000001},{"rt":1357.3999999910593,"stimulus":"bees-with-color/bee-B1SM.svg","response":1,"trial_type":"image-button-response","trial_index":125,"time_elapsed":400234,"internal_node_id":"0.0-4.0-0.59","subject_id":"5d67b6d92b7448000173d95a","study_id":"6197b3f67c2b5cd3b6d9596a","session_id":"6197c74d23edbbf10a4ce35f","condition":"full-information","relevant_dimensions":["wings","pattern"],"bee_group":{"antennae":"X","wings":"2","pattern":"D","legs":"X"},"action":"avoid","summary":"bad-avoid","bonus":0.760000000000001},{"rt":832.3999999910593,"stimulus":"\n                    <p><b>Action: <em>avoid</em></b></p>\n                    <p>This is the bee that you just saw.</p>\n                    <img src=\"bees-with-color/bee-B1SM.svg\" width=\"200\">\n                    <p><span class=\"redText\">Bad choice,</span> the bee was friendly.<br>Your bonus pay is unchanged, and remains at $0.62.</p>\n            ","response":0,"trial_type":"html-button-response","trial_index":126,"time_elapsed":401066,"internal_node_id":"0.0-4.0-1.59","subject_id":"5d67b6d92b7448000173d95a","study_id":"6197b3f67c2b5cd3b6d9596a","session_id":"6197c74d23edbbf10a4ce35f","condition":"full-information","relevant_dimensions":["wings","pattern"],"bee_group":{"antennae":"X","wings":"2","pattern":"D","legs":"X"},"bonus":0.760000000000001},{"rt":1116.800000011921,"stimulus":"bees-with-color/bee-A2DF.svg","response":1,"trial_type":"image-button-response","trial_index":127,"time_elapsed":402184,"internal_node_id":"0.0-4.0-0.60","subject_id":"5d67b6d92b7448000173d95a","study_id":"6197b3f67c2b5cd3b6d9596a","session_id":"6197c74d23edbbf10a4ce35f","condition":"full-information","relevant_dimensions":["wings","pattern"],"bee_group":{"antennae":"X","wings":"2","pattern":"D","legs":"X"},"action":"avoid","summary":"good-avoid","bonus":0.760000000000001},{"rt":1266.0999999940395,"stimulus":"\n                    <p><b>Action: <em>avoid</em></b></p>\n                    <p>This is the bee that you just saw.</p>\n                    <img src=\"bees-with-color/bee-A2DF.svg\" width=\"200\">\n                    <p><span class=\"greenText\">Good choice!</span>  This bee would have stung you.<br>Your bonus pay is unchanged, and remains at $0.62.</p>\n            ","response":0,"trial_type":"html-button-response","trial_index":128,"time_elapsed":403451,"internal_node_id":"0.0-4.0-1.60","subject_id":"5d67b6d92b7448000173d95a","study_id":"6197b3f67c2b5cd3b6d9596a","session_id":"6197c74d23edbbf10a4ce35f","condition":"full-information","relevant_dimensions":["wings","pattern"],"bee_group":{"antennae":"X","wings":"2","pattern":"D","legs":"X"},"bonus":0.760000000000001},{"rt":1749.1000000089407,"stimulus":"bees-with-color/bee-B1DM.svg","response":1,"trial_type":"image-button-response","trial_index":129,"time_elapsed":405201,"internal_node_id":"0.0-4.0-0.61","subject_id":"5d67b6d92b7448000173d95a","study_id":"6197b3f67c2b5cd3b6d9596a","session_id":"6197c74d23edbbf10a4ce35f","condition":"full-information","relevant_dimensions":["wings","pattern"],"bee_group":{"antennae":"X","wings":"2","pattern":"D","legs":"X"},"action":"avoid","summary":"bad-avoid","bonus":0.760000000000001},{"rt":594.5999999940395,"stimulus":"\n                    <p><b>Action: <em>avoid</em></b></p>\n                    <p>This is the bee that you just saw.</p>\n                    <img src=\"bees-with-color/bee-B1DM.svg\" width=\"200\">\n                    <p><span class=\"redText\">Bad choice,</span> the bee was friendly.<br>Your bonus pay is unchanged, and remains at $0.62.</p>\n            ","response":0,"trial_type":"html-button-response","trial_index":130,"time_elapsed":405796,"internal_node_id":"0.0-4.0-1.61","subject_id":"5d67b6d92b7448000173d95a","study_id":"6197b3f67c2b5cd3b6d9596a","session_id":"6197c74d23edbbf10a4ce35f","condition":"full-information","relevant_dimensions":["wings","pattern"],"bee_group":{"antennae":"X","wings":"2","pattern":"D","legs":"X"},"bonus":0.760000000000001},{"rt":1788.0999999940395,"stimulus":"bees-with-color/bee-B2DM.svg","response":0,"trial_type":"image-button-response","trial_index":131,"time_elapsed":407585,"internal_node_id":"0.0-4.0-0.62","subject_id":"5d67b6d92b7448000173d95a","study_id":"6197b3f67c2b5cd3b6d9596a","session_id":"6197c74d23edbbf10a4ce35f","condition":"full-information","relevant_dimensions":["wings","pattern"],"bee_group":{"antennae":"X","wings":"2","pattern":"D","legs":"X"},"action":"harvest","summary":"bad-harvest","bonus":0.760000000000001},{"rt":2842.3999999910593,"stimulus":"\n                    <p><b>Action: <em>harvest</em></b></p>\n                    <p>This is the bee that you just saw.</p>\n                    <img src=\"bees-with-color/bee-B2DM.svg\" width=\"200\">\n                    <p><span class=\"redText\">Bad choice, the bee was angry.</span><br><b>You have been stung!</b><br>Your pay has been decreased by $0.10. Your bonus pay is now $0.52.</p>\n            ","response":0,"trial_type":"html-button-response","trial_index":132,"time_elapsed":410428,"internal_node_id":"0.0-4.0-1.62","subject_id":"5d67b6d92b7448000173d95a","study_id":"6197b3f67c2b5cd3b6d9596a","session_id":"6197c74d23edbbf10a4ce35f","condition":"full-information","relevant_dimensions":["wings","pattern"],"bee_group":{"antennae":"X","wings":"2","pattern":"D","legs":"X"},"bonus":0.760000000000001},{"rt":968.8999999910593,"stimulus":"bees-with-color/bee-B2SF.svg","response":0,"trial_type":"image-button-response","trial_index":133,"time_elapsed":411398,"internal_node_id":"0.0-4.0-0.63","subject_id":"5d67b6d92b7448000173d95a","study_id":"6197b3f67c2b5cd3b6d9596a","session_id":"6197c74d23edbbf10a4ce35f","condition":"full-information","relevant_dimensions":["wings","pattern"],"bee_group":{"antennae":"X","wings":"2","pattern":"D","legs":"X"},"action":"harvest","summary":"good-harvest","bonus":0.760000000000001},{"rt":636.3999999910593,"stimulus":"\n                    <p><b>Action: <em>harvest</em></b></p>\n                    <p>This is the bee that you just saw.</p>\n                    <img src=\"bees-with-color/bee-B2SF.svg\" width=\"200\">\n                    <p><span class=\"greenText\"><b>Successful harvest!</b></span><br>Your pay has increased by $0.02. Your bonus pay is now $0.54.</p>\n            ","response":0,"trial_type":"html-button-response","trial_index":134,"time_elapsed":412035,"internal_node_id":"0.0-4.0-1.63","subject_id":"5d67b6d92b7448000173d95a","study_id":"6197b3f67c2b5cd3b6d9596a","session_id":"6197c74d23edbbf10a4ce35f","condition":"full-information","relevant_dimensions":["wings","pattern"],"bee_group":{"antennae":"X","wings":"2","pattern":"D","legs":"X"},"bonus":0.760000000000001},{"rt":6031.4000000059605,"stimulus":"You have completed the first part of this experiment.<br><br>You will now begin a shorter second part, in which you will receive no feedback.<br>The same rules regarding bonus pay apply.<br><br>Press any key to begin.","response":" ","trial_type":"html-keyboard-response","trial_index":135,"time_elapsed":418067,"internal_node_id":"0.0-5.0","subject_id":"5d67b6d92b7448000173d95a","study_id":"6197b3f67c2b5cd3b6d9596a","session_id":"6197c74d23edbbf10a4ce35f","condition":"full-information","relevant_dimensions":["wings","pattern"],"bee_group":{"antennae":"X","wings":"2","pattern":"D","legs":"X"},"bonus":0.760000000000001},{"rt":2163.5,"stimulus":"bees-with-color/bee-B2SF.svg","response":0,"trial_type":"image-button-response","trial_index":136,"time_elapsed":420235,"internal_node_id":"0.0-6.0-0.0","subject_id":"5d67b6d92b7448000173d95a","study_id":"6197b3f67c2b5cd3b6d9596a","session_id":"6197c74d23edbbf10a4ce35f","condition":"full-information","relevant_dimensions":["wings","pattern"],"bee_group":{"antennae":"X","wings":"2","pattern":"D","legs":"X"},"bonus":0.760000000000001},{"rt":2114.800000011921,"stimulus":"bees-with-color/bee-A1SM.svg","response":0,"trial_type":"image-button-response","trial_index":137,"time_elapsed":422351,"internal_node_id":"0.0-6.0-0.1","subject_id":"5d67b6d92b7448000173d95a","study_id":"6197b3f67c2b5cd3b6d9596a","session_id":"6197c74d23edbbf10a4ce35f","condition":"full-information","relevant_dimensions":["wings","pattern"],"bee_group":{"antennae":"X","wings":"2","pattern":"D","legs":"X"},"bonus":0.760000000000001},{"rt":1508,"stimulus":"bees-with-color/bee-B1SM.svg","response":1,"trial_type":"image-button-response","trial_index":138,"time_elapsed":423860,"internal_node_id":"0.0-6.0-0.2","subject_id":"5d67b6d92b7448000173d95a","study_id":"6197b3f67c2b5cd3b6d9596a","session_id":"6197c74d23edbbf10a4ce35f","condition":"full-information","relevant_dimensions":["wings","pattern"],"bee_group":{"antennae":"X","wings":"2","pattern":"D","legs":"X"},"bonus":0.760000000000001},{"rt":3480,"stimulus":"bees-with-color/bee-B2SM.svg","response":1,"trial_type":"image-button-response","trial_index":139,"time_elapsed":427341,"internal_node_id":"0.0-6.0-0.3","subject_id":"5d67b6d92b7448000173d95a","study_id":"6197b3f67c2b5cd3b6d9596a","session_id":"6197c74d23edbbf10a4ce35f","condition":"full-information","relevant_dimensions":["wings","pattern"],"bee_group":{"antennae":"X","wings":"2","pattern":"D","legs":"X"},"bonus":0.760000000000001},{"rt":1608.7999999970198,"stimulus":"bees-with-color/bee-A2DF.svg","response":0,"trial_type":"image-button-response","trial_index":140,"time_elapsed":428951,"internal_node_id":"0.0-6.0-0.4","subject_id":"5d67b6d92b7448000173d95a","study_id":"6197b3f67c2b5cd3b6d9596a","session_id":"6197c74d23edbbf10a4ce35f","condition":"full-information","relevant_dimensions":["wings","pattern"],"bee_group":{"antennae":"X","wings":"2","pattern":"D","legs":"X"},"bonus":0.760000000000001},{"rt":4793.4000000059605,"stimulus":"bees-with-color/bee-B1SF.svg","response":0,"trial_type":"image-button-response","trial_index":141,"time_elapsed":433745,"internal_node_id":"0.0-6.0-0.5","subject_id":"5d67b6d92b7448000173d95a","study_id":"6197b3f67c2b5cd3b6d9596a","session_id":"6197c74d23edbbf10a4ce35f","condition":"full-information","relevant_dimensions":["wings","pattern"],"bee_group":{"antennae":"X","wings":"2","pattern":"D","legs":"X"},"bonus":0.760000000000001},{"rt":4390.29999999702,"stimulus":"bees-with-color/bee-B2DM.svg","response":1,"trial_type":"image-button-response","trial_index":142,"time_elapsed":438137,"internal_node_id":"0.0-6.0-0.6","subject_id":"5d67b6d92b7448000173d95a","study_id":"6197b3f67c2b5cd3b6d9596a","session_id":"6197c74d23edbbf10a4ce35f","condition":"full-information","relevant_dimensions":["wings","pattern"],"bee_group":{"antennae":"X","wings":"2","pattern":"D","legs":"X"},"bonus":0.760000000000001},{"rt":1592.2000000029802,"stimulus":"bees-with-color/bee-A1DM.svg","response":0,"trial_type":"image-button-response","trial_index":143,"time_elapsed":439730,"internal_node_id":"0.0-6.0-0.7","subject_id":"5d67b6d92b7448000173d95a","study_id":"6197b3f67c2b5cd3b6d9596a","session_id":"6197c74d23edbbf10a4ce35f","condition":"full-information","relevant_dimensions":["wings","pattern"],"bee_group":{"antennae":"X","wings":"2","pattern":"D","legs":"X"},"bonus":0.760000000000001},{"rt":1540.199999988079,"stimulus":"bees-with-color/bee-A1SF.svg","response":0,"trial_type":"image-button-response","trial_index":144,"time_elapsed":441271,"internal_node_id":"0.0-6.0-0.8","subject_id":"5d67b6d92b7448000173d95a","study_id":"6197b3f67c2b5cd3b6d9596a","session_id":"6197c74d23edbbf10a4ce35f","condition":"full-information","relevant_dimensions":["wings","pattern"],"bee_group":{"antennae":"X","wings":"2","pattern":"D","legs":"X"},"bonus":0.760000000000001},{"rt":2505.7999999970198,"stimulus":"bees-with-color/bee-A1DF.svg","response":0,"trial_type":"image-button-response","trial_index":145,"time_elapsed":443778,"internal_node_id":"0.0-6.0-0.9","subject_id":"5d67b6d92b7448000173d95a","study_id":"6197b3f67c2b5cd3b6d9596a","session_id":"6197c74d23edbbf10a4ce35f","condition":"full-information","relevant_dimensions":["wings","pattern"],"bee_group":{"antennae":"X","wings":"2","pattern":"D","legs":"X"},"bonus":0.760000000000001},{"rt":1583.2000000029802,"stimulus":"bees-with-color/bee-B1DM.svg","response":1,"trial_type":"image-button-response","trial_index":146,"time_elapsed":445362,"internal_node_id":"0.0-6.0-0.10","subject_id":"5d67b6d92b7448000173d95a","study_id":"6197b3f67c2b5cd3b6d9596a","session_id":"6197c74d23edbbf10a4ce35f","condition":"full-information","relevant_dimensions":["wings","pattern"],"bee_group":{"antennae":"X","wings":"2","pattern":"D","legs":"X"},"bonus":0.760000000000001},{"rt":1961.0999999940395,"stimulus":"bees-with-color/bee-A2SM.svg","response":0,"trial_type":"image-button-response","trial_index":147,"time_elapsed":447324,"internal_node_id":"0.0-6.0-0.11","subject_id":"5d67b6d92b7448000173d95a","study_id":"6197b3f67c2b5cd3b6d9596a","session_id":"6197c74d23edbbf10a4ce35f","condition":"full-information","relevant_dimensions":["wings","pattern"],"bee_group":{"antennae":"X","wings":"2","pattern":"D","legs":"X"},"bonus":0.760000000000001},{"rt":1409.8999999910593,"stimulus":"bees-with-color/bee-A2DM.svg","response":1,"trial_type":"image-button-response","trial_index":148,"time_elapsed":448735,"internal_node_id":"0.0-6.0-0.12","subject_id":"5d67b6d92b7448000173d95a","study_id":"6197b3f67c2b5cd3b6d9596a","session_id":"6197c74d23edbbf10a4ce35f","condition":"full-information","relevant_dimensions":["wings","pattern"],"bee_group":{"antennae":"X","wings":"2","pattern":"D","legs":"X"},"bonus":0.760000000000001},{"rt":982.1000000089407,"stimulus":"bees-with-color/bee-B2DF.svg","response":1,"trial_type":"image-button-response","trial_index":149,"time_elapsed":449718,"internal_node_id":"0.0-6.0-0.13","subject_id":"5d67b6d92b7448000173d95a","study_id":"6197b3f67c2b5cd3b6d9596a","session_id":"6197c74d23edbbf10a4ce35f","condition":"full-information","relevant_dimensions":["wings","pattern"],"bee_group":{"antennae":"X","wings":"2","pattern":"D","legs":"X"},"bonus":0.760000000000001},{"rt":4070.0999999940395,"stimulus":"bees-with-color/bee-A2SF.svg","response":0,"trial_type":"image-button-response","trial_index":150,"time_elapsed":453789,"internal_node_id":"0.0-6.0-0.14","subject_id":"5d67b6d92b7448000173d95a","study_id":"6197b3f67c2b5cd3b6d9596a","session_id":"6197c74d23edbbf10a4ce35f","condition":"full-information","relevant_dimensions":["wings","pattern"],"bee_group":{"antennae":"X","wings":"2","pattern":"D","legs":"X"},"bonus":0.760000000000001},{"rt":2342.1000000089407,"stimulus":"bees-with-color/bee-B1DF.svg","response":1,"trial_type":"image-button-response","trial_index":151,"time_elapsed":456132,"internal_node_id":"0.0-6.0-0.15","subject_id":"5d67b6d92b7448000173d95a","study_id":"6197b3f67c2b5cd3b6d9596a","session_id":"6197c74d23edbbf10a4ce35f","condition":"full-information","relevant_dimensions":["wings","pattern"],"bee_group":{"antennae":"X","wings":"2","pattern":"D","legs":"X"},"bonus":0.760000000000001},{"rt":4936.100000008941,"stimulus":"bees-with-color/bee-A1DM.svg","response":1,"trial_type":"image-button-response","trial_index":152,"time_elapsed":461069,"internal_node_id":"0.0-6.0-0.16","subject_id":"5d67b6d92b7448000173d95a","study_id":"6197b3f67c2b5cd3b6d9596a","session_id":"6197c74d23edbbf10a4ce35f","condition":"full-information","relevant_dimensions":["wings","pattern"],"bee_group":{"antennae":"X","wings":"2","pattern":"D","legs":"X"},"bonus":0.760000000000001},{"rt":2326.699999988079,"stimulus":"bees-with-color/bee-A2DF.svg","response":1,"trial_type":"image-button-response","trial_index":153,"time_elapsed":463397,"internal_node_id":"0.0-6.0-0.17","subject_id":"5d67b6d92b7448000173d95a","study_id":"6197b3f67c2b5cd3b6d9596a","session_id":"6197c74d23edbbf10a4ce35f","condition":"full-information","relevant_dimensions":["wings","pattern"],"bee_group":{"antennae":"X","wings":"2","pattern":"D","legs":"X"},"bonus":0.760000000000001},{"rt":1233.2999999970198,"stimulus":"bees-with-color/bee-B1SF.svg","response":0,"trial_type":"image-button-response","trial_index":154,"time_elapsed":464631,"internal_node_id":"0.0-6.0-0.18","subject_id":"5d67b6d92b7448000173d95a","study_id":"6197b3f67c2b5cd3b6d9596a","session_id":"6197c74d23edbbf10a4ce35f","condition":"full-information","relevant_dimensions":["wings","pattern"],"bee_group":{"antennae":"X","wings":"2","pattern":"D","legs":"X"},"bonus":0.760000000000001},{"rt":1614.5999999940395,"stimulus":"bees-with-color/bee-A2SF.svg","response":0,"trial_type":"image-button-response","trial_index":155,"time_elapsed":466246,"internal_node_id":"0.0-6.0-0.19","subject_id":"5d67b6d92b7448000173d95a","study_id":"6197b3f67c2b5cd3b6d9596a","session_id":"6197c74d23edbbf10a4ce35f","condition":"full-information","relevant_dimensions":["wings","pattern"],"bee_group":{"antennae":"X","wings":"2","pattern":"D","legs":"X"},"bonus":0.760000000000001},{"rt":8477.79999999702,"stimulus":"bees-with-color/bee-B2SF.svg","response":0,"trial_type":"image-button-response","trial_index":156,"time_elapsed":474725,"internal_node_id":"0.0-6.0-0.20","subject_id":"5d67b6d92b7448000173d95a","study_id":"6197b3f67c2b5cd3b6d9596a","session_id":"6197c74d23edbbf10a4ce35f","condition":"full-information","relevant_dimensions":["wings","pattern"],"bee_group":{"antennae":"X","wings":"2","pattern":"D","legs":"X"},"bonus":0.760000000000001},{"rt":1408,"stimulus":"bees-with-color/bee-B2DF.svg","response":1,"trial_type":"image-button-response","trial_index":157,"time_elapsed":476134,"internal_node_id":"0.0-6.0-0.21","subject_id":"5d67b6d92b7448000173d95a","study_id":"6197b3f67c2b5cd3b6d9596a","session_id":"6197c74d23edbbf10a4ce35f","condition":"full-information","relevant_dimensions":["wings","pattern"],"bee_group":{"antennae":"X","wings":"2","pattern":"D","legs":"X"},"bonus":0.760000000000001},{"rt":2040.6000000089407,"stimulu