[{"success":true,"trial_type":"fullscreen","trial_index":0,"time_elapsed":17833,"internal_node_id":"0.0-0.0","subject_id":"5f2af90688d9b246791ba03d","study_id":"6197b3f67c2b5cd3b6d9596a","session_id":"619beefc8a4d966ac8957e89","condition":"full-information","relevant_dimensions":["antennae","wings"],"bee_group":{"antennae":"B","wings":"1","pattern":"X","legs":"X"},"bonus":1.740000000000001},{"success":true,"timeout":false,"failed_images":[],"failed_audio":[],"failed_video":[],"trial_type":"preload","trial_index":1,"time_elapsed":19872,"internal_node_id":"0.0-1.0","subject_id":"5f2af90688d9b246791ba03d","study_id":"6197b3f67c2b5cd3b6d9596a","session_id":"619beefc8a4d966ac8957e89","condition":"full-information","relevant_dimensions":["antennae","wings"],"bee_group":{"antennae":"B","wings":"1","pattern":"X","legs":"X"},"bonus":1.740000000000001},{"rt":6115.199999809265,"stimulus":"Welcome! Press any key to begin.","response":"b","trial_type":"html-keyboard-response","trial_index":2,"time_elapsed":25988,"internal_node_id":"0.0-2.0","subject_id":"5f2af90688d9b246791ba03d","study_id":"6197b3f67c2b5cd3b6d9596a","session_id":"619beefc8a4d966ac8957e89","condition":"full-information","relevant_dimensions":["antennae","wings"],"bee_group":{"antennae":"B","wings":"1","pattern":"X","legs":"X"},"bonus":1.740000000000001},{"view_history":[{"page_index":0,"viewing_time":4170.5},{"page_index":1,"viewing_time":9407.89999961853},{"page_index":2,"viewing_time":6168},{"page_index":3,"viewing_time":8664},{"page_index":4,"viewing_time":5879.89999961853},{"page_index":5,"viewing_time":4695.800000190735},{"page_index":6,"viewing_time":12904},{"page_index":7,"viewing_time":4328.10000038147},{"page_index":8,"viewing_time":3312},{"page_index":9,"viewing_time":23183.89999961853},{"page_index":8,"viewing_time":912},{"page_index":7,"viewing_time":879.9000005722046},{"page_index":8,"viewing_time":10583.89999961853},{"page_index":9,"viewing_time":7712},{"page_index":10,"viewing_time":6032},{"page_index":11,"viewing_time":12335.89999961853},{"page_index":12,"viewing_time":5664},{"page_index":13,"viewing_time":14095.900000572205},{"page_index":14,"viewing_time":744}],"rt":141674.0999994278,"trial_type":"instructions","trial_index":3,"time_elapsed":167663,"internal_node_id":"0.0-3.0-0.0","subject_id":"5f2af90688d9b246791ba03d","study_id":"6197b3f67c2b5cd3b6d9596a","session_id":"619beefc8a4d966ac8957e89","condition":"full-information","relevant_dimensions":["antennae","wings"],"bee_group":{"antennae":"B","wings":"1","pattern":"X","legs":"X"},"bonus":1.740000000000001},{"rt":6652.300000190735,"response":{"Q0":["Two or six legs","Stripes or spots on body","Single or double wings","Antennae or no antennae"]},"question_order":[0],"trial_type":"survey-multi-select","trial_index":4,"time_elapsed":174320,"internal_node_id":"0.0-3.0-1.0","subject_id":"5f2af90688d9b246791ba03d","study_id":"6197b3f67c2b5cd3b6d9596a","session_id":"619beefc8a4d966ac8957e89","condition":"full-information","relevant_dimensions":["antennae","wings"],"bee_group":{"antennae":"B","wings":"1","pattern":"X","legs":"X"},"correct":true,"bonus":1.740000000000001},{"rt":20645.60000038147,"response":{"Q1":"No.","Q2":"Based on the four features of the bee.","Q3":"You learn if it was friendly or dangerous, but do not alter your bonus."},"question_order":[0,1,2],"trial_type":"survey-multi-choice","trial_index":5,"time_elapsed":194967,"internal_node_id":"0.0-3.0-2.0","subject_id":"5f2af90688d9b246791ba03d","study_id":"6197b3f67c2b5cd3b6d9596a","session_id":"619beefc8a4d966ac8957e89","condition":"full-information","relevant_dimensions":["antennae","wings"],"bee_group":{"antennae":"B","wings":"1","pattern":"X","legs":"X"},"correct":true,"bonus":1.740000000000001},{"rt":2038.1000003814697,"stimulus":"<p>Congrats, you got everything right<br>When you're ready, click the button below to continue to the experiment.</p>","response":0,"trial_type":"html-button-response","trial_index":6,"time_elapsed":197007,"internal_node_id":"0.0-3.0-3.0","subject_id":"5f2af90688d9b246791ba03d","study_id":"6197b3f67c2b5cd3b6d9596a","session_id":"619beefc8a4d966ac8957e89","condition":"full-information","relevant_dimensions":["antennae","wings"],"bee_group":{"antennae":"B","wings":"1","pattern":"X","legs":"X"},"bonus":1.740000000000001},{"rt":4941.699999809265,"stimulus":"bees-with-color/bee-A1SF.svg","response":0,"trial_type":"image-button-response","trial_index":7,"time_elapsed":201951,"internal_node_id":"0.0-4.0-0.0","subject_id":"5f2af90688d9b246791ba03d","study_id":"6197b3f67c2b5cd3b6d9596a","session_id":"619beefc8a4d966ac8957e89","condition":"full-information","relevant_dimensions":["antennae","wings"],"bee_group":{"antennae":"B","wings":"1","pattern":"X","legs":"X"},"action":"harvest","summary":"good-harvest","bonus":1.740000000000001},{"rt":10533,"stimulus":"\n                    <p><b>Action: <em>harvest</em></b></p>\n                    <p>This is the bee that you just saw.</p>\n                    <img src=\"bees-with-color/bee-A1SF.svg\" width=\"200\">\n                    <p><span class=\"greenText\"><b>Successful harvest!</b></span><br>Your pay has increased by $0.02. Your bonus pay is now $0.56.</p>\n            ","response":0,"trial_type":"html-button-response","trial_index":8,"time_elapsed":212487,"internal_node_id":"0.0-4.0-1.0","subject_id":"5f2af90688d9b246791ba03d","study_id":"6197b3f67c2b5cd3b6d9596a","session_id":"619beefc8a4d966ac8957e89","condition":"full-information","relevant_dimensions":["antennae","wings"],"bee_group":{"antennae":"B","wings":"1","pattern":"X","legs":"X"},"bonus":1.740000000000001},{"rt":3453.800000190735,"stimulus":"bees-with-color/bee-A1DF.svg","response":0,"trial_type":"image-button-response","trial_index":9,"time_elapsed":215943,"internal_node_id":"0.0-4.0-0.1","subject_id":"5f2af90688d9b246791ba03d","study_id":"6197b3f67c2b5cd3b6d9596a","session_id":"619beefc8a4d966ac8957e89","condition":"full-information","relevant_dimensions":["antennae","wings"],"bee_group":{"antennae":"B","wings":"1","pattern":"X","legs":"X"},"action":"harvest","summary":"good-harvest","bonus":1.740000000000001},{"rt":5197.60000038147,"stimulus":"\n                    <p><b>Action: <em>harvest</em></b></p>\n                    <p>This is the bee that you just saw.</p>\n                    <img src=\"bees-with-color/bee-A1DF.svg\" width=\"200\">\n                    <p><span class=\"greenText\"><b>Successful harvest!</b></span><br>Your pay has increased by $0.02. Your bonus pay is now $0.58.</p>\n            ","response":0,"trial_type":"html-button-response","trial_index":10,"time_elapsed":221143,"internal_node_id":"0.0-4.0-1.1","subject_id":"5f2af90688d9b246791ba03d","study_id":"6197b3f67c2b5cd3b6d9596a","session_id":"619beefc8a4d966ac8957e89","condition":"full-information","relevant_dimensions":["antennae","wings"],"bee_group":{"antennae":"B","wings":"1","pattern":"X","legs":"X"},"bonus":1.740000000000001},{"rt":4637.800000190735,"stimulus":"bees-with-color/bee-B2DM.svg","response":1,"trial_type":"image-button-response","trial_index":11,"time_elapsed":225783,"internal_node_id":"0.0-4.0-0.2","subject_id":"5f2af90688d9b246791ba03d","study_id":"6197b3f67c2b5cd3b6d9596a","session_id":"619beefc8a4d966ac8957e89","condition":"full-information","relevant_dimensions":["antennae","wings"],"bee_group":{"antennae":"B","wings":"1","pattern":"X","legs":"X"},"action":"avoid","summary":"bad-avoid","bonus":1.740000000000001},{"rt":8981.89999961853,"stimulus":"\n                    <p><b>Action: <em>avoid</em></b></p>\n                    <p>This is the bee that you just saw.</p>\n                    <img src=\"bees-with-color/bee-B2DM.svg\" width=\"200\">\n                    <p><span class=\"redText\">Bad choice,</span> the bee was friendly.<br>Your bonus pay is unchanged, and remains at $0.58.</p>\n            ","response":0,"trial_type":"html-button-response","trial_index":12,"time_elapsed":234767,"internal_node_id":"0.0-4.0-1.2","subject_id":"5f2af90688d9b246791ba03d","study_id":"6197b3f67c2b5cd3b6d9596a","session_id":"619beefc8a4d966ac8957e89","condition":"full-information","relevant_dimensions":["antennae","wings"],"bee_group":{"antennae":"B","wings":"1","pattern":"X","legs":"X"},"bonus":1.740000000000001},{"rt":2598.1000003814697,"stimulus":"bees-with-color/bee-B2SF.svg","response":0,"trial_type":"image-button-response","trial_index":13,"time_elapsed":237367,"internal_node_id":"0.0-4.0-0.3","subject_id":"5f2af90688d9b246791ba03d","study_id":"6197b3f67c2b5cd3b6d9596a","session_id":"619beefc8a4d966ac8957e89","condition":"full-information","relevant_dimensions":["antennae","wings"],"bee_group":{"antennae":"B","wings":"1","pattern":"X","legs":"X"},"action":"harvest","summary":"good-harvest","bonus":1.740000000000001},{"rt":14237.79999923706,"stimulus":"\n                    <p><b>Action: <em>harvest</em></b></p>\n                    <p>This is the bee that you just saw.</p>\n                    <img src=\"bees-with-color/bee-B2SF.svg\" width=\"200\">\n                    <p><span class=\"greenText\"><b>Successful harvest!</b></span><br>Your pay has increased by $0.02. Your bonus pay is now $0.60.</p>\n            ","response":0,"trial_type":"html-button-response","trial_index":14,"time_elapsed":251607,"internal_node_id":"0.0-4.0-1.3","subject_id":"5f2af90688d9b246791ba03d","study_id":"6197b3f67c2b5cd3b6d9596a","session_id":"619beefc8a4d966ac8957e89","condition":"full-information","relevant_dimensions":["antennae","wings"],"bee_group":{"antennae":"B","wings":"1","pattern":"X","legs":"X"},"bonus":1.740000000000001},{"rt":1798,"stimulus":"bees-with-color/bee-A1SM.svg","response":0,"trial_type":"image-button-response","trial_index":15,"time_elapsed":253407,"internal_node_id":"0.0-4.0-0.4","subject_id":"5f2af90688d9b246791ba03d","study_id":"6197b3f67c2b5cd3b6d9596a","session_id":"619beefc8a4d966ac8957e89","condition":"full-information","relevant_dimensions":["antennae","wings"],"bee_group":{"antennae":"B","wings":"1","pattern":"X","legs":"X"},"action":"harvest","summary":"good-harvest","bonus":1.740000000000001},{"rt":4741.89999961853,"stimulus":"\n                    <p><b>Action: <em>harvest</em></b></p>\n                    <p>This is the bee that you just saw.</p>\n                    <img src=\"bees-with-color/bee-A1SM.svg\" width=\"200\">\n                    <p><span class=\"greenText\"><b>Successful harvest!</b></span><br>Your pay has increased by $0.02. Your bonus pay is now $0.62.</p>\n            ","response":0,"trial_type":"html-button-response","trial_index":16,"time_elapsed":258151,"internal_node_id":"0.0-4.0-1.4","subject_id":"5f2af90688d9b246791ba03d","study_id":"6197b3f67c2b5cd3b6d9596a","session_id":"619beefc8a4d966ac8957e89","condition":"full-information","relevant_dimensions":["antennae","wings"],"bee_group":{"antennae":"B","wings":"1","pattern":"X","legs":"X"},"bonus":1.740000000000001},{"rt":1373.9000005722046,"stimulus":"bees-with-color/bee-B1SM.svg","response":1,"trial_type":"image-button-response","trial_index":17,"time_elapsed":259527,"internal_node_id":"0.0-4.0-0.5","subject_id":"5f2af90688d9b246791ba03d","study_id":"6197b3f67c2b5cd3b6d9596a","session_id":"619beefc8a4d966ac8957e89","condition":"full-information","relevant_dimensions":["antennae","wings"],"bee_group":{"antennae":"B","wings":"1","pattern":"X","legs":"X"},"action":"avoid","summary":"good-avoid","bonus":1.740000000000001},{"rt":10750,"stimulus":"\n                    <p><b>Action: <em>avoid</em></b></p>\n                    <p>This is the bee that you just saw.</p>\n                    <img src=\"bees-with-color/bee-B1SM.svg\" width=\"200\">\n                    <p><span class=\"greenText\">Good choice!</span>  This bee would have stung you.<br>Your bonus pay is unchanged, and remains at $0.62.</p>\n            ","response":0,"trial_type":"html-button-response","trial_index":18,"time_elapsed":270279,"internal_node_id":"0.0-4.0-1.5","subject_id":"5f2af90688d9b246791ba03d","study_id":"6197b3f67c2b5cd3b6d9596a","session_id":"619beefc8a4d966ac8957e89","condition":"full-information","relevant_dimensions":["antennae","wings"],"bee_group":{"antennae":"B","wings":"1","pattern":"X","legs":"X"},"bonus":1.740000000000001},{"rt":1213.5999994277954,"stimulus":"bees-with-color/bee-A2DM.svg","response":0,"trial_type":"image-button-response","trial_index":19,"time_elapsed":271495,"internal_node_id":"0.0-4.0-0.6","subject_id":"5f2af90688d9b246791ba03d","study_id":"6197b3f67c2b5cd3b6d9596a","session_id":"619beefc8a4d966ac8957e89","condition":"full-information","relevant_dimensions":["antennae","wings"],"bee_group":{"antennae":"B","wings":"1","pattern":"X","legs":"X"},"action":"harvest","summary":"good-harvest","bonus":1.740000000000001},{"rt":1110,"stimulus":"\n                    <p><b>Action: <em>harvest</em></b></p>\n                    <p>This is the bee that you just saw.</p>\n                    <img src=\"bees-with-color/bee-A2DM.svg\" width=\"200\">\n                    <p><span class=\"greenText\"><b>Successful harvest!</b></span><br>Your pay has increased by $0.02. Your bonus pay is now $0.64.</p>\n            ","response":0,"trial_type":"html-button-response","trial_index":20,"time_elapsed":272607,"internal_node_id":"0.0-4.0-1.6","subject_id":"5f2af90688d9b246791ba03d","study_id":"6197b3f67c2b5cd3b6d9596a","session_id":"619beefc8a4d966ac8957e89","condition":"full-information","relevant_dimensions":["antennae","wings"],"bee_group":{"antennae":"B","wings":"1","pattern":"X","legs":"X"},"bonus":1.740000000000001},{"rt":822.3000001907349,"stimulus":"bees-with-color/bee-B1DF.svg","response":1,"trial_type":"image-button-response","trial_index":21,"time_elapsed":273431,"internal_node_id":"0.0-4.0-0.7","subject_id":"5f2af90688d9b246791ba03d","study_id":"6197b3f67c2b5cd3b6d9596a","session_id":"619beefc8a4d966ac8957e89","condition":"full-information","relevant_dimensions":["antennae","wings"],"bee_group":{"antennae":"B","wings":"1","pattern":"X","legs":"X"},"action":"avoid","summary":"good-avoid","bonus":1.740000000000001},{"rt":4349.599999427795,"stimulus":"\n                    <p><b>Action: <em>avoid</em></b></p>\n                    <p>This is the bee that you just saw.</p>\n                    <img src=\"bees-with-color/bee-B1DF.svg\" width=\"200\">\n                    <p><span class=\"greenText\">Good choice!</span>  This bee would have stung you.<br>Your bonus pay is unchanged, and remains at $0.64.</p>\n            ","response":0,"trial_type":"html-button-response","trial_index":22,"time_elapsed":277783,"internal_node_id":"0.0-4.0-1.7","subject_id":"5f2af90688d9b246791ba03d","study_id":"6197b3f67c2b5cd3b6d9596a","session_id":"619beefc8a4d966ac8957e89","condition":"full-information","relevant_dimensions":["antennae","wings"],"bee_group":{"antennae":"B","wings":"1","pattern":"X","legs":"X"},"bonus":1.740000000000001},{"rt":1438,"stimulus":"bees-with-color/bee-A2SM.svg","response":0,"trial_type":"image-button-response","trial_index":23,"time_elapsed":279223,"internal_node_id":"0.0-4.0-0.8","subject_id":"5f2af90688d9b246791ba03d","study_id":"6197b3f67c2b5cd3b6d9596a","session_id":"619beefc8a4d966ac8957e89","condition":"full-information","relevant_dimensions":["antennae","wings"],"bee_group":{"antennae":"B","wings":"1","pattern":"X","legs":"X"},"action":"harvest","summary":"good-harvest","bonus":1.740000000000001},{"rt":3150.199999809265,"stimulus":"\n                    <p><b>Action: <em>harvest</em></b></p>\n                    <p>This is the bee that you just saw.</p>\n                    <img src=\"bees-with-color/bee-A2SM.svg\" width=\"200\">\n                    <p><span class=\"greenText\"><b>Successful harvest!</b></span><br>Your pay has increased by $0.02. Your bonus pay is now $0.66.</p>\n            ","response":0,"trial_type":"html-button-response","trial_index":24,"time_elapsed":282375,"internal_node_id":"0.0-4.0-1.8","subject_id":"5f2af90688d9b246791ba03d","study_id":"6197b3f67c2b5cd3b6d9596a","session_id":"619beefc8a4d966ac8957e89","condition":"full-information","relevant_dimensions":["antennae","wings"],"bee_group":{"antennae":"B","wings":"1","pattern":"X","legs":"X"},"bonus":1.740000000000001},{"rt":2126.5,"stimulus":"bees-with-color/bee-B2DF.svg","response":1,"trial_type":"image-button-response","trial_index":25,"time_elapsed":284503,"internal_node_id":"0.0-4.0-0.9","subject_id":"5f2af90688d9b246791ba03d","study_id":"6197b3f67c2b5cd3b6d9596a","session_id":"619beefc8a4d966ac8957e89","condition":"full-information","relevant_dimensions":["antennae","wings"],"bee_group":{"antennae":"B","wings":"1","pattern":"X","legs":"X"},"action":"avoid","summary":"bad-avoid","bonus":1.740000000000001},{"rt":1822.1999998092651,"stimulus":"\n                    <p><b>Action: <em>avoid</em></b></p>\n                    <p>This is the bee that you just saw.</p>\n                    <img src=\"bees-with-color/bee-B2DF.svg\" width=\"200\">\n                    <p><span class=\"redText\">Bad choice,</span> the bee was friendly.<br>Your bonus pay is unchanged, and remains at $0.66.</p>\n            ","response":0,"trial_type":"html-button-response","trial_index":26,"time_elapsed":286326,"internal_node_id":"0.0-4.0-1.9","subject_id":"5f2af90688d9b246791ba03d","study_id":"6197b3f67c2b5cd3b6d9596a","session_id":"619beefc8a4d966ac8957e89","condition":"full-information","relevant_dimensions":["antennae","wings"],"bee_group":{"antennae":"B","wings":"1","pattern":"X","legs":"X"},"bonus":1.740000000000001},{"rt":1230.5,"stimulus":"bees-with-color/bee-B1SF.svg","response":1,"trial_type":"image-button-response","trial_index":27,"time_elapsed":287559,"internal_node_id":"0.0-4.0-0.10","subject_id":"5f2af90688d9b246791ba03d","study_id":"6197b3f67c2b5cd3b6d9596a","session_id":"619beefc8a4d966ac8957e89","condition":"full-information","relevant_dimensions":["antennae","wings"],"bee_group":{"antennae":"B","wings":"1","pattern":"X","legs":"X"},"action":"avoid","summary":"good-avoid","bonus":1.740000000000001},{"rt":1342,"stimulus":"\n                    <p><b>Action: <em>avoid</em></b></p>\n                    <p>This is the bee that you just saw.</p>\n                    <img src=\"bees-with-color/bee-B1SF.svg\" width=\"200\">\n                    <p><span class=\"greenText\">Good choice!</span>  This bee would have stung you.<br>Your bonus pay is unchanged, and remains at $0.66.</p>\n            ","response":0,"trial_type":"html-button-response","trial_index":28,"time_elapsed":288902,"internal_node_id":"0.0-4.0-1.10","subject_id":"5f2af90688d9b246791ba03d","study_id":"6197b3f67c2b5cd3b6d9596a","session_id":"619beefc8a4d966ac8957e89","condition":"full-information","relevant_dimensions":["antennae","wings"],"bee_group":{"antennae":"B","wings":"1","pattern":"X","legs":"X"},"bonus":1.740000000000001},{"rt":2222.800000190735,"stimulus":"bees-with-color/bee-A2DF.svg","response":0,"trial_type":"image-button-response","trial_index":29,"time_elapsed":291126,"internal_node_id":"0.0-4.0-0.11","subject_id":"5f2af90688d9b246791ba03d","study_id":"6197b3f67c2b5cd3b6d9596a","session_id":"619beefc8a4d966ac8957e89","condition":"full-information","relevant_dimensions":["antennae","wings"],"bee_group":{"antennae":"B","wings":"1","pattern":"X","legs":"X"},"action":"harvest","summary":"good-harvest","bonus":1.740000000000001},{"rt":3230.300000190735,"stimulus":"\n                    <p><b>Action: <em>harvest</em></b></p>\n                    <p>This is the bee that you just saw.</p>\n                    <img src=\"bees-with-color/bee-A2DF.svg\" width=\"200\">\n                    <p><span class=\"greenText\"><b>Successful harvest!</b></span><br>Your pay has increased by $0.02. Your bonus pay is now $0.68.</p>\n            ","response":0,"trial_type":"html-button-response","trial_index":30,"time_elapsed":294358,"internal_node_id":"0.0-4.0-1.11","subject_id":"5f2af90688d9b246791ba03d","study_id":"6197b3f67c2b5cd3b6d9596a","session_id":"619beefc8a4d966ac8957e89","condition":"full-information","relevant_dimensions":["antennae","wings"],"bee_group":{"antennae":"B","wings":"1","pattern":"X","legs":"X"},"bonus":1.740000000000001},{"rt":1806.5,"stimulus":"bees-with-color/bee-B1DM.svg","response":1,"trial_type":"image-button-response","trial_index":31,"time_elapsed":296166,"internal_node_id":"0.0-4.0-0.12","subject_id":"5f2af90688d9b246791ba03d","study_id":"6197b3f67c2b5cd3b6d9596a","session_id":"619beefc8a4d966ac8957e89","condition":"full-information","relevant_dimensions":["antennae","wings"],"bee_group":{"antennae":"B","wings":"1","pattern":"X","legs":"X"},"action":"avoid","summary":"good-avoid","bonus":1.740000000000001},{"rt":942.1999998092651,"stimulus":"\n                    <p><b>Action: <em>avoid</em></b></p>\n                    <p>This is the bee that you just saw.</p>\n                    <img src=\"bees-with-color/bee-B1DM.svg\" width=\"200\">\n                    <p><span class=\"greenText\">Good choice!</span>  This bee would have stung you.<br>Your bonus pay is unchanged, and remains at $0.68.</p>\n            ","response":0,"trial_type":"html-button-response","trial_index":32,"time_elapsed":297110,"internal_node_id":"0.0-4.0-1.12","subject_id":"5f2af90688d9b246791ba03d","study_id":"6197b3f67c2b5cd3b6d9596a","session_id":"619beefc8a4d966ac8957e89","condition":"full-information","relevant_dimensions":["antennae","wings"],"bee_group":{"antennae":"B","wings":"1","pattern":"X","legs":"X"},"bonus":1.740000000000001},{"rt":1782.8000001907349,"stimulus":"bees-with-color/bee-B2SM.svg","response":0,"trial_type":"image-button-response","trial_index":33,"time_elapsed":298894,"internal_node_id":"0.0-4.0-0.13","subject_id":"5f2af90688d9b246791ba03d","study_id":"6197b3f67c2b5cd3b6d9596a","session_id":"619beefc8a4d966ac8957e89","condition":"full-information","relevant_dimensions":["antennae","wings"],"bee_group":{"antennae":"B","wings":"1","pattern":"X","legs":"X"},"action":"harvest","summary":"good-harvest","bonus":1.740000000000001},{"rt":934.2000007629395,"stimulus":"\n                    <p><b>Action: <em>harvest</em></b></p>\n                    <p>This is the bee that you just saw.</p>\n                    <img src=\"bees-with-color/bee-B2SM.svg\" width=\"200\">\n                    <p><span class=\"greenText\"><b>Successful harvest!</b></span><br>Your pay has increased by $0.02. Your bonus pay is now $0.70.</p>\n            ","response":0,"trial_type":"html-button-response","trial_index":34,"time_elapsed":299830,"internal_node_id":"0.0-4.0-1.13","subject_id":"5f2af90688d9b246791ba03d","study_id":"6197b3f67c2b5cd3b6d9596a","session_id":"619beefc8a4d966ac8957e89","condition":"full-information","relevant_dimensions":["antennae","wings"],"bee_group":{"antennae":"B","wings":"1","pattern":"X","legs":"X"},"bonus":1.740000000000001},{"rt":2478.6000003814697,"stimulus":"bees-with-color/bee-A1DM.svg","response":1,"trial_type":"image-button-response","trial_index":35,"time_elapsed":302310,"internal_node_id":"0.0-4.0-0.14","subject_id":"5f2af90688d9b246791ba03d","study_id":"6197b3f67c2b5cd3b6d9596a","session_id":"619beefc8a4d966ac8957e89","condition":"full-information","relevant_dimensions":["antennae","wings"],"bee_group":{"antennae":"B","wings":"1","pattern":"X","legs":"X"},"action":"avoid","summary":"bad-avoid","bonus":1.740000000000001},{"rt":702.3000001907349,"stimulus":"\n                    <p><b>Action: <em>avoid</em></b></p>\n                    <p>This is the bee that you just saw.</p>\n                    <img src=\"bees-with-color/bee-A1DM.svg\" width=\"200\">\n                    <p><span class=\"redText\">Bad choice,</span> the bee was friendly.<br>Your bonus pay is unchanged, and remains at $0.70.</p>\n            ","response":0,"trial_type":"html-button-response","trial_index":36,"time_elapsed":303014,"internal_node_id":"0.0-4.0-1.14","subject_id":"5f2af90688d9b246791ba03d","study_id":"6197b3f67c2b5cd3b6d9596a","session_id":"619beefc8a4d966ac8957e89","condition":"full-information","relevant_dimensions":["antennae","wings"],"bee_group":{"antennae":"B","wings":"1","pattern":"X","legs":"X"},"bonus":1.740000000000001},{"rt":998.4000005722046,"stimulus":"bees-with-color/bee-A2SF.svg","response":0,"trial_type":"image-button-response","trial_index":37,"time_elapsed":304014,"internal_node_id":"0.0-4.0-0.15","subject_id":"5f2af90688d9b246791ba03d","study_id":"6197b3f67c2b5cd3b6d9596a","session_id":"619beefc8a4d966ac8957e89","condition":"full-information","relevant_dimensions":["antennae","wings"],"bee_group":{"antennae":"B","wings":"1","pattern":"X","legs":"X"},"action":"harvest","summary":"good-harvest","bonus":1.740000000000001},{"rt":638.3000001907349,"stimulus":"\n                    <p><b>Action: <em>harvest</em></b></p>\n                    <p>This is the bee that you just saw.</p>\n                    <img src=\"bees-with-color/bee-A2SF.svg\" width=\"200\">\n                    <p><span class=\"greenText\"><b>Successful harvest!</b></span><br>Your pay has increased by $0.02. Your bonus pay is now $0.72.</p>\n            ","response":0,"trial_type":"html-button-response","trial_index":38,"time_elapsed":304654,"internal_node_id":"0.0-4.0-1.15","subject_id":"5f2af90688d9b246791ba03d","study_id":"6197b3f67c2b5cd3b6d9596a","session_id":"619beefc8a4d966ac8957e89","condition":"full-information","relevant_dimensions":["antennae","wings"],"bee_group":{"antennae":"B","wings":"1","pattern":"X","legs":"X"},"bonus":1.740000000000001},{"rt":1326.7000007629395,"stimulus":"bees-with-color/bee-A1DM.svg","response":0,"trial_type":"image-button-response","trial_index":39,"time_elapsed":305982,"internal_node_id":"0.0-4.0-0.16","subject_id":"5f2af90688d9b246791ba03d","study_id":"6197b3f67c2b5cd3b6d9596a","session_id":"619beefc8a4d966ac8957e89","condition":"full-information","relevant_dimensions":["antennae","wings"],"bee_group":{"antennae":"B","wings":"1","pattern":"X","legs":"X"},"action":"harvest","summary":"good-harvest","bonus":1.740000000000001},{"rt":598,"stimulus":"\n                    <p><b>Action: <em>harvest</em></b></p>\n                    <p>This is the bee that you just saw.</p>\n                    <img src=\"bees-with-color/bee-A1DM.svg\" width=\"200\">\n                    <p><span class=\"greenText\"><b>Successful harvest!</b></span><br>Your pay has increased by $0.02. Your bonus pay is now $0.74.</p>\n            ","response":0,"trial_type":"html-button-response","trial_index":40,"time_elapsed":306582,"internal_node_id":"0.0-4.0-1.16","subject_id":"5f2af90688d9b246791ba03d","study_id":"6197b3f67c2b5cd3b6d9596a","session_id":"619beefc8a4d966ac8957e89","condition":"full-information","relevant_dimensions":["antennae","wings"],"bee_group":{"antennae":"B","wings":"1","pattern":"X","legs":"X"},"bonus":1.740000000000001},{"rt":894.6000003814697,"stimulus":"bees-with-color/bee-A1SM.svg","response":0,"trial_type":"image-button-response","trial_index":41,"time_elapsed":307478,"internal_node_id":"0.0-4.0-0.17","subject_id":"5f2af90688d9b246791ba03d","study_id":"6197b3f67c2b5cd3b6d9596a","session_id":"619beefc8a4d966ac8957e89","condition":"full-information","relevant_dimensions":["antennae","wings"],"bee_group":{"antennae":"B","wings":"1","pattern":"X","legs":"X"},"action":"harvest","summary":"good-harvest","bonus":1.740000000000001},{"rt":598.2000007629395,"stimulus":"\n                    <p><b>Action: <em>harvest</em></b></p>\n                    <p>This is the bee that you just saw.</p>\n                    <img src=\"bees-with-color/bee-A1SM.svg\" width=\"200\">\n                    <p><span class=\"greenText\"><b>Successful harvest!</b></span><br>Your pay has increased by $0.02. Your bonus pay is now $0.76.</p>\n            ","response":0,"trial_type":"html-button-response","trial_index":42,"time_elapsed":308078,"internal_node_id":"0.0-4.0-1.17","subject_id":"5f2af90688d9b246791ba03d","study_id":"6197b3f67c2b5cd3b6d9596a","session_id":"619beefc8a4d966ac8957e89","condition":"full-information","relevant_dimensions":["antennae","wings"],"bee_group":{"antennae":"B","wings":"1","pattern":"X","legs":"X"},"bonus":1.740000000000001},{"rt":726.6000003814697,"stimulus":"bees-with-color/bee-A2DM.svg","response":0,"trial_type":"image-button-response","trial_index":43,"time_elapsed":308806,"internal_node_id":"0.0-4.0-0.18","subject_id":"5f2af90688d9b246791ba03d","study_id":"6197b3f67c2b5cd3b6d9596a","session_id":"619beefc8a4d966ac8957e89","condition":"full-information","relevant_dimensions":["antennae","wings"],"bee_group":{"antennae":"B","wings":"1","pattern":"X","legs":"X"},"action":"harvest","summary":"good-harvest","bonus":1.740000000000001},{"rt":590.1000003814697,"stimulus":"\n                    <p><b>Action: <em>harvest</em></b></p>\n                    <p>This is the bee that you just saw.</p>\n                    <img src=\"bees-with-color/bee-A2DM.svg\" width=\"200\">\n                    <p><span class=\"greenText\"><b>Successful harvest!</b></span><br>Your pay has increased by $0.02. Your bonus pay is now $0.78.</p>\n            ","response":0,"trial_type":"html-button-response","trial_index":44,"time_elapsed":309398,"internal_node_id":"0.0-4.0-1.18","subject_id":"5f2af90688d9b246791ba03d","study_id":"6197b3f67c2b5cd3b6d9596a","session_id":"619beefc8a4d966ac8957e89","condition":"full-information","relevant_dimensions":["antennae","wings"],"bee_group":{"antennae":"B","wings":"1","pattern":"X","legs":"X"},"bonus":1.740000000000001},{"rt":1430.5,"stimulus":"bees-with-color/bee-B2SF.svg","response":1,"trial_type":"image-button-response","trial_index":45,"time_elapsed":310830,"internal_node_id":"0.0-4.0-0.19","subject_id":"5f2af90688d9b246791ba03d","study_id":"6197b3f67c2b5cd3b6d9596a","session_id":"619beefc8a4d966ac8957e89","condition":"full-information","relevant_dimensions":["antennae","wings"],"bee_group":{"antennae":"B","wings":"1","pattern":"X","legs":"X"},"action":"avoid","summary":"bad-avoid","bonus":1.740000000000001},{"rt":590.1000003814697,"stimulus":"\n                    <p><b>Action: <em>avoid</em></b></p>\n                    <p>This is the bee that you just saw.</p>\n                    <img src=\"bees-with-color/bee-B2SF.svg\" width=\"200\">\n                    <p><span class=\"redText\">Bad choice,</span> the bee was friendly.<br>Your bonus pay is unchanged, and remains at $0.78.</p>\n            ","response":0,"trial_type":"html-button-response","trial_index":46,"time_elapsed":311422,"internal_node_id":"0.0-4.0-1.19","subject_id":"5f2af90688d9b246791ba03d","study_id":"6197b3f67c2b5cd3b6d9596a","session_id":"619beefc8a4d966ac8957e89","condition":"full-information","relevant_dimensions":["antennae","wings"],"bee_group":{"antennae":"B","wings":"1","pattern":"X","legs":"X"},"bonus":1.740000000000001},{"rt":1134.5,"stimulus":"bees-with-color/bee-A1DF.svg","response":1,"trial_type":"image-button-response","trial_index":47,"time_elapsed":312558,"internal_node_id":"0.0-4.0-0.20","subject_id":"5f2af90688d9b246791ba03d","study_id":"6197b3f67c2b5cd3b6d9596a","session_id":"619beefc8a4d966ac8957e89","condition":"full-information","relevant_dimensions":["antennae","wings"],"bee_group":{"antennae":"B","wings":"1","pattern":"X","legs":"X"},"action":"avoid","summary":"bad-avoid","bonus":1.740000000000001},{"rt":806.3000001907349,"stimulus":"\n                    <p><b>Action: <em>avoid</em></b></p>\n                    <p>This is the bee that you just saw.</p>\n                    <img src=\"bees-with-color/bee-A1DF.svg\" width=\"200\">\n                    <p><span class=\"redText\">Bad choice,</span> the bee was friendly.<br>Your bonus pay is unchanged, and remains at $0.78.</p>\n            ","response":0,"trial_type":"html-button-response","trial_index":48,"time_elapsed":313366,"internal_node_id":"0.0-4.0-1.20","subject_id":"5f2af90688d9b246791ba03d","study_id":"6197b3f67c2b5cd3b6d9596a","session_id":"619beefc8a4d966ac8957e89","condition":"full-information","relevant_dimensions":["antennae","wings"],"bee_group":{"antennae":"B","wings":"1","pattern":"X","legs":"X"},"bonus":1.740000000000001},{"rt":3366.5,"stimulus":"bees-with-color/bee-B1DF.svg","response":1,"trial_type":"image-button-response","trial_index":49,"time_elapsed":316734,"internal_node_id":"0.0-4.0-0.21","subject_id":"5f2af90688d9b246791ba03d","study_id":"6197b3f67c2b5cd3b6d9596a","session_id":"619beefc8a4d966ac8957e89","condition":"full-information","relevant_dimensions":["antennae","wings"],"bee_group":{"antennae":"B","wings":"1","pattern":"X","legs":"X"},"action":"avoid","summary":"good-avoid","bonus":1.740000000000001},{"rt":829.7999992370605,"stimulus":"\n                    <p><b>Action: <em>avoid</em></b></p>\n                    <p>This is the bee that you just saw.</p>\n                    <img src=\"bees-with-color/bee-B1DF.svg\" width=\"200\">\n                    <p><span class=\"greenText\">Good choice!</span>  This bee would have stung you.<br>Your bonus pay is unchanged, and remains at $0.78.</p>\n            ","response":0,"trial_type":"html-button-response","trial_index":50,"time_elapsed":317566,"internal_node_id":"0.0-4.0-1.21","subject_id":"5f2af90688d9b246791ba03d","study_id":"6197b3f67c2b5cd3b6d9596a","session_id":"619beefc8a4d966ac8957e89","condition":"full-information","relevant_dimensions":["antennae","wings"],"bee_group":{"antennae":"B","wings":"1","pattern":"X","legs":"X"},"bonus":1.740000000000001},{"rt":1190.5,"stimulus":"bees-with-color/bee-A2SM.svg","response":0,"trial_type":"image-button-response","trial_index":51,"time_elapsed":318758,"internal_node_id":"0.0-4.0-0.22","subject_id":"5f2af90688d9b246791ba03d","study_id":"6197b3f67c2b5cd3b6d9596a","session_id":"619beefc8a4d966ac8957e89","condition":"full-information","relevant_dimensions":["antennae","wings"],"bee_group":{"antennae":"B","wings":"1","pattern":"X","legs":"X"},"action":"harvest","summary":"good-harvest","bonus":1.740000000000001},{"rt":645,"stimulus":"\n                    <p><b>Action: <em>harvest</em></b></p>\n                    <p>This is the bee that you just saw.</p>\n                    <img src=\"bees-with-color/bee-A2SM.svg\" width=\"200\">\n                    <p><span class=\"greenText\"><b>Successful harvest!</b></span><br>Your pay has increased by $0.02. Your bonus pay is now $0.80.</p>\n            ","response":0,"trial_type":"html-button-response","trial_index":52,"time_elapsed":319406,"internal_node_id":"0.0-4.0-1.22","subject_id":"5f2af90688d9b246791ba03d","study_id":"6197b3f67c2b5cd3b6d9596a","session_id":"619beefc8a4d966ac8957e89","condition":"full-information","relevant_dimensions":["antennae","wings"],"bee_group":{"antennae":"B","wings":"1","pattern":"X","legs":"X"},"bonus":1.740000000000001},{"rt":1230.6999998092651,"stimulus":"bees-with-color/bee-B1DM.svg","response":1,"trial_type":"image-button-response","trial_index":53,"time_elapsed":320638,"internal_node_id":"0.0-4.0-0.23","subject_id":"5f2af90688d9b246791ba03d","study_id":"6197b3f67c2b5cd3b6d9596a","session_id":"619beefc8a4d966ac8957e89","condition":"full-information","relevant_dimensions":["antennae","wings"],"bee_group":{"antennae":"B","wings":"1","pattern":"X","legs":"X"},"action":"avoid","summary":"good-avoid","bonus":1.740000000000001},{"rt":598.2000007629395,"stimulus":"\n                    <p><b>Action: <em>avoid</em></b></p>\n                    <p>This is the bee that you just saw.</p>\n                    <img src=\"bees-with-color/bee-B1DM.svg\" width=\"200\">\n                    <p><span class=\"greenText\">Good choice!</span>  This bee would have stung you.<br>Your bonus pay is unchanged, and remains at $0.80.</p>\n            ","response":0,"trial_type":"html-button-response","trial_index":54,"time_elapsed":321238,"internal_node_id":"0.0-4.0-1.23","subject_id":"5f2af90688d9b246791ba03d","study_id":"6197b3f67c2b5cd3b6d9596a","session_id":"619beefc8a4d966ac8957e89","condition":"full-information","relevant_dimensions":["antennae","wings"],"bee_group":{"antennae":"B","wings":"1","pattern":"X","legs":"X"},"bonus":1.740000000000001},{"rt":1030.5,"stimulus":"bees-with-color/bee-A2DF.svg","response":0,"trial_type":"image-button-response","trial_index":55,"time_elapsed":322270,"internal_node_id":"0.0-4.0-0.24","subject_id":"5f2af90688d9b246791ba03d","study_id":"6197b3f67c2b5cd3b6d9596a","session_id":"619beefc8a4d966ac8957e89","condition":"full-information","relevant_dimensions":["antennae","wings"],"bee_group":{"antennae":"B","wings":"1","pattern":"X","legs":"X"},"action":"harvest","summary":"good-harvest","bonus":1.740000000000001},{"rt":550.1000003814697,"stimulus":"\n                    <p><b>Action: <em>harvest</em></b></p>\n                    <p>This is the bee that you just saw.</p>\n                    <img src=\"bees-with-color/bee-A2DF.svg\" width=\"200\">\n                    <p><span class=\"greenText\"><b>Successful harvest!</b></span><br>Your pay has increased by $0.02. Your bonus pay is now $0.82.</p>\n            ","response":0,"trial_type":"html-button-response","trial_index":56,"time_elapsed":322822,"internal_node_id":"0.0-4.0-1.24","subject_id":"5f2af90688d9b246791ba03d","study_id":"6197b3f67c2b5cd3b6d9596a","session_id":"619beefc8a4d966ac8957e89","condition":"full-information","relevant_dimensions":["antennae","wings"],"bee_group":{"antennae":"B","wings":"1","pattern":"X","legs":"X"},"bonus":1.740000000000001},{"rt":814.5,"stimulus":"bees-with-color/bee-B1SM.svg","response":1,"trial_type":"image-button-response","trial_index":57,"time_elapsed":323638,"internal_node_id":"0.0-4.0-0.25","subject_id":"5f2af90688d9b246791ba03d","study_id":"6197b3f67c2b5cd3b6d9596a","session_id":"619beefc8a4d966ac8957e89","condition":"full-information","relevant_dimensions":["antennae","wings"],"bee_group":{"antennae":"B","wings":"1","pattern":"X","legs":"X"},"action":"avoid","summary":"good-avoid","bonus":1.740000000000001},{"rt":478,"stimulus":"\n                    <p><b>Action: <em>avoid</em></b></p>\n                    <p>This is the bee that you just saw.</p>\n                    <img src=\"bees-with-color/bee-B1SM.svg\" width=\"200\">\n                    <p><span class=\"greenText\">Good choice!</span>  This bee would have stung you.<br>Your bonus pay is unchanged, and remains at $0.82.</p>\n            ","response":0,"trial_type":"html-button-response","trial_index":58,"time_elapsed":324118,"internal_node_id":"0.0-4.0-1.25","subject_id":"5f2af90688d9b246791ba03d","study_id":"6197b3f67c2b5cd3b6d9596a","session_id":"619beefc8a4d966ac8957e89","condition":"full-information","relevant_dimensions":["antennae","wings"],"bee_group":{"antennae":"B","wings":"1","pattern":"X","legs":"X"},"bonus":1.740000000000001},{"rt":702.6000003814697,"stimulus":"bees-with-color/bee-A2SF.svg","response":0,"trial_type":"image-button-response","trial_index":59,"time_elapsed":324822,"internal_node_id":"0.0-4.0-0.26","subject_id":"5f2af90688d9b246791ba03d","study_id":"6197b3f67c2b5cd3b6d9596a","session_id":"619beefc8a4d966ac8957e89","condition":"full-information","relevant_dimensions":["antennae","wings"],"bee_group":{"antennae":"B","wings":"1","pattern":"X","legs":"X"},"action":"harvest","summary":"good-harvest","bonus":1.740000000000001},{"rt":526.3999996185303,"stimulus":"\n                    <p><b>Action: <em>harvest</em></b></p>\n                    <p>This is the bee that you just saw.</p>\n                    <img src=\"bees-with-color/bee-A2SF.svg\" width=\"200\">\n                    <p><span class=\"greenText\"><b>Successful harvest!</b></span><br>Your pay has increased by $0.02. Your bonus pay is now $0.84.</p>\n            ","response":0,"trial_type":"html-button-response","trial_index":60,"time_elapsed":325350,"internal_node_id":"0.0-4.0-1.26","subject_id":"5f2af90688d9b246791ba03d","study_id":"6197b3f67c2b5cd3b6d9596a","session_id":"619beefc8a4d966ac8957e89","condition":"full-information","relevant_dimensions":["antennae","wings"],"bee_group":{"antennae":"B","wings":"1","pattern":"X","legs":"X"},"bonus":1.740000000000001},{"rt":910.8000001907349,"stimulus":"bees-with-color/bee-B2DM.svg","response":0,"trial_type":"image-button-response","trial_index":61,"time_elapsed":326262,"internal_node_id":"0.0-4.0-0.27","subject_id":"5f2af90688d9b246791ba03d","study_id":"6197b3f67c2b5cd3b6d9596a","session_id":"619beefc8a4d966ac8957e89","condition":"full-information","relevant_dimensions":["antennae","wings"],"bee_group":{"antennae":"B","wings":"1","pattern":"X","legs":"X"},"action":"harvest","summary":"good-harvest","bonus":1.740000000000001},{"rt":486.3999996185303,"stimulus":"\n                    <p><b>Action: <em>harvest</em></b></p>\n                    <p>This is the bee that you just saw.</p>\n                    <img src=\"bees-with-color/bee-B2DM.svg\" width=\"200\">\n                    <p><span class=\"greenText\"><b>Successful harvest!</b></span><br>Your pay has increased by $0.02. Your bonus pay is now $0.86.</p>\n            ","response":0,"trial_type":"html-button-response","trial_index":62,"time_elapsed":326750,"internal_node_id":"0.0-4.0-1.27","subject_id":"5f2af90688d9b246791ba03d","study_id":"6197b3f67c2b5cd3b6d9596a","session_id":"619beefc8a4d966ac8957e89","condition":"full-information","relevant_dimensions":["antennae","wings"],"bee_group":{"antennae":"B","wings":"1","pattern":"X","legs":"X"},"bonus":1.740000000000001},{"rt":758.8000001907349,"stimulus":"bees-with-color/bee-B2SM.svg","response":0,"trial_type":"image-button-response","trial_index":63,"time_elapsed":327510,"internal_node_id":"0.0-4.0-0.28","subject_id":"5f2af90688d9b246791ba03d","study_id":"6197b3f67c2b5cd3b6d9596a","session_id":"619beefc8a4d966ac8957e89","condition":"full-information","relevant_dimensions":["antennae","wings"],"bee_group":{"antennae":"B","wings":"1","pattern":"X","legs":"X"},"action":"harvest","summary":"good-harvest","bonus":1.740000000000001},{"rt":470.30000019073486,"stimulus":"\n                    <p><b>Action: <em>harvest</em></b></p>\n                    <p>This is the bee that you just saw.</p>\n                    <img src=\"bees-with-color/bee-B2SM.svg\" width=\"200\">\n                    <p><span class=\"greenText\"><b>Successful harvest!</b></span><br>Your pay has increased by $0.02. Your bonus pay is now $0.88.</p>\n            ","response":0,"trial_type":"html-button-response","trial_index":64,"time_elapsed":327982,"internal_node_id":"0.0-4.0-1.28","subject_id":"5f2af90688d9b246791ba03d","study_id":"6197b3f67c2b5cd3b6d9596a","session_id":"619beefc8a4d966ac8957e89","condition":"full-information","relevant_dimensions":["antennae","wings"],"bee_group":{"antennae":"B","wings":"1","pattern":"X","legs":"X"},"bonus":1.740000000000001},{"rt":750.8999996185303,"stimulus":"bees-with-color/bee-A1SF.svg","response":1,"trial_type":"image-button-response","trial_index":65,"time_elapsed":328734,"internal_node_id":"0.0-4.0-0.29","subject_id":"5f2af90688d9b246791ba03d","study_id":"6197b3f67c2b5cd3b6d9596a","session_id":"619beefc8a4d966ac8957e89","condition":"full-information","relevant_dimensions":["antennae","wings"],"bee_group":{"antennae":"B","wings":"1","pattern":"X","legs":"X"},"action":"avoid","summary":"bad-avoid","bonus":1.740000000000001},{"rt":558.2999992370605,"stimulus":"\n                    <p><b>Action: <em>avoid</em></b></p>\n                    <p>This is the bee that you just saw.</p>\n                    <img src=\"bees-with-color/bee-A1SF.svg\" width=\"200\">\n                    <p><span class=\"redText\">Bad choice,</span> the bee was friendly.<br>Your bonus pay is unchanged, and remains at $0.88.</p>\n            ","response":0,"trial_type":"html-button-response","trial_index":66,"time_elapsed":329294,"internal_node_id":"0.0-4.0-1.29","subject_id":"5f2af90688d9b246791ba03d","study_id":"6197b3f67c2b5cd3b6d9596a","session_id":"619beefc8a4d966ac8957e89","condition":"full-information","relevant_dimensions":["antennae","wings"],"bee_group":{"antennae":"B","wings":"1","pattern":"X","legs":"X"},"bonus":1.740000000000001},{"rt":1166.8999996185303,"stimulus":"bees-with-color/bee-B2DF.svg","response":0,"trial_type":"image-button-response","trial_index":67,"time_elapsed":330462,"internal_node_id":"0.0-4.0-0.30","subject_id":"5f2af90688d9b246791ba03d","study_id":"6197b3f67c2b5cd3b6d9596a","session_id":"619beefc8a4d966ac8957e89","condition":"full-information","relevant_dimensions":["antennae","wings"],"bee_group":{"antennae":"B","wings":"1","pattern":"X","legs":"X"},"action":"harvest","summary":"good-harvest","bonus":1.740000000000001},{"rt":470.29999923706055,"stimulus":"\n                    <p><b>Action: <em>harvest</em></b></p>\n                    <p>This is the bee that you just saw.</p>\n                    <img src=\"bees-with-color/bee-B2DF.svg\" width=\"200\">\n                    <p><span class=\"greenText\"><b>Successful harvest!</b></span><br>Your pay has increased by $0.02. Your bonus pay is now $0.90.</p>\n            ","response":0,"trial_type":"html-button-response","trial_index":68,"time_elapsed":330934,"internal_node_id":"0.0-4.0-1.30","subject_id":"5f2af90688d9b246791ba03d","study_id":"6197b3f67c2b5cd3b6d9596a","session_id":"619beefc8a4d966ac8957e89","condition":"full-information","relevant_dimensions":["antennae","wings"],"bee_group":{"antennae":"B","wings":"1","pattern":"X","legs":"X"},"bonus":1.740000000000001},{"rt":655,"stimulus":"bees-with-color/bee-B1SF.svg","response":1,"trial_type":"image-button-response","trial_index":69,"time_elapsed":331590,"internal_node_id":"0.0-4.0-0.31","subject_id":"5f2af90688d9b246791ba03d","study_id":"6197b3f67c2b5cd3b6d9596a","session_id":"619beefc8a4d966ac8957e89","condition":"full-information","relevant_dimensions":["antennae","wings"],"bee_group":{"antennae":"B","wings":"1","pattern":"X","legs":"X"},"action":"avoid","summary":"good-avoid","bonus":1.740000000000001},{"rt":510.29999923706055,"stimulus":"\n                    <p><b>Action: <em>avoid</em></b></p>\n                    <p>This is the bee that you just saw.</p>\n                    <img src=\"bees-with-color/bee-B1SF.svg\" width=\"200\">\n                    <p><span class=\"greenText\">Good choice!</span>  This bee would have stung you.<br>Your bonus pay is unchanged, and remains at $0.90.</p>\n            ","response":0,"trial_type":"html-button-response","trial_index":70,"time_elapsed":332102,"internal_node_id":"0.0-4.0-1.31","subject_id":"5f2af90688d9b246791ba03d","study_id":"6197b3f67c2b5cd3b6d9596a","session_id":"619beefc8a4d966ac8957e89","condition":"full-information","relevant_dimensions":["antennae","wings"],"bee_group":{"antennae":"B","wings":"1","pattern":"X","legs":"X"},"bonus":1.740000000000001},{"rt":1606.8999996185303,"stimulus":"bees-with-color/bee-A1DF.svg","response":0,"trial_type":"image-button-response","trial_index":71,"time_elapsed":333710,"internal_node_id":"0.0-4.0-0.32","subject_id":"5f2af90688d9b246791ba03d","study_id":"6197b3f67c2b5cd3b6d9596a","session_id":"619beefc8a4d966ac8957e89","condition":"full-information","relevant_dimensions":["antennae","wings"],"bee_group":{"antennae":"B","wings":"1","pattern":"X","legs":"X"},"action":"harvest","summary":"good-harvest","bonus":1.740000000000001},{"rt":478.79999923706055,"stimulus":"\n                    <p><b>Action: <em>harvest</em></b></p>\n                    <p>This is the bee that you just saw.</p>\n                    <img src=\"bees-with-color/bee-A1DF.svg\" width=\"200\">\n                    <p><span class=\"greenText\"><b>Successful harvest!</b></span><br>Your pay has increased by $0.02. Your bonus pay is now $0.92.</p>\n            ","response":0,"trial_type":"html-button-response","trial_index":72,"time_elapsed":334191,"internal_node_id":"0.0-4.0-1.32","subject_id":"5f2af90688d9b246791ba03d","study_id":"6197b3f67c2b5cd3b6d9596a","session_id":"619beefc8a4d966ac8957e89","condition":"full-information","relevant_dimensions":["antennae","wings"],"bee_group":{"antennae":"B","wings":"1","pattern":"X","legs":"X"},"bonus":1.740000000000001},{"rt":1630.5,"stimulus":"bees-with-color/bee-B1SM.svg","response":1,"trial_type":"image-button-response","trial_index":73,"time_elapsed":335822,"internal_node_id":"0.0-4.0-0.33","subject_id":"5f2af90688d9b246791ba03d","study_id":"6197b3f67c2b5cd3b6d9596a","session_id":"619beefc8a4d966ac8957e89","condition":"full-information","relevant_dimensions":["antennae","wings"],"bee_group":{"antennae":"B","wings":"1","pattern":"X","legs":"X"},"action":"avoid","summary":"good-avoid","bonus":1.740000000000001},{"rt":422.3999996185303,"stimulus":"\n                    <p><b>Action: <em>avoid</em></b></p>\n                    <p>This is the bee that you just saw.</p>\n                    <img src=\"bees-with-color/bee-B1SM.svg\" width=\"200\">\n                    <p><span class=\"greenText\">Good choice!</span>  This bee would have stung you.<br>Your bonus pay is unchanged, and remains at $0.92.</p>\n            ","response":0,"trial_type":"html-button-response","trial_index":74,"time_elapsed":336246,"internal_node_id":"0.0-4.0-1.33","subject_id":"5f2af90688d9b246791ba03d","study_id":"6197b3f67c2b5cd3b6d9596a","session_id":"619beefc8a4d966ac8957e89","condition":"full-information","relevant_dimensions":["antennae","wings"],"bee_group":{"antennae":"B","wings":"1","pattern":"X","legs":"X"},"bonus":1.740000000000001},{"rt":887,"stimulus":"bees-with-color/bee-A1SM.svg","response":0,"trial_type":"image-button-response","trial_index":75,"time_elapsed":337134,"internal_node_id":"0.0-4.0-0.34","subject_id":"5f2af90688d9b246791ba03d","study_id":"6197b3f67c2b5cd3b6d9596a","session_id":"619beefc8a4d966ac8957e89","condition":"full-information","relevant_dimensions":["antennae","wings"],"bee_group":{"antennae":"B","wings":"1","pattern":"X","legs":"X"},"action":"harvest","summary":"good-harvest","bonus":1.740000000000001},{"rt":406.19999980926514,"stimulus":"\n                    <p><b>Action: <em>harvest</em></b></p>\n                    <p>This is the bee that you just saw.</p>\n                    <img src=\"bees-with-color/bee-A1SM.svg\" width=\"200\">\n                    <p><span class=\"greenText\"><b>Successful harvest!</b></span><br>Your pay has increased by $0.02. Your bonus pay is now $0.94.</p>\n            ","response":0,"trial_type":"html-button-response","trial_index":76,"time_elapsed":337542,"internal_node_id":"0.0-4.0-1.34","subject_id":"5f2af90688d9b246791ba03d","study_id":"6197b3f67c2b5cd3b6d9596a","session_id":"619beefc8a4d966ac8957e89","condition":"full-information","relevant_dimensions":["antennae","wings"],"bee_group":{"antennae":"B","wings":"1","pattern":"X","legs":"X"},"bonus":1.740000000000001},{"rt":894.7999992370605,"stimulus":"bees-with-color/bee-A1SF.svg","response":0,"trial_type":"image-button-response","trial_index":77,"time_elapsed":338438,"internal_node_id":"0.0-4.0-0.35","subject_id":"5f2af90688d9b246791ba03d","study_id":"6197b3f67c2b5cd3b6d9596a","session_id":"619beefc8a4d966ac8957e89","condition":"full-information","relevant_dimensions":["antennae","wings"],"bee_group":{"antennae":"B","wings":"1","pattern":"X","legs":"X"},"action":"harvest","summary":"good-harvest","bonus":1.740000000000001},{"rt":382.3999996185303,"stimulus":"\n                    <p><b>Action: <em>harvest</em></b></p>\n                    <p>This is the bee that you just saw.</p>\n                    <img src=\"bees-with-color/bee-A1SF.svg\" width=\"200\">\n                    <p><span class=\"greenText\"><b>Successful harvest!</b></span><br>Your pay has increased by $0.02. Your bonus pay is now $0.96.</p>\n            ","response":0,"trial_type":"html-button-response","trial_index":78,"time_elapsed":338822,"internal_node_id":"0.0-4.0-1.35","subject_id":"5f2af90688d9b246791ba03d","study_id":"6197b3f67c2b5cd3b6d9596a","session_id":"619beefc8a4d966ac8957e89","condition":"full-information","relevant_dimensions":["antennae","wings"],"bee_group":{"antennae":"B","wings":"1","pattern":"X","legs":"X"},"bonus":1.740000000000001},{"rt":950.7999992370605,"stimulus":"bees-with-color/bee-B2SM.svg","response":0,"trial_type":"image-button-response","trial_index":79,"time_elapsed":339774,"internal_node_id":"0.0-4.0-0.36","subject_id":"5f2af90688d9b246791ba03d","study_id":"6197b3f67c2b5cd3b6d9596a","session_id":"619beefc8a4d966ac8957e89","condition":"full-information","relevant_dimensions":["antennae","wings"],"bee_group":{"antennae":"B","wings":"1","pattern":"X","legs":"X"},"action":"harvest","summary":"good-harvest","bonus":1.740000000000001},{"rt":398.29999923706055,"stimulus":"\n                    <p><b>Action: <em>harvest</em></b></p>\n                    <p>This is the bee that you just saw.</p>\n                    <img src=\"bees-with-color/bee-B2SM.svg\" width=\"200\">\n                    <p><span class=\"greenText\"><b>Successful harvest!</b></span><br>Your pay has increased by $0.02. Your bonus pay is now $0.98.</p>\n            ","response":0,"trial_type":"html-button-response","trial_index":80,"time_elapsed":340174,"internal_node_id":"0.0-4.0-1.36","subject_id":"5f2af90688d9b246791ba03d","study_id":"6197b3f67c2b5cd3b6d9596a","session_id":"619beefc8a4d966ac8957e89","condition":"full-information","relevant_dimensions":["antennae","wings"],"bee_group":{"antennae":"B","wings":"1","pattern":"X","legs":"X"},"bonus":1.740000000000001},{"rt":742.7999992370605,"stimulus":"bees-with-color/bee-A2DM.svg","response":0,"trial_type":"image-button-response","trial_index":81,"time_elapsed":340918,"internal_node_id":"0.0-4.0-0.37","subject_id":"5f2af90688d9b246791ba03d","study_id":"6197b3f67c2b5cd3b6d9596a","session_id":"619beefc8a4d966ac8957e89","condition":"full-information","relevant_dimensions":["antennae","wings"],"bee_group":{"antennae":"B","wings":"1","pattern":"X","legs":"X"},"action":"harvest","summary":"good-harvest","bonus":1.740000000000001},{"rt":806.3999996185303,"stimulus":"\n                    <p><b>Action: <em>harvest</em></b></p>\n                    <p>This is the bee that you just saw.</p>\n                    <img src=\"bees-with-color/bee-A2DM.svg\" width=\"200\">\n                    <p><span class=\"greenText\"><b>Successful harvest!</b></span><br>Your pay has increased by $0.02. Your bonus pay is now $1.00.</p>\n            ","response":0,"trial_type":"html-button-response","trial_index":82,"time_elapsed":341726,"internal_node_id":"0.0-4.0-1.37","subject_id":"5f2af90688d9b246791ba03d","study_id":"6197b3f67c2b5cd3b6d9596a","session_id":"619beefc8a4d966ac8957e89","condition":"full-information","relevant_dimensions":["antennae","wings"],"bee_group":{"antennae":"B","wings":"1","pattern":"X","legs":"X"},"bonus":1.740000000000001},{"rt":1558.7999992370605,"stimulus":"bees-with-color/bee-B2SF.svg","response":0,"trial_type":"image-button-response","trial_index":83,"time_elapsed":343286,"internal_node_id":"0.0-4.0-0.38","subject_id":"5f2af90688d9b246791ba03d","study_id":"6197b3f67c2b5cd3b6d9596a","session_id":"619beefc8a4d966ac8957e89","condition":"full-information","relevant_dimensions":["antennae","wings"],"bee_group":{"antennae":"B","wings":"1","pattern":"X","legs":"X"},"action":"harvest","summary":"good-harvest","bonus":1.740000000000001},{"rt":470.29999923706055,"stimulus":"\n                    <p><b>Action: <em>harvest</em></b></p>\n                    <p>This is the bee that you just saw.</p>\n                    <img src=\"bees-with-color/bee-B2SF.svg\" width=\"200\">\n                    <p><span class=\"greenText\"><b>Successful harvest!</b></span><br>Your pay has increased by $0.02. Your bonus pay is now $1.02.</p>\n            ","response":0,"trial_type":"html-button-response","trial_index":84,"time_elapsed":343758,"internal_node_id":"0.0-4.0-1.38","subject_id":"5f2af90688d9b246791ba03d","study_id":"6197b3f67c2b5cd3b6d9596a","session_id":"619beefc8a4d966ac8957e89","condition":"full-information","relevant_dimensions":["antennae","wings"],"bee_group":{"antennae":"B","wings":"1","pattern":"X","legs":"X"},"bonus":1.740000000000001},{"rt":830.5999994277954,"stimulus":"bees-with-color/bee-B1DF.svg","response":1,"trial_type":"image-button-response","trial_index":85,"time_elapsed":344590,"internal_node_id":"0.0-4.0-0.39","subject_id":"5f2af90688d9b246791ba03d","study_id":"6197b3f67c2b5cd3b6d9596a","session_id":"619beefc8a4d966ac8957e89","condition":"full-information","relevant_dimensions":["antennae","wings"],"bee_group":{"antennae":"B","wings":"1","pattern":"X","legs":"X"},"action":"avoid","summary":"good-avoid","bonus":1.740000000000001},{"rt":390.5,"stimulus":"\n                    <p><b>Action: <em>avoid</em></b></p>\n                    <p>This is the bee that you just saw.</p>\n                    <img src=\"bees-with-color/bee-B1DF.svg\" width=\"200\">\n                    <p><span class=\"greenText\">Good choice!</span>  This bee would have stung you.<br>Your bonus pay is unchanged, and remains at $1.02.</p>\n            ","response":0,"trial_type":"html-button-response","trial_index":86,"time_elapsed":344982,"internal_node_id":"0.0-4.0-1.39","subject_id":"5f2af90688d9b246791ba03d","study_id":"6197b3f67c2b5cd3b6d9596a","session_id":"619beefc8a4d966ac8957e89","condition":"full-information","relevant_dimensions":["antennae","wings"],"bee_group":{"antennae":"B","wings":"1","pattern":"X","legs":"X"},"bonus":1.740000000000001},{"rt":654.7999992370605,"stimulus":"bees-with-color/bee-A2DF.svg","response":0,"trial_type":"image-button-response","trial_index":87,"time_elapsed":345638,"internal_node_id":"0.0-4.0-0.40","subject_id":"5f2af90688d9b246791ba03d","study_id":"6197b3f67c2b5cd3b6d9596a","session_id":"619beefc8a4d966ac8957e89","condition":"full-information","relevant_dimensions":["antennae","wings"],"bee_group":{"antennae":"B","wings":"1","pattern":"X","legs":"X"},"action":"harvest","summary":"good-harvest","bonus":1.740000000000001},{"rt":405.5999994277954,"stimulus":"\n                    <p><b>Action: <em>harvest</em></b></p>\n                    <p>This is the bee that you just saw.</p>\n                    <img src=\"bees-with-color/bee-A2DF.svg\" width=\"200\">\n                    <p><span class=\"greenText\"><b>Successful harvest!</b></span><br>Your pay has increased by $0.02. Your bonus pay is now $1.04.</p>\n            ","response":0,"trial_type":"html-button-response","trial_index":88,"time_elapsed":346046,"internal_node_id":"0.0-4.0-1.40","subject_id":"5f2af90688d9b246791ba03d","study_id":"6197b3f67c2b5cd3b6d9596a","session_id":"619beefc8a4d966ac8957e89","condition":"full-information","relevant_dimensions":["antennae","wings"],"bee_group":{"antennae":"B","wings":"1","pattern":"X","legs":"X"},"bonus":1.740000000000001},{"rt":1446.7999992370605,"stimulus":"bees-with-color/bee-A1DM.svg","response":0,"trial_type":"image-button-response","trial_index":89,"time_elapsed":347494,"internal_node_id":"0.0-4.0-0.41","subject_id":"5f2af90688d9b246791ba03d","study_id":"6197b3f67c2b5cd3b6d9596a","session_id":"619beefc8a4d966ac8957e89","condition":"full-information","relevant_dimensions":["antennae","wings"],"bee_group":{"antennae":"B","wings":"1","pattern":"X","legs":"X"},"action":"harvest","summary":"good-harvest","bonus":1.740000000000001},{"rt":366.19999980926514,"stimulus":"\n                    <p><b>Action: <em>harvest</em></b></p>\n                    <p>This is the bee that you just saw.</p>\n                    <img src=\"bees-with-color/bee-A1DM.svg\" width=\"200\">\n                    <p><span class=\"greenText\"><b>Successful harvest!</b></span><br>Your pay has increased by $0.02. Your bonus pay is now $1.06.</p>\n            ","response":0,"trial_type":"html-button-response","trial_index":90,"time_elapsed":347862,"internal_node_id":"0.0-4.0-1.41","subject_id":"5f2af90688d9b246791ba03d","study_id":"6197b3f67c2b5cd3b6d9596a","session_id":"619beefc8a4d966ac8957e89","condition":"full-information","relevant_dimensions":["antennae","wings"],"bee_group":{"antennae":"B","wings":"1","pattern":"X","legs":"X"},"bonus":1.740000000000001},{"rt":870.8999996185303,"stimulus":"bees-with-color/bee-B2DM.svg","response":0,"trial_type":"image-button-response","trial_index":91,"time_elapsed":348734,"internal_node_id":"0.0-4.0-0.42","subject_id":"5f2af90688d9b246791ba03d","study_id":"6197b3f67c2b5cd3b6d9596a","session_id":"619beefc8a4d966ac8957e89","condition":"full-information","relevant_dimensions":["antennae","wings"],"bee_group":{"antennae":"B","wings":"1","pattern":"X","legs":"X"},"action":"harvest","summary":"good-harvest","bonus":1.740000000000001},{"rt":334.19999980926514,"stimulus":"\n                    <p><b>Action: <em>harvest</em></b></p>\n                    <p>This is the bee that you just saw.</p>\n                    <img src=\"bees-with-color/bee-B2DM.svg\" width=\"200\">\n                    <p><span class=\"greenText\"><b>Successful harvest!</b></span><br>Your pay has increased by $0.02. Your bonus pay is now $1.08.</p>\n            ","response":0,"trial_type":"html-button-response","trial_index":92,"time_elapsed":349070,"internal_node_id":"0.0-4.0-1.42","subject_id":"5f2af90688d9b246791ba03d","study_id":"6197b3f67c2b5cd3b6d9596a","session_id":"619beefc8a4d966ac8957e89","condition":"full-information","relevant_dimensions":["antennae","wings"],"bee_group":{"antennae":"B","wings":"1","pattern":"X","legs":"X"},"bonus":1.740000000000001},{"rt":750.8000001907349,"stimulus":"bees-with-color/bee-B2DF.svg","response":0,"trial_type":"image-button-response","trial_index":93,"time_elapsed":349822,"internal_node_id":"0.0-4.0-0.43","subject_id":"5f2af90688d9b246791ba03d","study_id":"6197b3f67c2b5cd3b6d9596a","session_id":"619beefc8a4d966ac8957e89","condition":"full-information","relevant_dimensions":["antennae","wings"],"bee_group":{"antennae":"B","wings":"1","pattern":"X","legs":"X"},"action":"harvest","summary":"good-harvest","bonus":1.740000000000001},{"rt":350.30000019073486,"stimulus":"\n                    <p><b>Action: <em>harvest</em></b></p>\n                    <p>This is the bee that you just saw.</p>\n                    <img src=\"bees-with-color/bee-B2DF.svg\" width=\"200\">\n                    <p><span class=\"greenText\"><b>Successful harvest!</b></span><br>Your pay has increased by $0.02. Your bonus pay is now $1.10.</p>\n            ","response":0,"trial_type":"html-button-response","trial_index":94,"time_elapsed":350174,"internal_node_id":"0.0-4.0-1.43","subject_id":"5f2af90688d9b246791ba03d","study_id":"6197b3f67c2b5cd3b6d9596a","session_id":"619beefc8a4d966ac8957e89","condition":"full-information","relevant_dimensions":["antennae","wings"],"bee_group":{"antennae":"B","wings":"1","pattern":"X","legs":"X"},"bonus":1.740000000000001},{"rt":854.8000001907349,"stimulus":"bees-with-color/bee-A2SF.svg","response":0,"trial_type":"image-button-response","trial_index":95,"time_elapsed":351030,"internal_node_id":"0.0-4.0-0.44","subject_id":"5f2af90688d9b246791ba03d","study_id":"6197b3f67c2b5cd3b6d9596a","session_id":"619beefc8a4d966ac8957e89","condition":"full-information","relevant_dimensions":["antennae","wings"],"bee_group":{"antennae":"B","wings":"1","pattern":"X","legs":"X"},"action":"harvest","summary":"good-harvest","bonus":1.740000000000001},{"rt":374.29999923706055,"stimulus":"\n                    <p><b>Action: <em>harvest</em></b></p>\n                    <p>This is the bee that you just saw.</p>\n                    <img src=\"bees-with-color/bee-A2SF.svg\" width=\"200\">\n                    <p><span class=\"greenText\"><b>Successful harvest!</b></span><br>Your pay has increased by $0.02. Your bonus pay is now $1.12.</p>\n            ","response":0,"trial_type":"html-button-response","trial_index":96,"time_elapsed":351406,"internal_node_id":"0.0-4.0-1.44","subject_id":"5f2af90688d9b246791ba03d","study_id":"6197b3f67c2b5cd3b6d9596a","session_id":"619beefc8a4d966ac8957e89","condition":"full-information","relevant_dimensions":["antennae","wings"],"bee_group":{"antennae":"B","wings":"1","pattern":"X","legs":"X"},"bonus":1.740000000000001},{"rt":790.8000001907349,"stimulus":"bees-with-color/bee-B1DM.svg","response":1,"trial_type":"image-button-response","trial_index":97,"time_elapsed":352198,"internal_node_id":"0.0-4.0-0.45","subject_id":"5f2af90688d9b246791ba03d","study_id":"6197b3f67c2b5cd3b6d9596a","session_id":"619beefc8a4d966ac8957e89","condition":"full-information","relevant_dimensions":["antennae","wings"],"bee_group":{"antennae":"B","wings":"1","pattern":"X","legs":"X"},"action":"avoid","summary":"good-avoid","bonus":1.740000000000001},{"rt":374.19999980926514,"stimulus":"\n                    <p><b>Action: <em>avoid</em></b></p>\n                    <p>This is the bee that you just saw.</p>\n                    <img src=\"bees-with-color/bee-B1DM.svg\" width=\"200\">\n                    <p><span class=\"greenText\">Good choice!</span>  This bee would have stung you.<br>Your bonus pay is unchanged, and remains at $1.12.</p>\n            ","response":0,"trial_type":"html-button-response","trial_index":98,"time_elapsed":352574,"internal_node_id":"0.0-4.0-1.45","subject_id":"5f2af90688d9b246791ba03d","study_id":"6197b3f67c2b5cd3b6d9596a","session_id":"619beefc8a4d966ac8957e89","condition":"full-information","relevant_dimensions":["antennae","wings"],"bee_group":{"antennae":"B","wings":"1","pattern":"X","legs":"X"},"bonus":1.740000000000001},{"rt":1278.7999992370605,"stimulus":"bees-with-color/bee-B1SF.svg","response":0,"trial_type":"image-button-response","trial_index":99,"time_elapsed":353854,"internal_node_id":"0.0-4.0-0.46","subject_id":"5f2af90688d9b246791ba03d","study_id":"6197b3f67c2b5cd3b6d9596a","session_id":"619beefc8a4d966ac8957e89","condition":"full-information","relevant_dimensions":["antennae","wings"],"bee_group":{"antennae":"B","wings":"1","pattern":"X","legs":"X"},"action":"harvest","summary":"bad-harvest","bonus":1.740000000000001},{"rt":1502.1000003814697,"stimulus":"\n                    <p><b>Action: <em>harvest</em></b></p>\n                    <p>This is the bee that you just saw.</p>\n                    <img src=\"bees-with-color/bee-B1SF.svg\" width=\"200\">\n                    <p><span class=\"redText\">Bad choice, the bee was angry.</span><br><b>You have been stung!</b><br>Your pay has been decreased by $0.10. Your bonus pay is now $1.02.</p>\n            ","response":0,"trial_type":"html-button-response","trial_index":100,"time_elapsed":355358,"internal_node_id":"0.0-4.0-1.46","subject_id":"5f2af90688d9b246791ba03d","study_id":"6197b3f67c2b5cd3b6d9596a","session_id":"619beefc8a4d966ac8957e89","condition":"full-information","relevant_dimensions":["antennae","wings"],"bee_group":{"antennae":"B","wings":"1","pattern":"X","legs":"X"},"bonus":1.740000000000001},{"rt":1246.6999998092651,"stimulus":"bees-with-color/bee-A2SM.svg","response":0,"trial_type":"image-button-response","trial_index":101,"time_elapsed":356606,"internal_node_id":"0.0-4.0-0.47","subject_id":"5f2af90688d9b246791ba03d","study_id":"6197b3f67c2b5cd3b6d9596a","session_id":"619beefc8a4d966ac8957e89","condition":"full-information","relevant_dimensions":["antennae","wings"],"bee_group":{"antennae":"B","wings":"1","pattern":"X","legs":"X"},"action":"harvest","summary":"good-harvest","bonus":1.740000000000001},{"rt":790.5,"stimulus":"\n                    <p><b>Action: <em>harvest</em></b></p>\n                    <p>This is the bee that you just saw.</p>\n                    <img src=\"bees-with-color/bee-A2SM.svg\" width=\"200\">\n                    <p><span class=\"greenText\"><b>Successful harvest!</b></span><br>Your pay has increased by $0.02. Your bonus pay is now $1.04.</p>\n            ","response":0,"trial_type":"html-button-response","trial_index":102,"time_elapsed":357398,"internal_node_id":"0.0-4.0-1.47","subject_id":"5f2af90688d9b246791ba03d","study_id":"6197b3f67c2b5cd3b6d9596a","session_id":"619beefc8a4d966ac8957e89","condition":"full-information","relevant_dimensions":["antennae","wings"],"bee_group":{"antennae":"B","wings":"1","pattern":"X","legs":"X"},"bonus":1.740000000000001},{"rt":782.6999998092651,"stimulus":"bees-with-color/bee-B2SF.svg","response":0,"trial_type":"image-button-response","trial_index":103,"time_elapsed":358182,"internal_node_id":"0.0-4.0-0.48","subject_id":"5f2af90688d9b246791ba03d","study_id":"6197b3f67c2b5cd3b6d9596a","session_id":"619beefc8a4d966ac8957e89","condition":"full-information","relevant_dimensions":["antennae","wings"],"bee_group":{"antennae":"B","wings":"1","pattern":"X","legs":"X"},"action":"harvest","summary":"good-harvest","bonus":1.740000000000001},{"rt":382.3999996185303,"stimulus":"\n                    <p><b>Action: <em>harvest</em></b></p>\n                    <p>This is the bee that you just saw.</p>\n                    <img src=\"bees-with-color/bee-B2SF.svg\" width=\"200\">\n                    <p><span class=\"greenText\"><b>Successful harvest!</b></span><br>Your pay has increased by $0.02. Your bonus pay is now $1.06.</p>\n            ","response":0,"trial_type":"html-button-response","trial_index":104,"time_elapsed":358566,"internal_node_id":"0.0-4.0-1.48","subject_id":"5f2af90688d9b246791ba03d","study_id":"6197b3f67c2b5cd3b6d9596a","session_id":"619beefc8a4d966ac8957e89","condition":"full-information","relevant_dimensions":["antennae","wings"],"bee_group":{"antennae":"B","wings":"1","pattern":"X","legs":"X"},"bonus":1.740000000000001},{"rt":654.9000005722046,"stimulus":"bees-with-color/bee-A2DM.svg","response":0,"trial_type":"image-button-response","trial_index":105,"time_elapsed":359222,"internal_node_id":"0.0-4.0-0.49","subject_id":"5f2af90688d9b246791ba03d","study_id":"6197b3f67c2b5cd3b6d9596a","session_id":"619beefc8a4d966ac8957e89","condition":"full-information","relevant_dimensions":["antennae","wings"],"bee_group":{"antennae":"B","wings":"1","pattern":"X","legs":"X"},"action":"harvest","summary":"good-harvest","bonus":1.740000000000001},{"rt":662.4000005722046,"stimulus":"\n                    <p><b>Action: <em>harvest</em></b></p>\n                    <p>This is the bee that you just saw.</p>\n                    <img src=\"bees-with-color/bee-A2DM.svg\" width=\"200\">\n                    <p><span class=\"greenText\"><b>Successful harvest!</b></span><br>Your pay has increased by $0.02. Your bonus pay is now $1.08.</p>\n            ","response":0,"trial_type":"html-button-response","trial_index":106,"time_elapsed":359886,"internal_node_id":"0.0-4.0-1.49","subject_id":"5f2af90688d9b246791ba03d","study_id":"6197b3f67c2b5cd3b6d9596a","session_id":"619beefc8a4d966ac8957e89","condition":"full-information","relevant_dimensions":["antennae","wings"],"bee_group":{"antennae":"B","wings":"1","pattern":"X","legs":"X"},"bonus":1.740000000000001},{"rt":782.8999996185303,"stimulus":"bees-with-color/bee-B2DM.svg","response":0,"trial_type":"image-button-response","trial_index":107,"time_elapsed":360670,"internal_node_id":"0.0-4.0-0.50","subject_id":"5f2af90688d9b246791ba03d","study_id":"6197b3f67c2b5cd3b6d9596a","session_id":"619beefc8a4d966ac8957e89","condition":"full-information","relevant_dimensions":["antennae","wings"],"bee_group":{"antennae":"B","wings":"1","pattern":"X","legs":"X"},"action":"harvest","summary":"good-harvest","bonus":1.740000000000001},{"rt":342.30000019073486,"stimulus":"\n                    <p><b>Action: <em>harvest</em></b></p>\n                    <p>This is the bee that you just saw.</p>\n                    <img src=\"bees-with-color/bee-B2DM.svg\" width=\"200\">\n                    <p><span class=\"greenText\"><b>Successful harvest!</b></span><br>Your pay has increased by $0.02. Your bonus pay is now $1.10.</p>\n            ","response":0,"trial_type":"html-button-response","trial_index":108,"time_elapsed":361014,"internal_node_id":"0.0-4.0-1.50","subject_id":"5f2af90688d9b246791ba03d","study_id":"6197b3f67c2b5cd3b6d9596a","session_id":"619beefc8a4d966ac8957e89","condition":"full-information","relevant_dimensions":["antennae","wings"],"bee_group":{"antennae":"B","wings":"1","pattern":"X","legs":"X"},"bonus":1.740000000000001},{"rt":870.8000001907349,"stimulus":"bees-with-color/bee-B1SF.svg","response":1,"trial_type":"image-button-response","trial_index":109,"time_elapsed":361886,"internal_node_id":"0.0-4.0-0.51","subject_id":"5f2af90688d9b246791ba03d","study_id":"6197b3f67c2b5cd3b6d9596a","session_id":"619beefc8a4d966ac8957e89","condition":"full-information","relevant_dimensions":["antennae","wings"],"bee_group":{"antennae":"B","wings":"1","pattern":"X","legs":"X"},"action":"avoid","summary":"good-avoid","bonus":1.740000000000001},{"rt":406.4000005722046,"stimulus":"\n                    <p><b>Action: <em>avoid</em></b></p>\n                    <p>This is the bee that you just saw.</p>\n                    <img src=\"bees-with-color/bee-B1SF.svg\" width=\"200\">\n                    <p><span class=\"greenText\">Good choice!</span>  This bee would have stung you.<br>Your bonus pay is unchanged, and remains at $1.10.</p>\n            ","response":0,"trial_type":"html-button-response","trial_index":110,"time_elapsed":362294,"internal_node_id":"0.0-4.0-1.51","subject_id":"5f2af90688d9b246791ba03d","study_id":"6197b3f67c2b5cd3b6d9596a","session_id":"619beefc8a4d966ac8957e89","condition":"full-information","relevant_dimensions":["antennae","wings"],"bee_group":{"antennae":"B","wings":"1","pattern":"X","legs":"X"},"bonus":1.740000000000001},{"rt":1310.8000001907349,"stimulus":"bees-with-color/bee-A1SF.svg","response":0,"trial_type":"image-button-response","trial_index":111,"time_elapsed":363606,"internal_node_id":"0.0-4.0-0.52","subject_id":"5f2af90688d9b246791ba03d","study_id":"6197b3f67c2b5cd3b6d9596a","session_id":"619beefc8a4d966ac8957e89","condition":"full-information","relevant_dimensions":["antennae","wings"],"bee_group":{"antennae":"B","wings":"1","pattern":"X","legs":"X"},"action":"harvest","summary":"good-harvest","bonus":1.740000000000001},{"rt":430.30000019073486,"stimulus":"\n                    <p><b>Action: <em>harvest</em></b></p>\n                    <p>This is the bee that you just saw.</p>\n                    <img src=\"bees-with-color/bee-A1SF.svg\" width=\"200\">\n                    <p><span class=\"greenText\"><b>Successful harvest!</b></span><br>Your pay has increased by $0.02. Your bonus pay is now $1.12.</p>\n            ","response":0,"trial_type":"html-button-response","trial_index":112,"time_elapsed":364038,"internal_node_id":"0.0-4.0-1.52","subject_id":"5f2af90688d9b246791ba03d","study_id":"6197b3f67c2b5cd3b6d9596a","session_id":"619beefc8a4d966ac8957e89","condition":"full-information","relevant_dimensions":["antennae","wings"],"bee_group":{"antennae":"B","wings":"1","pattern":"X","legs":"X"},"bonus":1.740000000000001},{"rt":750.8000001907349,"stimulus":"bees-with-color/bee-B1SM.svg","response":1,"trial_type":"image-button-response","trial_index":113,"time_elapsed":364790,"internal_node_id":"0.0-4.0-0.53","subject_id":"5f2af90688d9b246791ba03d","study_id":"6197b3f67c2b5cd3b6d9596a","session_id":"619beefc8a4d966ac8957e89","condition":"full-information","relevant_dimensions":["antennae","wings"],"bee_group":{"antennae":"B","wings":"1","pattern":"X","legs":"X"},"action":"avoid","summary":"good-avoid","bonus":1.740000000000001},{"rt":422.0999994277954,"stimulus":"\n                    <p><b>Action: <em>avoid</em></b></p>\n                    <p>This is the bee that you just saw.</p>\n                    <img src=\"bees-with-color/bee-B1SM.svg\" width=\"200\">\n                    <p><span class=\"greenText\">Good choice!</span>  This bee would have stung you.<br>Your bonus pay is unchanged, and remains at $1.12.</p>\n            ","response":0,"trial_type":"html-button-response","trial_index":114,"time_elapsed":365214,"internal_node_id":"0.0-4.0-1.53","subject_id":"5f2af90688d9b246791ba03d","study_id":"6197b3f67c2b5cd3b6d9596a","session_id":"619beefc8a4d966ac8957e89","condition":"full-information","relevant_dimensions":["antennae","wings"],"bee_group":{"antennae":"B","wings":"1","pattern":"X","legs":"X"},"bonus":1.740000000000001},{"rt":630.9000005722046,"stimulus":"bees-with-color/bee-A2DF.svg","response":0,"trial_type":"image-button-response","trial_index":115,"time_elapsed":365846,"internal_node_id":"0.0-4.0-0.54","subject_id":"5f2af90688d9b246791ba03d","study_id":"6197b3f67c2b5cd3b6d9596a","session_id":"619beefc8a4d966ac8957e89","condition":"full-information","relevant_dimensions":["antennae","wings"],"bee_group":{"antennae":"B","wings":"1","pattern":"X","legs":"X"},"action":"harvest","summary":"good-harvest","bonus":1.740000000000001},{"rt":470.19999980926514,"stimulus":"\n                    <p><b>Action: <em>harvest</em></b></p>\n                    <p>This is the bee that you just saw.</p>\n                    <img src=\"bees-with-color/bee-A2DF.svg\" width=\"200\">\n                    <p><span class=\"greenText\"><b>Successful harvest!</b></span><br>Your pay has increased by $0.02. Your bonus pay is now $1.14.</p>\n            ","response":0,"trial_type":"html-button-response","trial_index":116,"time_elapsed":366318,"internal_node_id":"0.0-4.0-1.54","subject_id":"5f2af90688d9b246791ba03d","study_id":"6197b3f67c2b5cd3b6d9596a","session_id":"619beefc8a4d966ac8957e89","condition":"full-information","relevant_dimensions":["antennae","wings"],"bee_group":{"antennae":"B","wings":"1","pattern":"X","legs":"X"},"bonus":1.740000000000001},{"rt":1446.8000001907349,"stimulus":"bees-with-color/bee-A1DF.svg","response":0,"trial_type":"image-button-response","trial_index":117,"time_elapsed":367766,"internal_node_id":"0.0-4.0-0.55","subject_id":"5f2af90688d9b246791ba03d","study_id":"6197b3f67c2b5cd3b6d9596a","session_id":"619beefc8a4d966ac8957e89","condition":"full-information","relevant_dimensions":["antennae","wings"],"bee_group":{"antennae":"B","wings":"1","pattern":"X","legs":"X"},"action":"harvest","summary":"good-harvest","bonus":1.740000000000001},{"rt":478.30000019073486,"stimulus":"\n                    <p><b>Action: <em>harvest</em></b></p>\n                    <p>This is the bee that you just saw.</p>\n                    <img src=\"bees-with-color/bee-A1DF.svg\" width=\"200\">\n                    <p><span class=\"greenText\"><b>Successful harvest!</b></span><br>Your pay has increased by $0.02. Your bonus pay is now $1.16.</p>\n            ","response":0,"trial_type":"html-button-response","trial_index":118,"time_elapsed":368246,"internal_node_id":"0.0-4.0-1.55","subject_id":"5f2af90688d9b246791ba03d","study_id":"6197b3f67c2b5cd3b6d9596a","session_id":"619beefc8a4d966ac8957e89","condition":"full-information","relevant_dimensions":["antennae","wings"],"bee_group":{"antennae":"B","wings":"1","pattern":"X","legs":"X"},"bonus":1.740000000000001},{"rt":782.8000001907349,"stimulus":"bees-with-color/bee-B2SM.svg","response":0,"trial_type":"image-button-response","trial_index":119,"time_elapsed":369030,"internal_node_id":"0.0-4.0-0.56","subject_id":"5f2af90688d9b246791ba03d","study_id":"6197b3f67c2b5cd3b6d9596a","session_id":"619beefc8a4d966ac8957e89","condition":"full-information","relevant_dimensions":["antennae","wings"],"bee_group":{"antennae":"B","wings":"1","pattern":"X","legs":"X"},"action":"harvest","summary":"good-harvest","bonus":1.740000000000001},{"rt":334.19999980926514,"stimulus":"\n                    <p><b>Action: <em>harvest</em></b></p>\n                    <p>This is the bee that you just saw.</p>\n                    <img src=\"bees-with-color/bee-B2SM.svg\" width=\"200\">\n                    <p><span class=\"greenText\"><b>Successful harvest!</b></span><br>Your pay has increased by $0.02. Your bonus pay is now $1.18.</p>\n            ","response":0,"trial_type":"html-button-response","trial_index":120,"time_elapsed":369366,"internal_node_id":"0.0-4.0-1.56","subject_id":"5f2af90688d9b246791ba03d","study_id":"6197b3f67c2b5cd3b6d9596a","session_id":"619beefc8a4d966ac8957e89","condition":"full-information","relevant_dimensions":["antennae","wings"],"bee_group":{"antennae":"B","wings":"1","pattern":"X","legs":"X"},"bonus":1.740000000000001},{"rt":838.8000001907349,"stimulus":"bees-with-color/bee-A1SM.svg","response":1,"trial_type":"image-button-response","trial_index":121,"time_elapsed":370206,"internal_node_id":"0.0-4.0-0.57","subject_id":"5f2af90688d9b246791ba03d","study_id":"6197b3f67c2b5cd3b6d9596a","session_id":"619beefc8a4d966ac8957e89","condition":"full-information","relevant_dimensions":["antennae","wings"],"bee_group":{"antennae":"B","wings":"1","pattern":"X","legs":"X"},"action":"avoid","summary":"bad-avoid","bonus":1.740000000000001},{"rt":398.0999994277954,"stimulus":"\n                    <p><b>Action: <em>avoid</em></b></p>\n                    <p>This is the bee that you just saw.</p>\n                    <img src=\"bees-with-color/bee-A1SM.svg\" width=\"200\">\n                    <p><span class=\"redText\">Bad choice,</span> the bee was friendly.<br>Your bonus pay is unchanged, and remains at $1.18.</p>\n            ","response":0,"trial_type":"html-button-response","trial_index":122,"time_elapsed":370606,"internal_node_id":"0.0-4.0-1.57","subject_id":"5f2af90688d9b246791ba03d","study_id":"6197b3f67c2b5cd3b6d9596a","session_id":"619beefc8a4d966ac8957e89","condition":"full-information","relevant_dimensions":["antennae","wings"],"bee_group":{"antennae":"B","wings":"1","pattern":"X","legs":"X"},"bonus":1.740000000000001},{"rt":918.6999998092651,"stimulus":"bees-with-color/bee-A2SF.svg","response":0,"trial_type":"image-button-response","trial_index":123,"time_elapsed":371526,"internal_node_id":"0.0-4.0-0.58","subject_id":"5f2af90688d9b246791ba03d","study_id":"6197b3f67c2b5cd3b6d9596a","session_id":"619beefc8a4d966ac8957e89","condition":"full-information","relevant_dimensions":["antennae","wings"],"bee_group":{"antennae":"B","wings":"1","pattern":"X","legs":"X"},"action":"harvest","summary":"good-harvest","bonus":1.740000000000001},{"rt":438.0999994277954,"stimulus":"\n                    <p><b>Action: <em>harvest</em></b></p>\n                    <p>This is the bee that you just saw.</p>\n                    <img src=\"bees-with-color/bee-A2SF.svg\" width=\"200\">\n                    <p><span class=\"greenText\"><b>Successful harvest!</b></span><br>Your pay has increased by $0.02. Your bonus pay is now $1.20.</p>\n            ","response":0,"trial_type":"html-button-response","trial_index":124,"time_elapsed":371966,"internal_node_id":"0.0-4.0-1.58","subject_id":"5f2af90688d9b246791ba03d","study_id":"6197b3f67c2b5cd3b6d9596a","session_id":"619beefc8a4d966ac8957e89","condition":"full-information","relevant_dimensions":["antennae","wings"],"bee_group":{"antennae":"B","wings":"1","pattern":"X","legs":"X"},"bonus":1.740000000000001},{"rt":678.6999998092651,"stimulus":"bees-with-color/bee-A2SM.svg","response":0,"trial_type":"image-button-response","trial_index":125,"time_elapsed":372646,"internal_node_id":"0.0-4.0-0.59","subject_id":"5f2af90688d9b246791ba03d","study_id":"6197b3f67c2b5cd3b6d9596a","session_id":"619beefc8a4d966ac8957e89","condition":"full-information","relevant_dimensions":["antennae","wings"],"bee_group":{"antennae":"B","wings":"1","pattern":"X","legs":"X"},"action":"harvest","summary":"good-harvest","bonus":1.740000000000001},{"rt":358.0999994277954,"stimulus":"\n                    <p><b>Action: <em>harvest</em></b></p>\n                    <p>This is the bee that you just saw.</p>\n                    <img src=\"bees-with-color/bee-A2SM.svg\" width=\"200\">\n                    <p><span class=\"greenText\"><b>Successful harvest!</b></span><br>Your pay has increased by $0.02. Your bonus pay is now $1.22.</p>\n            ","response":0,"trial_type":"html-button-response","trial_index":126,"time_elapsed":373006,"internal_node_id":"0.0-4.0-1.59","subject_id":"5f2af90688d9b246791ba03d","study_id":"6197b3f67c2b5cd3b6d9596a","session_id":"619beefc8a4d966ac8957e89","condition":"full-information","relevant_dimensions":["antennae","wings"],"bee_group":{"antennae":"B","wings":"1","pattern":"X","legs":"X"},"bonus":1.740000000000001},{"rt":694.5999994277954,"stimulus":"bees-with-color/bee-B1DF.svg","response":1,"trial_type":"image-button-response","trial_index":127,"time_elapsed":373702,"internal_node_id":"0.0-4.0-0.60","subject_id":"5f2af90688d9b246791ba03d","study_id":"6197b3f67c2b5cd3b6d9596a","session_id":"619beefc8a4d966ac8957e89","condition":"full-information","relevant_dimensions":["antennae","wings"],"bee_group":{"antennae":"B","wings":"1","pattern":"X","legs":"X"},"action":"avoid","summary":"good-avoid","bonus":1.740000000000001},{"rt":430.19999980926514,"stimulus":"\n                    <p><b>Action: <em>avoid</em></b></p>\n                    <p>This is the bee that you just saw.</p>\n                    <img src=\"bees-with-color/bee-B1DF.svg\" width=\"200\">\n                    <p><span class=\"greenText\">Good choice!</span>  This bee would have stung you.<br>Your bonus pay is unchanged, and remains at $1.22.</p>\n            ","response":0,"trial_type":"html-button-response","trial_index":128,"time_elapsed":374134,"internal_node_id":"0.0-4.0-1.60","subject_id":"5f2af90688d9b246791ba03d","study_id":"6197b3f67c2b5cd3b6d9596a","session_id":"619beefc8a4d966ac8957e89","condition":"full-information","relevant_dimensions":["antennae","wings"],"bee_group":{"antennae":"B","wings":"1","pattern":"X","legs":"X"},"bonus":1.740000000000001},{"rt":1022.5999994277954,"stimulus":"bees-with-color/bee-B2DF.svg","response":0,"trial_type":"image-button-response","trial_index":129,"time_elapsed":375158,"internal_node_id":"0.0-4.0-0.61","subject_id":"5f2af90688d9b246791ba03d","study_id":"6197b3f67c2b5cd3b6d9596a","session_id":"619beefc8a4d966ac8957e89","condition":"full-information","relevant_dimensions":["antennae","wings"],"bee_group":{"antennae":"B","wings":"1","pattern":"X","legs":"X"},"action":"harvest","summary":"good-harvest","bonus":1.740000000000001},{"rt":733.5,"stimulus":"\n                    <p><b>Action: <em>harvest</em></b></p>\n                    <p>This is the bee that you just saw.</p>\n                    <img src=\"bees-with-color/bee-B2DF.svg\" width=\"200\">\n                    <p><span class=\"greenText\"><b>Successful harvest!</b></span><br>Your pay has increased by $0.02. Your bonus pay is now $1.24.</p>\n            ","response":0,"trial_type":"html-button-response","trial_index":130,"time_elapsed":375894,"internal_node_id":"0.0-4.0-1.61","subject_id":"5f2af90688d9b246791ba03d","study_id":"6197b3f67c2b5cd3b6d9596a","session_id":"619beefc8a4d966ac8957e89","condition":"full-information","relevant_dimensions":["antennae","wings"],"bee_group":{"antennae":"B","wings":"1","pattern":"X","legs":"X"},"bonus":1.740000000000001},{"rt":2078.5,"stimulus":"bees-with-color/bee-A1DM.svg","response":0,"trial_type":"image-button-response","trial_index":131,"time_elapsed":377974,"internal_node_id":"0.0-4.0-0.62","subject_id":"5f2af90688d9b246791ba03d","study_id":"6197b3f67c2b5cd3b6d9596a","session_id":"619beefc8a4d966ac8957e89","condition":"full-information","relevant_dimensions":["antennae","wings"],"bee_group":{"antennae":"B","wings":"1","pattern":"X","legs":"X"},"action":"harvest","summary":"good-harvest","bonus":1.740000000000001},{"rt":398.8999996185303,"stimulus":"\n                    <p><b>Action: <em>harvest</em></b></p>\n                    <p>This is the bee that you just saw.</p>\n                    <img src=\"bees-with-color/bee-A1DM.svg\" width=\"200\">\n                    <p><span class=\"greenText\"><b>Successful harvest!</b></span><br>Your pay has increased by $0.02. Your bonus pay is now $1.26.</p>\n            ","response":0,"trial_type":"html-button-response","trial_index":132,"time_elapsed":378375,"internal_node_id":"0.0-4.0-1.62","subject_id":"5f2af90688d9b246791ba03d","study_id":"6197b3f67c2b5cd3b6d9596a","session_id":"619beefc8a4d966ac8957e89","condition":"full-information","relevant_dimensions":["antennae","wings"],"bee_group":{"antennae":"B","wings":"1","pattern":"X","legs":"X"},"bonus":1.740000000000001},{"rt":709.6999998092651,"stimulus":"bees-with-color/bee-B1DM.svg","response":1,"trial_type":"image-button-response","trial_index":133,"time_elapsed":379086,"internal_node_id":"0.0-4.0-0.63","subject_id":"5f2af90688d9b246791ba03d","study_id":"6197b3f67c2b5cd3b6d9596a","session_id":"619beefc8a4d966ac8957e89","condition":"full-information","relevant_dimensions":["antennae","wings"],"bee_group":{"antennae":"B","wings":"1","pattern":"X","legs":"X"},"action":"avoid","summary":"good-avoid","bonus":1.740000000000001},{"rt":773.9000005722046,"stimulus":"\n                    <p><b>Action: <em>avoid</em></b></p>\n                    <p>This is the bee that you just saw.</p>\n                    <img src=\"bees-with-color/bee-B1DM.svg\" width=\"200\">\n                    <p><span class=\"greenText\">Good choice!</span>  This bee would have stung you.<br>Your bonus pay is unchanged, and remains at $1.26.</p>\n            ","response":0,"trial_type":"html-button-response","trial_index":134,"time_elapsed":379862,"internal_node_id":"0.0-4.0-1.63","subject_id":"5f2af90688d9b246791ba03d","study_id":"6197b3f67c2b5cd3b6d9596a","session_id":"619beefc8a4d966ac8957e89","condition":"full-information","relevant_dimensions":["antennae","wings"],"bee_group":{"antennae":"B","wings":"1","pattern":"X","legs":"X"},"bonus":1.740000000000001},{"rt":5685.800000190735,"stimulus":"You have completed the first part of this experiment.<br><br>You will now begin a shorter second part, in which you will receive no feedback.<br>The same rules regarding bonus pay apply.<br><br>Press any key to begin.","response":" ","trial_type":"html-keyboard-response","trial_index":135,"time_elapsed":385549,"internal_node_id":"0.0-5.0","subject_id":"5f2af90688d9b246791ba03d","study_id":"6197b3f67c2b5cd3b6d9596a","session_id":"619beefc8a4d966ac8957e89","condition":"full-information","relevant_dimensions":["antennae","wings"],"bee_group":{"antennae":"B","wings":"1","pattern":"X","legs":"X"},"bonus":1.740000000000001},{"rt":3497.2000007629395,"stimulus":"bees-with-color/bee-A1DF.svg","response":0,"trial_type":"image-button-response","trial_index":136,"time_elapsed":389054,"internal_node_id":"0.0-6.0-0.0","subject_id":"5f2af90688d9b246791ba03d","study_id":"6197b3f67c2b5cd3b6d9596a","session_id":"619beefc8a4d966ac8957e89","condition":"full-information","relevant_dimensions":["antennae","wings"],"bee_group":{"antennae":"B","wings":"1","pattern":"X","legs":"X"},"bonus":1.740000000000001},{"rt":2149.8999996185303,"stimulus":"bees-with-color/bee-A1SF.svg","response":0,"trial_type":"image-button-response","trial_index":137,"time_elapsed":391206,"internal_node_id":"0.0-6.0-0.1","subject_id":"5f2af90688d9b246791ba03d","study_id":"6197b3f67c2b5cd3b6d9596a","session_id":"619beefc8a4d966ac8957e89","condition":"full-information","relevant_dimensions":["antennae","wings"],"bee_group":{"antennae":"B","wings":"1","pattern":"X","legs":"X"},"bonus":1.740000000000001},{"rt":813.9000005722046,"stimulus":"bees-with-color/bee-B2DF.svg","response":0,"trial_type":"image-button-response","trial_index":138,"time_elapsed":392022,"internal_node_id":"0.0-6.0-0.2","subject_id":"5f2af90688d9b246791ba03d","study_id":"6197b3f67c2b5cd3b6d9596a","session_id":"619beefc8a4d966ac8957e89","condition":"full-information","relevant_dimensions":["antennae","wings"],"bee_group":{"antennae":"B","wings":"1","pattern":"X","legs":"X"},"bonus":1.740000000000001},{"rt":1006,"stimulus":"bees-with-color/bee-B1DF.svg","response":1,"trial_type":"image-button-response","trial_index":139,"time_elapsed":393030,"internal_node_id":"0.0-6.0-0.3","subject_id":"5f2af90688d9b246791ba03d","study_id":"6197b3f67c2b5cd3b6d9596a","session_id":"619beefc8a4d966ac8957e89","condition":"full-information","relevant_dimensions":["antennae","wings"],"bee_group":{"antennae":"B","wings":"1","pattern":"X","legs":"X"},"bonus":1.740000000000001},{"rt":1341.9000005722046,"stimulus":"bees-with-color/bee-B2DM.svg","response":0,"trial_type":"image-button-response","trial_index":140,"time_elapsed":394374,"internal_node_id":"0.0-6.0-0.4","subject_id":"5f2af90688d9b246791ba03d","study_id":"6197b3f67c2b5cd3b6d9596a","session_id":"619beefc8a4d966ac8957e89","condition":"full-information","relevant_dimensions":["antennae","wings"],"bee_group":{"antennae":"B","wings":"1","pattern":"X","legs":"X"},"bonus":1.740000000000001},{"rt":773.8000001907349,"stimulus":"bees-with-color/bee-B2SM.svg","response":0,"trial_type":"image-button-response","trial_index":141,"time_elapsed":395150,"internal_node_id":"0.0-6.0-0.5","subject_id":"5f2af90688d9b246791ba03d","study_id":"6197b3f67c2b5cd3b6d9596a","session_id":"619beefc8a4d966ac8957e89","condition":"full-information","relevant_dimensions":["antennae","wings"],"bee_group":{"antennae":"B","wings":"1","pattern":"X","legs":"X"},"bonus":1.740000000000001},{"rt":1077.9000005722046,"stimulus":"bees-with-color/bee-B1SF.svg","response":1,"trial_type":"image-button-response","trial_index":142,"time_elapsed":396230,"internal_node_id":"0.0-6.0-0.6","subject_id":"5f2af90688d9b246791ba03d","study_id":"6197b3f67c2b5cd3b6d9596a","session_id":"619beefc8a4d966ac8957e89","condition":"full-information","relevant_dimensions":["antennae","wings"],"bee_group":{"antennae":"B","wings":"1","pattern":"X","legs":"X"},"bonus":1.740000000000001},{"rt":661.9000005722046,"stimulus":"bees-with-color/bee-A2SF.svg","response":0,"trial_type":"image-button-response","trial_index":143,"time_elapsed":396894,"internal_node_id":"0.0-6.0-0.7","subject_id":"5f2af90688d9b246791ba03d","study_id":"6197b3f67c2b5cd3b6d9596a","session_id":"619beefc8a4d966ac8957e89","condition":"full-information","relevant_dimensions":["antennae","wings"],"bee_group":{"antennae":"B","wings":"1","pattern":"X","legs":"X"},"bonus":1.740000000000001},{"rt":733.9000005722046,"stimulus":"bees-with-color/bee-B2SF.svg","response":0,"trial_type":"image-button-response","trial_index":144,"time_elapsed":397630,"internal_node_id":"0.0-6.0-0.8","subject_id":"5f2af90688d9b246791ba03d","study_id":"6197b3f67c2b5cd3b6d9596a","session_id":"619beefc8a4d966ac8957e89","condition":"full-information","relevant_dimensions":["antennae","wings"],"bee_group":{"antennae":"B","wings":"1","pattern":"X","legs":"X"},"bonus":1.740000000000001},{"rt":1165.8000001907349,"stimulus":"bees-with-color/bee-A1SM.svg","response":0,"trial_type":"image-button-response","trial_index":145,"time_elapsed":398798,"internal_node_id":"0.0-6.0-0.9","subject_id":"5f2af90688d9b246791ba03d","study_id":"6197b3f67c2b5cd3b6d9596a","session_id":"619beefc8a4d966ac8957e89","condition":"full-information","relevant_dimensions":["antennae","wings"],"bee_group":{"antennae":"B","wings":"1","pattern":"X","legs":"X"},"bonus":1.740000000000001},{"rt":782.1000003814697,"stimulus":"bees-with-color/bee-A2SM.svg","response":0,"trial_type":"image-button-response","trial_index":146,"time_elapsed":399582,"internal_node_id":"0.0-6.0-0.10","subject_id":"5f2af90688d9b246791ba03d","study_id":"6197b3f67c2b5cd3b6d9596a","session_id":"619beefc8a4d966ac8957e89","condition":"full-information","relevant_dimensions":["antennae","wings"],"bee_group":{"antennae":"B","wings":"1","pattern":"X","legs":"X"},"bonus":1.740000000000001},{"rt":830.2000007629395,"stimulus":"bees-with-color/bee-B1DM.svg","response":1,"trial_type":"image-button-response","trial_index":147,"time_elapsed":400414,"internal_node_id":"0.0-6.0-0.11","subject_id":"5f2af90688d9b246791ba03d","study_id":"6197b3f67c2b5cd3b6d9596a","session_id":"619beefc8a4d966ac8957e89","condition":"full-information","relevant_dimensions":["antennae","wings"],"bee_group":{"antennae":"B","wings":"1","pattern":"X","legs":"X"},"bonus":1.740000000000001},{"rt":662.2000007629395,"stimulus":"bees-with-color/bee-A2DF.svg","response":0,"trial_type":"image-button-response","trial_index":148,"time_elapsed":401078,"internal_node_id":"0.0-6.0-0.12","subject_id":"5f2af90688d9b246791ba03d","study_id":"6197b3f67c2b5cd3b6d9596a","session_id":"619beefc8a4d966ac8957e89","condition":"full-information","relevant_dimensions":["antennae","wings"],"bee_group":{"antennae":"B","wings":"1","pattern":"X","legs":"X"},"bonus":1.740000000000001},{"rt":909.8000001907349,"stimulus":"bees-with-color/bee-A1DM.svg","response":0,"trial_type":"image-button-response","trial_index":149,"time_elapsed":401989,"internal_node_id":"0.0-6.0-0.13","subject_id":"5f2af90688d9b246791ba03d","study_id":"6197b3f67c2b5cd3b6d9596a","session_id":"619beefc8a4d966ac8957e89","condition":"full-information","relevant_dimensions":["antennae","wings"],"bee_group":{"antennae":"B","wings":"1","pattern":"X","legs":"X"},"bonus":1.740000000000001},{"rt":854.7000007629395,"stimulus":"bees-with-color/bee-A2DM.svg","response":0,"trial_type":"image-button-response","trial_index":150,"time_elapsed":402846,"internal_node_id":"0.0-6.0-0.14","subject_id":"5f2af90688d9b246791ba03d","study_id":"6197b3f67c2b5cd3b6d9596a","session_id":"619beefc8a4d966ac8957e89","condition":"full-information","relevant_dimensions":["antennae","wings"],"bee_group":{"antennae":"B","wings":"1","pattern":"X","legs":"X"},"bonus":1.740000000000001},{"rt":894.1000003814697,"stimulus":"bees-with-color/bee-B1SM.svg","response":1,"trial_type":"image-button-response","trial_index":151,"time_elapsed":403742,"internal_node_id":"0.0-6.0-0.15","subject_id":"5f2af90688d9b246791ba03d","study_id":"6197b3f67c2b5cd3b6d9596a","session_id":"619beefc8a4d966ac8957e89","condition":"full-information","relevant_dimensions":["antennae","wings"],"bee_group":{"antennae":"B","wings":"1","pattern":"X","legs":"X"},"bonus":1.740000000000001},{"rt":1214.3000001907349,"stimulus":"bees-with-color/bee-B2DM.svg","response":0,"trial_type":"image-button-response","trial_index":152,"time_elapsed":404958,"internal_node_id":"0.0-6.0-0.16","subject_id":"5f2af90688d9b246791ba03d","study_id":"6197b3f67c2b5cd3b6d9596a","session_id":"619beefc8a4d966ac8957e89","condition":"full-information","relevant_dimensions":["antennae","wings"],"bee_group":{"antennae":"B","wings":"1","pattern":"X","legs":"X"},"bonus":1.740000000000001},{"rt":622.4000005722046,"stimulus":"bees-with-color/bee-A2DM.svg","response":0,"trial_type":"image-button-response","trial_index":153,"time_elapsed":405582,"internal_node_id":"0.0-6.0-0.17","subject_id":"5f2af90688d9b246791ba03d","study_id":"6197b3f67c2b5cd3b6d9596a","session_id":"619beefc8a4d966ac8957e89","condition":"full-information","relevant_dimensions":["antennae","wings"],"bee_group":{"antennae":"B","wings":"1","pattern":"X","legs":"X"},"bonus":1.740000000000001},{"rt":926.3000001907349,"stimulus":"bees-with-color/bee-B1DM.svg","response":1,"trial_type":"image-button-response","trial_index":154,"time_elapsed":406510,"internal_node_id":"0.0-6.0-0.18","subject_id":"5f2af90688d9b246791ba03d","study_id":"6197b3f67c2b5cd3b6d9596a","session_id":"619beefc8a4d966ac8957e89","condition":"full-information","relevant_dimensions":["antennae","wings"],"bee_group":{"antennae":"B","wings":"1","pattern":"X","legs":"X"},"bonus":1.740000000000001},{"rt":838.4000005722046,"stimulus":"bees-with-color/bee-B1DF.svg","response":1,"trial_type":"image-button-response","trial_index":155,"time_elapsed":407350,"internal_node_id":"0.0-6.0-0.19","subject_id":"5f2af90688d9b246791ba03d","study_id":"6197b3f67c2b5cd3b6d9596a","session_id":"619beefc8a4d966ac8957e89","condition":"full-information","relevant_dimensions":["antennae","wings"],"bee_group":{"antennae":"B","wings":"1","pattern":"X","legs":"X"},"bonus":1.740000000000001},{"rt":630.3000001907349,"stimulus":"bees-with-color/bee-A2DF.svg","response":0,"trial_type":"image-button-response","trial_index":156,"time_elapsed":407982,"internal_node_id":"0.0-6.0-0.20","subject_id":"5f2af90688d9b246791ba03d","study_id":"6197b3f67c2b5cd3b6d9596a","session_id":"619beefc8a4d966ac8957e89","condition":"full-information","relevant_dimensions":["antennae","wings"],"bee_group":{"antennae":"B","wings":"1","pattern":"X","legs":"X"},"bonus":1.740000000000001},{"rt":734.4000005722046,"stimulus":"bees-with-color/bee-A1DM.svg","response":0,"trial_type":"image-button-response","trial_index":157,"time_elapsed":408718,"internal_node_id":"0.0-6.0-