[{"success":true,"trial_type":"fullscreen","trial_index":0,"time_elapsed":3174,"internal_node_id":"0.0-0.0","subject_id":"56bb6812bf2129000b53ce26","study_id":"6197b3f67c2b5cd3b6d9596a","session_id":"619bfbdf7d1c20cb93403a03","condition":"full-information","relevant_dimensions":["antennae","pattern"],"bee_group":{"antennae":"A","wings":"X","pattern":"S","legs":"X"},"bonus":0.04},{"success":true,"timeout":false,"failed_images":[],"failed_audio":[],"failed_video":[],"trial_type":"preload","trial_index":1,"time_elapsed":3916,"internal_node_id":"0.0-1.0","subject_id":"56bb6812bf2129000b53ce26","study_id":"6197b3f67c2b5cd3b6d9596a","session_id":"619bfbdf7d1c20cb93403a03","condition":"full-information","relevant_dimensions":["antennae","pattern"],"bee_group":{"antennae":"A","wings":"X","pattern":"S","legs":"X"},"bonus":0.04},{"rt":3735.100000023842,"stimulus":"Welcome! Press any key to begin.","response":"enter","trial_type":"html-keyboard-response","trial_index":2,"time_elapsed":7652,"internal_node_id":"0.0-2.0","subject_id":"56bb6812bf2129000b53ce26","study_id":"6197b3f67c2b5cd3b6d9596a","session_id":"619bfbdf7d1c20cb93403a03","condition":"full-information","relevant_dimensions":["antennae","pattern"],"bee_group":{"antennae":"A","wings":"X","pattern":"S","legs":"X"},"bonus":0.04},{"view_history":[{"page_index":0,"viewing_time":6076.699999928474},{"page_index":1,"viewing_time":8481.100000023842},{"page_index":2,"viewing_time":7804.600000023842},{"page_index":3,"viewing_time":7623.5},{"page_index":4,"viewing_time":6120.100000023842},{"page_index":5,"viewing_time":5394},{"page_index":6,"viewing_time":8309.299999952316},{"page_index":7,"viewing_time":6722.799999952316},{"page_index":8,"viewing_time":2502.7000000476837},{"page_index":9,"viewing_time":3511.2999999523163},{"page_index":10,"viewing_time":1785.4000000953674},{"page_index":11,"viewing_time":5447.099999904633},{"page_index":12,"viewing_time":2888},{"page_index":13,"viewing_time":1522.6000000238419},{"page_index":14,"viewing_time":1637.2000000476837}],"rt":75826.69999992847,"trial_type":"instructions","trial_index":3,"time_elapsed":83479,"internal_node_id":"0.0-3.0-0.0","subject_id":"56bb6812bf2129000b53ce26","study_id":"6197b3f67c2b5cd3b6d9596a","session_id":"619bfbdf7d1c20cb93403a03","condition":"full-information","relevant_dimensions":["antennae","pattern"],"bee_group":{"antennae":"A","wings":"X","pattern":"S","legs":"X"},"bonus":0.04},{"rt":12264.299999952316,"response":{"Q0":["Two or six legs","Stripes or spots on body","Single or double wings","Antennae or no antennae"]},"question_order":[0],"trial_type":"survey-multi-select","trial_index":4,"time_elapsed":95749,"internal_node_id":"0.0-3.0-1.0","subject_id":"56bb6812bf2129000b53ce26","study_id":"6197b3f67c2b5cd3b6d9596a","session_id":"619bfbdf7d1c20cb93403a03","condition":"full-information","relevant_dimensions":["antennae","pattern"],"bee_group":{"antennae":"A","wings":"X","pattern":"S","legs":"X"},"correct":true,"bonus":0.04},{"rt":27663.799999952316,"response":{"Q1":"No.","Q2":"Based on the four features of the bee.","Q3":"You do not learn if it was friendly or dangerous, and do not alter your bonus."},"question_order":[0,1,2],"trial_type":"survey-multi-choice","trial_index":5,"time_elapsed":123416,"internal_node_id":"0.0-3.0-2.0","subject_id":"56bb6812bf2129000b53ce26","study_id":"6197b3f67c2b5cd3b6d9596a","session_id":"619bfbdf7d1c20cb93403a03","condition":"full-information","relevant_dimensions":["antennae","pattern"],"bee_group":{"antennae":"A","wings":"X","pattern":"S","legs":"X"},"correct":false,"bonus":0.04},{"rt":3131,"stimulus":"<p>You did not answer all comprehension questions correctly.<br>Press <b>continue</b> to review the instructions again.</p>","response":0,"trial_type":"html-button-response","trial_index":6,"time_elapsed":126548,"internal_node_id":"0.0-3.0-3.0","subject_id":"56bb6812bf2129000b53ce26","study_id":"6197b3f67c2b5cd3b6d9596a","session_id":"619bfbdf7d1c20cb93403a03","condition":"full-information","relevant_dimensions":["antennae","pattern"],"bee_group":{"antennae":"A","wings":"X","pattern":"S","legs":"X"},"bonus":0.04},{"view_history":[{"page_index":0,"viewing_time":1284.2000000476837},{"page_index":1,"viewing_time":1031.2999999523163},{"page_index":2,"viewing_time":971.2000000476837},{"page_index":3,"viewing_time":860.5999999046326},{"page_index":4,"viewing_time":981.2000000476837},{"page_index":5,"viewing_time":660.2000000476837},{"page_index":6,"viewing_time":990.6999999284744},{"page_index":7,"viewing_time":1962.2000000476837},{"page_index":8,"viewing_time":1016.1999999284744},{"page_index":9,"viewing_time":1996.1000000238419},{"page_index":10,"viewing_time":924.6000000238419},{"page_index":11,"viewing_time":1583.8999999761581},{"page_index":12,"viewing_time":2343.2000000476837},{"page_index":13,"viewing_time":1135.3999999761581},{"page_index":14,"viewing_time":1131.2000000476837}],"rt":18872.600000023842,"trial_type":"instructions","trial_index":7,"time_elapsed":145422,"internal_node_id":"0.0-3.0-4.0-0.0","subject_id":"56bb6812bf2129000b53ce26","study_id":"6197b3f67c2b5cd3b6d9596a","session_id":"619bfbdf7d1c20cb93403a03","condition":"full-information","relevant_dimensions":["antennae","pattern"],"bee_group":{"antennae":"A","wings":"X","pattern":"S","legs":"X"},"bonus":0.04},{"rt":8604.199999928474,"response":{"Q0":["Two or six legs","Stripes or spots on body","Single or double wings","Antennae or no antennae"]},"question_order":[0],"trial_type":"survey-multi-select","trial_index":8,"time_elapsed":154031,"internal_node_id":"0.0-3.0-4.0-1.0","subject_id":"56bb6812bf2129000b53ce26","study_id":"6197b3f67c2b5cd3b6d9596a","session_id":"619bfbdf7d1c20cb93403a03","condition":"full-information","relevant_dimensions":["antennae","pattern"],"bee_group":{"antennae":"A","wings":"X","pattern":"S","legs":"X"},"correct":true,"bonus":0.04},{"rt":18635.200000047684,"response":{"Q1":"No.","Q2":"Based on the four features of the bee.","Q3":"You learn if it was friendly or dangerous, but do not alter your bonus."},"question_order":[0,1,2],"trial_type":"survey-multi-choice","trial_index":9,"time_elapsed":172668,"internal_node_id":"0.0-3.0-4.0-2.0","subject_id":"56bb6812bf2129000b53ce26","study_id":"6197b3f67c2b5cd3b6d9596a","session_id":"619bfbdf7d1c20cb93403a03","condition":"full-information","relevant_dimensions":["antennae","pattern"],"bee_group":{"antennae":"A","wings":"X","pattern":"S","legs":"X"},"correct":true,"bonus":0.04},{"rt":1320.6000000238419,"stimulus":"<p>Congrats, you got everything right<br>When you're ready, click the button below to continue to the experiment.</p>","response":0,"trial_type":"html-button-response","trial_index":10,"time_elapsed":173990,"internal_node_id":"0.0-3.0-4.0-3.0","subject_id":"56bb6812bf2129000b53ce26","study_id":"6197b3f67c2b5cd3b6d9596a","session_id":"619bfbdf7d1c20cb93403a03","condition":"full-information","relevant_dimensions":["antennae","pattern"],"bee_group":{"antennae":"A","wings":"X","pattern":"S","legs":"X"},"bonus":0.04},{"rt":4931.800000071526,"stimulus":"bees-with-color/bee-B1DM.svg","response":0,"trial_type":"image-button-response","trial_index":11,"time_elapsed":178924,"internal_node_id":"0.0-4.0-0.0","subject_id":"56bb6812bf2129000b53ce26","study_id":"6197b3f67c2b5cd3b6d9596a","session_id":"619bfbdf7d1c20cb93403a03","condition":"full-information","relevant_dimensions":["antennae","pattern"],"bee_group":{"antennae":"A","wings":"X","pattern":"S","legs":"X"},"action":"harvest","summary":"good-harvest","bonus":0.04},{"rt":3965.100000023842,"stimulus":"\n                    <p><b>Action: <em>harvest</em></b></p>\n                    <p>This is the bee that you just saw.</p>\n                    <img src=\"bees-with-color/bee-B1DM.svg\" width=\"200\">\n                    <p><span class=\"greenText\"><b>Successful harvest!</b></span><br>Your pay has increased by $0.02. Your bonus pay is now $0.56.</p>\n            ","response":0,"trial_type":"html-button-response","trial_index":12,"time_elapsed":182892,"internal_node_id":"0.0-4.0-1.0","subject_id":"56bb6812bf2129000b53ce26","study_id":"6197b3f67c2b5cd3b6d9596a","session_id":"619bfbdf7d1c20cb93403a03","condition":"full-information","relevant_dimensions":["antennae","pattern"],"bee_group":{"antennae":"A","wings":"X","pattern":"S","legs":"X"},"bonus":0.04},{"rt":1734.2000000476837,"stimulus":"bees-with-color/bee-A2DM.svg","response":1,"trial_type":"image-button-response","trial_index":13,"time_elapsed":184628,"internal_node_id":"0.0-4.0-0.1","subject_id":"56bb6812bf2129000b53ce26","study_id":"6197b3f67c2b5cd3b6d9596a","session_id":"619bfbdf7d1c20cb93403a03","condition":"full-information","relevant_dimensions":["antennae","pattern"],"bee_group":{"antennae":"A","wings":"X","pattern":"S","legs":"X"},"action":"avoid","summary":"bad-avoid","bonus":0.04},{"rt":1309.2000000476837,"stimulus":"\n                    <p><b>Action: <em>avoid</em></b></p>\n                    <p>This is the bee that you just saw.</p>\n                    <img src=\"bees-with-color/bee-A2DM.svg\" width=\"200\">\n                    <p><span class=\"redText\">Bad choice,</span> the bee was friendly.<br>Your bonus pay is unchanged, and remains at $0.56.</p>\n            ","response":0,"trial_type":"html-button-response","trial_index":14,"time_elapsed":185939,"internal_node_id":"0.0-4.0-1.1","subject_id":"56bb6812bf2129000b53ce26","study_id":"6197b3f67c2b5cd3b6d9596a","session_id":"619bfbdf7d1c20cb93403a03","condition":"full-information","relevant_dimensions":["antennae","pattern"],"bee_group":{"antennae":"A","wings":"X","pattern":"S","legs":"X"},"bonus":0.04},{"rt":1530,"stimulus":"bees-with-color/bee-B1SF.svg","response":0,"trial_type":"image-button-response","trial_index":15,"time_elapsed":187471,"internal_node_id":"0.0-4.0-0.2","subject_id":"56bb6812bf2129000b53ce26","study_id":"6197b3f67c2b5cd3b6d9596a","session_id":"619bfbdf7d1c20cb93403a03","condition":"full-information","relevant_dimensions":["antennae","pattern"],"bee_group":{"antennae":"A","wings":"X","pattern":"S","legs":"X"},"action":"harvest","summary":"good-harvest","bonus":0.04},{"rt":1608.3999999761581,"stimulus":"\n                    <p><b>Action: <em>harvest</em></b></p>\n                    <p>This is the bee that you just saw.</p>\n                    <img src=\"bees-with-color/bee-B1SF.svg\" width=\"200\">\n                    <p><span class=\"greenText\"><b>Successful harvest!</b></span><br>Your pay has increased by $0.02. Your bonus pay is now $0.58.</p>\n            ","response":0,"trial_type":"html-button-response","trial_index":16,"time_elapsed":189081,"internal_node_id":"0.0-4.0-1.2","subject_id":"56bb6812bf2129000b53ce26","study_id":"6197b3f67c2b5cd3b6d9596a","session_id":"619bfbdf7d1c20cb93403a03","condition":"full-information","relevant_dimensions":["antennae","pattern"],"bee_group":{"antennae":"A","wings":"X","pattern":"S","legs":"X"},"bonus":0.04},{"rt":1230.4000000953674,"stimulus":"bees-with-color/bee-A1DM.svg","response":0,"trial_type":"image-button-response","trial_index":17,"time_elapsed":190313,"internal_node_id":"0.0-4.0-0.3","subject_id":"56bb6812bf2129000b53ce26","study_id":"6197b3f67c2b5cd3b6d9596a","session_id":"619bfbdf7d1c20cb93403a03","condition":"full-information","relevant_dimensions":["antennae","pattern"],"bee_group":{"antennae":"A","wings":"X","pattern":"S","legs":"X"},"action":"harvest","summary":"good-harvest","bonus":0.04},{"rt":889.1000000238419,"stimulus":"\n                    <p><b>Action: <em>harvest</em></b></p>\n                    <p>This is the bee that you just saw.</p>\n                    <img src=\"bees-with-color/bee-A1DM.svg\" width=\"200\">\n                    <p><span class=\"greenText\"><b>Successful harvest!</b></span><br>Your pay has increased by $0.02. Your bonus pay is now $0.60.</p>\n            ","response":0,"trial_type":"html-button-response","trial_index":18,"time_elapsed":191204,"internal_node_id":"0.0-4.0-1.3","subject_id":"56bb6812bf2129000b53ce26","study_id":"6197b3f67c2b5cd3b6d9596a","session_id":"619bfbdf7d1c20cb93403a03","condition":"full-information","relevant_dimensions":["antennae","pattern"],"bee_group":{"antennae":"A","wings":"X","pattern":"S","legs":"X"},"bonus":0.04},{"rt":1789.6000000238419,"stimulus":"bees-with-color/bee-A2SM.svg","response":1,"trial_type":"image-button-response","trial_index":19,"time_elapsed":192995,"internal_node_id":"0.0-4.0-0.4","subject_id":"56bb6812bf2129000b53ce26","study_id":"6197b3f67c2b5cd3b6d9596a","session_id":"619bfbdf7d1c20cb93403a03","condition":"full-information","relevant_dimensions":["antennae","pattern"],"bee_group":{"antennae":"A","wings":"X","pattern":"S","legs":"X"},"action":"avoid","summary":"good-avoid","bonus":0.04},{"rt":2303.899999976158,"stimulus":"\n                    <p><b>Action: <em>avoid</em></b></p>\n                    <p>This is the bee that you just saw.</p>\n                    <img src=\"bees-with-color/bee-A2SM.svg\" width=\"200\">\n                    <p><span class=\"greenText\">Good choice!</span>  This bee would have stung you.<br>Your bonus pay is unchanged, and remains at $0.60.</p>\n            ","response":0,"trial_type":"html-button-response","trial_index":20,"time_elapsed":195301,"internal_node_id":"0.0-4.0-1.4","subject_id":"56bb6812bf2129000b53ce26","study_id":"6197b3f67c2b5cd3b6d9596a","session_id":"619bfbdf7d1c20cb93403a03","condition":"full-information","relevant_dimensions":["antennae","pattern"],"bee_group":{"antennae":"A","wings":"X","pattern":"S","legs":"X"},"bonus":0.04},{"rt":936.2000000476837,"stimulus":"bees-with-color/bee-B2DM.svg","response":0,"trial_type":"image-button-response","trial_index":21,"time_elapsed":196238,"internal_node_id":"0.0-4.0-0.5","subject_id":"56bb6812bf2129000b53ce26","study_id":"6197b3f67c2b5cd3b6d9596a","session_id":"619bfbdf7d1c20cb93403a03","condition":"full-information","relevant_dimensions":["antennae","pattern"],"bee_group":{"antennae":"A","wings":"X","pattern":"S","legs":"X"},"action":"harvest","summary":"good-harvest","bonus":0.04},{"rt":778.3999999761581,"stimulus":"\n                    <p><b>Action: <em>harvest</em></b></p>\n                    <p>This is the bee that you just saw.</p>\n                    <img src=\"bees-with-color/bee-B2DM.svg\" width=\"200\">\n                    <p><span class=\"greenText\"><b>Successful harvest!</b></span><br>Your pay has increased by $0.02. Your bonus pay is now $0.62.</p>\n            ","response":0,"trial_type":"html-button-response","trial_index":22,"time_elapsed":197019,"internal_node_id":"0.0-4.0-1.5","subject_id":"56bb6812bf2129000b53ce26","study_id":"6197b3f67c2b5cd3b6d9596a","session_id":"619bfbdf7d1c20cb93403a03","condition":"full-information","relevant_dimensions":["antennae","pattern"],"bee_group":{"antennae":"A","wings":"X","pattern":"S","legs":"X"},"bonus":0.04},{"rt":1741,"stimulus":"bees-with-color/bee-B2SF.svg","response":1,"trial_type":"image-button-response","trial_index":23,"time_elapsed":198761,"internal_node_id":"0.0-4.0-0.6","subject_id":"56bb6812bf2129000b53ce26","study_id":"6197b3f67c2b5cd3b6d9596a","session_id":"619bfbdf7d1c20cb93403a03","condition":"full-information","relevant_dimensions":["antennae","pattern"],"bee_group":{"antennae":"A","wings":"X","pattern":"S","legs":"X"},"action":"avoid","summary":"bad-avoid","bonus":0.04},{"rt":768.7000000476837,"stimulus":"\n                    <p><b>Action: <em>avoid</em></b></p>\n                    <p>This is the bee that you just saw.</p>\n                    <img src=\"bees-with-color/bee-B2SF.svg\" width=\"200\">\n                    <p><span class=\"redText\">Bad choice,</span> the bee was friendly.<br>Your bonus pay is unchanged, and remains at $0.62.</p>\n            ","response":0,"trial_type":"html-button-response","trial_index":24,"time_elapsed":199531,"internal_node_id":"0.0-4.0-1.6","subject_id":"56bb6812bf2129000b53ce26","study_id":"6197b3f67c2b5cd3b6d9596a","session_id":"619bfbdf7d1c20cb93403a03","condition":"full-information","relevant_dimensions":["antennae","pattern"],"bee_group":{"antennae":"A","wings":"X","pattern":"S","legs":"X"},"bonus":0.04},{"rt":719.1000000238419,"stimulus":"bees-with-color/bee-A2SF.svg","response":0,"trial_type":"image-button-response","trial_index":25,"time_elapsed":200252,"internal_node_id":"0.0-4.0-0.7","subject_id":"56bb6812bf2129000b53ce26","study_id":"6197b3f67c2b5cd3b6d9596a","session_id":"619bfbdf7d1c20cb93403a03","condition":"full-information","relevant_dimensions":["antennae","pattern"],"bee_group":{"antennae":"A","wings":"X","pattern":"S","legs":"X"},"action":"harvest","summary":"bad-harvest","bonus":0.04},{"rt":1540.2999999523163,"stimulus":"\n                    <p><b>Action: <em>harvest</em></b></p>\n                    <p>This is the bee that you just saw.</p>\n                    <img src=\"bees-with-color/bee-A2SF.svg\" width=\"200\">\n                    <p><span class=\"redText\">Bad choice, the bee was angry.</span><br><b>You have been stung!</b><br>Your pay has been decreased by $0.10. Your bonus pay is now $0.52.</p>\n            ","response":0,"trial_type":"html-button-response","trial_index":26,"time_elapsed":201793,"internal_node_id":"0.0-4.0-1.7","subject_id":"56bb6812bf2129000b53ce26","study_id":"6197b3f67c2b5cd3b6d9596a","session_id":"619bfbdf7d1c20cb93403a03","condition":"full-information","relevant_dimensions":["antennae","pattern"],"bee_group":{"antennae":"A","wings":"X","pattern":"S","legs":"X"},"bonus":0.04},{"rt":1384.3999999761581,"stimulus":"bees-with-color/bee-B1DF.svg","response":0,"trial_type":"image-button-response","trial_index":27,"time_elapsed":203179,"internal_node_id":"0.0-4.0-0.8","subject_id":"56bb6812bf2129000b53ce26","study_id":"6197b3f67c2b5cd3b6d9596a","session_id":"619bfbdf7d1c20cb93403a03","condition":"full-information","relevant_dimensions":["antennae","pattern"],"bee_group":{"antennae":"A","wings":"X","pattern":"S","legs":"X"},"action":"harvest","summary":"good-harvest","bonus":0.04},{"rt":958.4000000953674,"stimulus":"\n                    <p><b>Action: <em>harvest</em></b></p>\n                    <p>This is the bee that you just saw.</p>\n                    <img src=\"bees-with-color/bee-B1DF.svg\" width=\"200\">\n                    <p><span class=\"greenText\"><b>Successful harvest!</b></span><br>Your pay has increased by $0.02. Your bonus pay is now $0.54.</p>\n            ","response":0,"trial_type":"html-button-response","trial_index":28,"time_elapsed":204139,"internal_node_id":"0.0-4.0-1.8","subject_id":"56bb6812bf2129000b53ce26","study_id":"6197b3f67c2b5cd3b6d9596a","session_id":"619bfbdf7d1c20cb93403a03","condition":"full-information","relevant_dimensions":["antennae","pattern"],"bee_group":{"antennae":"A","wings":"X","pattern":"S","legs":"X"},"bonus":0.04},{"rt":3191.0999999046326,"stimulus":"bees-with-color/bee-B1SM.svg","response":0,"trial_type":"image-button-response","trial_index":29,"time_elapsed":207332,"internal_node_id":"0.0-4.0-0.9","subject_id":"56bb6812bf2129000b53ce26","study_id":"6197b3f67c2b5cd3b6d9596a","session_id":"619bfbdf7d1c20cb93403a03","condition":"full-information","relevant_dimensions":["antennae","pattern"],"bee_group":{"antennae":"A","wings":"X","pattern":"S","legs":"X"},"action":"harvest","summary":"good-harvest","bonus":0.04},{"rt":748.2999999523163,"stimulus":"\n                    <p><b>Action: <em>harvest</em></b></p>\n                    <p>This is the bee that you just saw.</p>\n                    <img src=\"bees-with-color/bee-B1SM.svg\" width=\"200\">\n                    <p><span class=\"greenText\"><b>Successful harvest!</b></span><br>Your pay has increased by $0.02. Your bonus pay is now $0.56.</p>\n            ","response":0,"trial_type":"html-button-response","trial_index":30,"time_elapsed":208082,"internal_node_id":"0.0-4.0-1.9","subject_id":"56bb6812bf2129000b53ce26","study_id":"6197b3f67c2b5cd3b6d9596a","session_id":"619bfbdf7d1c20cb93403a03","condition":"full-information","relevant_dimensions":["antennae","pattern"],"bee_group":{"antennae":"A","wings":"X","pattern":"S","legs":"X"},"bonus":0.04},{"rt":1689.5,"stimulus":"bees-with-color/bee-B2DF.svg","response":0,"trial_type":"image-button-response","trial_index":31,"time_elapsed":209774,"internal_node_id":"0.0-4.0-0.10","subject_id":"56bb6812bf2129000b53ce26","study_id":"6197b3f67c2b5cd3b6d9596a","session_id":"619bfbdf7d1c20cb93403a03","condition":"full-information","relevant_dimensions":["antennae","pattern"],"bee_group":{"antennae":"A","wings":"X","pattern":"S","legs":"X"},"action":"harvest","summary":"good-harvest","bonus":0.04},{"rt":688.4000000953674,"stimulus":"\n                    <p><b>Action: <em>harvest</em></b></p>\n                    <p>This is the bee that you just saw.</p>\n                    <img src=\"bees-with-color/bee-B2DF.svg\" width=\"200\">\n                    <p><span class=\"greenText\"><b>Successful harvest!</b></span><br>Your pay has increased by $0.02. Your bonus pay is now $0.58.</p>\n            ","response":0,"trial_type":"html-button-response","trial_index":32,"time_elapsed":210464,"internal_node_id":"0.0-4.0-1.10","subject_id":"56bb6812bf2129000b53ce26","study_id":"6197b3f67c2b5cd3b6d9596a","session_id":"619bfbdf7d1c20cb93403a03","condition":"full-information","relevant_dimensions":["antennae","pattern"],"bee_group":{"antennae":"A","wings":"X","pattern":"S","legs":"X"},"bonus":0.04},{"rt":1400.1999999284744,"stimulus":"bees-with-color/bee-A1SM.svg","response":1,"trial_type":"image-button-response","trial_index":33,"time_elapsed":211866,"internal_node_id":"0.0-4.0-0.11","subject_id":"56bb6812bf2129000b53ce26","study_id":"6197b3f67c2b5cd3b6d9596a","session_id":"619bfbdf7d1c20cb93403a03","condition":"full-information","relevant_dimensions":["antennae","pattern"],"bee_group":{"antennae":"A","wings":"X","pattern":"S","legs":"X"},"action":"avoid","summary":"good-avoid","bonus":0.04},{"rt":648.7000000476837,"stimulus":"\n                    <p><b>Action: <em>avoid</em></b></p>\n                    <p>This is the bee that you just saw.</p>\n                    <img src=\"bees-with-color/bee-A1SM.svg\" width=\"200\">\n                    <p><span class=\"greenText\">Good choice!</span>  This bee would have stung you.<br>Your bonus pay is unchanged, and remains at $0.58.</p>\n            ","response":0,"trial_type":"html-button-response","trial_index":34,"time_elapsed":212516,"internal_node_id":"0.0-4.0-1.11","subject_id":"56bb6812bf2129000b53ce26","study_id":"6197b3f67c2b5cd3b6d9596a","session_id":"619bfbdf7d1c20cb93403a03","condition":"full-information","relevant_dimensions":["antennae","pattern"],"bee_group":{"antennae":"A","wings":"X","pattern":"S","legs":"X"},"bonus":0.04},{"rt":1179,"stimulus":"bees-with-color/bee-A1DF.svg","response":0,"trial_type":"image-button-response","trial_index":35,"time_elapsed":213696,"internal_node_id":"0.0-4.0-0.12","subject_id":"56bb6812bf2129000b53ce26","study_id":"6197b3f67c2b5cd3b6d9596a","session_id":"619bfbdf7d1c20cb93403a03","condition":"full-information","relevant_dimensions":["antennae","pattern"],"bee_group":{"antennae":"A","wings":"X","pattern":"S","legs":"X"},"action":"harvest","summary":"good-harvest","bonus":0.04},{"rt":889.1999999284744,"stimulus":"\n                    <p><b>Action: <em>harvest</em></b></p>\n                    <p>This is the bee that you just saw.</p>\n                    <img src=\"bees-with-color/bee-A1DF.svg\" width=\"200\">\n                    <p><span class=\"greenText\"><b>Successful harvest!</b></span><br>Your pay has increased by $0.02. Your bonus pay is now $0.60.</p>\n            ","response":0,"trial_type":"html-button-response","trial_index":36,"time_elapsed":214587,"internal_node_id":"0.0-4.0-1.12","subject_id":"56bb6812bf2129000b53ce26","study_id":"6197b3f67c2b5cd3b6d9596a","session_id":"619bfbdf7d1c20cb93403a03","condition":"full-information","relevant_dimensions":["antennae","pattern"],"bee_group":{"antennae":"A","wings":"X","pattern":"S","legs":"X"},"bonus":0.04},{"rt":870.1000000238419,"stimulus":"bees-with-color/bee-A2DF.svg","response":0,"trial_type":"image-button-response","trial_index":37,"time_elapsed":215458,"internal_node_id":"0.0-4.0-0.13","subject_id":"56bb6812bf2129000b53ce26","study_id":"6197b3f67c2b5cd3b6d9596a","session_id":"619bfbdf7d1c20cb93403a03","condition":"full-information","relevant_dimensions":["antennae","pattern"],"bee_group":{"antennae":"A","wings":"X","pattern":"S","legs":"X"},"action":"harvest","summary":"good-harvest","bonus":0.04},{"rt":648.1000000238419,"stimulus":"\n                    <p><b>Action: <em>harvest</em></b></p>\n                    <p>This is the bee that you just saw.</p>\n                    <img src=\"bees-with-color/bee-A2DF.svg\" width=\"200\">\n                    <p><span class=\"greenText\"><b>Successful harvest!</b></span><br>Your pay has increased by $0.02. Your bonus pay is now $0.62.</p>\n            ","response":0,"trial_type":"html-button-response","trial_index":38,"time_elapsed":216108,"internal_node_id":"0.0-4.0-1.13","subject_id":"56bb6812bf2129000b53ce26","study_id":"6197b3f67c2b5cd3b6d9596a","session_id":"619bfbdf7d1c20cb93403a03","condition":"full-information","relevant_dimensions":["antennae","pattern"],"bee_group":{"antennae":"A","wings":"X","pattern":"S","legs":"X"},"bonus":0.04},{"rt":859,"stimulus":"bees-with-color/bee-A1SF.svg","response":0,"trial_type":"image-button-response","trial_index":39,"time_elapsed":216969,"internal_node_id":"0.0-4.0-0.14","subject_id":"56bb6812bf2129000b53ce26","study_id":"6197b3f67c2b5cd3b6d9596a","session_id":"619bfbdf7d1c20cb93403a03","condition":"full-information","relevant_dimensions":["antennae","pattern"],"bee_group":{"antennae":"A","wings":"X","pattern":"S","legs":"X"},"action":"harvest","summary":"bad-harvest","bonus":0.04},{"rt":779.1999999284744,"stimulus":"\n                    <p><b>Action: <em>harvest</em></b></p>\n                    <p>This is the bee that you just saw.</p>\n                    <img src=\"bees-with-color/bee-A1SF.svg\" width=\"200\">\n                    <p><span class=\"redText\">Bad choice, the bee was angry.</span><br><b>You have been stung!</b><br>Your pay has been decreased by $0.10. Your bonus pay is now $0.52.</p>\n            ","response":0,"trial_type":"html-button-response","trial_index":40,"time_elapsed":217750,"internal_node_id":"0.0-4.0-1.14","subject_id":"56bb6812bf2129000b53ce26","study_id":"6197b3f67c2b5cd3b6d9596a","session_id":"619bfbdf7d1c20cb93403a03","condition":"full-information","relevant_dimensions":["antennae","pattern"],"bee_group":{"antennae":"A","wings":"X","pattern":"S","legs":"X"},"bonus":0.04},{"rt":989,"stimulus":"bees-with-color/bee-B2SM.svg","response":0,"trial_type":"image-button-response","trial_index":41,"time_elapsed":218740,"internal_node_id":"0.0-4.0-0.15","subject_id":"56bb6812bf2129000b53ce26","study_id":"6197b3f67c2b5cd3b6d9596a","session_id":"619bfbdf7d1c20cb93403a03","condition":"full-information","relevant_dimensions":["antennae","pattern"],"bee_group":{"antennae":"A","wings":"X","pattern":"S","legs":"X"},"action":"harvest","summary":"good-harvest","bonus":0.04},{"rt":789.1000000238419,"stimulus":"\n                    <p><b>Action: <em>harvest</em></b></p>\n                    <p>This is the bee that you just saw.</p>\n                    <img src=\"bees-with-color/bee-B2SM.svg\" width=\"200\">\n                    <p><span class=\"greenText\"><b>Successful harvest!</b></span><br>Your pay has increased by $0.02. Your bonus pay is now $0.54.</p>\n            ","response":0,"trial_type":"html-button-response","trial_index":42,"time_elapsed":219531,"internal_node_id":"0.0-4.0-1.15","subject_id":"56bb6812bf2129000b53ce26","study_id":"6197b3f67c2b5cd3b6d9596a","session_id":"619bfbdf7d1c20cb93403a03","condition":"full-information","relevant_dimensions":["antennae","pattern"],"bee_group":{"antennae":"A","wings":"X","pattern":"S","legs":"X"},"bonus":0.04},{"rt":868.6999999284744,"stimulus":"bees-with-color/bee-B1SF.svg","response":0,"trial_type":"image-button-response","trial_index":43,"time_elapsed":220401,"internal_node_id":"0.0-4.0-0.16","subject_id":"56bb6812bf2129000b53ce26","study_id":"6197b3f67c2b5cd3b6d9596a","session_id":"619bfbdf7d1c20cb93403a03","condition":"full-information","relevant_dimensions":["antennae","pattern"],"bee_group":{"antennae":"A","wings":"X","pattern":"S","legs":"X"},"action":"harvest","summary":"good-harvest","bonus":0.04},{"rt":768.8000000715256,"stimulus":"\n                    <p><b>Action: <em>harvest</em></b></p>\n                    <p>This is the bee that you just saw.</p>\n                    <img src=\"bees-with-color/bee-B1SF.svg\" width=\"200\">\n                    <p><span class=\"greenText\"><b>Successful harvest!</b></span><br>Your pay has increased by $0.02. Your bonus pay is now $0.56.</p>\n            ","response":0,"trial_type":"html-button-response","trial_index":44,"time_elapsed":221171,"internal_node_id":"0.0-4.0-1.16","subject_id":"56bb6812bf2129000b53ce26","study_id":"6197b3f67c2b5cd3b6d9596a","session_id":"619bfbdf7d1c20cb93403a03","condition":"full-information","relevant_dimensions":["antennae","pattern"],"bee_group":{"antennae":"A","wings":"X","pattern":"S","legs":"X"},"bonus":0.04},{"rt":1230.2999999523163,"stimulus":"bees-with-color/bee-B1DM.svg","response":1,"trial_type":"image-button-response","trial_index":45,"time_elapsed":222403,"internal_node_id":"0.0-4.0-0.17","subject_id":"56bb6812bf2129000b53ce26","study_id":"6197b3f67c2b5cd3b6d9596a","session_id":"619bfbdf7d1c20cb93403a03","condition":"full-information","relevant_dimensions":["antennae","pattern"],"bee_group":{"antennae":"A","wings":"X","pattern":"S","legs":"X"},"action":"avoid","summary":"bad-avoid","bonus":0.04},{"rt":838.6000000238419,"stimulus":"\n                    <p><b>Action: <em>avoid</em></b></p>\n                    <p>This is the bee that you just saw.</p>\n                    <img src=\"bees-with-color/bee-B1DM.svg\" width=\"200\">\n                    <p><span class=\"redText\">Bad choice,</span> the bee was friendly.<br>Your bonus pay is unchanged, and remains at $0.56.</p>\n            ","response":0,"trial_type":"html-button-response","trial_index":46,"time_elapsed":223243,"internal_node_id":"0.0-4.0-1.17","subject_id":"56bb6812bf2129000b53ce26","study_id":"6197b3f67c2b5cd3b6d9596a","session_id":"619bfbdf7d1c20cb93403a03","condition":"full-information","relevant_dimensions":["antennae","pattern"],"bee_group":{"antennae":"A","wings":"X","pattern":"S","legs":"X"},"bonus":0.04},{"rt":719.5,"stimulus":"bees-with-color/bee-A1DF.svg","response":0,"trial_type":"image-button-response","trial_index":47,"time_elapsed":223964,"internal_node_id":"0.0-4.0-0.18","subject_id":"56bb6812bf2129000b53ce26","study_id":"6197b3f67c2b5cd3b6d9596a","session_id":"619bfbdf7d1c20cb93403a03","condition":"full-information","relevant_dimensions":["antennae","pattern"],"bee_group":{"antennae":"A","wings":"X","pattern":"S","legs":"X"},"action":"harvest","summary":"good-harvest","bonus":0.04},{"rt":878.1000000238419,"stimulus":"\n                    <p><b>Action: <em>harvest</em></b></p>\n                    <p>This is the bee that you just saw.</p>\n                    <img src=\"bees-with-color/bee-A1DF.svg\" width=\"200\">\n                    <p><span class=\"greenText\"><b>Successful harvest!</b></span><br>Your pay has increased by $0.02. Your bonus pay is now $0.58.</p>\n            ","response":0,"trial_type":"html-button-response","trial_index":48,"time_elapsed":224844,"internal_node_id":"0.0-4.0-1.18","subject_id":"56bb6812bf2129000b53ce26","study_id":"6197b3f67c2b5cd3b6d9596a","session_id":"619bfbdf7d1c20cb93403a03","condition":"full-information","relevant_dimensions":["antennae","pattern"],"bee_group":{"antennae":"A","wings":"X","pattern":"S","legs":"X"},"bonus":0.04},{"rt":1150,"stimulus":"bees-with-color/bee-B2DF.svg","response":1,"trial_type":"image-button-response","trial_index":49,"time_elapsed":225995,"internal_node_id":"0.0-4.0-0.19","subject_id":"56bb6812bf2129000b53ce26","study_id":"6197b3f67c2b5cd3b6d9596a","session_id":"619bfbdf7d1c20cb93403a03","condition":"full-information","relevant_dimensions":["antennae","pattern"],"bee_group":{"antennae":"A","wings":"X","pattern":"S","legs":"X"},"action":"avoid","summary":"bad-avoid","bonus":0.04},{"rt":568.0999999046326,"stimulus":"\n                    <p><b>Action: <em>avoid</em></b></p>\n                    <p>This is the bee that you just saw.</p>\n                    <img src=\"bees-with-color/bee-B2DF.svg\" width=\"200\">\n                    <p><span class=\"redText\">Bad choice,</span> the bee was friendly.<br>Your bonus pay is unchanged, and remains at $0.58.</p>\n            ","response":0,"trial_type":"html-button-response","trial_index":50,"time_elapsed":226565,"internal_node_id":"0.0-4.0-1.19","subject_id":"56bb6812bf2129000b53ce26","study_id":"6197b3f67c2b5cd3b6d9596a","session_id":"619bfbdf7d1c20cb93403a03","condition":"full-information","relevant_dimensions":["antennae","pattern"],"bee_group":{"antennae":"A","wings":"X","pattern":"S","legs":"X"},"bonus":0.04},{"rt":599.2999999523163,"stimulus":"bees-with-color/bee-B1DF.svg","response":0,"trial_type":"image-button-response","trial_index":51,"time_elapsed":227166,"internal_node_id":"0.0-4.0-0.20","subject_id":"56bb6812bf2129000b53ce26","study_id":"6197b3f67c2b5cd3b6d9596a","session_id":"619bfbdf7d1c20cb93403a03","condition":"full-information","relevant_dimensions":["antennae","pattern"],"bee_group":{"antennae":"A","wings":"X","pattern":"S","legs":"X"},"action":"harvest","summary":"good-harvest","bonus":0.04},{"rt":1007.6999999284744,"stimulus":"\n                    <p><b>Action: <em>harvest</em></b></p>\n                    <p>This is the bee that you just saw.</p>\n                    <img src=\"bees-with-color/bee-B1DF.svg\" width=\"200\">\n                    <p><span class=\"greenText\"><b>Successful harvest!</b></span><br>Your pay has increased by $0.02. Your bonus pay is now $0.60.</p>\n            ","response":0,"trial_type":"html-button-response","trial_index":52,"time_elapsed":228176,"internal_node_id":"0.0-4.0-1.20","subject_id":"56bb6812bf2129000b53ce26","study_id":"6197b3f67c2b5cd3b6d9596a","session_id":"619bfbdf7d1c20cb93403a03","condition":"full-information","relevant_dimensions":["antennae","pattern"],"bee_group":{"antennae":"A","wings":"X","pattern":"S","legs":"X"},"bonus":0.04},{"rt":1109.3999999761581,"stimulus":"bees-with-color/bee-A1SF.svg","response":0,"trial_type":"image-button-response","trial_index":53,"time_elapsed":229287,"internal_node_id":"0.0-4.0-0.21","subject_id":"56bb6812bf2129000b53ce26","study_id":"6197b3f67c2b5cd3b6d9596a","session_id":"619bfbdf7d1c20cb93403a03","condition":"full-information","relevant_dimensions":["antennae","pattern"],"bee_group":{"antennae":"A","wings":"X","pattern":"S","legs":"X"},"action":"harvest","summary":"bad-harvest","bonus":0.04},{"rt":708.9000000953674,"stimulus":"\n                    <p><b>Action: <em>harvest</em></b></p>\n                    <p>This is the bee that you just saw.</p>\n                    <img src=\"bees-with-color/bee-A1SF.svg\" width=\"200\">\n                    <p><span class=\"redText\">Bad choice, the bee was angry.</span><br><b>You have been stung!</b><br>Your pay has been decreased by $0.10. Your bonus pay is now $0.50.</p>\n            ","response":0,"trial_type":"html-button-response","trial_index":54,"time_elapsed":229997,"internal_node_id":"0.0-4.0-1.21","subject_id":"56bb6812bf2129000b53ce26","study_id":"6197b3f67c2b5cd3b6d9596a","session_id":"619bfbdf7d1c20cb93403a03","condition":"full-information","relevant_dimensions":["antennae","pattern"],"bee_group":{"antennae":"A","wings":"X","pattern":"S","legs":"X"},"bonus":0.04},{"rt":1210,"stimulus":"bees-with-color/bee-A2SF.svg","response":0,"trial_type":"image-button-response","trial_index":55,"time_elapsed":231209,"internal_node_id":"0.0-4.0-0.22","subject_id":"56bb6812bf2129000b53ce26","study_id":"6197b3f67c2b5cd3b6d9596a","session_id":"619bfbdf7d1c20cb93403a03","condition":"full-information","relevant_dimensions":["antennae","pattern"],"bee_group":{"antennae":"A","wings":"X","pattern":"S","legs":"X"},"action":"harvest","summary":"bad-harvest","bonus":0.04},{"rt":608.5,"stimulus":"\n                    <p><b>Action: <em>harvest</em></b></p>\n                    <p>This is the bee that you just saw.</p>\n                    <img src=\"bees-with-color/bee-A2SF.svg\" width=\"200\">\n                    <p><span class=\"redText\">Bad choice, the bee was angry.</span><br><b>You have been stung!</b><br>Your pay has been decreased by $0.10. Your bonus pay is now $0.40.</p>\n            ","response":0,"trial_type":"html-button-response","trial_index":56,"time_elapsed":231819,"internal_node_id":"0.0-4.0-1.22","subject_id":"56bb6812bf2129000b53ce26","study_id":"6197b3f67c2b5cd3b6d9596a","session_id":"619bfbdf7d1c20cb93403a03","condition":"full-information","relevant_dimensions":["antennae","pattern"],"bee_group":{"antennae":"A","wings":"X","pattern":"S","legs":"X"},"bonus":0.04},{"rt":1318.8000000715256,"stimulus":"bees-with-color/bee-A1DM.svg","response":0,"trial_type":"image-button-response","trial_index":57,"time_elapsed":233139,"internal_node_id":"0.0-4.0-0.23","subject_id":"56bb6812bf2129000b53ce26","study_id":"6197b3f67c2b5cd3b6d9596a","session_id":"619bfbdf7d1c20cb93403a03","condition":"full-information","relevant_dimensions":["antennae","pattern"],"bee_group":{"antennae":"A","wings":"X","pattern":"S","legs":"X"},"action":"harvest","summary":"good-harvest","bonus":0.04},{"rt":799.7000000476837,"stimulus":"\n                    <p><b>Action: <em>harvest</em></b></p>\n                    <p>This is the bee that you just saw.</p>\n                    <img src=\"bees-with-color/bee-A1DM.svg\" width=\"200\">\n                    <p><span class=\"greenText\"><b>Successful harvest!</b></span><br>Your pay has increased by $0.02. Your bonus pay is now $0.42.</p>\n            ","response":0,"trial_type":"html-button-response","trial_index":58,"time_elapsed":233940,"internal_node_id":"0.0-4.0-1.23","subject_id":"56bb6812bf2129000b53ce26","study_id":"6197b3f67c2b5cd3b6d9596a","session_id":"619bfbdf7d1c20cb93403a03","condition":"full-information","relevant_dimensions":["antennae","pattern"],"bee_group":{"antennae":"A","wings":"X","pattern":"S","legs":"X"},"bonus":0.04},{"rt":1199.5,"stimulus":"bees-with-color/bee-B2SF.svg","response":1,"trial_type":"image-button-response","trial_index":59,"time_elapsed":235141,"internal_node_id":"0.0-4.0-0.24","subject_id":"56bb6812bf2129000b53ce26","study_id":"6197b3f67c2b5cd3b6d9596a","session_id":"619bfbdf7d1c20cb93403a03","condition":"full-information","relevant_dimensions":["antennae","pattern"],"bee_group":{"antennae":"A","wings":"X","pattern":"S","legs":"X"},"action":"avoid","summary":"bad-avoid","bonus":0.04},{"rt":538.9000000953674,"stimulus":"\n                    <p><b>Action: <em>avoid</em></b></p>\n                    <p>This is the bee that you just saw.</p>\n                    <img src=\"bees-with-color/bee-B2SF.svg\" width=\"200\">\n                    <p><span class=\"redText\">Bad choice,</span> the bee was friendly.<br>Your bonus pay is unchanged, and remains at $0.42.</p>\n            ","response":0,"trial_type":"html-button-response","trial_index":60,"time_elapsed":235681,"internal_node_id":"0.0-4.0-1.24","subject_id":"56bb6812bf2129000b53ce26","study_id":"6197b3f67c2b5cd3b6d9596a","session_id":"619bfbdf7d1c20cb93403a03","condition":"full-information","relevant_dimensions":["antennae","pattern"],"bee_group":{"antennae":"A","wings":"X","pattern":"S","legs":"X"},"bonus":0.04},{"rt":739.7999999523163,"stimulus":"bees-with-color/bee-B1SM.svg","response":0,"trial_type":"image-button-response","trial_index":61,"time_elapsed":236421,"internal_node_id":"0.0-4.0-0.25","subject_id":"56bb6812bf2129000b53ce26","study_id":"6197b3f67c2b5cd3b6d9596a","session_id":"619bfbdf7d1c20cb93403a03","condition":"full-information","relevant_dimensions":["antennae","pattern"],"bee_group":{"antennae":"A","wings":"X","pattern":"S","legs":"X"},"action":"harvest","summary":"good-harvest","bonus":0.04},{"rt":548.7000000476837,"stimulus":"\n                    <p><b>Action: <em>harvest</em></b></p>\n                    <p>This is the bee that you just saw.</p>\n                    <img src=\"bees-with-color/bee-B1SM.svg\" width=\"200\">\n                    <p><span class=\"greenText\"><b>Successful harvest!</b></span><br>Your pay has increased by $0.02. Your bonus pay is now $0.44.</p>\n            ","response":0,"trial_type":"html-button-response","trial_index":62,"time_elapsed":236972,"internal_node_id":"0.0-4.0-1.25","subject_id":"56bb6812bf2129000b53ce26","study_id":"6197b3f67c2b5cd3b6d9596a","session_id":"619bfbdf7d1c20cb93403a03","condition":"full-information","relevant_dimensions":["antennae","pattern"],"bee_group":{"antennae":"A","wings":"X","pattern":"S","legs":"X"},"bonus":0.04},{"rt":1391,"stimulus":"bees-with-color/bee-A2DM.svg","response":1,"trial_type":"image-button-response","trial_index":63,"time_elapsed":238364,"internal_node_id":"0.0-4.0-0.26","subject_id":"56bb6812bf2129000b53ce26","study_id":"6197b3f67c2b5cd3b6d9596a","session_id":"619bfbdf7d1c20cb93403a03","condition":"full-information","relevant_dimensions":["antennae","pattern"],"bee_group":{"antennae":"A","wings":"X","pattern":"S","legs":"X"},"action":"avoid","summary":"bad-avoid","bonus":0.04},{"rt":548.6000000238419,"stimulus":"\n                    <p><b>Action: <em>avoid</em></b></p>\n                    <p>This is the bee that you just saw.</p>\n                    <img src=\"bees-with-color/bee-A2DM.svg\" width=\"200\">\n                    <p><span class=\"redText\">Bad choice,</span> the bee was friendly.<br>Your bonus pay is unchanged, and remains at $0.44.</p>\n            ","response":0,"trial_type":"html-button-response","trial_index":64,"time_elapsed":238914,"internal_node_id":"0.0-4.0-1.26","subject_id":"56bb6812bf2129000b53ce26","study_id":"6197b3f67c2b5cd3b6d9596a","session_id":"619bfbdf7d1c20cb93403a03","condition":"full-information","relevant_dimensions":["antennae","pattern"],"bee_group":{"antennae":"A","wings":"X","pattern":"S","legs":"X"},"bonus":0.04},{"rt":729.1000000238419,"stimulus":"bees-with-color/bee-A1SM.svg","response":0,"trial_type":"image-button-response","trial_index":65,"time_elapsed":239645,"internal_node_id":"0.0-4.0-0.27","subject_id":"56bb6812bf2129000b53ce26","study_id":"6197b3f67c2b5cd3b6d9596a","session_id":"619bfbdf7d1c20cb93403a03","condition":"full-information","relevant_dimensions":["antennae","pattern"],"bee_group":{"antennae":"A","wings":"X","pattern":"S","legs":"X"},"action":"harvest","summary":"bad-harvest","bonus":0.04},{"rt":808,"stimulus":"\n                    <p><b>Action: <em>harvest</em></b></p>\n                    <p>This is the bee that you just saw.</p>\n                    <img src=\"bees-with-color/bee-A1SM.svg\" width=\"200\">\n                    <p><span class=\"redText\">Bad choice, the bee was angry.</span><br><b>You have been stung!</b><br>Your pay has been decreased by $0.10. Your bonus pay is now $0.34.</p>\n            ","response":0,"trial_type":"html-button-response","trial_index":66,"time_elapsed":240454,"internal_node_id":"0.0-4.0-1.27","subject_id":"56bb6812bf2129000b53ce26","study_id":"6197b3f67c2b5cd3b6d9596a","session_id":"619bfbdf7d1c20cb93403a03","condition":"full-information","relevant_dimensions":["antennae","pattern"],"bee_group":{"antennae":"A","wings":"X","pattern":"S","legs":"X"},"bonus":0.04},{"rt":1280.6000000238419,"stimulus":"bees-with-color/bee-B2SM.svg","response":1,"trial_type":"image-button-response","trial_index":67,"time_elapsed":241736,"internal_node_id":"0.0-4.0-0.28","subject_id":"56bb6812bf2129000b53ce26","study_id":"6197b3f67c2b5cd3b6d9596a","session_id":"619bfbdf7d1c20cb93403a03","condition":"full-information","relevant_dimensions":["antennae","pattern"],"bee_group":{"antennae":"A","wings":"X","pattern":"S","legs":"X"},"action":"avoid","summary":"bad-avoid","bonus":0.04},{"rt":499.2000000476837,"stimulus":"\n                    <p><b>Action: <em>avoid</em></b></p>\n                    <p>This is the bee that you just saw.</p>\n                    <img src=\"bees-with-color/bee-B2SM.svg\" width=\"200\">\n                    <p><span class=\"redText\">Bad choice,</span> the bee was friendly.<br>Your bonus pay is unchanged, and remains at $0.34.</p>\n            ","response":0,"trial_type":"html-button-response","trial_index":68,"time_elapsed":242236,"internal_node_id":"0.0-4.0-1.28","subject_id":"56bb6812bf2129000b53ce26","study_id":"6197b3f67c2b5cd3b6d9596a","session_id":"619bfbdf7d1c20cb93403a03","condition":"full-information","relevant_dimensions":["antennae","pattern"],"bee_group":{"antennae":"A","wings":"X","pattern":"S","legs":"X"},"bonus":0.04},{"rt":519.1999999284744,"stimulus":"bees-with-color/bee-A2SM.svg","response":0,"trial_type":"image-button-response","trial_index":69,"time_elapsed":242756,"internal_node_id":"0.0-4.0-0.29","subject_id":"56bb6812bf2129000b53ce26","study_id":"6197b3f67c2b5cd3b6d9596a","session_id":"619bfbdf7d1c20cb93403a03","condition":"full-information","relevant_dimensions":["antennae","pattern"],"bee_group":{"antennae":"A","wings":"X","pattern":"S","legs":"X"},"action":"harvest","summary":"bad-harvest","bonus":0.04},{"rt":668.7999999523163,"stimulus":"\n                    <p><b>Action: <em>harvest</em></b></p>\n                    <p>This is the bee that you just saw.</p>\n                    <img src=\"bees-with-color/bee-A2SM.svg\" width=\"200\">\n                    <p><span class=\"redText\">Bad choice, the bee was angry.</span><br><b>You have been stung!</b><br>Your pay has been decreased by $0.10. Your bonus pay is now $0.24.</p>\n            ","response":0,"trial_type":"html-button-response","trial_index":70,"time_elapsed":243427,"internal_node_id":"0.0-4.0-1.29","subject_id":"56bb6812bf2129000b53ce26","study_id":"6197b3f67c2b5cd3b6d9596a","session_id":"619bfbdf7d1c20cb93403a03","condition":"full-information","relevant_dimensions":["antennae","pattern"],"bee_group":{"antennae":"A","wings":"X","pattern":"S","legs":"X"},"bonus":0.04},{"rt":929.7000000476837,"stimulus":"bees-with-color/bee-B2DM.svg","response":1,"trial_type":"image-button-response","trial_index":71,"time_elapsed":244358,"internal_node_id":"0.0-4.0-0.30","subject_id":"56bb6812bf2129000b53ce26","study_id":"6197b3f67c2b5cd3b6d9596a","session_id":"619bfbdf7d1c20cb93403a03","condition":"full-information","relevant_dimensions":["antennae","pattern"],"bee_group":{"antennae":"A","wings":"X","pattern":"S","legs":"X"},"action":"avoid","summary":"bad-avoid","bonus":0.04},{"rt":1178.3000000715256,"stimulus":"\n                    <p><b>Action: <em>avoid</em></b></p>\n                    <p>This is the bee that you just saw.</p>\n                    <img src=\"bees-with-color/bee-B2DM.svg\" width=\"200\">\n                    <p><span class=\"redText\">Bad choice,</span> the bee was friendly.<br>Your bonus pay is unchanged, and remains at $0.24.</p>\n            ","response":0,"trial_type":"html-button-response","trial_index":72,"time_elapsed":245537,"internal_node_id":"0.0-4.0-1.30","subject_id":"56bb6812bf2129000b53ce26","study_id":"6197b3f67c2b5cd3b6d9596a","session_id":"619bfbdf7d1c20cb93403a03","condition":"full-information","relevant_dimensions":["antennae","pattern"],"bee_group":{"antennae":"A","wings":"X","pattern":"S","legs":"X"},"bonus":0.04},{"rt":630.2000000476837,"stimulus":"bees-with-color/bee-A2DF.svg","response":0,"trial_type":"image-button-response","trial_index":73,"time_elapsed":246169,"internal_node_id":"0.0-4.0-0.31","subject_id":"56bb6812bf2129000b53ce26","study_id":"6197b3f67c2b5cd3b6d9596a","session_id":"619bfbdf7d1c20cb93403a03","condition":"full-information","relevant_dimensions":["antennae","pattern"],"bee_group":{"antennae":"A","wings":"X","pattern":"S","legs":"X"},"action":"harvest","summary":"good-harvest","bonus":0.04},{"rt":749,"stimulus":"\n                    <p><b>Action: <em>harvest</em></b></p>\n                    <p>This is the bee that you just saw.</p>\n                    <img src=\"bees-with-color/bee-A2DF.svg\" width=\"200\">\n                    <p><span class=\"greenText\"><b>Successful harvest!</b></span><br>Your pay has increased by $0.02. Your bonus pay is now $0.26.</p>\n            ","response":0,"trial_type":"html-button-response","trial_index":74,"time_elapsed":246919,"internal_node_id":"0.0-4.0-1.31","subject_id":"56bb6812bf2129000b53ce26","study_id":"6197b3f67c2b5cd3b6d9596a","session_id":"619bfbdf7d1c20cb93403a03","condition":"full-information","relevant_dimensions":["antennae","pattern"],"bee_group":{"antennae":"A","wings":"X","pattern":"S","legs":"X"},"bonus":0.04},{"rt":649.3999999761581,"stimulus":"bees-with-color/bee-A1SM.svg","response":0,"trial_type":"image-button-response","trial_index":75,"time_elapsed":247570,"internal_node_id":"0.0-4.0-0.32","subject_id":"56bb6812bf2129000b53ce26","study_id":"6197b3f67c2b5cd3b6d9596a","session_id":"619bfbdf7d1c20cb93403a03","condition":"full-information","relevant_dimensions":["antennae","pattern"],"bee_group":{"antennae":"A","wings":"X","pattern":"S","legs":"X"},"action":"harvest","summary":"bad-harvest","bonus":0.04},{"rt":908,"stimulus":"\n                    <p><b>Action: <em>harvest</em></b></p>\n                    <p>This is the bee that you just saw.</p>\n                    <img src=\"bees-with-color/bee-A1SM.svg\" width=\"200\">\n                    <p><span class=\"redText\">Bad choice, the bee was angry.</span><br><b>You have been stung!</b><br>Your pay has been decreased by $0.10. Your bonus pay is now $0.16.</p>\n            ","response":0,"trial_type":"html-button-response","trial_index":76,"time_elapsed":248479,"internal_node_id":"0.0-4.0-1.32","subject_id":"56bb6812bf2129000b53ce26","study_id":"6197b3f67c2b5cd3b6d9596a","session_id":"619bfbdf7d1c20cb93403a03","condition":"full-information","relevant_dimensions":["antennae","pattern"],"bee_group":{"antennae":"A","wings":"X","pattern":"S","legs":"X"},"bonus":0.04},{"rt":1130.3999999761581,"stimulus":"bees-with-color/bee-A1DF.svg","response":0,"trial_type":"image-button-response","trial_index":77,"time_elapsed":249611,"internal_node_id":"0.0-4.0-0.33","subject_id":"56bb6812bf2129000b53ce26","study_id":"6197b3f67c2b5cd3b6d9596a","session_id":"619bfbdf7d1c20cb93403a03","condition":"full-information","relevant_dimensions":["antennae","pattern"],"bee_group":{"antennae":"A","wings":"X","pattern":"S","legs":"X"},"action":"harvest","summary":"good-harvest","bonus":0.04},{"rt":588.1000000238419,"stimulus":"\n                    <p><b>Action: <em>harvest</em></b></p>\n                    <p>This is the bee that you just saw.</p>\n                    <img src=\"bees-with-color/bee-A1DF.svg\" width=\"200\">\n                    <p><span class=\"greenText\"><b>Successful harvest!</b></span><br>Your pay has increased by $0.02. Your bonus pay is now $0.18.</p>\n            ","response":0,"trial_type":"html-button-response","trial_index":78,"time_elapsed":250200,"internal_node_id":"0.0-4.0-1.33","subject_id":"56bb6812bf2129000b53ce26","study_id":"6197b3f67c2b5cd3b6d9596a","session_id":"619bfbdf7d1c20cb93403a03","condition":"full-information","relevant_dimensions":["antennae","pattern"],"bee_group":{"antennae":"A","wings":"X","pattern":"S","legs":"X"},"bonus":0.04},{"rt":1319.6999999284744,"stimulus":"bees-with-color/bee-A1DM.svg","response":0,"trial_type":"image-button-response","trial_index":79,"time_elapsed":251521,"internal_node_id":"0.0-4.0-0.34","subject_id":"56bb6812bf2129000b53ce26","study_id":"6197b3f67c2b5cd3b6d9596a","session_id":"619bfbdf7d1c20cb93403a03","condition":"full-information","relevant_dimensions":["antennae","pattern"],"bee_group":{"antennae":"A","wings":"X","pattern":"S","legs":"X"},"action":"harvest","summary":"good-harvest","bonus":0.04},{"rt":609.1999999284744,"stimulus":"\n                    <p><b>Action: <em>harvest</em></b></p>\n                    <p>This is the bee that you just saw.</p>\n                    <img src=\"bees-with-color/bee-A1DM.svg\" width=\"200\">\n                    <p><span class=\"greenText\"><b>Successful harvest!</b></span><br>Your pay has increased by $0.02. Your bonus pay is now $0.20.</p>\n            ","response":0,"trial_type":"html-button-response","trial_index":80,"time_elapsed":252132,"internal_node_id":"0.0-4.0-1.34","subject_id":"56bb6812bf2129000b53ce26","study_id":"6197b3f67c2b5cd3b6d9596a","session_id":"619bfbdf7d1c20cb93403a03","condition":"full-information","relevant_dimensions":["antennae","pattern"],"bee_group":{"antennae":"A","wings":"X","pattern":"S","legs":"X"},"bonus":0.04},{"rt":819,"stimulus":"bees-with-color/bee-B2SF.svg","response":0,"trial_type":"image-button-response","trial_index":81,"time_elapsed":252952,"internal_node_id":"0.0-4.0-0.35","subject_id":"56bb6812bf2129000b53ce26","study_id":"6197b3f67c2b5cd3b6d9596a","session_id":"619bfbdf7d1c20cb93403a03","condition":"full-information","relevant_dimensions":["antennae","pattern"],"bee_group":{"antennae":"A","wings":"X","pattern":"S","legs":"X"},"action":"harvest","summary":"good-harvest","bonus":0.04},{"rt":679.1000000238419,"stimulus":"\n                    <p><b>Action: <em>harvest</em></b></p>\n                    <p>This is the bee that you just saw.</p>\n                    <img src=\"bees-with-color/bee-B2SF.svg\" width=\"200\">\n                    <p><span class=\"greenText\"><b>Successful harvest!</b></span><br>Your pay has increased by $0.02. Your bonus pay is now $0.22.</p>\n            ","response":0,"trial_type":"html-button-response","trial_index":82,"time_elapsed":253633,"internal_node_id":"0.0-4.0-1.35","subject_id":"56bb6812bf2129000b53ce26","study_id":"6197b3f67c2b5cd3b6d9596a","session_id":"619bfbdf7d1c20cb93403a03","condition":"full-information","relevant_dimensions":["antennae","pattern"],"bee_group":{"antennae":"A","wings":"X","pattern":"S","legs":"X"},"bonus":0.04},{"rt":1440.0999999046326,"stimulus":"bees-with-color/bee-B1SM.svg","response":1,"trial_type":"image-button-response","trial_index":83,"time_elapsed":255074,"internal_node_id":"0.0-4.0-0.36","subject_id":"56bb6812bf2129000b53ce26","study_id":"6197b3f67c2b5cd3b6d9596a","session_id":"619bfbdf7d1c20cb93403a03","condition":"full-information","relevant_dimensions":["antennae","pattern"],"bee_group":{"antennae":"A","wings":"X","pattern":"S","legs":"X"},"action":"avoid","summary":"bad-avoid","bonus":0.04},{"rt":638.1000000238419,"stimulus":"\n                    <p><b>Action: <em>avoid</em></b></p>\n                    <p>This is the bee that you just saw.</p>\n                    <img src=\"bees-with-color/bee-B1SM.svg\" width=\"200\">\n                    <p><span class=\"redText\">Bad choice,</span> the bee was friendly.<br>Your bonus pay is unchanged, and remains at $0.22.</p>\n            ","response":0,"trial_type":"html-button-response","trial_index":84,"time_elapsed":255714,"internal_node_id":"0.0-4.0-1.36","subject_id":"56bb6812bf2129000b53ce26","study_id":"6197b3f67c2b5cd3b6d9596a","session_id":"619bfbdf7d1c20cb93403a03","condition":"full-information","relevant_dimensions":["antennae","pattern"],"bee_group":{"antennae":"A","wings":"X","pattern":"S","legs":"X"},"bonus":0.04},{"rt":1419.3000000715256,"stimulus":"bees-with-color/bee-B2DF.svg","response":0,"trial_type":"image-button-response","trial_index":85,"time_elapsed":257135,"internal_node_id":"0.0-4.0-0.37","subject_id":"56bb6812bf2129000b53ce26","study_id":"6197b3f67c2b5cd3b6d9596a","session_id":"619bfbdf7d1c20cb93403a03","condition":"full-information","relevant_dimensions":["antennae","pattern"],"bee_group":{"antennae":"A","wings":"X","pattern":"S","legs":"X"},"action":"harvest","summary":"good-harvest","bonus":0.04},{"rt":938.3000000715256,"stimulus":"\n                    <p><b>Action: <em>harvest</em></b></p>\n                    <p>This is the bee that you just saw.</p>\n                    <img src=\"bees-with-color/bee-B2DF.svg\" width=\"200\">\n                    <p><span class=\"greenText\"><b>Successful harvest!</b></span><br>Your pay has increased by $0.02. Your bonus pay is now $0.24.</p>\n            ","response":0,"trial_type":"html-button-response","trial_index":86,"time_elapsed":258075,"internal_node_id":"0.0-4.0-1.37","subject_id":"56bb6812bf2129000b53ce26","study_id":"6197b3f67c2b5cd3b6d9596a","session_id":"619bfbdf7d1c20cb93403a03","condition":"full-information","relevant_dimensions":["antennae","pattern"],"bee_group":{"antennae":"A","wings":"X","pattern":"S","legs":"X"},"bonus":0.04},{"rt":1279.5,"stimulus":"bees-with-color/bee-B1DF.svg","response":0,"trial_type":"image-button-response","trial_index":87,"time_elapsed":259356,"internal_node_id":"0.0-4.0-0.38","subject_id":"56bb6812bf2129000b53ce26","study_id":"6197b3f67c2b5cd3b6d9596a","session_id":"619bfbdf7d1c20cb93403a03","condition":"full-information","relevant_dimensions":["antennae","pattern"],"bee_group":{"antennae":"A","wings":"X","pattern":"S","legs":"X"},"action":"harvest","summary":"good-harvest","bonus":0.04},{"rt":1728.9000000953674,"stimulus":"\n                    <p><b>Action: <em>harvest</em></b></p>\n                    <p>This is the bee that you just saw.</p>\n                    <img src=\"bees-with-color/bee-B1DF.svg\" width=\"200\">\n                    <p><span class=\"greenText\"><b>Successful harvest!</b></span><br>Your pay has increased by $0.02. Your bonus pay is now $0.26.</p>\n            ","response":0,"trial_type":"html-button-response","trial_index":88,"time_elapsed":261087,"internal_node_id":"0.0-4.0-1.38","subject_id":"56bb6812bf2129000b53ce26","study_id":"6197b3f67c2b5cd3b6d9596a","session_id":"619bfbdf7d1c20cb93403a03","condition":"full-information","relevant_dimensions":["antennae","pattern"],"bee_group":{"antennae":"A","wings":"X","pattern":"S","legs":"X"},"bonus":0.04},{"rt":1199,"stimulus":"bees-with-color/bee-A1SF.svg","response":0,"trial_type":"image-button-response","trial_index":89,"time_elapsed":262288,"internal_node_id":"0.0-4.0-0.39","subject_id":"56bb6812bf2129000b53ce26","study_id":"6197b3f67c2b5cd3b6d9596a","session_id":"619bfbdf7d1c20cb93403a03","condition":"full-information","relevant_dimensions":["antennae","pattern"],"bee_group":{"antennae":"A","wings":"X","pattern":"S","legs":"X"},"action":"harvest","summary":"bad-harvest","bonus":0.04},{"rt":1058.3000000715256,"stimulus":"\n                    <p><b>Action: <em>harvest</em></b></p>\n                    <p>This is the bee that you just saw.</p>\n                    <img src=\"bees-with-color/bee-A1SF.svg\" width=\"200\">\n                    <p><span class=\"redText\">Bad choice, the bee was angry.</span><br><b>You have been stung!</b><br>Your pay has been decreased by $0.10. Your bonus pay is now $0.16.</p>\n            ","response":0,"trial_type":"html-button-response","trial_index":90,"time_elapsed":263349,"internal_node_id":"0.0-4.0-1.39","subject_id":"56bb6812bf2129000b53ce26","study_id":"6197b3f67c2b5cd3b6d9596a","session_id":"619bfbdf7d1c20cb93403a03","condition":"full-information","relevant_dimensions":["antennae","pattern"],"bee_group":{"antennae":"A","wings":"X","pattern":"S","legs":"X"},"bonus":0.04},{"rt":1418.6000000238419,"stimulus":"bees-with-color/bee-A2SM.svg","response":1,"trial_type":"image-button-response","trial_index":91,"time_elapsed":264769,"internal_node_id":"0.0-4.0-0.40","subject_id":"56bb6812bf2129000b53ce26","study_id":"6197b3f67c2b5cd3b6d9596a","session_id":"619bfbdf7d1c20cb93403a03","condition":"full-information","relevant_dimensions":["antennae","pattern"],"bee_group":{"antennae":"A","wings":"X","pattern":"S","legs":"X"},"action":"avoid","summary":"good-avoid","bonus":0.04},{"rt":638.1000000238419,"stimulus":"\n                    <p><b>Action: <em>avoid</em></b></p>\n                    <p>This is the bee that you just saw.</p>\n                    <img src=\"bees-with-color/bee-A2SM.svg\" width=\"200\">\n                    <p><span class=\"greenText\">Good choice!</span>  This bee would have stung you.<br>Your bonus pay is unchanged, and remains at $0.16.</p>\n            ","response":0,"trial_type":"html-button-response","trial_index":92,"time_elapsed":265409,"internal_node_id":"0.0-4.0-1.40","subject_id":"56bb6812bf2129000b53ce26","study_id":"6197b3f67c2b5cd3b6d9596a","session_id":"619bfbdf7d1c20cb93403a03","condition":"full-information","relevant_dimensions":["antennae","pattern"],"bee_group":{"antennae":"A","wings":"X","pattern":"S","legs":"X"},"bonus":0.04},{"rt":780.2000000476837,"stimulus":"bees-with-color/bee-B2DM.svg","response":0,"trial_type":"image-button-response","trial_index":93,"time_elapsed":266191,"internal_node_id":"0.0-4.0-0.41","subject_id":"56bb6812bf2129000b53ce26","study_id":"6197b3f67c2b5cd3b6d9596a","session_id":"619bfbdf7d1c20cb93403a03","condition":"full-information","relevant_dimensions":["antennae","pattern"],"bee_group":{"antennae":"A","wings":"X","pattern":"S","legs":"X"},"action":"harvest","summary":"good-harvest","bonus":0.04},{"rt":627.8999999761581,"stimulus":"\n                    <p><b>Action: <em>harvest</em></b></p>\n                    <p>This is the bee that you just saw.</p>\n                    <img src=\"bees-with-color/bee-B2DM.svg\" width=\"200\">\n                    <p><span class=\"greenText\"><b>Successful harvest!</b></span><br>Your pay has increased by $0.02. Your bonus pay is now $0.18.</p>\n            ","response":0,"trial_type":"html-button-response","trial_index":94,"time_elapsed":266820,"internal_node_id":"0.0-4.0-1.41","subject_id":"56bb6812bf2129000b53ce26","study_id":"6197b3f67c2b5cd3b6d9596a","session_id":"619bfbdf7d1c20cb93403a03","condition":"full-information","relevant_dimensions":["antennae","pattern"],"bee_group":{"antennae":"A","wings":"X","pattern":"S","legs":"X"},"bonus":0.04},{"rt":969.2000000476837,"stimulus":"bees-with-color/bee-B1SF.svg","response":1,"trial_type":"image-button-response","trial_index":95,"time_elapsed":267791,"internal_node_id":"0.0-4.0-0.42","subject_id":"56bb6812bf2129000b53ce26","study_id":"6197b3f67c2b5cd3b6d9596a","session_id":"619bfbdf7d1c20cb93403a03","condition":"full-information","relevant_dimensions":["antennae","pattern"],"bee_group":{"antennae":"A","wings":"X","pattern":"S","legs":"X"},"action":"avoid","summary":"bad-avoid","bonus":0.04},{"rt":538.2000000476837,"stimulus":"\n                    <p><b>Action: <em>avoid</em></b></p>\n                    <p>This is the bee that you just saw.</p>\n                    <img src=\"bees-with-color/bee-B1SF.svg\" width=\"200\">\n                    <p><span class=\"redText\">Bad choice,</span> the bee was friendly.<br>Your bonus pay is unchanged, and remains at $0.18.</p>\n            ","response":0,"trial_type":"html-button-response","trial_index":96,"time_elapsed":268331,"internal_node_id":"0.0-4.0-1.42","subject_id":"56bb6812bf2129000b53ce26","study_id":"6197b3f67c2b5cd3b6d9596a","session_id":"619bfbdf7d1c20cb93403a03","condition":"full-information","relevant_dimensions":["antennae","pattern"],"bee_group":{"antennae":"A","wings":"X","pattern":"S","legs":"X"},"bonus":0.04},{"rt":579,"stimulus":"bees-with-color/bee-B2SM.svg","response":0,"trial_type":"image-button-response","trial_index":97,"time_elapsed":268911,"internal_node_id":"0.0-4.0-0.43","subject_id":"56bb6812bf2129000b53ce26","study_id":"6197b3f67c2b5cd3b6d9596a","session_id":"619bfbdf7d1c20cb93403a03","condition":"full-information","relevant_dimensions":["antennae","pattern"],"bee_group":{"antennae":"A","wings":"X","pattern":"S","legs":"X"},"action":"harvest","summary":"good-harvest","bonus":0.04},{"rt":667.8999999761581,"stimulus":"\n                    <p><b>Action: <em>harvest</em></b></p>\n                    <p>This is the bee that you just saw.</p>\n                    <img src=\"bees-with-color/bee-B2SM.svg\" width=\"200\">\n                    <p><span class=\"greenText\"><b>Successful harvest!</b></span><br>Your pay has increased by $0.02. Your bonus pay is now $0.20.</p>\n            ","response":0,"trial_type":"html-button-response","trial_index":98,"time_elapsed":269581,"internal_node_id":"0.0-4.0-1.43","subject_id":"56bb6812bf2129000b53ce26","study_id":"6197b3f67c2b5cd3b6d9596a","session_id":"619bfbdf7d1c20cb93403a03","condition":"full-information","relevant_dimensions":["antennae","pattern"],"bee_group":{"antennae":"A","wings":"X","pattern":"S","legs":"X"},"bonus":0.04},{"rt":1360.1999999284744,"stimulus":"bees-with-color/bee-B1DM.svg","response":1,"trial_type":"image-button-response","trial_index":99,"time_elapsed":270943,"internal_node_id":"0.0-4.0-0.44","subject_id":"56bb6812bf2129000b53ce26","study_id":"6197b3f67c2b5cd3b6d9596a","session_id":"619bfbdf7d1c20cb93403a03","condition":"full-information","relevant_dimensions":["antennae","pattern"],"bee_group":{"antennae":"A","wings":"X","pattern":"S","legs":"X"},"action":"avoid","summary":"bad-avoid","bonus":0.04},{"rt":577.8000000715256,"stimulus":"\n                    <p><b>Action: <em>avoid</em></b></p>\n                    <p>This is the bee that you just saw.</p>\n                    <img src=\"bees-with-color/bee-B1DM.svg\" width=\"200\">\n                    <p><span class=\"redText\">Bad choice,</span> the bee was friendly.<br>Your bonus pay is unchanged, and remains at $0.20.</p>\n            ","response":0,"trial_type":"html-button-response","trial_index":100,"time_elapsed":271522,"internal_node_id":"0.0-4.0-1.44","subject_id":"56bb6812bf2129000b53ce26","study_id":"6197b3f67c2b5cd3b6d9596a","session_id":"619bfbdf7d1c20cb93403a03","condition":"full-information","relevant_dimensions":["antennae","pattern"],"bee_group":{"antennae":"A","wings":"X","pattern":"S","legs":"X"},"bonus":0.04},{"rt":929.6000000238419,"stimulus":"bees-with-color/bee-A2DF.svg","response":0,"trial_type":"image-button-response","trial_index":101,"time_elapsed":272454,"internal_node_id":"0.0-4.0-0.45","subject_id":"56bb6812bf2129000b53ce26","study_id":"6197b3f67c2b5cd3b6d9596a","session_id":"619bfbdf7d1c20cb93403a03","condition":"full-information","relevant_dimensions":["antennae","pattern"],"bee_group":{"antennae":"A","wings":"X","pattern":"S","legs":"X"},"action":"harvest","summary":"good-harvest","bonus":0.04},{"rt":677.7999999523163,"stimulus":"\n                    <p><b>Action: <em>harvest</em></b></p>\n                    <p>This is the bee that you just saw.</p>\n                    <img src=\"bees-with-color/bee-A2DF.svg\" width=\"200\">\n                    <p><span class=\"greenText\"><b>Successful harvest!</b></span><br>Your pay has increased by $0.02. Your bonus pay is now $0.22.</p>\n            ","response":0,"trial_type":"html-button-response","trial_index":102,"time_elapsed":273133,"internal_node_id":"0.0-4.0-1.45","subject_id":"56bb6812bf2129000b53ce26","study_id":"6197b3f67c2b5cd3b6d9596a","session_id":"619bfbdf7d1c20cb93403a03","condition":"full-information","relevant_dimensions":["antennae","pattern"],"bee_group":{"antennae":"A","wings":"X","pattern":"S","legs":"X"},"bonus":0.04},{"rt":1069.7999999523163,"stimulus":"bees-with-color/bee-A2SF.svg","response":0,"trial_type":"image-button-response","trial_index":103,"time_elapsed":274205,"internal_node_id":"0.0-4.0-0.46","subject_id":"56bb6812bf2129000b53ce26","study_id":"6197b3f67c2b5cd3b6d9596a","session_id":"619bfbdf7d1c20cb93403a03","condition":"full-information","relevant_dimensions":["antennae","pattern"],"bee_group":{"antennae":"A","wings":"X","pattern":"S","legs":"X"},"action":"harvest","summary":"bad-harvest","bonus":0.04},{"rt":757.8999999761581,"stimulus":"\n                    <p><b>Action: <em>harvest</em></b></p>\n                    <p>This is the bee that you just saw.</p>\n                    <img src=\"bees-with-color/bee-A2SF.svg\" width=\"200\">\n                    <p><span class=\"redText\">Bad choice, the bee was angry.</span><br><b>You have been stung!</b><br>Your pay has been decreased by $0.10. Your bonus pay is now $0.12.</p>\n            ","response":0,"trial_type":"html-button-response","trial_index":104,"time_elapsed":274965,"internal_node_id":"0.0-4.0-1.46","subject_id":"56bb6812bf2129000b53ce26","study_id":"6197b3f67c2b5cd3b6d9596a","session_id":"619bfbdf7d1c20cb93403a03","condition":"full-information","relevant_dimensions":["antennae","pattern"],"bee_group":{"antennae":"A","wings":"X","pattern":"S","legs":"X"},"bonus":0.04},{"rt":819.5,"stimulus":"bees-with-color/bee-A2DM.svg","response":0,"trial_type":"image-button-response","trial_index":105,"time_elapsed":275785,"internal_node_id":"0.0-4.0-0.47","subject_id":"56bb6812bf2129000b53ce26","study_id":"6197b3f67c2b5cd3b6d9596a","session_id":"619bfbdf7d1c20cb93403a03","condition":"full-information","relevant_dimensions":["antennae","pattern"],"bee_group":{"antennae":"A","wings":"X","pattern":"S","legs":"X"},"action":"harvest","summary":"good-harvest","bonus":0.04},{"rt":629.1999999284744,"stimulus":"\n                    <p><b>Action: <em>harvest</em></b></p>\n                    <p>This is the bee that you just saw.</p>\n                    <img src=\"bees-with-color/bee-A2DM.svg\" width=\"200\">\n                    <p><span class=\"greenText\"><b>Successful harvest!</b></span><br>Your pay has increased by $0.02. Your bonus pay is now $0.14.</p>\n            ","response":0,"trial_type":"html-button-response","trial_index":106,"time_elapsed":276416,"internal_node_id":"0.0-4.0-1.47","subject_id":"56bb6812bf2129000b53ce26","study_id":"6197b3f67c2b5cd3b6d9596a","session_id":"619bfbdf7d1c20cb93403a03","condition":"full-information","relevant_dimensions":["antennae","pattern"],"bee_group":{"antennae":"A","wings":"X","pattern":"S","legs":"X"},"bonus":0.04},{"rt":1299.2999999523163,"stimulus":"bees-with-color/bee-B2DM.svg","response":0,"trial_type":"image-button-response","trial_index":107,"time_elapsed":277716,"internal_node_id":"0.0-4.0-0.48","subject_id":"56bb6812bf2129000b53ce26","study_id":"6197b3f67c2b5cd3b6d9596a","session_id":"619bfbdf7d1c20cb93403a03","condition":"full-information","relevant_dimensions":["antennae","pattern"],"bee_group":{"antennae":"A","wings":"X","pattern":"S","legs":"X"},"action":"harvest","summary":"good-harvest","bonus":0.04},{"rt":1089.2000000476837,"stimulus":"\n                    <p><b>Action: <em>harvest</em></b></p>\n                    <p>This is the bee that you just saw.</p>\n                    <img src=\"bees-with-color/bee-B2DM.svg\" width=\"200\">\n                    <p><span class=\"greenText\"><b>Successful harvest!</b></span><br>Your pay has increased by $0.02. Your bonus pay is now $0.16.</p>\n            ","response":0,"trial_type":"html-button-response","trial_index":108,"time_elapsed":278807,"internal_node_id":"0.0-4.0-1.48","subject_id":"56bb6812bf2129000b53ce26","study_id":"6197b3f67c2b5cd3b6d9596a","session_id":"619bfbdf7d1c20cb93403a03","condition":"full-information","relevant_dimensions":["antennae","pattern"],"bee_group":{"antennae":"A","wings":"X","pattern":"S","legs":"X"},"bonus":0.04},{"rt":1339.5,"stimulus":"bees-with-color/bee-A2SM.svg","response":1,"trial_type":"image-button-response","trial_index":109,"time_elapsed":280147,"internal_node_id":"0.0-4.0-0.49","subject_id":"56bb6812bf2129000b53ce26","study_id":"6197b3f67c2b5cd3b6d9596a","session_id":"619bfbdf7d1c20cb93403a03","condition":"full-information","relevant_dimensions":["antennae","pattern"],"bee_group":{"antennae":"A","wings":"X","pattern":"S","legs":"X"},"action":"avoid","summary":"good-avoid","bonus":0.04},{"rt":568.0999999046326,"stimulus":"\n                    <p><b>Action: <em>avoid</em></b></p>\n                    <p>This is the bee that you just saw.</p>\n                    <img src=\"bees-with-color/bee-A2SM.svg\" width=\"200\">\n                    <p><span class=\"greenText\">Good choice!</span>  This bee would have stung you.<br>Your bonus pay is unchanged, and remains at $0.16.</p>\n            ","response":0,"trial_type":"html-button-response","trial_index":110,"time_elapsed":280717,"internal_node_id":"0.0-4.0-1.49","subject_id":"56bb6812bf2129000b53ce26","study_id":"6197b3f67c2b5cd3b6d9596a","session_id":"619bfbdf7d1c20cb93403a03","condition":"full-information","relevant_dimensions":["antennae","pattern"],"bee_group":{"antennae":"A","wings":"X","pattern":"S","legs":"X"},"bonus":0.04},{"rt":1790.1999999284744,"stimulus":"bees-with-color/bee-A1SF.svg","response":0,"trial_type":"image-button-response","trial_index":111,"time_elapsed":282508,"internal_node_id":"0.0-4.0-0.50","subject_id":"56bb6812bf2129000b53ce26","study_id":"6197b3f67c2b5cd3b6d9596a","session_id":"619bfbdf7d1c20cb93403a03","condition":"full-information","relevant_dimensions":["antennae","pattern"],"bee_group":{"antennae":"A","wings":"X","pattern":"S","legs":"X"},"action":"harvest","summary":"bad-harvest","bonus":0.04},{"rt":638.7999999523163,"stimulus":"\n                    <p><b>Action: <em>harvest</em></b></p>\n                    <p>This is the bee that you just saw.</p>\n                    <img src=\"bees-with-color/bee-A1SF.svg\" width=\"200\">\n                    <p><span class=\"redText\">Bad choice, the bee was angry.</span><br><b>You have been stung!</b><br>Your pay has been decreased by $0.10. Your bonus pay is now $0.06.</p>\n            ","response":0,"trial_type":"html-button-response","trial_index":112,"time_elapsed":283148,"internal_node_id":"0.0-4.0-1.50","subject_id":"56bb6812bf2129000b53ce26","study_id":"6197b3f67c2b5cd3b6d9596a","session_id":"619bfbdf7d1c20cb93403a03","condition":"full-information","relevant_dimensions":["antennae","pattern"],"bee_group":{"antennae":"A","wings":"X","pattern":"S","legs":"X"},"bonus":0.04},{"rt":1009.8999999761581,"stimulus":"bees-with-color/bee-B1DM.svg","response":0,"trial_type":"image-button-response","trial_index":113,"time_elapsed":284159,"internal_node_id":"0.0-4.0-0.51","subject_id":"56bb6812bf2129000b53ce26","study_id":"6197b3f67c2b5cd3b6d9596a","session_id":"619bfbdf7d1c20cb93403a03","condition":"full-information","relevant_dimensions":["antennae","pattern"],"bee_group":{"antennae":"A","wings":"X","pattern":"S","legs":"X"},"action":"harvest","summary":"good-harvest","bonus":0.04},{"rt":709.5,"stimulus":"\n                    <p><b>Action: <em>harvest</em></b></p>\n                    <p>This is the bee that you just saw.</p>\n                    <img src=\"bees-with-color/bee-B1DM.svg\" width=\"200\">\n                    <p><span class=\"greenText\"><b>Successful harvest!</b></span><br>Your pay has increased by $0.02. Your bonus pay is now $0.08.</p>\n            ","response":0,"trial_type":"html-button-response","trial_index":114,"time_elapsed":284870,"internal_node_id":"0.0-4.0-1.51","subject_id":"56bb6812bf2129000b53ce26","study_id":"6197b3f67c2b5cd3b6d9596a","session_id":"619bfbdf7d1c20cb93403a03","condition":"full-information","relevant_dimensions":["antennae","pattern"],"bee_group":{"antennae":"A","wings":"X","pattern":"S","legs":"X"},"bonus":0.04},{"rt":988.6000000238419,"stimulus":"bees-with-color/bee-B1SM.svg","response":0,"trial_type":"image-button-response","trial_index":115,"time_elapsed":285860,"internal_node_id":"0.0-4.0-0.52","subject_id":"56bb6812bf2129000b53ce26","study_id":"6197b3f67c2b5cd3b6d9596a","session_id":"619bfbdf7d1c20cb93403a03","condition":"full-information","relevant_dimensions":["antennae","pattern"],"bee_group":{"antennae":"A","wings":"X","pattern":"S","legs":"X"},"action":"harvest","summary":"good-harvest","bonus":0.04},{"rt":628.2000000476837,"stimulus":"\n                    <p><b>Action: <em>harvest</em></b></p>\n                    <p>This is the bee that you just saw.</p>\n                    <img src=\"bees-with-color/bee-B1SM.svg\" width=\"200\">\n                    <p><span class=\"greenText\"><b>Successful harvest!</b></span><br>Your pay has increased by $0.02. Your bonus pay is now $0.10.</p>\n            ","response":0,"trial_type":"html-button-response","trial_index":116,"time_elapsed":286490,"internal_node_id":"0.0-4.0-1.52","subject_id":"56bb6812bf2129000b53ce26","study_id":"6197b3f67c2b5cd3b6d9596a","session_id":"619bfbdf7d1c20cb93403a03","condition":"full-information","relevant_dimensions":["antennae","pattern"],"bee_group":{"antennae":"A","wings":"X","pattern":"S","legs":"X"},"bonus":0.04},{"rt":1068.9000000953674,"stimulus":"bees-with-color/bee-B2SF.svg","response":1,"trial_type":"image-button-response","trial_index":117,"time_elapsed":287560,"internal_node_id":"0.0-4.0-0.53","subject_id":"56bb6812bf2129000b53ce26","study_id":"6197b3f67c2b5cd3b6d9596a","session_id":"619bfbdf7d1c20cb93403a03","condition":"full-information","relevant_dimensions":["antennae","pattern"],"bee_group":{"antennae":"A","wings":"X","pattern":"S","legs":"X"},"action":"avoid","summary":"bad-avoid","bonus":0.04},{"rt":678.2999999523163,"stimulus":"\n                    <p><b>Action: <em>avoid</em></b></p>\n                    <p>This is the bee that you just saw.</p>\n                    <img src=\"bees-with-color/bee-B2SF.svg\" width=\"200\">\n                    <p><span class=\"redText\">Bad choice,</span> the bee was friendly.<br>Your bonus pay is unchanged, and remains at $0.10.</p>\n            ","response":0,"trial_type":"html-button-response","trial_index":118,"time_elapsed":288240,"internal_node_id":"0.0-4.0-1.53","subject_id":"56bb6812bf2129000b53ce26","study_id":"6197b3f67c2b5cd3b6d9596a","session_id":"619bfbdf7d1c20cb93403a03","condition":"full-information","relevant_dimensions":["antennae","pattern"],"bee_group":{"antennae":"A","wings":"X","pattern":"S","legs":"X"},"bonus":0.04},{"rt":629.2999999523163,"stimulus":"bees-with-color/bee-B1DF.svg","response":0,"trial_type":"image-button-response","trial_index":119,"time_elapsed":288871,"internal_node_id":"0.0-4.0-0.54","subject_id":"56bb6812bf2129000b53ce26","study_id":"6197b3f67c2b5cd3b6d9596a","session_id":"619bfbdf7d1c20cb93403a03","condition":"full-information","relevant_dimensions":["antennae","pattern"],"bee_group":{"antennae":"A","wings":"X","pattern":"S","legs":"X"},"action":"harvest","summary":"good-harvest","bonus":0.04},{"rt":667.8000000715256,"stimulus":"\n                    <p><b>Action: <em>harvest</em></b></p>\n                    <p>This is the bee that you just saw.</p>\n                    <img src=\"bees-with-color/bee-B1DF.svg\" width=\"200\">\n                    <p><span class=\"greenText\"><b>Successful harvest!</b></span><br>Your pay has increased by $0.02. Your bonus pay is now $0.12.</p>\n            ","response":0,"trial_type":"html-button-response","trial_index":120,"time_elapsed":289541,"internal_node_id":"0.0-4.0-1.54","subject_id":"56bb6812bf2129000b53ce26","study_id":"6197b3f67c2b5cd3b6d9596a","session_id":"619bfbdf7d1c20cb93403a03","condition":"full-information","relevant_dimensions":["antennae","pattern"],"bee_group":{"antennae":"A","wings":"X","pattern":"S","legs":"X"},"bonus":0.04},{"rt":1360.3999999761581,"stimulus":"bees-with-color/bee-A2DM.svg","response":0,"trial_type":"image-button-response","trial_index":121,"time_elapsed":290902,"internal_node_id":"0.0-4.0-0.55","subject_id":"56bb6812bf2129000b53ce26","study_id":"6197b3f67c2b5cd3b6d9596a","session_id":"619bfbdf7d1c20cb93403a03","condition":"full-information","relevant_dimensions":["antennae","pattern"],"bee_group":{"antennae":"A","wings":"X","pattern":"S","legs":"X"},"action":"harvest","summary":"good-harvest","bonus":0.04},{"rt":718.5,"stimulus":"\n                    <p><b>Action: <em>harvest</em></b></p>\n                    <p>This is the bee that you just saw.</p>\n                    <img src=\"bees-with-color/bee-A2DM.svg\" width=\"200\">\n                    <p><span class=\"greenText\"><b>Successful harvest!</b></span><br>Your pay has increased by $0.02. Your bonus pay is now $0.14.</p>\n            ","response":0,"trial_type":"html-button-response","trial_index":122,"time_elapsed":291622,"internal_node_id":"0.0-4.0-1.55","subject_id":"56bb6812bf2129000b53ce26","study_id":"6197b3f67c2b5cd3b6d9596a","session_id":"619bfbdf7d1c20cb93403a03","condition":"full-information","relevant_dimensions":["antennae","pattern"],"bee_group":{"antennae":"A","wings":"X","pattern":"S","legs":"X"},"bonus":0.04},{"rt":1149.2000000476837,"stimulus":"bees-with-color/bee-A1DF.svg","response":0,"trial_type":"image-button-response","trial_index":123,"time_elapsed":292773,"internal_node_id":"0.0-4.0-0.56","subject_id":"56bb6812bf2129000b53ce26","study_id":"6197b3f67c2b5cd3b6d9596a","session_id":"619bfbdf7d1c20cb93403a03","condition":"full-information","relevant_dimensions":["antennae","pattern"],"bee_group":{"antennae":"A","wings":"X","pattern":"S","legs":"X"},"action":"harvest","summary":"good-harvest","bonus":0.04},{"rt":828.7000000476837,"stimulus":"\n                    <p><b>Action: <em>harvest</em></b></p>\n                    <p>This is the bee that you just saw.</p>\n                    <img src=\"bees-with-color/bee-A1DF.svg\" width=\"200\">\n                    <p><span class=\"greenText\"><b>Successful harvest!</b></span><br>Your pay has increased by $0.02. Your bonus pay is now $0.16.</p>\n            ","response":0,"trial_type":"html-button-response","trial_index":124,"time_elapsed":293603,"internal_node_id":"0.0-4.0-1.56","subject_id":"56bb6812bf2129000b53ce26","study_id":"6197b3f67c2b5cd3b6d9596a","session_id":"619bfbdf7d1c20cb93403a03","condition":"full-information","relevant_dimensions":["antennae","pattern"],"bee_group":{"antennae":"A","wings":"X","pattern":"S","legs":"X"},"bonus":0.04},{"rt":1379.3999999761581,"stimulus":"bees-with-color/bee-A1SM.svg","response":1,"trial_type":"image-button-response","trial_index":125,"time_elapsed":294984,"internal_node_id":"0.0-4.0-0.57","subject_id":"56bb6812bf2129000b53ce26","study_id":"6197b3f67c2b5cd3b6d9596a","session_id":"619bfbdf7d1c20cb93403a03","condition":"full-information","relevant_dimensions":["antennae","pattern"],"bee_group":{"antennae":"A","wings":"X","pattern":"S","legs":"X"},"action":"avoid","summary":"good-avoid","bonus":0.04},{"rt":1049,"stimulus":"\n                    <p><b>Action: <em>avoid</em></b></p>\n                    <p>This is the bee that you just saw.</p>\n                    <img src=\"bees-with-color/bee-A1SM.svg\" width=\"200\">\n                    <p><span class=\"greenText\">Good choice!</span>  This bee would have stung you.<br>Your bonus pay is unchanged, and remains at $0.16.</p>\n            ","response":0,"trial_type":"html-button-response","trial_index":126,"time_elapsed":296034,"internal_node_id":"0.0-4.0-1.57","subject_id":"56bb6812bf2129000b53ce26","study_id":"6197b3f67c2b5cd3b6d9596a","session_id":"619bfbdf7d1c20cb93403a03","condition":"full-information","relevant_dimensions":["antennae","pattern"],"bee_group":{"antennae":"A","wings":"X","pattern":"S","legs":"X"},"bonus":0.04},{"rt":748.3999999761581,"stimulus":"bees-with-color/bee-B2SM.svg","response":0,"trial_type":"image-button-response","trial_index":127,"time_elapsed":296784,"internal_node_id":"0.0-4.0-0.58","subject_id":"56bb6812bf2129000b53ce26","study_id":"6197b3f67c2b5cd3b6d9596a","session_id":"619bfbdf7d1c20cb93403a03","condition":"full-information","relevant_dimensions":["antennae","pattern"],"bee_group":{"antennae":"A","wings":"X","pattern":"S","legs":"X"},"action":"harvest","summary":"good-harvest","bonus":0.04},{"rt":778.1000000238419,"stimulus":"\n                    <p><b>Action: <em>harvest</em></b></p>\n                    <p>This is the bee that you just saw.</p>\n                    <img src=\"bees-with-color/bee-B2SM.svg\" width=\"200\">\n                    <p><span class=\"greenText\"><b>Successful harvest!</b></span><br>Your pay has increased by $0.02. Your bonus pay is now $0.18.</p>\n            ","response":0,"trial_type":"html-button-response","trial_index":128,"time_elapsed":297564,"internal_node_id":"0.0-4.0-1.58","subject_id":"56bb6812bf2129000b53ce26","study_id":"6197b3f67c2b5cd3b6d9596a","session_id":"619bfbdf7d1c20cb93403a03","condition":"full-information","relevant_dimensions":["antennae","pattern"],"bee_group":{"antennae":"A","wings":"X","pattern":"S","legs":"X"},"bonus":0.04},{"rt":689.2999999523163,"stimulus":"bees-with-color/bee-A1DM.svg","response":0,"trial_type":"image-button-response","trial_index":129,"time_elapsed":298255,"internal_node_id":"0.0-4.0-0.59","subject_id":"56bb6812bf2129000b53ce26","study_id":"6197b3f67c2b5cd3b6d9596a","session_id":"619bfbdf7d1c20cb93403a03","condition":"full-information","relevant_dimensions":["antennae","pattern"],"bee_group":{"antennae":"A","wings":"X","pattern":"S","legs":"X"},"action":"harvest","summary":"good-harvest","bonus":0.04},{"rt":618.6000000238419,"stimulus":"\n                    <p><b>Action: <em>harvest</em></b></p>\n                    <p>This is the bee that you just saw.</p>\n                    <img src=\"bees-with-color/bee-A1DM.svg\" width=\"200\">\n                    <p><span class=\"greenText\"><b>Successful harvest!</b></span><br>Your pay has increased by $0.02. Your bonus pay is now $0.20.</p>\n            ","response":0,"trial_type":"html-button-response","trial_index":130,"time_elapsed":298875,"internal_node_id":"0.0-4.0-1.59","subject_id":"56bb6812bf2129000b53ce26","study_id":"6197b3f67c2b5cd3b6d9596a","session_id":"619bfbdf7d1c20cb93403a03","condition":"full-information","relevant_dimensions":["antennae","pattern"],"bee_group":{"antennae":"A","wings":"X","pattern":"S","legs":"X"},"bonus":0.04},{"rt":879.7999999523163,"stimulus":"bees-with-color/bee-B1SF.svg","response":0,"trial_type":"image-button-response","trial_index":131,"time_elapsed":299756,"internal_node_id":"0.0-4.0-0.60","subject_id":"56bb6812bf2129000b53ce26","study_id":"6197b3f67c2b5cd3b6d9596a","session_id":"619bfbdf7d1c20cb93403a03","condition":"full-information","relevant_dimensions":["antennae","pattern"],"bee_group":{"antennae":"A","wings":"X","pattern":"S","legs":"X"},"action":"harvest","summary":"good-harvest","bonus":0.04},{"rt":688.4000000953674,"stimulus":"\n                    <p><b>Action: <em>harvest</em></b></p>\n                    <p>This is the bee that you just saw.</p>\n                    <img src=\"bees-with-color/bee-B1SF.svg\" width=\"200\">\n                    <p><span class=\"greenText\"><b>Successful harvest!</b></span><br>Your pay has increased by $0.02. Your bonus pay is now $0.22.</p>\n            ","response":0,"trial_type":"html-button-response","trial_index":132,"time_elapsed":300446,"internal_node_id":"0.0-4.0-1.60","subject_id":"56bb6812bf2129000b53ce26","study_id":"6197b3f67c2b5cd3b6d9596a","session_id":"619bfbdf7d1c20cb93403a03","condition":"full-information","relevant_dimensions":["antennae","pattern"],"bee_group":{"antennae":"A","wings":"X","pattern":"S","legs":"X"},"bonus":0.04},{"rt":838.7999999523163,"stimulus":"bees-with-color/bee-A2SF.svg","response":0,"trial_type":"image-button-response","trial_index":133,"time_elapsed":301286,"internal_node_id":"0.0-4.0-0.61","subject_id":"56bb6812bf2129000b53ce26","study_id":"6197b3f67c2b5cd3b6d9596a","session_id":"619bfbdf7d1c20cb93403a03","condition":"full-information","relevant_dimensions":["antennae","pattern"],"bee_group":{"antennae":"A","wings":"X","pattern":"S","legs":"X"},"action":"harvest","summary":"bad-harvest","bonus":0.04},{"rt":658.6999999284744,"stimulus":"\n                    <p><b>Action: <em>harvest</em></b></p>\n                    <p>This is the bee that you just saw.</p>\n                    <img src=\"bees-with-color/bee-A2SF.svg\" width=\"200\">\n                    <p><span class=\"redText\">Bad choice, the bee was angry.</span><br><b>You have been stung!</b><br>Your pay has been decreased by $0.10. Your bonus pay is now $0.12.</p>\n            ","response":0,"trial_type":"html-button-response","trial_index":134,"time_elapsed":301947,"internal_node_id":"0.0-4.0-1.61","subject_id":"56bb6812bf2129000b53ce26","study_id":"6197b3f67c2b5cd3b6d9596a","session_id":"619bfbdf7d1c20cb93403a03","condition":"full-information","relevant_dimensions":["antennae","pattern"],"bee_group":{"antennae":"A","wings":"X","pattern":"S","legs":"X"},"bonus":0.04},{"rt":908.8999999761581,"stimulus":"bees-with-color/bee-B2DF.svg","response":0,"trial_type":"image-button-response","trial_index":135,"time_elapsed":302857,"internal_node_id":"0.0-4.0-0.62","subject_id":"56bb6812bf2129000b53ce26","study_id":"6197b3f67c2b5cd3b6d9596a","session_id":"619bfbdf7d1c20cb93403a03","condition":"full-information","relevant_dimensions":["antennae","pattern"],"bee_group":{"antennae":"A","wings":"X","pattern":"S","legs":"X"},"action":"harvest","summary":"good-harvest","bonus":0.04},{"rt":658.3999999761581,"stimulus":"\n                    <p><b>Action: <em>harvest</em></b></p>\n                    <p>This is the bee that you just saw.</p>\n                    <img src=\"bees-with-color/bee-B2DF.svg\" width=\"200\">\n                    <p><span class=\"greenText\"><b>Successful harvest!</b></span><br>Your pay has increased by $0.02. Your bonus pay is now $0.14.</p>\n            ","response":0,"trial_type":"html-button-response","trial_index":136,"time_elapsed":303517,"internal_node_id":"0.0-4.0-1.62","subject_id":"56bb6812bf2129000b53ce26","study_id":"6197b3f67c2b5cd3b6d9596a","session_id":"619bfbdf7d1c20cb93403a03","condition":"full-information","relevant_dimensions":["antennae","pattern"],"bee_group":{"antennae":"A","wings":"X","pattern":"S","legs":"X"},"bonus":0.04},{"rt":1308.2999999523163,"stimulus":"bees-with-color/bee-A2DF.svg","response":0,"trial_type":"image-button-response","trial_index":137,"time_elapsed":304827,"internal_node_id":"0.0-4.0-0.63","subject_id":"56bb6812bf2129000b53ce26","study_id":"6197b3f67c2b5cd3b6d9596a","session_id":"619bfbdf7d1c20cb93403a03","condition":"full-information","relevant_dimensions":["antennae","pattern"],"bee_group":{"antennae":"A","wings":"X","pattern":"S","legs":"X"},"action":"harvest","summary":"good-harvest","bonus":0.04},{"rt":698.6000000238419,"stimulus":"\n                    <p><b>Action: <em>harvest</em></b></p>\n                    <p>This is the bee that you just saw.</p>\n                    <img src=\"bees-with-color/bee-A2DF.svg\" width=\"200\">\n                    <p><span class=\"greenText\"><b>Successful harvest!</b></span><br>Your pay has increased by $0.02. Your bonus pay is now $0.16.</p>\n            ","response":0,"trial_type":"html-button-response","trial_index":138,"time_elapsed":305527,"internal_node_id":"0.0-4.0-1.63","subject_id":"56bb6812bf2129000b53ce26","study_id":"6197b3f67c2b5cd3b6d9596a","session_id":"619bfbdf7d1c20cb93403a03","condition":"full-information","relevant_dimensions":["antennae","pattern"],"bee_group":{"antennae":"A","wings":"X","pattern":"S","legs":"X"},"bonus":0.04},{"rt":5223.899999976158,"stimulus":"You have completed the first part of this experiment.<br><br>You will now begin a shorter second part, in which you will receive no feedback.<br>The same rules regarding bonus pay apply.<br><br>Press any key to begin.","response":" ","trial_type":"html-keyboard-response","trial_index":139,"time_elapsed":310752,"internal_node_id":"0.0-5.0","subject_id":"56bb6812bf2129000b53ce26","study_id":"6197b3f67c2b5cd3b6d9596a","session_id":"619bfbdf7d1c20cb93403a03","condition":"full-information","relevant_dimensions":["antennae","pattern"],"bee_group":{"antennae":"A","wings":"X","pattern":"S","legs":"X"},"bonus":0.04},{"rt":2991.5,"stimulus":"bees-with-color/bee-A1DM.svg","response":0,"trial_type":"image-button-response","trial_index":140,"time_elapsed":313760,"internal_node_id":"0.0-6.0-0.0","subject_id":"56bb6812bf2129000b53ce26","study_id":"6197b3f67c2b5cd3b6d9596a","session_id":"619bfbdf7d1c20cb93403a03","condition":"full-information","relevant_dimensions":["antennae","pattern"],"bee_group":{"antennae":"A","wings":"X","pattern":"S","legs":"X"},"bonus":0.04},{"rt":1289.0999999046326,"stimulus":"bees-with-color/bee-A2SM.svg","response":0,"trial_type":"image-button-response","trial_index":141,"time_elapsed":315051,"internal_node_id":"0.0-6.0-0.1","subject_id":"56bb6812bf2129000b53ce26","study_id":"6197b3f67c2b5cd3b6d9596a","session_id":"619bfbdf7d1c20cb93403a03","condition":"full-information","relevant_dimensions":["antennae","pattern"],"bee_group":{"antennae":"A","wings":"X","pattern":"S","legs":"X"},"bonus":0.04},{"rt":667.2000000476837,"stimulus":"bees-with-color/bee-A2DF.svg","response":0,"trial_type":"image-button-response","trial_index":142,"time_elapsed":315721,"internal_node_id":"0.0-6.0-0.2","subject_id":"56bb6812bf2129000b53ce26","study_id":"6197b3f67c2b5cd3b6d9596a","session_id":"619bfbdf7d1c20cb93403a03","condition":"full-information","relevant_dimensions":["antennae","pattern"],"bee_group":{"antennae":"A","wings":"X","pattern":"S","legs":"X"},"bonus":0.04},{"rt":2154.3000000715256,"stimulus":"bees-with-color/bee-B1SF.svg","response":1,"trial_type":"image-button-response","trial_index":143,"time_elapsed":317877,"internal_node_id":"0.0-6.0-0.3","subject_id":"56bb6812bf2129000b53ce26","study_id":"6197b3f67c2b5cd3b6d9596a","session_id":"619bfbdf7d1c20cb93403a03","condition":"full-information","relevant_dimensions":["antennae","pattern"],"bee_group":{"antennae":"A","wings":"X","pattern":"S","legs":"X"},"bonus":0.04},{"rt":408.1999999284744,"stimulus":"bees-with-color/bee-A1DF.svg","response":0,"trial_type":"image-button-response","trial_index":144,"time_elapsed":318288,"internal_node_id":"0.0-6.0-0.4","subject_id":"56bb6812bf2129000b53ce26","study_id":"6197b3f67c2b5cd3b6d9596a","session_id":"619bfbdf7d1c20cb93403a03","condition":"full-information","relevant_dimensions":["antennae","pattern"],"bee_group":{"antennae":"A","wings":"X","pattern":"S","legs":"X"},"bonus":0.04},{"rt":477.5,"stimulus":"bees-with-color/bee-B1SM.svg","response":0,"trial_type":"image-button-response","trial_index":145,"time_elapsed":318767,"internal_node_id":"0.0-6.0-0.5","subject_id":"56bb6812bf2129000b53ce26","study_id":"6197b3f67c2b5cd3b6d9596a","session_id":"619bfbdf7d1c20cb93403a03","condition":"full-information","relevant_dimensions":["antennae","pattern"],"bee_group":{"antennae":"A","wings":"X","pattern":"S","legs":"X"},"bonus":0.04},{"rt":598.6999999284744,"stimulus":"bees-with-color/bee-A1SF.svg","response":0,"trial_type":"image-button-response","trial_index":146,"time_elapsed":319368,"internal_node_id":"0.0-6.0-0.6","subject_id":"56bb6812bf2129000b53ce26","study_id":"6197b3f67c2b5cd3b6d9596a","session_id":"619bfbdf7d1c20cb93403a03","condition":"full-information","relevant_dimensions":["antennae","pattern"],"bee_group":{"antennae":"A","wings":"X","pattern":"S","legs":"X"},"bonus":0.04},{"rt":1717,"stimulus":"bees-with-color/bee-B1DF.svg","response":0,"trial_type":"image-button-response","trial_index":147,"time_elapsed":321087,"internal_node_id":"0.0-6.0-0.7","subject_id":"56bb6812bf2129000b53ce26","study_id":"6197b3f67c2b5cd3b6d9596a","session_id":"619bfbdf7d1c20cb93403a03","condition":"full-information","relevant_dimensions":["antennae","pattern"],"bee_group":{"antennae":"A","wings":"X","pattern":"S","legs":"X"},"bonus":0.04},{"rt":1406.3999999761581,"stimulus":"bees-with-color/bee-B2DF.svg","response":0,"trial_type":"image-button-response","trial_index":148,"time_elapsed":322496,"internal_node_id":"0.0-6.0-0.8","subject_id":"56bb6812bf2129000b53ce26","study_id":"6197b3f67c2b5cd3b6d9596a","session_id":"619bfbdf7d1c20cb93403a03","condition":"full-information","relevant_dimensions":["antennae","pattern"],"bee_group":{"antennae":"A","wings":"X","pattern":"S","legs":"X"},"bonus":0.04},{"rt":1215.3000000715256,"stimulus":"bees-with-color/bee-A2SF.svg","response":1,"trial_type":"image-button-response","trial_index":149,"time_elapsed":323713,"internal_node_id":"0.0-6.0-0.9","subject_id":"56bb6812bf2129000b53ce26","study_id":"6197b3f67c2b5cd3b6d9596a","session_id":"619bfbdf7d1c20cb93403a03","condition":"full-information","relevant_dimensions":["antennae","pattern"],"bee_group":{"antennae":"A","wings":"X","pattern":"S","legs":"X"},"bonus":0.04},{"rt":458.10000002384186,"stimulus":"bees-with-color/bee-B2SM.svg","response":0,"trial_type":"image-button-response","trial_index":150,"time_elapsed":324173,"internal_node_id":"0.0-6.0-0.10","subject_id":"56bb6812bf2129000b53ce26","study_id":"6197b3f67c2b5cd3b6d9596a","session_id":"619bfbdf7d1c20cb93403a03","condition":"full-information","relevant_dimensions":["antennae","pattern"],"bee_group":{"antennae":"A","wings":"X","pattern":"S","legs":"X"},"bonus":0.04},{"rt":308.10000002384186,"stimulus":"bees-with-color/bee-B1DM.svg","response":0,"trial_type":"image-button-response","trial_index":151,"time_elapsed":324483,"internal_node_id":"0.0-6.0-0.11","subject_id":"56bb6812bf2129000b53ce26","study_id":"6197b3f67c2b5cd3b6d9596a","session_id":"619bfbdf7d1c20cb93403a03","condition":"full-information","relevant_dimensions":["antennae","pattern"],"bee_group":{"antennae":"A","wings":"X","pattern":"S","legs":"X"},"bonus":0.04},{"rt":287.60000002384186,"stimulus":"bees-with-color/bee-A1SM.svg","response":0,"trial_type":"image-button-response","trial_index":152,"time_elapsed":324773,"internal_node_id":"0.0-6.0-0.12","subject_id":"56bb6812bf2129000b53ce26","study_id":"6197b3f67c2b5cd3b6d9596a","session_id":"619bfbdf7d1c20cb93403a03","condition":"full-information","relevant_dimensions":["antennae","pattern"],"bee_group":{"antennae":"A","wings":"X","pattern":"S","legs":"X"},"bonus":0.04},{"rt":357.89999997615814,"stimulus":"bees-with-color/bee-A2DM.svg","response":0,"trial_type":"image-button-response","trial_index":153,"time_elapsed":325132,"internal_node_id":"0.0-6.0-0.13","subject_id":"56bb6812bf2129000b53ce26","study_id":"6197b3f67c2b5cd3b6d9596a","session_id":"619bfbdf7d1c20cb93403a03","condition":"full-information","relevant_dimensions":["antennae","pattern"],"bee_group":{"antennae":"A","wings":"X","pattern":"S","legs":"X"},"bonus":0.04},{"rt":717.8000000715256,"stimulus":"bees-with-color/bee-B2SF.svg","response":1,"trial_type":"image-button-response","trial_index":154,"time_elapsed":325853,"internal_node_id":"0.0-6.0-0.14","subject_id":"56bb6812bf2129000b53ce26","study_id":"6197b3f67c2b5cd3b6d9596a","session_id":"619bfbdf7d1c20cb93403a03","condition":"full-information","relevant_dimensions":["antennae","pattern"],"bee_group":{"antennae":"A","wings":"X","pattern":"S","legs":"X"},"bonus":0.04},{"rt":358.7000000476837,"stimulus":"bees-with-color/bee-B2DM.svg","response":0,"trial_type":"image-button-response","trial_index":155,"time_elapsed":326214,"internal_node_id":"0.0-6.0-0.15","subject_id":"56bb6812bf2129000b53ce26","study_id":"6197b3f67c2b5cd3b6d9596a","session_id":"619bfbdf7d1c20cb93403a03","condition":"full-information","relevant_dimensions":["antennae","pattern"],"bee_group":{"antennae":"A","wings":"X","pattern":"S","legs":"X"},"bonus":0.04},{"rt":298.10000002384186,"stimulus":"bees-with-color/bee-A1SM.svg","response":0,"trial_type":"image-button-response","trial_index":156,"time_elapsed":326513,"internal_node_id":"0.0-6.0-0.16","subject_id":"56bb6812bf2129000b53ce26","study_id":"6197b3f67c2b5cd3b6d9596a","session_id":"619bfbdf7d1c20cb93403a03","condition":"full-information","relevant_dimensions":["antennae","pattern"],"bee_group":{"antennae":"A","wings":"X","pattern":"S","legs":"X"},"bonus":0.04},{"rt":338.7000000476837,"stimulus":"bees-with-color/bee-B2DM.svg","response":0,"trial_type":"image-button-response","trial_index":157,"time_elapsed":326853,"internal_node_id":"0.0-6.0-0.17","subject_id":"56bb6812bf2129000b53ce26","study_id":"6197b3f67c2b5cd3b6d9596a","session_id":"619bfbdf7d1c20cb93403a03","condition":"full-information","relevant_dimensions":["antennae","pattern"],"bee_group":{"antennae":"A","wings":"X","pattern":"S","legs":"X"},"bonus":0.04},{"rt":569,"stimulus":"bees-with-color/bee-A2DF.svg","response":1,"trial_type":"image-button-response","trial_index":158,"time_elapsed":327424,"internal_node_id":"0.0-6.0-0.18","subject_id":"56bb6812bf2129000b53ce26","study_id":