[{"success":true,"trial_type":"fullscreen","trial_index":0,"time_elapsed":14660,"internal_node_id":"0.0-0.0","subject_id":"60204458e6a42863349abc9f","study_id":"60edd13110225f80f9f3709b","session_id":"6196c705a09b54374f131c3d","condition":"full-information","relevant_dimensions":["pattern","legs"],"bee_group":{"antennae":"X","wings":"X","pattern":"D","legs":"M"},"bonus":1.4800000000000013},{"success":true,"timeout":false,"failed_images":[],"failed_audio":[],"failed_video":[],"trial_type":"preload","trial_index":1,"time_elapsed":16006,"internal_node_id":"0.0-1.0","subject_id":"60204458e6a42863349abc9f","study_id":"60edd13110225f80f9f3709b","session_id":"6196c705a09b54374f131c3d","condition":"full-information","relevant_dimensions":["pattern","legs"],"bee_group":{"antennae":"X","wings":"X","pattern":"D","legs":"M"},"bonus":1.4800000000000013},{"rt":2477.899999999907,"stimulus":"Welcome! Press any key to begin.","response":"enter","trial_type":"html-keyboard-response","trial_index":2,"time_elapsed":18484,"internal_node_id":"0.0-2.0","subject_id":"60204458e6a42863349abc9f","study_id":"60edd13110225f80f9f3709b","session_id":"6196c705a09b54374f131c3d","condition":"full-information","relevant_dimensions":["pattern","legs"],"bee_group":{"antennae":"X","wings":"X","pattern":"D","legs":"M"},"bonus":1.4800000000000013},{"view_history":[{"page_index":0,"viewing_time":5734.800000000279},{"page_index":1,"viewing_time":29331.399999999907},{"page_index":2,"viewing_time":26932.399999999907},{"page_index":3,"viewing_time":30628.899999999907},{"page_index":4,"viewing_time":11760},{"page_index":5,"viewing_time":11379.400000000373},{"page_index":6,"viewing_time":11020.099999999627},{"page_index":5,"viewing_time":8863.700000000186},{"page_index":6,"viewing_time":12252.600000000093},{"page_index":7,"viewing_time":23133.19999999972},{"page_index":8,"viewing_time":7847},{"page_index":9,"viewing_time":4201},{"page_index":8,"viewing_time":268},{"page_index":7,"viewing_time":1838.7000000001863},{"page_index":8,"viewing_time":810.3999999999069},{"page_index":9,"viewing_time":1447.8999999999069},{"page_index":10,"viewing_time":2653.100000000093},{"page_index":11,"viewing_time":886.8000000002794},{"page_index":10,"viewing_time":43005.19999999972},{"page_index":11,"viewing_time":10043},{"page_index":12,"viewing_time":5178},{"page_index":13,"viewing_time":934.2000000001863},{"page_index":14,"viewing_time":2671.100000000093}],"rt":252821.30000000028,"trial_type":"instructions","trial_index":3,"time_elapsed":271306,"internal_node_id":"0.0-3.0-0.0","subject_id":"60204458e6a42863349abc9f","study_id":"60edd13110225f80f9f3709b","session_id":"6196c705a09b54374f131c3d","condition":"full-information","relevant_dimensions":["pattern","legs"],"bee_group":{"antennae":"X","wings":"X","pattern":"D","legs":"M"},"bonus":1.4800000000000013},{"rt":16881.19999999972,"response":{"Q0":["Two or six legs","Stripes or spots on body","Single or double wings","Antennae or no antennae"]},"question_order":[0],"trial_type":"survey-multi-select","trial_index":4,"time_elapsed":288193,"internal_node_id":"0.0-3.0-1.0","subject_id":"60204458e6a42863349abc9f","study_id":"60edd13110225f80f9f3709b","session_id":"6196c705a09b54374f131c3d","condition":"full-information","relevant_dimensions":["pattern","legs"],"bee_group":{"antennae":"X","wings":"X","pattern":"D","legs":"M"},"correct":true,"bonus":1.4800000000000013},{"rt":21768,"response":{"Q1":"No.","Q2":"Based on the four features of the bee.","Q3":"You learn if it was friendly or dangerous, but do not alter your bonus."},"question_order":[0,1,2],"trial_type":"survey-multi-choice","trial_index":5,"time_elapsed":309962,"internal_node_id":"0.0-3.0-2.0","subject_id":"60204458e6a42863349abc9f","study_id":"60edd13110225f80f9f3709b","session_id":"6196c705a09b54374f131c3d","condition":"full-information","relevant_dimensions":["pattern","legs"],"bee_group":{"antennae":"X","wings":"X","pattern":"D","legs":"M"},"correct":true,"bonus":1.4800000000000013},{"rt":1915.1000000000931,"stimulus":"<p>Congrats, you got everything right<br>When you're ready, click the button below to continue to the experiment.</p>","response":0,"trial_type":"html-button-response","trial_index":6,"time_elapsed":311880,"internal_node_id":"0.0-3.0-3.0","subject_id":"60204458e6a42863349abc9f","study_id":"60edd13110225f80f9f3709b","session_id":"6196c705a09b54374f131c3d","condition":"full-information","relevant_dimensions":["pattern","legs"],"bee_group":{"antennae":"X","wings":"X","pattern":"D","legs":"M"},"bonus":1.4800000000000013},{"rt":34181.80000000028,"stimulus":"bees-with-color/bee-B2SF.svg","response":0,"trial_type":"image-button-response","trial_index":7,"time_elapsed":346064,"internal_node_id":"0.0-4.0-0.0","subject_id":"60204458e6a42863349abc9f","study_id":"60edd13110225f80f9f3709b","session_id":"6196c705a09b54374f131c3d","condition":"full-information","relevant_dimensions":["pattern","legs"],"bee_group":{"antennae":"X","wings":"X","pattern":"D","legs":"M"},"action":"harvest","summary":"good-harvest","bonus":1.4800000000000013},{"rt":28699.19999999972,"stimulus":"\n                    <p><b>Action: <em>harvest</em></b></p>\n                    <p>This is the bee that you just saw.</p>\n                    <img src=\"bees-with-color/bee-B2SF.svg\" width=\"200\">\n                    <p><span class=\"greenText\"><b>Successful harvest!</b></span><br>Your pay has increased by $0.02. Your bonus pay is now $0.56.</p>\n            ","response":0,"trial_type":"html-button-response","trial_index":8,"time_elapsed":374765,"internal_node_id":"0.0-4.0-1.0","subject_id":"60204458e6a42863349abc9f","study_id":"60edd13110225f80f9f3709b","session_id":"6196c705a09b54374f131c3d","condition":"full-information","relevant_dimensions":["pattern","legs"],"bee_group":{"antennae":"X","wings":"X","pattern":"D","legs":"M"},"bonus":1.4800000000000013},{"rt":14855.100000000093,"stimulus":"bees-with-color/bee-A1SF.svg","response":0,"trial_type":"image-button-response","trial_index":9,"time_elapsed":389622,"internal_node_id":"0.0-4.0-0.1","subject_id":"60204458e6a42863349abc9f","study_id":"60edd13110225f80f9f3709b","session_id":"6196c705a09b54374f131c3d","condition":"full-information","relevant_dimensions":["pattern","legs"],"bee_group":{"antennae":"X","wings":"X","pattern":"D","legs":"M"},"action":"harvest","summary":"good-harvest","bonus":1.4800000000000013},{"rt":7037.300000000279,"stimulus":"\n                    <p><b>Action: <em>harvest</em></b></p>\n                    <p>This is the bee that you just saw.</p>\n                    <img src=\"bees-with-color/bee-A1SF.svg\" width=\"200\">\n                    <p><span class=\"greenText\"><b>Successful harvest!</b></span><br>Your pay has increased by $0.02. Your bonus pay is now $0.58.</p>\n            ","response":0,"trial_type":"html-button-response","trial_index":10,"time_elapsed":396661,"internal_node_id":"0.0-4.0-1.1","subject_id":"60204458e6a42863349abc9f","study_id":"60edd13110225f80f9f3709b","session_id":"6196c705a09b54374f131c3d","condition":"full-information","relevant_dimensions":["pattern","legs"],"bee_group":{"antennae":"X","wings":"X","pattern":"D","legs":"M"},"bonus":1.4800000000000013},{"rt":14365.69999999972,"stimulus":"bees-with-color/bee-B1SM.svg","response":0,"trial_type":"image-button-response","trial_index":11,"time_elapsed":411028,"internal_node_id":"0.0-4.0-0.2","subject_id":"60204458e6a42863349abc9f","study_id":"60edd13110225f80f9f3709b","session_id":"6196c705a09b54374f131c3d","condition":"full-information","relevant_dimensions":["pattern","legs"],"bee_group":{"antennae":"X","wings":"X","pattern":"D","legs":"M"},"action":"harvest","summary":"good-harvest","bonus":1.4800000000000013},{"rt":27139.700000000186,"stimulus":"\n                    <p><b>Action: <em>harvest</em></b></p>\n                    <p>This is the bee that you just saw.</p>\n                    <img src=\"bees-with-color/bee-B1SM.svg\" width=\"200\">\n                    <p><span class=\"greenText\"><b>Successful harvest!</b></span><br>Your pay has increased by $0.02. Your bonus pay is now $0.60.</p>\n            ","response":0,"trial_type":"html-button-response","trial_index":12,"time_elapsed":438170,"internal_node_id":"0.0-4.0-1.2","subject_id":"60204458e6a42863349abc9f","study_id":"60edd13110225f80f9f3709b","session_id":"6196c705a09b54374f131c3d","condition":"full-information","relevant_dimensions":["pattern","legs"],"bee_group":{"antennae":"X","wings":"X","pattern":"D","legs":"M"},"bonus":1.4800000000000013},{"rt":21661.399999999907,"stimulus":"bees-with-color/bee-B2SM.svg","response":0,"trial_type":"image-button-response","trial_index":13,"time_elapsed":459833,"internal_node_id":"0.0-4.0-0.3","subject_id":"60204458e6a42863349abc9f","study_id":"60edd13110225f80f9f3709b","session_id":"6196c705a09b54374f131c3d","condition":"full-information","relevant_dimensions":["pattern","legs"],"bee_group":{"antennae":"X","wings":"X","pattern":"D","legs":"M"},"action":"harvest","summary":"good-harvest","bonus":1.4800000000000013},{"rt":4455.199999999721,"stimulus":"\n                    <p><b>Action: <em>harvest</em></b></p>\n                    <p>This is the bee that you just saw.</p>\n                    <img src=\"bees-with-color/bee-B2SM.svg\" width=\"200\">\n                    <p><span class=\"greenText\"><b>Successful harvest!</b></span><br>Your pay has increased by $0.02. Your bonus pay is now $0.62.</p>\n            ","response":0,"trial_type":"html-button-response","trial_index":14,"time_elapsed":464290,"internal_node_id":"0.0-4.0-1.3","subject_id":"60204458e6a42863349abc9f","study_id":"60edd13110225f80f9f3709b","session_id":"6196c705a09b54374f131c3d","condition":"full-information","relevant_dimensions":["pattern","legs"],"bee_group":{"antennae":"X","wings":"X","pattern":"D","legs":"M"},"bonus":1.4800000000000013},{"rt":19999.700000000186,"stimulus":"bees-with-color/bee-A2DF.svg","response":0,"trial_type":"image-button-response","trial_index":15,"time_elapsed":484291,"internal_node_id":"0.0-4.0-0.4","subject_id":"60204458e6a42863349abc9f","study_id":"60edd13110225f80f9f3709b","session_id":"6196c705a09b54374f131c3d","condition":"full-information","relevant_dimensions":["pattern","legs"],"bee_group":{"antennae":"X","wings":"X","pattern":"D","legs":"M"},"action":"harvest","summary":"good-harvest","bonus":1.4800000000000013},{"rt":14393.799999999814,"stimulus":"\n                    <p><b>Action: <em>harvest</em></b></p>\n                    <p>This is the bee that you just saw.</p>\n                    <img src=\"bees-with-color/bee-A2DF.svg\" width=\"200\">\n                    <p><span class=\"greenText\"><b>Successful harvest!</b></span><br>Your pay has increased by $0.02. Your bonus pay is now $0.64.</p>\n            ","response":0,"trial_type":"html-button-response","trial_index":16,"time_elapsed":498686,"internal_node_id":"0.0-4.0-1.4","subject_id":"60204458e6a42863349abc9f","study_id":"60edd13110225f80f9f3709b","session_id":"6196c705a09b54374f131c3d","condition":"full-information","relevant_dimensions":["pattern","legs"],"bee_group":{"antennae":"X","wings":"X","pattern":"D","legs":"M"},"bonus":1.4800000000000013},{"rt":19674.700000000186,"stimulus":"bees-with-color/bee-B1DM.svg","response":0,"trial_type":"image-button-response","trial_index":17,"time_elapsed":518363,"internal_node_id":"0.0-4.0-0.5","subject_id":"60204458e6a42863349abc9f","study_id":"60edd13110225f80f9f3709b","session_id":"6196c705a09b54374f131c3d","condition":"full-information","relevant_dimensions":["pattern","legs"],"bee_group":{"antennae":"X","wings":"X","pattern":"D","legs":"M"},"action":"harvest","summary":"bad-harvest","bonus":1.4800000000000013},{"rt":9142.100000000093,"stimulus":"\n                    <p><b>Action: <em>harvest</em></b></p>\n                    <p>This is the bee that you just saw.</p>\n                    <img src=\"bees-with-color/bee-B1DM.svg\" width=\"200\">\n                    <p><span class=\"redText\">Bad choice, the bee was angry.</span><br><b>You have been stung!</b><br>Your pay has been decreased by $0.10. Your bonus pay is now $0.54.</p>\n            ","response":0,"trial_type":"html-button-response","trial_index":18,"time_elapsed":527506,"internal_node_id":"0.0-4.0-1.5","subject_id":"60204458e6a42863349abc9f","study_id":"60edd13110225f80f9f3709b","session_id":"6196c705a09b54374f131c3d","condition":"full-information","relevant_dimensions":["pattern","legs"],"bee_group":{"antennae":"X","wings":"X","pattern":"D","legs":"M"},"bonus":1.4800000000000013},{"rt":42215.90000000037,"stimulus":"bees-with-color/bee-A2DM.svg","response":0,"trial_type":"image-button-response","trial_index":19,"time_elapsed":569724,"internal_node_id":"0.0-4.0-0.6","subject_id":"60204458e6a42863349abc9f","study_id":"60edd13110225f80f9f3709b","session_id":"6196c705a09b54374f131c3d","condition":"full-information","relevant_dimensions":["pattern","legs"],"bee_group":{"antennae":"X","wings":"X","pattern":"D","legs":"M"},"action":"harvest","summary":"bad-harvest","bonus":1.4800000000000013},{"rt":4982.699999999721,"stimulus":"\n                    <p><b>Action: <em>harvest</em></b></p>\n                    <p>This is the bee that you just saw.</p>\n                    <img src=\"bees-with-color/bee-A2DM.svg\" width=\"200\">\n                    <p><span class=\"redText\">Bad choice, the bee was angry.</span><br><b>You have been stung!</b><br>Your pay has been decreased by $0.10. Your bonus pay is now $0.44.</p>\n            ","response":0,"trial_type":"html-button-response","trial_index":20,"time_elapsed":574709,"internal_node_id":"0.0-4.0-1.6","subject_id":"60204458e6a42863349abc9f","study_id":"60edd13110225f80f9f3709b","session_id":"6196c705a09b54374f131c3d","condition":"full-information","relevant_dimensions":["pattern","legs"],"bee_group":{"antennae":"X","wings":"X","pattern":"D","legs":"M"},"bonus":1.4800000000000013},{"rt":32377,"stimulus":"bees-with-color/bee-B1SF.svg","response":0,"trial_type":"image-button-response","trial_index":21,"time_elapsed":607087,"internal_node_id":"0.0-4.0-0.7","subject_id":"60204458e6a42863349abc9f","study_id":"60edd13110225f80f9f3709b","session_id":"6196c705a09b54374f131c3d","condition":"full-information","relevant_dimensions":["pattern","legs"],"bee_group":{"antennae":"X","wings":"X","pattern":"D","legs":"M"},"action":"harvest","summary":"good-harvest","bonus":1.4800000000000013},{"rt":3485.2000000001863,"stimulus":"\n                    <p><b>Action: <em>harvest</em></b></p>\n                    <p>This is the bee that you just saw.</p>\n                    <img src=\"bees-with-color/bee-B1SF.svg\" width=\"200\">\n                    <p><span class=\"greenText\"><b>Successful harvest!</b></span><br>Your pay has increased by $0.02. Your bonus pay is now $0.46.</p>\n            ","response":0,"trial_type":"html-button-response","trial_index":22,"time_elapsed":610574,"internal_node_id":"0.0-4.0-1.7","subject_id":"60204458e6a42863349abc9f","study_id":"60edd13110225f80f9f3709b","session_id":"6196c705a09b54374f131c3d","condition":"full-information","relevant_dimensions":["pattern","legs"],"bee_group":{"antennae":"X","wings":"X","pattern":"D","legs":"M"},"bonus":1.4800000000000013},{"rt":49930.10000000009,"stimulus":"bees-with-color/bee-A2SM.svg","response":0,"trial_type":"image-button-response","trial_index":23,"time_elapsed":660506,"internal_node_id":"0.0-4.0-0.8","subject_id":"60204458e6a42863349abc9f","study_id":"60edd13110225f80f9f3709b","session_id":"6196c705a09b54374f131c3d","condition":"full-information","relevant_dimensions":["pattern","legs"],"bee_group":{"antennae":"X","wings":"X","pattern":"D","legs":"M"},"action":"harvest","summary":"good-harvest","bonus":1.4800000000000013},{"rt":28250.60000000056,"stimulus":"\n                    <p><b>Action: <em>harvest</em></b></p>\n                    <p>This is the bee that you just saw.</p>\n                    <img src=\"bees-with-color/bee-A2SM.svg\" width=\"200\">\n                    <p><span class=\"greenText\"><b>Successful harvest!</b></span><br>Your pay has increased by $0.02. Your bonus pay is now $0.48.</p>\n            ","response":0,"trial_type":"html-button-response","trial_index":24,"time_elapsed":688758,"internal_node_id":"0.0-4.0-1.8","subject_id":"60204458e6a42863349abc9f","study_id":"60edd13110225f80f9f3709b","session_id":"6196c705a09b54374f131c3d","condition":"full-information","relevant_dimensions":["pattern","legs"],"bee_group":{"antennae":"X","wings":"X","pattern":"D","legs":"M"},"bonus":1.4800000000000013},{"rt":32094.10000000056,"stimulus":"bees-with-color/bee-B2DM.svg","response":0,"trial_type":"image-button-response","trial_index":25,"time_elapsed":720853,"internal_node_id":"0.0-4.0-0.9","subject_id":"60204458e6a42863349abc9f","study_id":"60edd13110225f80f9f3709b","session_id":"6196c705a09b54374f131c3d","condition":"full-information","relevant_dimensions":["pattern","legs"],"bee_group":{"antennae":"X","wings":"X","pattern":"D","legs":"M"},"action":"harvest","summary":"bad-harvest","bonus":1.4800000000000013},{"rt":12894.400000000373,"stimulus":"\n                    <p><b>Action: <em>harvest</em></b></p>\n                    <p>This is the bee that you just saw.</p>\n                    <img src=\"bees-with-color/bee-B2DM.svg\" width=\"200\">\n                    <p><span class=\"redText\">Bad choice, the bee was angry.</span><br><b>You have been stung!</b><br>Your pay has been decreased by $0.10. Your bonus pay is now $0.38.</p>\n            ","response":0,"trial_type":"html-button-response","trial_index":26,"time_elapsed":733752,"internal_node_id":"0.0-4.0-1.9","subject_id":"60204458e6a42863349abc9f","study_id":"60edd13110225f80f9f3709b","session_id":"6196c705a09b54374f131c3d","condition":"full-information","relevant_dimensions":["pattern","legs"],"bee_group":{"antennae":"X","wings":"X","pattern":"D","legs":"M"},"bonus":1.4800000000000013},{"rt":46971.5,"stimulus":"bees-with-color/bee-A2SF.svg","response":0,"trial_type":"image-button-response","trial_index":27,"time_elapsed":780725,"internal_node_id":"0.0-4.0-0.10","subject_id":"60204458e6a42863349abc9f","study_id":"60edd13110225f80f9f3709b","session_id":"6196c705a09b54374f131c3d","condition":"full-information","relevant_dimensions":["pattern","legs"],"bee_group":{"antennae":"X","wings":"X","pattern":"D","legs":"M"},"action":"harvest","summary":"good-harvest","bonus":1.4800000000000013},{"rt":9034.899999999441,"stimulus":"\n                    <p><b>Action: <em>harvest</em></b></p>\n                    <p>This is the bee that you just saw.</p>\n                    <img src=\"bees-with-color/bee-A2SF.svg\" width=\"200\">\n                    <p><span class=\"greenText\"><b>Successful harvest!</b></span><br>Your pay has increased by $0.02. Your bonus pay is now $0.40.</p>\n            ","response":0,"trial_type":"html-button-response","trial_index":28,"time_elapsed":789761,"internal_node_id":"0.0-4.0-1.10","subject_id":"60204458e6a42863349abc9f","study_id":"60edd13110225f80f9f3709b","session_id":"6196c705a09b54374f131c3d","condition":"full-information","relevant_dimensions":["pattern","legs"],"bee_group":{"antennae":"X","wings":"X","pattern":"D","legs":"M"},"bonus":1.4800000000000013},{"rt":84794.10000000056,"stimulus":"bees-with-color/bee-B2DF.svg","response":0,"trial_type":"image-button-response","trial_index":29,"time_elapsed":874557,"internal_node_id":"0.0-4.0-0.11","subject_id":"60204458e6a42863349abc9f","study_id":"60edd13110225f80f9f3709b","session_id":"6196c705a09b54374f131c3d","condition":"full-information","relevant_dimensions":["pattern","legs"],"bee_group":{"antennae":"X","wings":"X","pattern":"D","legs":"M"},"action":"harvest","summary":"good-harvest","bonus":1.4800000000000013},{"rt":4769.5999999996275,"stimulus":"\n                    <p><b>Action: <em>harvest</em></b></p>\n                    <p>This is the bee that you just saw.</p>\n                    <img src=\"bees-with-color/bee-B2DF.svg\" width=\"200\">\n                    <p><span class=\"greenText\"><b>Successful harvest!</b></span><br>Your pay has increased by $0.02. Your bonus pay is now $0.42.</p>\n            ","response":0,"trial_type":"html-button-response","trial_index":30,"time_elapsed":879328,"internal_node_id":"0.0-4.0-1.11","subject_id":"60204458e6a42863349abc9f","study_id":"60edd13110225f80f9f3709b","session_id":"6196c705a09b54374f131c3d","condition":"full-information","relevant_dimensions":["pattern","legs"],"bee_group":{"antennae":"X","wings":"X","pattern":"D","legs":"M"},"bonus":1.4800000000000013},{"rt":52330.5,"stimulus":"bees-with-color/bee-A1DF.svg","response":0,"trial_type":"image-button-response","trial_index":31,"time_elapsed":931660,"internal_node_id":"0.0-4.0-0.12","subject_id":"60204458e6a42863349abc9f","study_id":"60edd13110225f80f9f3709b","session_id":"6196c705a09b54374f131c3d","condition":"full-information","relevant_dimensions":["pattern","legs"],"bee_group":{"antennae":"X","wings":"X","pattern":"D","legs":"M"},"action":"harvest","summary":"good-harvest","bonus":1.4800000000000013},{"rt":12523.799999999814,"stimulus":"\n                    <p><b>Action: <em>harvest</em></b></p>\n                    <p>This is the bee that you just saw.</p>\n                    <img src=\"bees-with-color/bee-A1DF.svg\" width=\"200\">\n                    <p><span class=\"greenText\"><b>Successful harvest!</b></span><br>Your pay has increased by $0.02. Your bonus pay is now $0.44.</p>\n            ","response":0,"trial_type":"html-button-response","trial_index":32,"time_elapsed":944186,"internal_node_id":"0.0-4.0-1.12","subject_id":"60204458e6a42863349abc9f","study_id":"60edd13110225f80f9f3709b","session_id":"6196c705a09b54374f131c3d","condition":"full-information","relevant_dimensions":["pattern","legs"],"bee_group":{"antennae":"X","wings":"X","pattern":"D","legs":"M"},"bonus":1.4800000000000013},{"rt":31184.200000000186,"stimulus":"bees-with-color/bee-A1SM.svg","response":0,"trial_type":"image-button-response","trial_index":33,"time_elapsed":975373,"internal_node_id":"0.0-4.0-0.13","subject_id":"60204458e6a42863349abc9f","study_id":"60edd13110225f80f9f3709b","session_id":"6196c705a09b54374f131c3d","condition":"full-information","relevant_dimensions":["pattern","legs"],"bee_group":{"antennae":"X","wings":"X","pattern":"D","legs":"M"},"action":"harvest","summary":"good-harvest","bonus":1.4800000000000013},{"rt":17832,"stimulus":"\n                    <p><b>Action: <em>harvest</em></b></p>\n                    <p>This is the bee that you just saw.</p>\n                    <img src=\"bees-with-color/bee-A1SM.svg\" width=\"200\">\n                    <p><span class=\"greenText\"><b>Successful harvest!</b></span><br>Your pay has increased by $0.02. Your bonus pay is now $0.46.</p>\n            ","response":0,"trial_type":"html-button-response","trial_index":34,"time_elapsed":993208,"internal_node_id":"0.0-4.0-1.13","subject_id":"60204458e6a42863349abc9f","study_id":"60edd13110225f80f9f3709b","session_id":"6196c705a09b54374f131c3d","condition":"full-information","relevant_dimensions":["pattern","legs"],"bee_group":{"antennae":"X","wings":"X","pattern":"D","legs":"M"},"bonus":1.4800000000000013},{"rt":25267.5,"stimulus":"bees-with-color/bee-B1DF.svg","response":0,"trial_type":"image-button-response","trial_index":35,"time_elapsed":1018477,"internal_node_id":"0.0-4.0-0.14","subject_id":"60204458e6a42863349abc9f","study_id":"60edd13110225f80f9f3709b","session_id":"6196c705a09b54374f131c3d","condition":"full-information","relevant_dimensions":["pattern","legs"],"bee_group":{"antennae":"X","wings":"X","pattern":"D","legs":"M"},"action":"harvest","summary":"good-harvest","bonus":1.4800000000000013},{"rt":4698.700000000186,"stimulus":"\n                    <p><b>Action: <em>harvest</em></b></p>\n                    <p>This is the bee that you just saw.</p>\n                    <img src=\"bees-with-color/bee-B1DF.svg\" width=\"200\">\n                    <p><span class=\"greenText\"><b>Successful harvest!</b></span><br>Your pay has increased by $0.02. Your bonus pay is now $0.48.</p>\n            ","response":0,"trial_type":"html-button-response","trial_index":36,"time_elapsed":1023177,"internal_node_id":"0.0-4.0-1.14","subject_id":"60204458e6a42863349abc9f","study_id":"60edd13110225f80f9f3709b","session_id":"6196c705a09b54374f131c3d","condition":"full-information","relevant_dimensions":["pattern","legs"],"bee_group":{"antennae":"X","wings":"X","pattern":"D","legs":"M"},"bonus":1.4800000000000013},{"rt":23284.299999999814,"stimulus":"bees-with-color/bee-A1DM.svg","response":0,"trial_type":"image-button-response","trial_index":37,"time_elapsed":1046463,"internal_node_id":"0.0-4.0-0.15","subject_id":"60204458e6a42863349abc9f","study_id":"60edd13110225f80f9f3709b","session_id":"6196c705a09b54374f131c3d","condition":"full-information","relevant_dimensions":["pattern","legs"],"bee_group":{"antennae":"X","wings":"X","pattern":"D","legs":"M"},"action":"harvest","summary":"bad-harvest","bonus":1.4800000000000013},{"rt":4181,"stimulus":"\n                    <p><b>Action: <em>harvest</em></b></p>\n                    <p>This is the bee that you just saw.</p>\n                    <img src=\"bees-with-color/bee-A1DM.svg\" width=\"200\">\n                    <p><span class=\"redText\">Bad choice, the bee was angry.</span><br><b>You have been stung!</b><br>Your pay has been decreased by $0.10. Your bonus pay is now $0.38.</p>\n            ","response":0,"trial_type":"html-button-response","trial_index":38,"time_elapsed":1050645,"internal_node_id":"0.0-4.0-1.15","subject_id":"60204458e6a42863349abc9f","study_id":"60edd13110225f80f9f3709b","session_id":"6196c705a09b54374f131c3d","condition":"full-information","relevant_dimensions":["pattern","legs"],"bee_group":{"antennae":"X","wings":"X","pattern":"D","legs":"M"},"bonus":1.4800000000000013},{"rt":19469.099999999627,"stimulus":"bees-with-color/bee-B1DF.svg","response":0,"trial_type":"image-button-response","trial_index":39,"time_elapsed":1070117,"internal_node_id":"0.0-4.0-0.16","subject_id":"60204458e6a42863349abc9f","study_id":"60edd13110225f80f9f3709b","session_id":"6196c705a09b54374f131c3d","condition":"full-information","relevant_dimensions":["pattern","legs"],"bee_group":{"antennae":"X","wings":"X","pattern":"D","legs":"M"},"action":"harvest","summary":"good-harvest","bonus":1.4800000000000013},{"rt":15576.899999999441,"stimulus":"\n                    <p><b>Action: <em>harvest</em></b></p>\n                    <p>This is the bee that you just saw.</p>\n                    <img src=\"bees-with-color/bee-B1DF.svg\" width=\"200\">\n                    <p><span class=\"greenText\"><b>Successful harvest!</b></span><br>Your pay has increased by $0.02. Your bonus pay is now $0.40.</p>\n            ","response":0,"trial_type":"html-button-response","trial_index":40,"time_elapsed":1085699,"internal_node_id":"0.0-4.0-1.16","subject_id":"60204458e6a42863349abc9f","study_id":"60edd13110225f80f9f3709b","session_id":"6196c705a09b54374f131c3d","condition":"full-information","relevant_dimensions":["pattern","legs"],"bee_group":{"antennae":"X","wings":"X","pattern":"D","legs":"M"},"bonus":1.4800000000000013},{"rt":20854.900000000373,"stimulus":"bees-with-color/bee-A2DM.svg","response":1,"trial_type":"image-button-response","trial_index":41,"time_elapsed":1106555,"internal_node_id":"0.0-4.0-0.17","subject_id":"60204458e6a42863349abc9f","study_id":"60edd13110225f80f9f3709b","session_id":"6196c705a09b54374f131c3d","condition":"full-information","relevant_dimensions":["pattern","legs"],"bee_group":{"antennae":"X","wings":"X","pattern":"D","legs":"M"},"action":"avoid","summary":"good-avoid","bonus":1.4800000000000013},{"rt":5205.200000000186,"stimulus":"\n                    <p><b>Action: <em>avoid</em></b></p>\n                    <p>This is the bee that you just saw.</p>\n                    <img src=\"bees-with-color/bee-A2DM.svg\" width=\"200\">\n                    <p><span class=\"greenText\">Good choice!</span>  This bee would have stung you.<br>Your bonus pay is unchanged, and remains at $0.40.</p>\n            ","response":0,"trial_type":"html-button-response","trial_index":42,"time_elapsed":1111762,"internal_node_id":"0.0-4.0-1.17","subject_id":"60204458e6a42863349abc9f","study_id":"60edd13110225f80f9f3709b","session_id":"6196c705a09b54374f131c3d","condition":"full-information","relevant_dimensions":["pattern","legs"],"bee_group":{"antennae":"X","wings":"X","pattern":"D","legs":"M"},"bonus":1.4800000000000013},{"rt":15744.5,"stimulus":"bees-with-color/bee-B2SM.svg","response":0,"trial_type":"image-button-response","trial_index":43,"time_elapsed":1127509,"internal_node_id":"0.0-4.0-0.18","subject_id":"60204458e6a42863349abc9f","study_id":"60edd13110225f80f9f3709b","session_id":"6196c705a09b54374f131c3d","condition":"full-information","relevant_dimensions":["pattern","legs"],"bee_group":{"antennae":"X","wings":"X","pattern":"D","legs":"M"},"action":"harvest","summary":"good-harvest","bonus":1.4800000000000013},{"rt":752.8999999994412,"stimulus":"\n                    <p><b>Action: <em>harvest</em></b></p>\n                    <p>This is the bee that you just saw.</p>\n                    <img src=\"bees-with-color/bee-B2SM.svg\" width=\"200\">\n                    <p><span class=\"greenText\"><b>Successful harvest!</b></span><br>Your pay has increased by $0.02. Your bonus pay is now $0.42.</p>\n            ","response":0,"trial_type":"html-button-response","trial_index":44,"time_elapsed":1128264,"internal_node_id":"0.0-4.0-1.18","subject_id":"60204458e6a42863349abc9f","study_id":"60edd13110225f80f9f3709b","session_id":"6196c705a09b54374f131c3d","condition":"full-information","relevant_dimensions":["pattern","legs"],"bee_group":{"antennae":"X","wings":"X","pattern":"D","legs":"M"},"bonus":1.4800000000000013},{"rt":15260.799999999814,"stimulus":"bees-with-color/bee-A2SM.svg","response":0,"trial_type":"image-button-response","trial_index":45,"time_elapsed":1143526,"internal_node_id":"0.0-4.0-0.19","subject_id":"60204458e6a42863349abc9f","study_id":"60edd13110225f80f9f3709b","session_id":"6196c705a09b54374f131c3d","condition":"full-information","relevant_dimensions":["pattern","legs"],"bee_group":{"antennae":"X","wings":"X","pattern":"D","legs":"M"},"action":"harvest","summary":"good-harvest","bonus":1.4800000000000013},{"rt":1302.3999999994412,"stimulus":"\n                    <p><b>Action: <em>harvest</em></b></p>\n                    <p>This is the bee that you just saw.</p>\n                    <img src=\"bees-with-color/bee-A2SM.svg\" width=\"200\">\n                    <p><span class=\"greenText\"><b>Successful harvest!</b></span><br>Your pay has increased by $0.02. Your bonus pay is now $0.44.</p>\n            ","response":0,"trial_type":"html-button-response","trial_index":46,"time_elapsed":1144830,"internal_node_id":"0.0-4.0-1.19","subject_id":"60204458e6a42863349abc9f","study_id":"60edd13110225f80f9f3709b","session_id":"6196c705a09b54374f131c3d","condition":"full-information","relevant_dimensions":["pattern","legs"],"bee_group":{"antennae":"X","wings":"X","pattern":"D","legs":"M"},"bonus":1.4800000000000013},{"rt":20011.300000000745,"stimulus":"bees-with-color/bee-B2DM.svg","response":0,"trial_type":"image-button-response","trial_index":47,"time_elapsed":1164843,"internal_node_id":"0.0-4.0-0.20","subject_id":"60204458e6a42863349abc9f","study_id":"60edd13110225f80f9f3709b","session_id":"6196c705a09b54374f131c3d","condition":"full-information","relevant_dimensions":["pattern","legs"],"bee_group":{"antennae":"X","wings":"X","pattern":"D","legs":"M"},"action":"harvest","summary":"bad-harvest","bonus":1.4800000000000013},{"rt":3415.4000000003725,"stimulus":"\n                    <p><b>Action: <em>harvest</em></b></p>\n                    <p>This is the bee that you just saw.</p>\n                    <img src=\"bees-with-color/bee-B2DM.svg\" width=\"200\">\n                    <p><span class=\"redText\">Bad choice, the bee was angry.</span><br><b>You have been stung!</b><br>Your pay has been decreased by $0.10. Your bonus pay is now $0.34.</p>\n            ","response":0,"trial_type":"html-button-response","trial_index":48,"time_elapsed":1168260,"internal_node_id":"0.0-4.0-1.20","subject_id":"60204458e6a42863349abc9f","study_id":"60edd13110225f80f9f3709b","session_id":"6196c705a09b54374f131c3d","condition":"full-information","relevant_dimensions":["pattern","legs"],"bee_group":{"antennae":"X","wings":"X","pattern":"D","legs":"M"},"bonus":1.4800000000000013},{"rt":9547.600000000559,"stimulus":"bees-with-color/bee-A1SF.svg","response":0,"trial_type":"image-button-response","trial_index":49,"time_elapsed":1177809,"internal_node_id":"0.0-4.0-0.21","subject_id":"60204458e6a42863349abc9f","study_id":"60edd13110225f80f9f3709b","session_id":"6196c705a09b54374f131c3d","condition":"full-information","relevant_dimensions":["pattern","legs"],"bee_group":{"antennae":"X","wings":"X","pattern":"D","legs":"M"},"action":"harvest","summary":"good-harvest","bonus":1.4800000000000013},{"rt":779.7000000001863,"stimulus":"\n                    <p><b>Action: <em>harvest</em></b></p>\n                    <p>This is the bee that you just saw.</p>\n                    <img src=\"bees-with-color/bee-A1SF.svg\" width=\"200\">\n                    <p><span class=\"greenText\"><b>Successful harvest!</b></span><br>Your pay has increased by $0.02. Your bonus pay is now $0.36.</p>\n            ","response":0,"trial_type":"html-button-response","trial_index":50,"time_elapsed":1178590,"internal_node_id":"0.0-4.0-1.21","subject_id":"60204458e6a42863349abc9f","study_id":"60edd13110225f80f9f3709b","session_id":"6196c705a09b54374f131c3d","condition":"full-information","relevant_dimensions":["pattern","legs"],"bee_group":{"antennae":"X","wings":"X","pattern":"D","legs":"M"},"bonus":1.4800000000000013},{"rt":6272.5999999996275,"stimulus":"bees-with-color/bee-A1DF.svg","response":0,"trial_type":"image-button-response","trial_index":51,"time_elapsed":1184865,"internal_node_id":"0.0-4.0-0.22","subject_id":"60204458e6a42863349abc9f","study_id":"60edd13110225f80f9f3709b","session_id":"6196c705a09b54374f131c3d","condition":"full-information","relevant_dimensions":["pattern","legs"],"bee_group":{"antennae":"X","wings":"X","pattern":"D","legs":"M"},"action":"harvest","summary":"good-harvest","bonus":1.4800000000000013},{"rt":712.0999999996275,"stimulus":"\n                    <p><b>Action: <em>harvest</em></b></p>\n                    <p>This is the bee that you just saw.</p>\n                    <img src=\"bees-with-color/bee-A1DF.svg\" width=\"200\">\n                    <p><span class=\"greenText\"><b>Successful harvest!</b></span><br>Your pay has increased by $0.02. Your bonus pay is now $0.38.</p>\n            ","response":0,"trial_type":"html-button-response","trial_index":52,"time_elapsed":1185578,"internal_node_id":"0.0-4.0-1.22","subject_id":"60204458e6a42863349abc9f","study_id":"60edd13110225f80f9f3709b","session_id":"6196c705a09b54374f131c3d","condition":"full-information","relevant_dimensions":["pattern","legs"],"bee_group":{"antennae":"X","wings":"X","pattern":"D","legs":"M"},"bonus":1.4800000000000013},{"rt":9538.700000000186,"stimulus":"bees-with-color/bee-A1SM.svg","response":0,"trial_type":"image-button-response","trial_index":53,"time_elapsed":1195119,"internal_node_id":"0.0-4.0-0.23","subject_id":"60204458e6a42863349abc9f","study_id":"60edd13110225f80f9f3709b","session_id":"6196c705a09b54374f131c3d","condition":"full-information","relevant_dimensions":["pattern","legs"],"bee_group":{"antennae":"X","wings":"X","pattern":"D","legs":"M"},"action":"harvest","summary":"good-harvest","bonus":1.4800000000000013},{"rt":1308.4000000003725,"stimulus":"\n                    <p><b>Action: <em>harvest</em></b></p>\n                    <p>This is the bee that you just saw.</p>\n                    <img src=\"bees-with-color/bee-A1SM.svg\" width=\"200\">\n                    <p><span class=\"greenText\"><b>Successful harvest!</b></span><br>Your pay has increased by $0.02. Your bonus pay is now $0.40.</p>\n            ","response":0,"trial_type":"html-button-response","trial_index":54,"time_elapsed":1196429,"internal_node_id":"0.0-4.0-1.23","subject_id":"60204458e6a42863349abc9f","study_id":"60edd13110225f80f9f3709b","session_id":"6196c705a09b54374f131c3d","condition":"full-information","relevant_dimensions":["pattern","legs"],"bee_group":{"antennae":"X","wings":"X","pattern":"D","legs":"M"},"bonus":1.4800000000000013},{"rt":7482.299999999814,"stimulus":"bees-with-color/bee-B1SM.svg","response":0,"trial_type":"image-button-response","trial_index":55,"time_elapsed":1203913,"internal_node_id":"0.0-4.0-0.24","subject_id":"60204458e6a42863349abc9f","study_id":"60edd13110225f80f9f3709b","session_id":"6196c705a09b54374f131c3d","condition":"full-information","relevant_dimensions":["pattern","legs"],"bee_group":{"antennae":"X","wings":"X","pattern":"D","legs":"M"},"action":"harvest","summary":"good-harvest","bonus":1.4800000000000013},{"rt":745.5,"stimulus":"\n                    <p><b>Action: <em>harvest</em></b></p>\n                    <p>This is the bee that you just saw.</p>\n                    <img src=\"bees-with-color/bee-B1SM.svg\" width=\"200\">\n                    <p><span class=\"greenText\"><b>Successful harvest!</b></span><br>Your pay has increased by $0.02. Your bonus pay is now $0.42.</p>\n            ","response":0,"trial_type":"html-button-response","trial_index":56,"time_elapsed":1204660,"internal_node_id":"0.0-4.0-1.24","subject_id":"60204458e6a42863349abc9f","study_id":"60edd13110225f80f9f3709b","session_id":"6196c705a09b54374f131c3d","condition":"full-information","relevant_dimensions":["pattern","legs"],"bee_group":{"antennae":"X","wings":"X","pattern":"D","legs":"M"},"bonus":1.4800000000000013},{"rt":10565.400000000373,"stimulus":"bees-with-color/bee-B1DM.svg","response":1,"trial_type":"image-button-response","trial_index":57,"time_elapsed":1215228,"internal_node_id":"0.0-4.0-0.25","subject_id":"60204458e6a42863349abc9f","study_id":"60edd13110225f80f9f3709b","session_id":"6196c705a09b54374f131c3d","condition":"full-information","relevant_dimensions":["pattern","legs"],"bee_group":{"antennae":"X","wings":"X","pattern":"D","legs":"M"},"action":"avoid","summary":"good-avoid","bonus":1.4800000000000013},{"rt":792.2000000001863,"stimulus":"\n                    <p><b>Action: <em>avoid</em></b></p>\n                    <p>This is the bee that you just saw.</p>\n                    <img src=\"bees-with-color/bee-B1DM.svg\" width=\"200\">\n                    <p><span class=\"greenText\">Good choice!</span>  This bee would have stung you.<br>Your bonus pay is unchanged, and remains at $0.42.</p>\n            ","response":0,"trial_type":"html-button-response","trial_index":58,"time_elapsed":1216022,"internal_node_id":"0.0-4.0-1.25","subject_id":"60204458e6a42863349abc9f","study_id":"60edd13110225f80f9f3709b","session_id":"6196c705a09b54374f131c3d","condition":"full-information","relevant_dimensions":["pattern","legs"],"bee_group":{"antennae":"X","wings":"X","pattern":"D","legs":"M"},"bonus":1.4800000000000013},{"rt":9753.299999999814,"stimulus":"bees-with-color/bee-B2SF.svg","response":0,"trial_type":"image-button-response","trial_index":59,"time_elapsed":1225776,"internal_node_id":"0.0-4.0-0.26","subject_id":"60204458e6a42863349abc9f","study_id":"60edd13110225f80f9f3709b","session_id":"6196c705a09b54374f131c3d","condition":"full-information","relevant_dimensions":["pattern","legs"],"bee_group":{"antennae":"X","wings":"X","pattern":"D","legs":"M"},"action":"harvest","summary":"good-harvest","bonus":1.4800000000000013},{"rt":6337.0999999996275,"stimulus":"\n                    <p><b>Action: <em>harvest</em></b></p>\n                    <p>This is the bee that you just saw.</p>\n                    <img src=\"bees-with-color/bee-B2SF.svg\" width=\"200\">\n                    <p><span class=\"greenText\"><b>Successful harvest!</b></span><br>Your pay has increased by $0.02. Your bonus pay is now $0.44.</p>\n            ","response":0,"trial_type":"html-button-response","trial_index":60,"time_elapsed":1232115,"internal_node_id":"0.0-4.0-1.26","subject_id":"60204458e6a42863349abc9f","study_id":"60edd13110225f80f9f3709b","session_id":"6196c705a09b54374f131c3d","condition":"full-information","relevant_dimensions":["pattern","legs"],"bee_group":{"antennae":"X","wings":"X","pattern":"D","legs":"M"},"bonus":1.4800000000000013},{"rt":6497.299999999814,"stimulus":"bees-with-color/bee-B2DF.svg","response":0,"trial_type":"image-button-response","trial_index":61,"time_elapsed":1238614,"internal_node_id":"0.0-4.0-0.27","subject_id":"60204458e6a42863349abc9f","study_id":"60edd13110225f80f9f3709b","session_id":"6196c705a09b54374f131c3d","condition":"full-information","relevant_dimensions":["pattern","legs"],"bee_group":{"antennae":"X","wings":"X","pattern":"D","legs":"M"},"action":"harvest","summary":"good-harvest","bonus":1.4800000000000013},{"rt":634.7999999998137,"stimulus":"\n                    <p><b>Action: <em>harvest</em></b></p>\n                    <p>This is the bee that you just saw.</p>\n                    <img src=\"bees-with-color/bee-B2DF.svg\" width=\"200\">\n                    <p><span class=\"greenText\"><b>Successful harvest!</b></span><br>Your pay has increased by $0.02. Your bonus pay is now $0.46.</p>\n            ","response":0,"trial_type":"html-button-response","trial_index":62,"time_elapsed":1239250,"internal_node_id":"0.0-4.0-1.27","subject_id":"60204458e6a42863349abc9f","study_id":"60edd13110225f80f9f3709b","session_id":"6196c705a09b54374f131c3d","condition":"full-information","relevant_dimensions":["pattern","legs"],"bee_group":{"antennae":"X","wings":"X","pattern":"D","legs":"M"},"bonus":1.4800000000000013},{"rt":13272.299999999814,"stimulus":"bees-with-color/bee-A2SF.svg","response":0,"trial_type":"image-button-response","trial_index":63,"time_elapsed":1252524,"internal_node_id":"0.0-4.0-0.28","subject_id":"60204458e6a42863349abc9f","study_id":"60edd13110225f80f9f3709b","session_id":"6196c705a09b54374f131c3d","condition":"full-information","relevant_dimensions":["pattern","legs"],"bee_group":{"antennae":"X","wings":"X","pattern":"D","legs":"M"},"action":"harvest","summary":"good-harvest","bonus":1.4800000000000013},{"rt":607.2000000001863,"stimulus":"\n                    <p><b>Action: <em>harvest</em></b></p>\n                    <p>This is the bee that you just saw.</p>\n                    <img src=\"bees-with-color/bee-A2SF.svg\" width=\"200\">\n                    <p><span class=\"greenText\"><b>Successful harvest!</b></span><br>Your pay has increased by $0.02. Your bonus pay is now $0.48.</p>\n            ","response":0,"trial_type":"html-button-response","trial_index":64,"time_elapsed":1253133,"internal_node_id":"0.0-4.0-1.28","subject_id":"60204458e6a42863349abc9f","study_id":"60edd13110225f80f9f3709b","session_id":"6196c705a09b54374f131c3d","condition":"full-information","relevant_dimensions":["pattern","legs"],"bee_group":{"antennae":"X","wings":"X","pattern":"D","legs":"M"},"bonus":1.4800000000000013},{"rt":16529.099999999627,"stimulus":"bees-with-color/bee-A1DM.svg","response":1,"trial_type":"image-button-response","trial_index":65,"time_elapsed":1269665,"internal_node_id":"0.0-4.0-0.29","subject_id":"60204458e6a42863349abc9f","study_id":"60edd13110225f80f9f3709b","session_id":"6196c705a09b54374f131c3d","condition":"full-information","relevant_dimensions":["pattern","legs"],"bee_group":{"antennae":"X","wings":"X","pattern":"D","legs":"M"},"action":"avoid","summary":"good-avoid","bonus":1.4800000000000013},{"rt":1948.9000000003725,"stimulus":"\n                    <p><b>Action: <em>avoid</em></b></p>\n                    <p>This is the bee that you just saw.</p>\n                    <img src=\"bees-with-color/bee-A1DM.svg\" width=\"200\">\n                    <p><span class=\"greenText\">Good choice!</span>  This bee would have stung you.<br>Your bonus pay is unchanged, and remains at $0.48.</p>\n            ","response":0,"trial_type":"html-button-response","trial_index":66,"time_elapsed":1271615,"internal_node_id":"0.0-4.0-1.29","subject_id":"60204458e6a42863349abc9f","study_id":"60edd13110225f80f9f3709b","session_id":"6196c705a09b54374f131c3d","condition":"full-information","relevant_dimensions":["pattern","legs"],"bee_group":{"antennae":"X","wings":"X","pattern":"D","legs":"M"},"bonus":1.4800000000000013},{"rt":8313.600000000559,"stimulus":"bees-with-color/bee-A2DF.svg","response":0,"trial_type":"image-button-response","trial_index":67,"time_elapsed":1279930,"internal_node_id":"0.0-4.0-0.30","subject_id":"60204458e6a42863349abc9f","study_id":"60edd13110225f80f9f3709b","session_id":"6196c705a09b54374f131c3d","condition":"full-information","relevant_dimensions":["pattern","legs"],"bee_group":{"antennae":"X","wings":"X","pattern":"D","legs":"M"},"action":"harvest","summary":"good-harvest","bonus":1.4800000000000013},{"rt":6389.700000000186,"stimulus":"\n                    <p><b>Action: <em>harvest</em></b></p>\n                    <p>This is the bee that you just saw.</p>\n                    <img src=\"bees-with-color/bee-A2DF.svg\" width=\"200\">\n                    <p><span class=\"greenText\"><b>Successful harvest!</b></span><br>Your pay has increased by $0.02. Your bonus pay is now $0.50.</p>\n            ","response":0,"trial_type":"html-button-response","trial_index":68,"time_elapsed":1286322,"internal_node_id":"0.0-4.0-1.30","subject_id":"60204458e6a42863349abc9f","study_id":"60edd13110225f80f9f3709b","session_id":"6196c705a09b54374f131c3d","condition":"full-information","relevant_dimensions":["pattern","legs"],"bee_group":{"antennae":"X","wings":"X","pattern":"D","legs":"M"},"bonus":1.4800000000000013},{"rt":18132.900000000373,"stimulus":"bees-with-color/bee-B1SF.svg","response":0,"trial_type":"image-button-response","trial_index":69,"time_elapsed":1304456,"internal_node_id":"0.0-4.0-0.31","subject_id":"60204458e6a42863349abc9f","study_id":"60edd13110225f80f9f3709b","session_id":"6196c705a09b54374f131c3d","condition":"full-information","relevant_dimensions":["pattern","legs"],"bee_group":{"antennae":"X","wings":"X","pattern":"D","legs":"M"},"action":"harvest","summary":"good-harvest","bonus":1.4800000000000013},{"rt":805.1000000005588,"stimulus":"\n                    <p><b>Action: <em>harvest</em></b></p>\n                    <p>This is the bee that you just saw.</p>\n                    <img src=\"bees-with-color/bee-B1SF.svg\" width=\"200\">\n                    <p><span class=\"greenText\"><b>Successful harvest!</b></span><br>Your pay has increased by $0.02. Your bonus pay is now $0.52.</p>\n            ","response":0,"trial_type":"html-button-response","trial_index":70,"time_elapsed":1305263,"internal_node_id":"0.0-4.0-1.31","subject_id":"60204458e6a42863349abc9f","study_id":"60edd13110225f80f9f3709b","session_id":"6196c705a09b54374f131c3d","condition":"full-information","relevant_dimensions":["pattern","legs"],"bee_group":{"antennae":"X","wings":"X","pattern":"D","legs":"M"},"bonus":1.4800000000000013},{"rt":32940.90000000037,"stimulus":"bees-with-color/bee-A2DF.svg","response":0,"trial_type":"image-button-response","trial_index":71,"time_elapsed":1338207,"internal_node_id":"0.0-4.0-0.32","subject_id":"60204458e6a42863349abc9f","study_id":"60edd13110225f80f9f3709b","session_id":"6196c705a09b54374f131c3d","condition":"full-information","relevant_dimensions":["pattern","legs"],"bee_group":{"antennae":"X","wings":"X","pattern":"D","legs":"M"},"action":"harvest","summary":"good-harvest","bonus":1.4800000000000013},{"rt":803.3999999994412,"stimulus":"\n                    <p><b>Action: <em>harvest</em></b></p>\n                    <p>This is the bee that you just saw.</p>\n                    <img src=\"bees-with-color/bee-A2DF.svg\" width=\"200\">\n                    <p><span class=\"greenText\"><b>Successful harvest!</b></span><br>Your pay has increased by $0.02. Your bonus pay is now $0.54.</p>\n            ","response":0,"trial_type":"html-button-response","trial_index":72,"time_elapsed":1339012,"internal_node_id":"0.0-4.0-1.32","subject_id":"60204458e6a42863349abc9f","study_id":"60edd13110225f80f9f3709b","session_id":"6196c705a09b54374f131c3d","condition":"full-information","relevant_dimensions":["pattern","legs"],"bee_group":{"antennae":"X","wings":"X","pattern":"D","legs":"M"},"bonus":1.4800000000000013},{"rt":628.3000000007451,"stimulus":"bees-with-color/bee-B1SF.svg","response":0,"trial_type":"image-button-response","trial_index":73,"time_elapsed":1339642,"internal_node_id":"0.0-4.0-0.33","subject_id":"60204458e6a42863349abc9f","study_id":"60edd13110225f80f9f3709b","session_id":"6196c705a09b54374f131c3d","condition":"full-information","relevant_dimensions":["pattern","legs"],"bee_group":{"antennae":"X","wings":"X","pattern":"D","legs":"M"},"action":"harvest","summary":"good-harvest","bonus":1.4800000000000013},{"rt":520.0999999996275,"stimulus":"\n                    <p><b>Action: <em>harvest</em></b></p>\n                    <p>This is the bee that you just saw.</p>\n                    <img src=\"bees-with-color/bee-B1SF.svg\" width=\"200\">\n                    <p><span class=\"greenText\"><b>Successful harvest!</b></span><br>Your pay has increased by $0.02. Your bonus pay is now $0.56.</p>\n            ","response":0,"trial_type":"html-button-response","trial_index":74,"time_elapsed":1340165,"internal_node_id":"0.0-4.0-1.33","subject_id":"60204458e6a42863349abc9f","study_id":"60edd13110225f80f9f3709b","session_id":"6196c705a09b54374f131c3d","condition":"full-information","relevant_dimensions":["pattern","legs"],"bee_group":{"antennae":"X","wings":"X","pattern":"D","legs":"M"},"bonus":1.4800000000000013},{"rt":10719.400000000373,"stimulus":"bees-with-color/bee-A2DM.svg","response":1,"trial_type":"image-button-response","trial_index":75,"time_elapsed":1350885,"internal_node_id":"0.0-4.0-0.34","subject_id":"60204458e6a42863349abc9f","study_id":"60edd13110225f80f9f3709b","session_id":"6196c705a09b54374f131c3d","condition":"full-information","relevant_dimensions":["pattern","legs"],"bee_group":{"antennae":"X","wings":"X","pattern":"D","legs":"M"},"action":"avoid","summary":"good-avoid","bonus":1.4800000000000013},{"rt":805.7000000001863,"stimulus":"\n                    <p><b>Action: <em>avoid</em></b></p>\n                    <p>This is the bee that you just saw.</p>\n                    <img src=\"bees-with-color/bee-A2DM.svg\" width=\"200\">\n                    <p><span class=\"greenText\">Good choice!</span>  This bee would have stung you.<br>Your bonus pay is unchanged, and remains at $0.56.</p>\n            ","response":0,"trial_type":"html-button-response","trial_index":76,"time_elapsed":1351693,"internal_node_id":"0.0-4.0-1.34","subject_id":"60204458e6a42863349abc9f","study_id":"60edd13110225f80f9f3709b","session_id":"6196c705a09b54374f131c3d","condition":"full-information","relevant_dimensions":["pattern","legs"],"bee_group":{"antennae":"X","wings":"X","pattern":"D","legs":"M"},"bonus":1.4800000000000013},{"rt":821.5999999996275,"stimulus":"bees-with-color/bee-B2SF.svg","response":0,"trial_type":"image-button-response","trial_index":77,"time_elapsed":1352517,"internal_node_id":"0.0-4.0-0.35","subject_id":"60204458e6a42863349abc9f","study_id":"60edd13110225f80f9f3709b","session_id":"6196c705a09b54374f131c3d","condition":"full-information","relevant_dimensions":["pattern","legs"],"bee_group":{"antennae":"X","wings":"X","pattern":"D","legs":"M"},"action":"harvest","summary":"good-harvest","bonus":1.4800000000000013},{"rt":496.90000000037253,"stimulus":"\n                    <p><b>Action: <em>harvest</em></b></p>\n                    <p>This is the bee that you just saw.</p>\n                    <img src=\"bees-with-color/bee-B2SF.svg\" width=\"200\">\n                    <p><span class=\"greenText\"><b>Successful harvest!</b></span><br>Your pay has increased by $0.02. Your bonus pay is now $0.58.</p>\n            ","response":0,"trial_type":"html-button-response","trial_index":78,"time_elapsed":1353016,"internal_node_id":"0.0-4.0-1.35","subject_id":"60204458e6a42863349abc9f","study_id":"60edd13110225f80f9f3709b","session_id":"6196c705a09b54374f131c3d","condition":"full-information","relevant_dimensions":["pattern","legs"],"bee_group":{"antennae":"X","wings":"X","pattern":"D","legs":"M"},"bonus":1.4800000000000013},{"rt":1474.8999999994412,"stimulus":"bees-with-color/bee-A2SF.svg","response":0,"trial_type":"image-button-response","trial_index":79,"time_elapsed":1354493,"internal_node_id":"0.0-4.0-0.36","subject_id":"60204458e6a42863349abc9f","study_id":"60edd13110225f80f9f3709b","session_id":"6196c705a09b54374f131c3d","condition":"full-information","relevant_dimensions":["pattern","legs"],"bee_group":{"antennae":"X","wings":"X","pattern":"D","legs":"M"},"action":"harvest","summary":"good-harvest","bonus":1.4800000000000013},{"rt":476,"stimulus":"\n                    <p><b>Action: <em>harvest</em></b></p>\n                    <p>This is the bee that you just saw.</p>\n                    <img src=\"bees-with-color/bee-A2SF.svg\" width=\"200\">\n                    <p><span class=\"greenText\"><b>Successful harvest!</b></span><br>Your pay has increased by $0.02. Your bonus pay is now $0.60.</p>\n            ","response":0,"trial_type":"html-button-response","trial_index":80,"time_elapsed":1354970,"internal_node_id":"0.0-4.0-1.36","subject_id":"60204458e6a42863349abc9f","study_id":"60edd13110225f80f9f3709b","session_id":"6196c705a09b54374f131c3d","condition":"full-information","relevant_dimensions":["pattern","legs"],"bee_group":{"antennae":"X","wings":"X","pattern":"D","legs":"M"},"bonus":1.4800000000000013},{"rt":8209.900000000373,"stimulus":"bees-with-color/bee-A1SM.svg","response":0,"trial_type":"image-button-response","trial_index":81,"time_elapsed":1363181,"internal_node_id":"0.0-4.0-0.37","subject_id":"60204458e6a42863349abc9f","study_id":"60edd13110225f80f9f3709b","session_id":"6196c705a09b54374f131c3d","condition":"full-information","relevant_dimensions":["pattern","legs"],"bee_group":{"antennae":"X","wings":"X","pattern":"D","legs":"M"},"action":"harvest","summary":"good-harvest","bonus":1.4800000000000013},{"rt":713.2000000001863,"stimulus":"\n                    <p><b>Action: <em>harvest</em></b></p>\n                    <p>This is the bee that you just saw.</p>\n                    <img src=\"bees-with-color/bee-A1SM.svg\" width=\"200\">\n                    <p><span class=\"greenText\"><b>Successful harvest!</b></span><br>Your pay has increased by $0.02. Your bonus pay is now $0.62.</p>\n            ","response":0,"trial_type":"html-button-response","trial_index":82,"time_elapsed":1363896,"internal_node_id":"0.0-4.0-1.37","subject_id":"60204458e6a42863349abc9f","study_id":"60edd13110225f80f9f3709b","session_id":"6196c705a09b54374f131c3d","condition":"full-information","relevant_dimensions":["pattern","legs"],"bee_group":{"antennae":"X","wings":"X","pattern":"D","legs":"M"},"bonus":1.4800000000000013},{"rt":750.2000000001863,"stimulus":"bees-with-color/bee-A1DF.svg","response":0,"trial_type":"image-button-response","trial_index":83,"time_elapsed":1364647,"internal_node_id":"0.0-4.0-0.38","subject_id":"60204458e6a42863349abc9f","study_id":"60edd13110225f80f9f3709b","session_id":"6196c705a09b54374f131c3d","condition":"full-information","relevant_dimensions":["pattern","legs"],"bee_group":{"antennae":"X","wings":"X","pattern":"D","legs":"M"},"action":"harvest","summary":"good-harvest","bonus":1.4800000000000013},{"rt":672.3000000007451,"stimulus":"\n                    <p><b>Action: <em>harvest</em></b></p>\n                    <p>This is the bee that you just saw.</p>\n                    <img src=\"bees-with-color/bee-A1DF.svg\" width=\"200\">\n                    <p><span class=\"greenText\"><b>Successful harvest!</b></span><br>Your pay has increased by $0.02. Your bonus pay is now $0.64.</p>\n            ","response":0,"trial_type":"html-button-response","trial_index":84,"time_elapsed":1365323,"internal_node_id":"0.0-4.0-1.38","subject_id":"60204458e6a42863349abc9f","study_id":"60edd13110225f80f9f3709b","session_id":"6196c705a09b54374f131c3d","condition":"full-information","relevant_dimensions":["pattern","legs"],"bee_group":{"antennae":"X","wings":"X","pattern":"D","legs":"M"},"bonus":1.4800000000000013},{"rt":34718.800000000745,"stimulus":"bees-with-color/bee-B2DM.svg","response":1,"trial_type":"image-button-response","trial_index":85,"time_elapsed":1400043,"internal_node_id":"0.0-4.0-0.39","subject_id":"60204458e6a42863349abc9f","study_id":"60edd13110225f80f9f3709b","session_id":"6196c705a09b54374f131c3d","condition":"full-information","relevant_dimensions":["pattern","legs"],"bee_group":{"antennae":"X","wings":"X","pattern":"D","legs":"M"},"action":"avoid","summary":"good-avoid","bonus":1.4800000000000013},{"rt":557.7999999998137,"stimulus":"\n                    <p><b>Action: <em>avoid</em></b></p>\n                    <p>This is the bee that you just saw.</p>\n                    <img src=\"bees-with-color/bee-B2DM.svg\" width=\"200\">\n                    <p><span class=\"greenText\">Good choice!</span>  This bee would have stung you.<br>Your bonus pay is unchanged, and remains at $0.64.</p>\n            ","response":0,"trial_type":"html-button-response","trial_index":86,"time_elapsed":1400603,"internal_node_id":"0.0-4.0-1.39","subject_id":"60204458e6a42863349abc9f","study_id":"60edd13110225f80f9f3709b","session_id":"6196c705a09b54374f131c3d","condition":"full-information","relevant_dimensions":["pattern","legs"],"bee_group":{"antennae":"X","wings":"X","pattern":"D","legs":"M"},"bonus":1.4800000000000013},{"rt":719.2999999998137,"stimulus":"bees-with-color/bee-A1SF.svg","response":0,"trial_type":"image-button-response","trial_index":87,"time_elapsed":1401324,"internal_node_id":"0.0-4.0-0.40","subject_id":"60204458e6a42863349abc9f","study_id":"60edd13110225f80f9f3709b","session_id":"6196c705a09b54374f131c3d","condition":"full-information","relevant_dimensions":["pattern","legs"],"bee_group":{"antennae":"X","wings":"X","pattern":"D","legs":"M"},"action":"harvest","summary":"good-harvest","bonus":1.4800000000000013},{"rt":494.70000000018626,"stimulus":"\n                    <p><b>Action: <em>harvest</em></b></p>\n                    <p>This is the bee that you just saw.</p>\n                    <img src=\"bees-with-color/bee-A1SF.svg\" width=\"200\">\n                    <p><span class=\"greenText\"><b>Successful harvest!</b></span><br>Your pay has increased by $0.02. Your bonus pay is now $0.66.</p>\n            ","response":0,"trial_type":"html-button-response","trial_index":88,"time_elapsed":1401820,"internal_node_id":"0.0-4.0-1.40","subject_id":"60204458e6a42863349abc9f","study_id":"60edd13110225f80f9f3709b","session_id":"6196c705a09b54374f131c3d","condition":"full-information","relevant_dimensions":["pattern","legs"],"bee_group":{"antennae":"X","wings":"X","pattern":"D","legs":"M"},"bonus":1.4800000000000013},{"rt":9996.5,"stimulus":"bees-with-color/bee-B1DM.svg","response":1,"trial_type":"image-button-response","trial_index":89,"time_elapsed":1411818,"internal_node_id":"0.0-4.0-0.41","subject_id":"60204458e6a42863349abc9f","study_id":"60edd13110225f80f9f3709b","session_id":"6196c705a09b54374f131c3d","condition":"full-information","relevant_dimensions":["pattern","legs"],"bee_group":{"antennae":"X","wings":"X","pattern":"D","legs":"M"},"action":"avoid","summary":"good-avoid","bonus":1.4800000000000013},{"rt":712.6000000005588,"stimulus":"\n                    <p><b>Action: <em>avoid</em></b></p>\n                    <p>This is the bee that you just saw.</p>\n                    <img src=\"bees-with-color/bee-B1DM.svg\" width=\"200\">\n                    <p><span class=\"greenText\">Good choice!</span>  This bee would have stung you.<br>Your bonus pay is unchanged, and remains at $0.66.</p>\n            ","response":0,"trial_type":"html-button-response","trial_index":90,"time_elapsed":1412533,"internal_node_id":"0.0-4.0-1.41","subject_id":"60204458e6a42863349abc9f","study_id":"60edd13110225f80f9f3709b","session_id":"6196c705a09b54374f131c3d","condition":"full-information","relevant_dimensions":["pattern","legs"],"bee_group":{"antennae":"X","wings":"X","pattern":"D","legs":"M"},"bonus":1.4800000000000013},{"rt":1432.2999999998137,"stimulus":"bees-with-color/bee-B1DF.svg","response":0,"trial_type":"image-button-response","trial_index":91,"time_elapsed":1413967,"internal_node_id":"0.0-4.0-0.42","subject_id":"60204458e6a42863349abc9f","study_id":"60edd13110225f80f9f3709b","session_id":"6196c705a09b54374f131c3d","condition":"full-information","relevant_dimensions":["pattern","legs"],"bee_group":{"antennae":"X","wings":"X","pattern":"D","legs":"M"},"action":"harvest","summary":"good-harvest","bonus":1.4800000000000013},{"rt":487.09999999962747,"stimulus":"\n                    <p><b>Action: <em>harvest</em></b></p>\n                    <p>This is the bee that you just saw.</p>\n                    <img src=\"bees-with-color/bee-B1DF.svg\" width=\"200\">\n                    <p><span class=\"greenText\"><b>Successful harvest!</b></span><br>Your pay has increased by $0.02. Your bonus pay is now $0.68.</p>\n            ","response":0,"trial_type":"html-button-response","trial_index":92,"time_elapsed":1414456,"internal_node_id":"0.0-4.0-1.42","subject_id":"60204458e6a42863349abc9f","study_id":"60edd13110225f80f9f3709b","session_id":"6196c705a09b54374f131c3d","condition":"full-information","relevant_dimensions":["pattern","legs"],"bee_group":{"antennae":"X","wings":"X","pattern":"D","legs":"M"},"bonus":1.4800000000000013},{"rt":1682.300000000745,"stimulus":"bees-with-color/bee-A2SM.svg","response":0,"trial_type":"image-button-response","trial_index":93,"time_elapsed":1416140,"internal_node_id":"0.0-4.0-0.43","subject_id":"60204458e6a42863349abc9f","study_id":"60edd13110225f80f9f3709b","session_id":"6196c705a09b54374f131c3d","condition":"full-information","relevant_dimensions":["pattern","legs"],"bee_group":{"antennae":"X","wings":"X","pattern":"D","legs":"M"},"action":"harvest","summary":"good-harvest","bonus":1.4800000000000013},{"rt":431.59999999962747,"stimulus":"\n                    <p><b>Action: <em>harvest</em></b></p>\n                    <p>This is the bee that you just saw.</p>\n                    <img src=\"bees-with-color/bee-A2SM.svg\" width=\"200\">\n                    <p><span class=\"greenText\"><b>Successful harvest!</b></span><br>Your pay has increased by $0.02. Your bonus pay is now $0.70.</p>\n            ","response":0,"trial_type":"html-button-response","trial_index":94,"time_elapsed":1416573,"internal_node_id":"0.0-4.0-1.43","subject_id":"60204458e6a42863349abc9f","study_id":"60edd13110225f80f9f3709b","session_id":"6196c705a09b54374f131c3d","condition":"full-information","relevant_dimensions":["pattern","legs"],"bee_group":{"antennae":"X","wings":"X","pattern":"D","legs":"M"},"bonus":1.4800000000000013},{"rt":1043.5,"stimulus":"bees-with-color/bee-B2DF.svg","response":0,"trial_type":"image-button-response","trial_index":95,"time_elapsed":1417618,"internal_node_id":"0.0-4.0-0.44","subject_id":"60204458e6a42863349abc9f","study_id":"60edd13110225f80f9f3709b","session_id":"6196c705a09b54374f131c3d","condition":"full-information","relevant_dimensions":["pattern","legs"],"bee_group":{"antennae":"X","wings":"X","pattern":"D","legs":"M"},"action":"harvest","summary":"good-harvest","bonus":1.4800000000000013},{"rt":496.29999999981374,"stimulus":"\n                    <p><b>Action: <em>harvest</em></b></p>\n                    <p>This is the bee that you just saw.</p>\n                    <img src=\"bees-with-color/bee-B2DF.svg\" width=\"200\">\n                    <p><span class=\"greenText\"><b>Successful harvest!</b></span><br>Your pay has increased by $0.02. Your bonus pay is now $0.72.</p>\n            ","response":0,"trial_type":"html-button-response","trial_index":96,"time_elapsed":1418116,"internal_node_id":"0.0-4.0-1.44","subject_id":"60204458e6a42863349abc9f","study_id":"60edd13110225f80f9f3709b","session_id":"6196c705a09b54374f131c3d","condition":"full-information","relevant_dimensions":["pattern","legs"],"bee_group":{"antennae":"X","wings":"X","pattern":"D","legs":"M"},"bonus":1.4800000000000013},{"rt":1278.2999999998137,"stimulus":"bees-with-color/bee-B2SM.svg","response":0,"trial_type":"image-button-response","trial_index":97,"time_elapsed":1419396,"internal_node_id":"0.0-4.0-0.45","subject_id":"60204458e6a42863349abc9f","study_id":"60edd13110225f80f9f3709b","session_id":"6196c705a09b54374f131c3d","condition":"full-information","relevant_dimensions":["pattern","legs"],"bee_group":{"antennae":"X","wings":"X","pattern":"D","legs":"M"},"action":"harvest","summary":"good-harvest","bonus":1.4800000000000013},{"rt":428.20000000018626,"stimulus":"\n                    <p><b>Action: <em>harvest</em></b></p>\n                    <p>This is the bee that you just saw.</p>\n                    <img src=\"bees-with-color/bee-B2SM.svg\" width=\"200\">\n                    <p><span class=\"greenText\"><b>Successful harvest!</b></span><br>Your pay has increased by $0.02. Your bonus pay is now $0.74.</p>\n            ","response":0,"trial_type":"html-button-response","trial_index":98,"time_elapsed":1419826,"internal_node_id":"0.0-4.0-1.45","subject_id":"60204458e6a42863349abc9f","study_id":"60edd13110225f80f9f3709b","session_id":"6196c705a09b54374f131c3d","condition":"full-information","relevant_dimensions":["pattern","legs"],"bee_group":{"antennae":"X","wings":"X","pattern":"D","legs":"M"},"bonus":1.4800000000000013},{"rt":970.6000000005588,"stimulus":"bees-with-color/bee-B1SM.svg","response":0,"trial_type":"image-button-response","trial_index":99,"time_elapsed":1420798,"internal_node_id":"0.0-4.0-0.46","subject_id":"60204458e6a42863349abc9f","study_id":"60edd13110225f80f9f3709b","session_id":"6196c705a09b54374f131c3d","condition":"full-information","relevant_dimensions":["pattern","legs"],"bee_group":{"antennae":"X","wings":"X","pattern":"D","legs":"M"},"action":"harvest","summary":"good-harvest","bonus":1.4800000000000013},{"rt":375,"stimulus":"\n                    <p><b>Action: <em>harvest</em></b></p>\n                    <p>This is the bee that you just saw.</p>\n                    <img src=\"bees-with-color/bee-B1SM.svg\" width=\"200\">\n                    <p><span class=\"greenText\"><b>Successful harvest!</b></span><br>Your pay has increased by $0.02. Your bonus pay is now $0.76.</p>\n            ","response":0,"trial_type":"html-button-response","trial_index":100,"time_elapsed":1421174,"internal_node_id":"0.0-4.0-1.46","subject_id":"60204458e6a42863349abc9f","study_id":"60edd13110225f80f9f3709b","session_id":"6196c705a09b54374f131c3d","condition":"full-information","relevant_dimensions":["pattern","legs"],"bee_group":{"antennae":"X","wings":"X","pattern":"D","legs":"M"},"bonus":1.4800000000000013},{"rt":1739.2999999998137,"stimulus":"bees-with-color/bee-A1DM.svg","response":1,"trial_type":"image-button-response","trial_index":101,"time_elapsed":1422915,"internal_node_id":"0.0-4.0-0.47","subject_id":"60204458e6a42863349abc9f","study_id":"60edd13110225f80f9f3709b","session_id":"6196c705a09b54374f131c3d","condition":"full-information","relevant_dimensions":["pattern","legs"],"bee_group":{"antennae":"X","wings":"X","pattern":"D","legs":"M"},"action":"avoid","summary":"good-avoid","bonus":1.4800000000000013},{"rt":600.2999999998137,"stimulus":"\n                    <p><b>Action: <em>avoid</em></b></p>\n                    <p>This is the bee that you just saw.</p>\n                    <img src=\"bees-with-color/bee-A1DM.svg\" width=\"200\">\n                    <p><span class=\"greenText\">Good choice!</span>  This bee would have stung you.<br>Your bonus pay is unchanged, and remains at $0.76.</p>\n            ","response":0,"trial_type":"html-button-response","trial_index":102,"time_elapsed":1423517,"internal_node_id":"0.0-4.0-1.47","subject_id":"60204458e6a42863349abc9f","study_id":"60edd13110225f80f9f3709b","session_id":"6196c705a09b54374f131c3d","condition":"full-information","relevant_dimensions":["pattern","legs"],"bee_group":{"antennae":"X","wings":"X","pattern":"D","legs":"M"},"bonus":1.4800000000000013},{"rt":1089.7999999998137,"stimulus":"bees-with-color/bee-A2SM.svg","response":0,"trial_type":"image-button-response","trial_index":103,"time_elapsed":1424608,"internal_node_id":"0.0-4.0-0.48","subject_id":"60204458e6a42863349abc9f","study_id":"60edd13110225f80f9f3709b","session_id":"6196c705a09b54374f131c3d","condition":"full-information","relevant_dimensions":["pattern","legs"],"bee_group":{"antennae":"X","wings":"X","pattern":"D","legs":"M"},"action":"harvest","summary":"good-harvest","bonus":1.4800000000000013},{"rt":551,"stimulus":"\n                    <p><b>Action: <em>harvest</em></b></p>\n                    <p>This is the bee that you just saw.</p>\n                    <img src=\"bees-with-color/bee-A2SM.svg\" width=\"200\">\n                    <p><span class=\"greenText\"><b>Successful harvest!</b></span><br>Your pay has increased by $0.02. Your bonus pay is now $0.78.</p>\n            ","response":0,"trial_type":"html-button-response","trial_index":104,"time_elapsed":1425161,"internal_node_id":"0.0-4.0-1.48","subject_id":"60204458e6a42863349abc9f","study_id":"60edd13110225f80f9f3709b","session_id":"6196c705a09b54374f131c3d","condition":"full-information","relevant_dimensions":["pattern","legs"],"bee_group":{"antennae":"X","wings":"X","pattern":"D","legs":"M"},"bonus":1.4800000000000013},{"rt":8582.600000000559,"stimulus":"bees-with-color/bee-B1SF.svg","response":0,"trial_type":"image-button-response","trial_index":105,"time_elapsed":1433745,"internal_node_id":"0.0-4.0-0.49","subject_id":"60204458e6a42863349abc9f","study_id":"60edd13110225f80f9f3709b","session_id":"6196c705a09b54374f131c3d","condition":"full-information","relevant_dimensions":["pattern","legs"],"bee_group":{"antennae":"X","wings":"X","pattern":"D","legs":"M"},"action":"harvest","summary":"good-harvest","bonus":1.4800000000000013},{"rt":520.5999999996275,"stimulus":"\n                    <p><b>Action: <em>harvest</em></b></p>\n                    <p>This is the bee that you just saw.</p>\n                    <img src=\"bees-with-color/bee-B1SF.svg\" width=\"200\">\n                    <p><span class=\"greenText\"><b>Successful harvest!</b></span><br>Your pay has increased by $0.02. Your bonus pay is now $0.80.</p>\n            ","response":0,"trial_type":"html-button-response","trial_index":106,"time_elapsed":1434268,"internal_node_id":"0.0-4.0-1.49","subject_id":"60204458e6a42863349abc9f","study_id":"60edd13110225f80f9f3709b","session_id":"6196c705a09b54374f131c3d","condition":"full-information","relevant_dimensions":["pattern","legs"],"bee_group":{"antennae":"X","wings":"X","pattern":"D","legs":"M"},"bonus":1.4800000000000013},{"rt":1354,"stimulus":"bees-with-color/bee-A1DM.svg","response":1,"trial_type":"image-button-response","trial_index":107,"time_elapsed":1435624,"internal_node_id":"0.0-4.0-0.50","subject_id":"60204458e6a42863349abc9f","study_id":"60edd13110225f80f9f3709b","session_id":"6196c705a09b54374f131c3d","condition":"full-information","relevant_dimensions":["pattern","legs"],"bee_group":{"antennae":"X","wings":"X","pattern":"D","legs":"M"},"action":"avoid","summary":"good-avoid","bonus":1.4800000000000013},{"rt":409.20000000018626,"stimulus":"\n                    <p><b>Action: <em>avoid</em></b></p>\n                    <p>This is the bee that you just saw.</p>\n                    <img src=\"bees-with-color/bee-A1DM.svg\" width=\"200\">\n                    <p><span class=\"greenText\">Good choice!</span>  This bee would have stung you.<br>Your bonus pay is unchanged, and remains at $0.80.</p>\n            ","response":0,"trial_type":"html-button-response","trial_index":108,"time_elapsed":1436036,"internal_node_id":"0.0-4.0-1.50","subject_id":"60204458e6a42863349abc9f","study_id":"60edd13110225f80f9f3709b","session_id":"6196c705a09b54374f131c3d","condition":"full-information","relevant_dimensions":["pattern","legs"],"bee_group":{"antennae":"X","wings":"X","pattern":"D","legs":"M"},"bonus":1.4800000000000013},{"rt":1480.2999999998137,"stimulus":"bees-with-color/bee-A1DF.svg","response":0,"trial_type":"image-button-response","trial_index":109,"time_elapsed":1437518,"internal_node_id":"0.0-4.0-0.51","subject_id":"60204458e6a42863349abc9f","study_id":"60edd13110225f80f9f3709b","session_id":"6196c705a09b54374f131c3d","condition":"full-information","relevant_dimensions":["pattern","legs"],"bee_group":{"antennae":"X","wings":"X","pattern":"D","legs":"M"},"action":"harvest","summary":"good-harvest","bonus":1.4800000000000013},{"rt":462.3999999994412,"stimulus":"\n                    <p><b>Action: <em>harvest</em></b></p>\n                    <p>This is the bee that you just saw.</p>\n                    <img src=\"bees-with-color/bee-A1DF.svg\" width=\"200\">\n                    <p><span class=\"greenText\"><b>Successful harvest!</b></span><br>Your pay has increased by $0.02. Your bonus pay is now $0.82.</p>\n            ","response":0,"trial_type":"html-button-response","trial_index":110,"time_elapsed":1437982,"internal_node_id":"0.0-4.0-1.51","subject_id":"60204458e6a42863349abc9f","study_id":"60edd13110225f80f9f3709b","session_id":"6196c705a09b54374f131c3d","condition":"full-information","relevant_dimensions":["pattern","legs"],"bee_group":{"antennae":"X","wings":"X","pattern":"D","legs":"M"},"bonus":1.4800000000000013},{"rt":1204.1000000005588,"stimulus":"bees-with-color/bee-B1DM.svg","response":1,"trial_type":"image-button-response","trial_index":111,"time_elapsed":1439187,"internal_node_id":"0.0-4.0-0.52","subject_id":"60204458e6a42863349abc9f","study_id":"60edd13110225f80f9f3709b","session_id":"6196c705a09b54374f131c3d","condition":"full-information","relevant_dimensions":["pattern","legs"],"bee_group":{"antennae":"X","wings":"X","pattern":"D","legs":"M"},"action":"avoid","summary":"good-avoid","bonus":1.4800000000000013},{"rt":346.5,"stimulus":"\n                    <p><b>Action: <em>avoid</em></b></p>\n                    <p>This is the bee that you just saw.</p>\n                    <img src=\"bees-with-color/bee-B1DM.svg\" width=\"200\">\n                    <p><span class=\"greenText\">Good choice!</span>  This bee would have stung you.<br>Your bonus pay is unchanged, and remains at $0.82.</p>\n            ","response":0,"trial_type":"html-button-response","trial_index":112,"time_elapsed":1439535,"internal_node_id":"0.0-4.0-1.52","subject_id":"60204458e6a42863349abc9f","study_id":"60edd13110225f80f9f3709b","session_id":"6196c705a09b54374f131c3d","condition":"full-information","relevant_dimensions":["pattern","legs"],"bee_group":{"antennae":"X","wings":"X","pattern":"D","legs":"M"},"bonus":1.4800000000000013},{"rt":1145.2000000001863,"stimulus":"bees-with-color/bee-B2SM.svg","response":0,"trial_type":"image-button-response","trial_index":113,"time_elapsed":1440682,"internal_node_id":"0.0-4.0-0.53","subject_id":"60204458e6a42863349abc9f","study_id":"60edd13110225f80f9f3709b","session_id":"6196c705a09b54374f131c3d","condition":"full-information","relevant_dimensions":["pattern","legs"],"bee_group":{"antennae":"X","wings":"X","pattern":"D","legs":"M"},"action":"harvest","summary":"good-harvest","bonus":1.4800000000000013},{"rt":442.90000000037253,"stimulus":"\n                    <p><b>Action: <em>harvest</em></b></p>\n                    <p>This is the bee that you just saw.</p>\n                    <img src=\"bees-with-color/bee-B2SM.svg\" width=\"200\">\n                    <p><span class=\"greenText\"><b>Successful harvest!</b></span><br>Your pay has increased by $0.02. Your bonus pay is now $0.84.</p>\n            ","response":0,"trial_type":"html-button-response","trial_index":114,"time_elapsed":1441127,"internal_node_id":"0.0-4.0-1.53","subject_id":"60204458e6a42863349abc9f","study_id":"60edd13110225f80f9f3709b","session_id":"6196c705a09b54374f131c3d","condition":"full-information","relevant_dimensions":["pattern","legs"],"bee_group":{"antennae":"X","wings":"X","pattern":"D","legs":"M"},"bonus":1.4800000000000013},{"rt":1255.2999999998137,"stimulus":"bees-with-color/bee-B1DF.svg","response":0,"trial_type":"image-button-response","trial_index":115,"time_elapsed":1442383,"internal_node_id":"0.0-4.0-0.54","subject_id":"60204458e6a42863349abc9f","study_id":"60edd13110225f80f9f3709b","session_id":"6196c705a09b54374f131c3d","condition":"full-information","relevant_dimensions":["pattern","legs"],"bee_group":{"antennae":"X","wings":"X","pattern":"D","legs":"M"},"action":"harvest","summary":"good-harvest","bonus":1.4800000000000013},{"rt":332.1000000005588,"stimulus":"\n                    <p><b>Action: <em>harvest</em></b></p>\n                    <p>This is the bee that you just saw.</p>\n                    <img src=\"bees-with-color/bee-B1DF.svg\" width=\"200\">\n                    <p><span class=\"greenText\"><b>Successful harvest!</b></span><br>Your pay has increased by $0.02. Your bonus pay is now $0.86.</p>\n            ","response":0,"trial_type":"html-button-response","trial_index":116,"time_elapsed":1442717,"internal_node_id":"0.0-4.0-1.54","subject_id":"60204458e6a42863349abc9f","study_id":"60edd13110225f80f9f3709b","session_id":"6196c705a09b54374f131c3d","condition":"full-information","relevant_dimensions":["pattern","legs"],"bee_group":{"antennae":"X","wings":"X","pattern":"D","legs":"M"},"bonus":1.4800000000000013},{"rt":678.7999999998137,"stimulus":"bees-with-color/bee-B2SF.svg","response":0,"trial_type":"image-button-response","trial_index":117,"time_elapsed":1443397,"internal_node_id":"0.0-4.0-0.55","subject_id":"60204458e6a42863349abc9f","study_id":"60edd13110225f80f9f3709b","session_id":"6196c705a09b54374f131c3d","condition":"full-information","relevant_dimensions":["pattern","legs"],"bee_group":{"antennae":"X","wings":"X","pattern":"D","legs":"M"},"action":"harvest","summary":"good-harvest","bonus":1.4800000000000013},{"rt":332.09999999962747,"stimulus":"\n                    <p><b>Action: <em>harvest</em></b></p>\n                    <p>This is the bee that you just saw.</p>\n                    <img src=\"bees-with-color/bee-B2SF.svg\" width=\"200\">\n                    <p><span class=\"greenText\"><b>Successful harvest!</b></span><br>Your pay has increased by $0.02. Your bonus pay is now $0.88.</p>\n            ","response":0,"trial_type":"html-button-response","trial_index":118,"time_elapsed":1443731,"internal_node_id":"0.0-4.0-1.55","subject_id":"60204458e6a42863349abc9f","study_id":"60edd13110225f80f9f3709b","session_id":"6196c705a09b54374f131c3d","condition":"full-information","relevant_dimensions":["pattern","legs"],"bee_group":{"antennae":"X","wings":"X","pattern":"D","legs":"M"},"bonus":1.4800000000000013},{"rt":845,"stimulus":"bees-with-color/bee-B1SM.svg","response":0,"trial_type":"image-button-response","trial_index":119,"time_elapsed":1444577,"internal_node_id":"0.0-4.0-0.56","subject_id":"60204458e6a42863349abc9f","study_id":"60edd13110225f80f9f3709b","session_id":"6196c705a09b54374f131c3d","condition":"full-information","relevant_dimensions":["pattern","legs"],"bee_group":{"antennae":"X","wings":"X","pattern":"D","legs":"M"},"action":"harvest","summary":"good-harvest","bonus":1.4800000000000013},{"rt":280.5,"stimulus":"\n                    <p><b>Action: <em>harvest</em></b></p>\n                    <p>This is the bee that you just saw.</p>\n                    <img src=\"bees-with-color/bee-B1SM.svg\" width=\"200\">\n                    <p><span class=\"greenText\"><b>Successful harvest!</b></span><br>Your pay has increased by $0.02. Your bonus pay is now $0.90.</p>\n            ","response":0,"trial_type":"html-button-response","trial_index":120,"time_elapsed":1444859,"internal_node_id":"0.0-4.0-1.56","subject_id":"60204458e6a42863349abc9f","study_id":"60edd13110225f80f9f3709b","session_id":"6196c705a09b54374f131c3d","condition":"full-information","relevant_dimensions":["pattern","legs"],"bee_group":{"antennae":"X","wings":"X","pattern":"D","legs":"M"},"bonus":1.4800000000000013},{"rt":686.4000000003725,"stimulus":"bees-with-color/bee-A2SF.svg","response":0,"trial_type":"image-button-response","trial_index":121,"time_elapsed":1445547,"internal_node_id":"0.0-4.0-0.57","subject_id":"60204458e6a42863349abc9f","study_id":"60edd13110225f80f9f3709b","session_id":"6196c705a09b54374f131c3d","condition":"full-information","relevant_dimensions":["pattern","legs"],"bee_group":{"antennae":"X","wings":"X","pattern":"D","legs":"M"},"action":"harvest","summary":"good-harvest","bonus":1.4800000000000013},{"rt":675.2000000001863,"stimulus":"\n                    <p><b>Action: <em>harvest</em></b></p>\n                    <p>This is the bee that you just saw.</p>\n                    <img src=\"bees-with-color/bee-A2SF.svg\" width=\"200\">\n                    <p><span class=\"greenText\"><b>Successful harvest!</b></span><br>Your pay has increased by $0.02. Your bonus pay is now $0.92.</p>\n            ","response":0,"trial_type":"html-button-response","trial_index":122,"time_elapsed":1446224,"internal_node_id":"0.0-4.0-1.57","subject_id":"60204458e6a42863349abc9f","study_id":"60edd13110225f80f9f3709b","session_id":"6196c705a09b54374f131c3d","condition":"full-information","relevant_dimensions":["pattern","legs"],"bee_group":{"antennae":"X","wings":"X","pattern":"D","legs":"M"},"bonus":1.4800000000000013},{"rt":1076.2999999998137,"stimulus":"bees-with-color/bee-B2DM.svg","response":1,"trial_type":"image-button-response","trial_index":123,"time_elapsed":1447302,"internal_node_id":"0.0-4.0-0.58","subject_id":"60204458e6a42863349abc9f","study_id":"60edd13110225f80f9f3709b","session_id":"6196c705a09b54374f131c3d","condition":"full-information","relevant_dimensions":["pattern","legs"],"bee_group":{"antennae":"X","wings":"X","pattern":"D","legs":"M"},"action":"avoid","summary":"good-avoid","bonus":1.4800000000000013},{"rt":376.90000000037253,"stimulus":"\n                    <p><b>Action: <em>avoid</em></b></p>\n                    <p>This is the bee that you just saw.</p>\n                    <img src=\"bees-with-color/bee-B2DM.svg\" width=\"200\">\n                    <p><span class=\"greenText\">Good choice!</span>  This bee would have stung you.<br>Your bonus pay is unchanged, and remains at $0.92.</p>\n            ","response":0,"trial_type":"html-button-response","trial_index":124,"time_elapsed":1447681,"internal_node_id":"0.0-4.0-1.58","subject_id":"60204458e6a42863349abc9f","study_id":"60edd13110225f80f9f3709b","session_id":"6196c705a09b54374f131c3d","condition":"full-information","relevant_dimensions":["pattern","legs"],"bee_group":{"antennae":"X","wings":"X","pattern":"D","legs":"M"},"bonus":1.4800000000000013},{"rt":1859.7000000001863,"stimulus":"bees-with-color/bee-A1SF.svg","response":0,"trial_type":"image-button-response","trial_index":125,"time_elapsed":1449542,"internal_node_id":"0.0-4.0-0.59","subject_id":"60204458e6a42863349abc9f","study_id":"60edd13110225f80f9f3709b","session_id":"6196c705a09b54374f131c3d","condition":"full-information","relevant_dimensions":["pattern","legs"],"bee_group":{"antennae":"X","wings":"X","pattern":"D","legs":"M"},"action":"harvest","summary":"good-harvest","bonus":1.4800000000000013},{"rt":456.70000000018626,"stimulus":"\n                    <p><b>Action: <em>harvest</em></b></p>\n                    <p>This is the bee that you just saw.</p>\n                    <img src=\"bees-with-color/bee-A1SF.svg\" width=\"200\">\n                    <p><span class=\"greenText\"><b>Successful harvest!</b></span><br>Your pay has increased by $0.02. Your bonus pay is now $0.94.</p>\n            ","response":0,"trial_type":"html-button-response","trial_index":126,"time_elapsed":1450003,"internal_node_id":"0.0-4.0-1.59","subject_id":"60204458e6a42863349abc9f","study_id":"60edd13110225f80f9f3709b","session_id":"6196c705a09b54374f131c3d","condition":"full-information","relevant_dimensions":["pattern","legs"],"bee_group":{"antennae":"X","wings":"X","pattern":"D","legs":"M"},"bonus":1.4800000000000013},{"rt":1763.2999999998137,"stimulus":"bees-with-color/bee-A1SM.svg","response":0,"trial_type":"image-button-response","trial_index":127,"time_elapsed":1451768,"internal_node_id":"0.0-4.0-0.60","subject_id":"60204458e6a42863349abc9f","study_id":"60edd13110225f80f9f3709b","session_id":"6196c705a09b54374f131c3d","condition":"full-information","relevant_dimensions":["pattern","legs"],"bee_group":{"antennae":"X","wings":"X","pattern":"D","legs":"M"},"action":"harvest","summary":"good-harvest","bonus":1.4800000000000013},{"rt":478.29999999981374,"stimulus":"\n                    <p><b>Action: <em>harvest</em></b></p>\n                    <p>This is the bee that you just saw.</p>\n                    <img src=\"bees-with-color/bee-A1SM.svg\" width=\"200\">\n                    <p><span class=\"greenText\"><b>Successful harvest!</b></span><br>Your pay has increased by $0.02. Your bonus pay is now $0.96.</p>\n            ","response":0,"trial_type":"html-button-response","trial_index":128,"time_elapsed":1452248,"internal_node_id":"0.0-4.0-1.60","subject_id":"60204458e6a42863349abc9f","study_id":"60edd13110225f80f9f3709b","session_id":"6196c705a09b54374f131c3d","condition":"full-information","relevant_dimensions":["pattern","legs"],"bee_group":{"antennae":"X","wings":"X","pattern":"D","legs":"M"},"bonus":1.4800000000000013},{"rt":900.5,"stimulus":"bees-with-color/bee-A2DF.svg","response":0,"trial_type":"image-button-response","trial_index":129,"time_elapsed":1453150,"internal_node_id":"0.0-4.0-0.61","subject_id":"60204458e6a42863349abc9f","study_id":"60edd13110225f80f9f3709b","session_id":"6196c705a09b54374f131c3d","condition":"full-information","relevant_dimensions":["pattern","legs"],"bee_group":{"antennae":"X","wings":"X","pattern":"D","legs":"M"},"action":"harvest","summary":"good-harvest","bonus":1.4800000000000013},{"rt":465.69999999925494,"stimulus":"\n                    <p><b>Action: <em>harvest</em></b></p>\n                    <p>This is the bee that you just saw.</p>\n                    <img src=\"bees-with-color/bee-A2DF.svg\" width=\"200\">\n                    <p><span class=\"greenText\"><b>Successful harvest!</b></span><br>Your pay has increased by $0.02. Your bonus pay is now $0.98.</p>\n            ","response":0,"trial_type":"html-button-response","trial_index":130,"time_elapsed":1453618,"internal_node_id":"0.0-4.0-1.61","subject_id":"60204458e6a42863349abc9f","study_id":"60edd13110225f80f9f3709b","session_id":"6196c705a09b54374f131c3d","condition":"full-information","relevant_dimensions":["pattern","legs"],"bee_group":{"antennae":"X","wings":"X","pattern":"D","legs":"M"},"bonus":1.4800000000000013},{"rt":10913.799999999814,"stimulus":"bees-with-color/bee-A2DM.svg","response":1,"trial_type":"image-button-response","trial_index":131,"time_elapsed":1464533,"internal_node_id":"0.0-4.0-0.62","subject_id":"60204458e6a42863349abc9f","study_id":"60edd13110225f80f9f3709b","session_id":"6196c705a09b54374f131c3d","condition":"full-information","relevant_dimensions":["pattern","legs"],"bee_group":{"antennae":"X","wings":"X","pattern":"D","legs":"M"},"action":"avoid","summary":"good-avoid","bonus":1.4800000000000013},{"rt":459.09999999962747,"stimulus":"\n                    <p><b>Action: <em>avoid</em></b></p>\n                    <p>This is the bee that you just saw.</p>\n                    <img src=\"bees-with-color/bee-A2DM.svg\" width=\"200\">\n                    <p><span class=\"greenText\">Good choice!</span>  This bee would have stung you.<br>Your bonus pay is unchanged, and remains at $0.98.</p>\n            ","response":0,"trial_type":"html-button-response","trial_index":132,"time_elapsed":1464994,"internal_node_id":"0.0-4.0-1.62","subject_id":"60204458e6a42863349abc9f","study_id":"60edd13110225f80f9f3709b","session_id":"6196c705a09b54374f131c3d","condition":"full-information","relevant_dimensions":["pattern","legs"],"bee_group":{"antennae":"X","wings":"X","pattern":"D","legs":"M"},"bonus":1.4800000000000013},{"rt":975,"stimulus":"bees-with-color/bee-B2DF.svg","response":0,"trial_type":"image-button-response","trial_index":133,"time_elapsed":1465971,"internal_node_id":"0.0-4.0-0.63","subject_id":"60204458e6a42863349abc9f","study_id":"60edd13110225f80f9f3709b","session_id":"6196c705a09b54374f131c3d","condition":"full-information","relevant_dimensions":["pattern","legs"],"bee_group":{"antennae":"X","wings":"X","pattern":"D","legs":"M"},"action":"harvest","summary":"good-harvest","bonus":1.4800000000000013},{"rt":411.59999999962747,"stimulus":"\n                    <p><b>Action: <em>harvest</em></b></p>\n                    <p>This is the bee that you just saw.</p>\n                    <img src=\"bees-with-color/bee-B2DF.svg\" width=\"200\">\n                    <p><span class=\"greenText\"><b>Successful harvest!</b></span><br>Your pay has increased by $0.02. Your bonus pay is now $1.00.</p>\n            ","response":0,"trial_type":"html-button-response","trial_index":134,"time_elapsed":1466385,"internal_node_id":"0.0-4.0-1.63","subject_id":"60204458e6a42863349abc9f","study_id":"60edd13110225f80f9f3709b","session_id":"6196c705a09b54374f131c3d","condition":"full-information","relevant_dimensions":["pattern","legs"],"bee_group":{"antennae":"X","wings":"X","pattern":"D","legs":"M"},"bonus":1.4800000000000013},{"rt":22431.39999999944,"stimulus":"You have completed the first part of this experiment.<br><br>You will now begin a shorter second part, in which you will receive no feedback.<br>The same rules regarding bonus pay apply.<br><br>Press any key to begin.","response":"enter","trial_type":"html-keyboard-response","trial_index":135,"time_elapsed":1488818,"internal_node_id":"0.0-5.0","subject_id":"60204458e6a42863349abc9f","study_id":"60edd13110225f80f9f3709b","session_id":"6196c705a09b54374f131c3d","condition":"full-information","relevant_dimensions":["pattern","legs"],"bee_group":{"antennae":"X","wings":"X","pattern":"D","legs":"M"},"bonus":1.4800000000000013},{"rt":5371.700000000186,"stimulus":"bees-with-color/bee-B2DF.svg","response":0,"trial_type":"image-button-response","trial_index":136,"time_elapsed":1494197,"internal_node_id":"0.0-6.0-0.0","subject_id":"60204458e6a42863349abc9f","study_id":"60edd13110225f80f9f3709b","session_id":"6196c705a09b54374f131c3d","condition":"full-information","relevant_dimensions":["pattern","legs"],"bee_group":{"antennae":"X","wings":"X","pattern":"D","legs":"M"},"bonus":1.4800000000000013},{"rt":2384,"stimulus":"bees-with-color/bee-B2DM.svg","response":1,"trial_type":"image-button-response","trial_index":137,"time_elapsed":1496584,"internal_node_id":"0.0-6.0-0.1","subject_id":"60204458e6a42863349abc9f","study_id":"60edd13110225f80f9f3709b","session_id":"6196c705a09b54374f131c3d","condition":"full-information","relevant_dimensions":["pattern","legs"],"bee_group":{"antennae":"X","wings":"X","pattern":"D","legs":"M"},"bonus":1.4800000000000013},{"rt":964.7999999998137,"stimulus":"bees-with-color/bee-A2SM.svg","response":0,"trial_type":"image-button-response","trial_index":138,"time_elapsed":1497551,"internal_node_id":"0.0-6.0-0.2","subject_id":"60204458e6a42863349abc9f","study_id":"60edd13110225f80f9f3709b","session_id":"6196c705a09b54374f131c3d","condition":"full-information","relevant_dimensions":["pattern","legs"],"bee_group":{"antennae":"X","wings":"X","pattern":"D","legs":"M"},"bonus":1.4800000000000013},{"rt":2098.5,"stimulus":"bees-with-color/bee-B1DF.svg","response":0,"trial_type":"image-button-response","trial_index":139,"time_elapsed":1499651,"internal_node_id":"0.0-6.0-0.3","subject_id":"60204458e6a42863349abc9f","study_id":"60edd13110225f80f9f3709b","session_id":"6196c705a09b54374f131c3d","condition":"full-information","relevant_dimensions":["pattern","legs"],"bee_group":{"antennae":"X","wings":"X","pattern":"D","legs":"M"},"bonus":1.4800000000000013},{"rt":683.7000000001863,"stimulus":"bees-with-color/bee-A2DF.svg","response":0,"trial_type":"image-button-response","trial_index":140,"time_elapsed":1500337,"internal_node_id":"0.0-6.0-0.4","subject_id":"60204458e6a42863349abc9f","study_id":"60edd13110225f80f9f3709b","session_id":"6196c705a09b54374f131c3d","condition":"full-information","relevant_dimensions":["pattern","legs"],"bee_group":{"antennae":"X","wings":"X","pattern":"D","legs":"M"},"bonus":1.4800000000000013},{"rt":1022,"stimulus":"bees-with-color/bee-B1DM.svg","response":1,"trial_type":"image-button-response","trial_index":141,"time_elapsed":1501361,"internal_node_id":"0.0-6.0-0.5","subject_id":"60204458e6a42863349abc9f","study_id":"60edd13110225f80f9f3709b","session_id":"6196c705a09b54374f131c3d","condition":"full-information","relevant_dimensions":["pattern","legs"],"bee_group":{"antennae":"X","wings":"X","pattern":"D","legs":"M"},"bonus":1.4800000000000013},{"rt":620.5,"stimulus":"bees-with-color/bee-B1SF.svg","response":0,"trial_type":"image-button-response","trial_index":142,"time_elapsed":1501984,"internal_node_id":"0.0-6.0-0.6","subject_id":"60204458e6a42863349abc9f","study_id":"60edd13110225f80f9f3709b","session_id":"6196c705a09b54374f131c3d","condition":"full-information","relevant_dimensions":["pattern","legs"],"bee_group":{"antennae":"X","wings":"X","pattern":"D","legs":"M"},"bonus":1.4800000000000013},{"rt":609.7000000001863,"stimulus":"bees-with-color/bee-A1SF.svg","response":0,"trial_type":"image-button-response","trial_index":143,"time_elapsed":1502595,"internal_node_id":"0.0-6.0-0.7","subject_id":"60204458e6a42863349abc9f","study_id":"60edd13110225f80f9f3709b","session_id":"6196c705a09b54374f131c3d","condition":"full-information","relevant_dimensions":["pattern","legs"],"bee_group":{"antennae":"X","wings":"X","pattern":"D","legs":"M"},"bonus":1.4800000000000013},{"rt":1660.5,"stimulus":"bees-with-color/bee-B1SM.svg","response":0,"trial_type":"image-button-response","trial_index":144,"time_elapsed":1504259,"internal_node_id":"0.0-6.0-0.8","subject_id":"60204458e6a42863349abc9f","study_id":"60edd13110225f80f9f3709b","session_id":"6196c705a09b54374f131c3d","condition":"full-information","relevant_dimensions":["pattern","legs"],"bee_group":{"antennae":"X","wings":"X","pattern":"D","legs":"M"},"bonus":1.4800000000000013},{"rt":523.8999999994412,"stimulus":"bees-with-color/bee-B2SM.svg","response":0,"trial_type":"image-button-response","trial_index":145,"time_elapsed":1504785,"internal_node_id":"0.0-6.0-0.9","subject_id":"60204458e6a42863349abc9f","study_id":"60edd13110225f80f9f3709b","session_id":"6196c705a09b54374f131c3d","condition":"full-information","relevant_dimensions":["pattern","legs"],"bee_group":{"antennae":"X","wings":"X","pattern":"D","legs":"M"},"bonus":1.4800000000000013},{"rt":845.5,"stimulus":"bees-with-color/bee-A1DF.svg","response":0,"trial_type":"image-button-response","trial_index":146,"time_elapsed":1505632,"internal_node_id":"0.0-6.0-0.10","subject_id":"60204458e6a42863349abc9f","study_id":"60edd13110225f80f9f3709b","session_id":"6196c705a09b54374f131c3d","condition":"full-information","relevant_dimensions":["pattern","legs"],"bee_group":{"antennae":"X","wings":"X","pattern":"D","legs":"M"},"bonus":1.4800000000000013},{"rt":767.1000000005588,"stimulus":"bees-with-color/bee-A1DM.svg","response":1,"trial_type":"image-button-response","trial_index":147,"time_elapsed":1506401,"internal_node_id":"0.0-6.0-0.11","subject_id":"60204458e6a42863349abc9f","study_id":"60edd13110225f80f9f3709b","session_id":"6196c705a09b54374f131c3d","condition":"full-information","relevant_dimensions":["pattern","legs"],"bee_group":{"antennae":"X","wings":"X","pattern":"D","legs":"M"},"bonus":1.4800000000000013},{"rt":656.4000000003725,"stimulus":"bees-with-color/bee-A2DM.svg","response":1,"trial_type":"image-button-response","trial_index":148,"time_elapsed":1507059,"internal_node_id":"0.0-6.0-0.12","subject_id":"60204458e6a42863349abc9f","study_id":"60edd13110225f80f9f3709b","session_id":"6196c705a09b54374f131c3d","condition":"full-information","relevant_dimensions":["pattern","legs"],"bee_group":{"antennae":"X","wings":"X","pattern":"D","legs":"M"},"bonus":1.4800000000000013},{"rt":609.0999999996275,"stimulus":"bees-with-color/bee-A1SM.svg","response":0,"trial_type":"image-button-response","trial_index":149,"time_elapsed":1507670,"internal_node_id":"0.0-6.0-0.13","subject_id":"60204458e6a42863349abc9f","study_id":"60edd13110225f80f9f3709b","session_id":"6196c705a09b54374f131c3d","condition":"full-information","relevant_dimensions":["pattern","legs"],"bee_group":{"antennae":"X","wings":"X","pattern":"D","legs":"M"},"bonus":1.4800000000000013},{"rt":585.3999999994412,"stimulus":"bees-with-color/bee-A2SF.svg","response":0,"trial_type":"image-button-response","trial_index":150,"time_elapsed":1508257,"internal_node_id":"0.0-6.0-0.14","subject_id":"60204458e6a42863349abc9f","study_id":"60edd13110225f80f9f3709b","session_id":"6196c705a09b54374f131c3d","condition":"full-information","relevant_dimensions":["pattern","legs"],"bee_group":{"antennae":"X","wings":"X","pattern":"D","legs":"M"},"bonus":1.4800000000000013},{"rt":575.3999999994412,"stimulus":"bees-with-color/bee-B2SF.svg","response":0,"trial_type":"image-button-response","trial_index":151,"time_elapsed":1508835,"internal_node_id":"0.0-6.0-0.15","subject_id":"60204458e6a42863349abc9f","study_id":"60edd13110225f80f9f3709b","session_id":"6196c705a09b54374f131c3d","condition":"full-information","relevant_dimensions":["pattern","legs"],"bee_group":{"antennae":"X","wings":"X","pattern":"D","legs":"M"},"bonus":1.4800000000000013},{"rt":573.3999999994412,"stimulus":"bees-with-color/bee-A2SF.svg","response":0,"trial_type":"image-button-response","trial_index":152,"time_elapsed":1509410,"internal_node_id":"0.0-6.0-0.16","subject_id":"60204458e6a42863349abc9f","study_id":"60edd13110225f80f9f3709b","session_id":"6196c705a09b54374f131c3d","condition":"full-information","relevant_dimensions":["pattern","legs"],"bee_group":{"antennae":"X","wings":"X","pattern":"D","legs":"M"},"bonus":1.4800000000000013},{"rt":754,"stimulus":"bees-with-color/bee-B2DF.svg","response":0,"trial_type":"image-button-response","trial_index":153,"time_elapsed":1510166,"internal_node_id":"0.0-6.0-0.17","subject_id":"60204458e6a42863349abc9f","study_id":"60edd13110225f80f9f3709b","session_id":"6196c705a09b54374f131c3d","condition":"full-information","relevant_dimensions":["pattern","legs"],"bee_group":{"antennae":"X","wings":"X","pattern":"D","legs":"M"},"bonus":1.4800000000000013},{"rt":771.7999999998137,"stimulus":"bees-with-color/bee-B1DM.svg","response":1,"trial_type":"image-button-response","trial_index":154,"time_elapsed":1510940,"internal_node_id":"0.0-6.0-0.18","subject_id":"60204458e6a42863349abc9f","study_id":"60edd13110225f80f9f3709b","session_id":"6196c705a09b54374f131c3d","condition":"full-information","relevant_dimensions":["pattern","legs"],"bee_group":{"antennae":"X","wings":"X","pattern":"D","legs":"M"},"bonus":1.4800000000000013},{"rt":656.2000000001863,"stimulus":"bees-with-color/bee-A1DF.svg","response":0,"trial_type":"image-button-response","trial_index":155,"time_elapsed":1511598,"internal_node_id":"0.0-6.0-0.19","subject_id":"60204458e6a42863349abc9f","study_id":"60edd13110225f80f9f3709b","session_id":"6196c705a09b54374f131c3d","condition":"full-information","relevant_dimensions":["pattern","legs"],"bee_group":{"antennae":"X","wings":"X","pattern":"D","legs":"M"},"bonus":1.4800000000000013},{"rt":569.5,"stimulus":"bees-with-color/bee-A2SM.svg","response":0,"trial_type":"image-button-response","trial_index":156,"time_elapsed":1512170,"internal_node_id":"0.0-6.0-0.20",