[{"success":true,"trial_type":"fullscreen","trial_index":0,"time_elapsed":3932,"internal_node_id":"0.0-0.0","subject_id":"61634b983fa2b375f536ab34","study_id":"60edd13110225f80f9f3709b","session_id":"6196bf5ecf90c83d0715552c","condition":"contingent","relevant_dimensions":["wings","legs"],"bee_group":{"antennae":"X","wings":"1","pattern":"X","legs":"F"},"bonus":0.9000000000000008},{"success":true,"timeout":false,"failed_images":[],"failed_audio":[],"failed_video":[],"trial_type":"preload","trial_index":1,"time_elapsed":5505,"internal_node_id":"0.0-1.0","subject_id":"61634b983fa2b375f536ab34","study_id":"60edd13110225f80f9f3709b","session_id":"6196bf5ecf90c83d0715552c","condition":"contingent","relevant_dimensions":["wings","legs"],"bee_group":{"antennae":"X","wings":"1","pattern":"X","legs":"F"},"bonus":0.9000000000000008},{"rt":3172,"stimulus":"Welcome! Press any key to begin.","response":"l","trial_type":"html-keyboard-response","trial_index":2,"time_elapsed":8678,"internal_node_id":"0.0-2.0","subject_id":"61634b983fa2b375f536ab34","study_id":"60edd13110225f80f9f3709b","session_id":"6196bf5ecf90c83d0715552c","condition":"contingent","relevant_dimensions":["wings","legs"],"bee_group":{"antennae":"X","wings":"1","pattern":"X","legs":"F"},"bonus":0.9000000000000008},{"view_history":[{"page_index":0,"viewing_time":3029.8000000044703},{"page_index":1,"viewing_time":12116.69999999553},{"page_index":2,"viewing_time":8765.30000000447},{"page_index":3,"viewing_time":20854.89999999851},{"page_index":4,"viewing_time":4649.89999999851},{"page_index":5,"viewing_time":5508.60000000149},{"page_index":6,"viewing_time":15492.5},{"page_index":7,"viewing_time":4108.39999999851},{"page_index":8,"viewing_time":4468.60000000149},{"page_index":9,"viewing_time":4901.10000000149},{"page_index":10,"viewing_time":3230.89999999851},{"page_index":11,"viewing_time":10157.89999999851},{"page_index":12,"viewing_time":8914},{"page_index":13,"viewing_time":1273.8999999985099},{"page_index":14,"viewing_time":3350.3000000044703}],"rt":110822.90000000596,"trial_type":"instructions","trial_index":3,"time_elapsed":119501,"internal_node_id":"0.0-3.0-0.0","subject_id":"61634b983fa2b375f536ab34","study_id":"60edd13110225f80f9f3709b","session_id":"6196bf5ecf90c83d0715552c","condition":"contingent","relevant_dimensions":["wings","legs"],"bee_group":{"antennae":"X","wings":"1","pattern":"X","legs":"F"},"bonus":0.9000000000000008},{"rt":25618.89999999851,"response":{"Q0":["Two or six legs","Stripes or spots on body","Single or double wings","Antennae or no antennae"]},"question_order":[0],"trial_type":"survey-multi-select","trial_index":4,"time_elapsed":145123,"internal_node_id":"0.0-3.0-1.0","subject_id":"61634b983fa2b375f536ab34","study_id":"60edd13110225f80f9f3709b","session_id":"6196bf5ecf90c83d0715552c","condition":"contingent","relevant_dimensions":["wings","legs"],"bee_group":{"antennae":"X","wings":"1","pattern":"X","legs":"F"},"correct":true,"bonus":0.9000000000000008},{"rt":27939.39999999851,"response":{"Q1":"No.","Q2":"Based on the four features of the bee.","Q3":"You do not learn if it was friendly or dangerous, and do not alter your bonus."},"question_order":[0,1,2],"trial_type":"survey-multi-choice","trial_index":5,"time_elapsed":173064,"internal_node_id":"0.0-3.0-2.0","subject_id":"61634b983fa2b375f536ab34","study_id":"60edd13110225f80f9f3709b","session_id":"6196bf5ecf90c83d0715552c","condition":"contingent","relevant_dimensions":["wings","legs"],"bee_group":{"antennae":"X","wings":"1","pattern":"X","legs":"F"},"correct":true,"bonus":0.9000000000000008},{"rt":2743.8000000044703,"stimulus":"<p>Congrats, you got everything right<br>When you're ready, click the button below to continue to the experiment.</p>","response":0,"trial_type":"html-button-response","trial_index":6,"time_elapsed":175809,"internal_node_id":"0.0-3.0-3.0","subject_id":"61634b983fa2b375f536ab34","study_id":"60edd13110225f80f9f3709b","session_id":"6196bf5ecf90c83d0715552c","condition":"contingent","relevant_dimensions":["wings","legs"],"bee_group":{"antennae":"X","wings":"1","pattern":"X","legs":"F"},"bonus":0.9000000000000008},{"rt":3187.2000000029802,"stimulus":"bees-with-color/bee-A1SF.svg","response":0,"trial_type":"image-button-response","trial_index":7,"time_elapsed":178998,"internal_node_id":"0.0-4.0-0.0","subject_id":"61634b983fa2b375f536ab34","study_id":"60edd13110225f80f9f3709b","session_id":"6196bf5ecf90c83d0715552c","condition":"contingent","relevant_dimensions":["wings","legs"],"bee_group":{"antennae":"X","wings":"1","pattern":"X","legs":"F"},"action":"harvest","summary":"bad-harvest","bonus":0.9000000000000008},{"rt":9740.20000000298,"stimulus":"\n                    <p><b>Action: <em>harvest</em></b></p>\n                    <p>This is the bee that you just saw.</p>\n                    <img src=\"bees-with-color/bee-A1SF.svg\" width=\"200\">\n                    <p><span class=\"redText\">Bad choice, the bee was angry.</span><br><b>You have been stung!</b><br>Your pay has been decreased by $0.10. Your bonus pay is now $0.44.</p>\n            ","response":0,"trial_type":"html-button-response","trial_index":8,"time_elapsed":188745,"internal_node_id":"0.0-4.0-1.0","subject_id":"61634b983fa2b375f536ab34","study_id":"60edd13110225f80f9f3709b","session_id":"6196bf5ecf90c83d0715552c","condition":"contingent","relevant_dimensions":["wings","legs"],"bee_group":{"antennae":"X","wings":"1","pattern":"X","legs":"F"},"bonus":0.9000000000000008},{"rt":3257.39999999851,"stimulus":"bees-with-color/bee-B1DM.svg","response":0,"trial_type":"image-button-response","trial_index":9,"time_elapsed":192004,"internal_node_id":"0.0-4.0-0.1","subject_id":"61634b983fa2b375f536ab34","study_id":"60edd13110225f80f9f3709b","session_id":"6196bf5ecf90c83d0715552c","condition":"contingent","relevant_dimensions":["wings","legs"],"bee_group":{"antennae":"X","wings":"1","pattern":"X","legs":"F"},"action":"harvest","summary":"good-harvest","bonus":0.9000000000000008},{"rt":2463.6999999955297,"stimulus":"\n                    <p><b>Action: <em>harvest</em></b></p>\n                    <p>This is the bee that you just saw.</p>\n                    <img src=\"bees-with-color/bee-B1DM.svg\" width=\"200\">\n                    <p><span class=\"greenText\"><b>Successful harvest!</b></span><br>Your pay has increased by $0.02. Your bonus pay is now $0.46.</p>\n            ","response":0,"trial_type":"html-button-response","trial_index":10,"time_elapsed":194469,"internal_node_id":"0.0-4.0-1.1","subject_id":"61634b983fa2b375f536ab34","study_id":"60edd13110225f80f9f3709b","session_id":"6196bf5ecf90c83d0715552c","condition":"contingent","relevant_dimensions":["wings","legs"],"bee_group":{"antennae":"X","wings":"1","pattern":"X","legs":"F"},"bonus":0.9000000000000008},{"rt":2295.5,"stimulus":"bees-with-color/bee-B2DM.svg","response":0,"trial_type":"image-button-response","trial_index":11,"time_elapsed":196766,"internal_node_id":"0.0-4.0-0.2","subject_id":"61634b983fa2b375f536ab34","study_id":"60edd13110225f80f9f3709b","session_id":"6196bf5ecf90c83d0715552c","condition":"contingent","relevant_dimensions":["wings","legs"],"bee_group":{"antennae":"X","wings":"1","pattern":"X","legs":"F"},"action":"harvest","summary":"good-harvest","bonus":0.9000000000000008},{"rt":1590.6999999955297,"stimulus":"\n                    <p><b>Action: <em>harvest</em></b></p>\n                    <p>This is the bee that you just saw.</p>\n                    <img src=\"bees-with-color/bee-B2DM.svg\" width=\"200\">\n                    <p><span class=\"greenText\"><b>Successful harvest!</b></span><br>Your pay has increased by $0.02. Your bonus pay is now $0.48.</p>\n            ","response":0,"trial_type":"html-button-response","trial_index":12,"time_elapsed":198358,"internal_node_id":"0.0-4.0-1.2","subject_id":"61634b983fa2b375f536ab34","study_id":"60edd13110225f80f9f3709b","session_id":"6196bf5ecf90c83d0715552c","condition":"contingent","relevant_dimensions":["wings","legs"],"bee_group":{"antennae":"X","wings":"1","pattern":"X","legs":"F"},"bonus":0.9000000000000008},{"rt":1461,"stimulus":"bees-with-color/bee-A2DM.svg","response":0,"trial_type":"image-button-response","trial_index":13,"time_elapsed":199820,"internal_node_id":"0.0-4.0-0.3","subject_id":"61634b983fa2b375f536ab34","study_id":"60edd13110225f80f9f3709b","session_id":"6196bf5ecf90c83d0715552c","condition":"contingent","relevant_dimensions":["wings","legs"],"bee_group":{"antennae":"X","wings":"1","pattern":"X","legs":"F"},"action":"harvest","summary":"good-harvest","bonus":0.9000000000000008},{"rt":953.1000000014901,"stimulus":"\n                    <p><b>Action: <em>harvest</em></b></p>\n                    <p>This is the bee that you just saw.</p>\n                    <img src=\"bees-with-color/bee-A2DM.svg\" width=\"200\">\n                    <p><span class=\"greenText\"><b>Successful harvest!</b></span><br>Your pay has increased by $0.02. Your bonus pay is now $0.50.</p>\n            ","response":0,"trial_type":"html-button-response","trial_index":14,"time_elapsed":200774,"internal_node_id":"0.0-4.0-1.3","subject_id":"61634b983fa2b375f536ab34","study_id":"60edd13110225f80f9f3709b","session_id":"6196bf5ecf90c83d0715552c","condition":"contingent","relevant_dimensions":["wings","legs"],"bee_group":{"antennae":"X","wings":"1","pattern":"X","legs":"F"},"bonus":0.9000000000000008},{"rt":1334.0999999940395,"stimulus":"bees-with-color/bee-A2SM.svg","response":1,"trial_type":"image-button-response","trial_index":15,"time_elapsed":202109,"internal_node_id":"0.0-4.0-0.4","subject_id":"61634b983fa2b375f536ab34","study_id":"60edd13110225f80f9f3709b","session_id":"6196bf5ecf90c83d0715552c","condition":"contingent","relevant_dimensions":["wings","legs"],"bee_group":{"antennae":"X","wings":"1","pattern":"X","legs":"F"},"action":"avoid","summary":"bad-avoid","bonus":0.9000000000000008},{"rt":5925.20000000298,"stimulus":"\n                    <p><b>Action: <em>avoid</em></b></p>\n                    <p>This is the bee that you just saw.</p>\n                    <img src=\"bees-with-color/bee-A2SM.svg\" width=\"200\">\n                    <p><br>Your bonus pay is unchanged, and remains at $0.50.</p>\n            ","response":0,"trial_type":"html-button-response","trial_index":16,"time_elapsed":208035,"internal_node_id":"0.0-4.0-1.4","subject_id":"61634b983fa2b375f536ab34","study_id":"60edd13110225f80f9f3709b","session_id":"6196bf5ecf90c83d0715552c","condition":"contingent","relevant_dimensions":["wings","legs"],"bee_group":{"antennae":"X","wings":"1","pattern":"X","legs":"F"},"bonus":0.9000000000000008},{"rt":2434.89999999851,"stimulus":"bees-with-color/bee-B1SM.svg","response":1,"trial_type":"image-button-response","trial_index":17,"time_elapsed":210471,"internal_node_id":"0.0-4.0-0.5","subject_id":"61634b983fa2b375f536ab34","study_id":"60edd13110225f80f9f3709b","session_id":"6196bf5ecf90c83d0715552c","condition":"contingent","relevant_dimensions":["wings","legs"],"bee_group":{"antennae":"X","wings":"1","pattern":"X","legs":"F"},"action":"avoid","summary":"bad-avoid","bonus":0.9000000000000008},{"rt":2998.10000000149,"stimulus":"\n                    <p><b>Action: <em>avoid</em></b></p>\n                    <p>This is the bee that you just saw.</p>\n                    <img src=\"bees-with-color/bee-B1SM.svg\" width=\"200\">\n                    <p><br>Your bonus pay is unchanged, and remains at $0.50.</p>\n            ","response":0,"trial_type":"html-button-response","trial_index":18,"time_elapsed":213470,"internal_node_id":"0.0-4.0-1.5","subject_id":"61634b983fa2b375f536ab34","study_id":"60edd13110225f80f9f3709b","session_id":"6196bf5ecf90c83d0715552c","condition":"contingent","relevant_dimensions":["wings","legs"],"bee_group":{"antennae":"X","wings":"1","pattern":"X","legs":"F"},"bonus":0.9000000000000008},{"rt":1949.6000000014901,"stimulus":"bees-with-color/bee-A2SF.svg","response":1,"trial_type":"image-button-response","trial_index":19,"time_elapsed":215421,"internal_node_id":"0.0-4.0-0.6","subject_id":"61634b983fa2b375f536ab34","study_id":"60edd13110225f80f9f3709b","session_id":"6196bf5ecf90c83d0715552c","condition":"contingent","relevant_dimensions":["wings","legs"],"bee_group":{"antennae":"X","wings":"1","pattern":"X","legs":"F"},"action":"avoid","summary":"bad-avoid","bonus":0.9000000000000008},{"rt":1665,"stimulus":"\n                    <p><b>Action: <em>avoid</em></b></p>\n                    <p>This is the bee that you just saw.</p>\n                    <img src=\"bees-with-color/bee-A2SF.svg\" width=\"200\">\n                    <p><br>Your bonus pay is unchanged, and remains at $0.50.</p>\n            ","response":0,"trial_type":"html-button-response","trial_index":20,"time_elapsed":217087,"internal_node_id":"0.0-4.0-1.6","subject_id":"61634b983fa2b375f536ab34","study_id":"60edd13110225f80f9f3709b","session_id":"6196bf5ecf90c83d0715552c","condition":"contingent","relevant_dimensions":["wings","legs"],"bee_group":{"antennae":"X","wings":"1","pattern":"X","legs":"F"},"bonus":0.9000000000000008},{"rt":3682.89999999851,"stimulus":"bees-with-color/bee-A1DF.svg","response":0,"trial_type":"image-button-response","trial_index":21,"time_elapsed":220771,"internal_node_id":"0.0-4.0-0.7","subject_id":"61634b983fa2b375f536ab34","study_id":"60edd13110225f80f9f3709b","session_id":"6196bf5ecf90c83d0715552c","condition":"contingent","relevant_dimensions":["wings","legs"],"bee_group":{"antennae":"X","wings":"1","pattern":"X","legs":"F"},"action":"harvest","summary":"bad-harvest","bonus":0.9000000000000008},{"rt":2534.10000000149,"stimulus":"\n                    <p><b>Action: <em>harvest</em></b></p>\n                    <p>This is the bee that you just saw.</p>\n                    <img src=\"bees-with-color/bee-A1DF.svg\" width=\"200\">\n                    <p><span class=\"redText\">Bad choice, the bee was angry.</span><br><b>You have been stung!</b><br>Your pay has been decreased by $0.10. Your bonus pay is now $0.40.</p>\n            ","response":0,"trial_type":"html-button-response","trial_index":22,"time_elapsed":223306,"internal_node_id":"0.0-4.0-1.7","subject_id":"61634b983fa2b375f536ab34","study_id":"60edd13110225f80f9f3709b","session_id":"6196bf5ecf90c83d0715552c","condition":"contingent","relevant_dimensions":["wings","legs"],"bee_group":{"antennae":"X","wings":"1","pattern":"X","legs":"F"},"bonus":0.9000000000000008},{"rt":1304.3999999985099,"stimulus":"bees-with-color/bee-A2DF.svg","response":1,"trial_type":"image-button-response","trial_index":23,"time_elapsed":224612,"internal_node_id":"0.0-4.0-0.8","subject_id":"61634b983fa2b375f536ab34","study_id":"60edd13110225f80f9f3709b","session_id":"6196bf5ecf90c83d0715552c","condition":"contingent","relevant_dimensions":["wings","legs"],"bee_group":{"antennae":"X","wings":"1","pattern":"X","legs":"F"},"action":"avoid","summary":"bad-avoid","bonus":0.9000000000000008},{"rt":1021.1000000014901,"stimulus":"\n                    <p><b>Action: <em>avoid</em></b></p>\n                    <p>This is the bee that you just saw.</p>\n                    <img src=\"bees-with-color/bee-A2DF.svg\" width=\"200\">\n                    <p><br>Your bonus pay is unchanged, and remains at $0.40.</p>\n            ","response":0,"trial_type":"html-button-response","trial_index":24,"time_elapsed":225634,"internal_node_id":"0.0-4.0-1.8","subject_id":"61634b983fa2b375f536ab34","study_id":"60edd13110225f80f9f3709b","session_id":"6196bf5ecf90c83d0715552c","condition":"contingent","relevant_dimensions":["wings","legs"],"bee_group":{"antennae":"X","wings":"1","pattern":"X","legs":"F"},"bonus":0.9000000000000008},{"rt":1587.7999999970198,"stimulus":"bees-with-color/bee-B1DF.svg","response":1,"trial_type":"image-button-response","trial_index":25,"time_elapsed":227223,"internal_node_id":"0.0-4.0-0.9","subject_id":"61634b983fa2b375f536ab34","study_id":"60edd13110225f80f9f3709b","session_id":"6196bf5ecf90c83d0715552c","condition":"contingent","relevant_dimensions":["wings","legs"],"bee_group":{"antennae":"X","wings":"1","pattern":"X","legs":"F"},"action":"avoid","summary":"good-avoid","bonus":0.9000000000000008},{"rt":1949.2000000029802,"stimulus":"\n                    <p><b>Action: <em>avoid</em></b></p>\n                    <p>This is the bee that you just saw.</p>\n                    <img src=\"bees-with-color/bee-B1DF.svg\" width=\"200\">\n                    <p><br>Your bonus pay is unchanged, and remains at $0.40.</p>\n            ","response":0,"trial_type":"html-button-response","trial_index":26,"time_elapsed":229173,"internal_node_id":"0.0-4.0-1.9","subject_id":"61634b983fa2b375f536ab34","study_id":"60edd13110225f80f9f3709b","session_id":"6196bf5ecf90c83d0715552c","condition":"contingent","relevant_dimensions":["wings","legs"],"bee_group":{"antennae":"X","wings":"1","pattern":"X","legs":"F"},"bonus":0.9000000000000008},{"rt":1203.6999999955297,"stimulus":"bees-with-color/bee-A1SM.svg","response":1,"trial_type":"image-button-response","trial_index":27,"time_elapsed":230378,"internal_node_id":"0.0-4.0-0.10","subject_id":"61634b983fa2b375f536ab34","study_id":"60edd13110225f80f9f3709b","session_id":"6196bf5ecf90c83d0715552c","condition":"contingent","relevant_dimensions":["wings","legs"],"bee_group":{"antennae":"X","wings":"1","pattern":"X","legs":"F"},"action":"avoid","summary":"bad-avoid","bonus":0.9000000000000008},{"rt":940,"stimulus":"\n                    <p><b>Action: <em>avoid</em></b></p>\n                    <p>This is the bee that you just saw.</p>\n                    <img src=\"bees-with-color/bee-A1SM.svg\" width=\"200\">\n                    <p><br>Your bonus pay is unchanged, and remains at $0.40.</p>\n            ","response":0,"trial_type":"html-button-response","trial_index":28,"time_elapsed":231319,"internal_node_id":"0.0-4.0-1.10","subject_id":"61634b983fa2b375f536ab34","study_id":"60edd13110225f80f9f3709b","session_id":"6196bf5ecf90c83d0715552c","condition":"contingent","relevant_dimensions":["wings","legs"],"bee_group":{"antennae":"X","wings":"1","pattern":"X","legs":"F"},"bonus":0.9000000000000008},{"rt":2497.39999999851,"stimulus":"bees-with-color/bee-B1SF.svg","response":1,"trial_type":"image-button-response","trial_index":29,"time_elapsed":233817,"internal_node_id":"0.0-4.0-0.11","subject_id":"61634b983fa2b375f536ab34","study_id":"60edd13110225f80f9f3709b","session_id":"6196bf5ecf90c83d0715552c","condition":"contingent","relevant_dimensions":["wings","legs"],"bee_group":{"antennae":"X","wings":"1","pattern":"X","legs":"F"},"action":"avoid","summary":"good-avoid","bonus":0.9000000000000008},{"rt":1672,"stimulus":"\n                    <p><b>Action: <em>avoid</em></b></p>\n                    <p>This is the bee that you just saw.</p>\n                    <img src=\"bees-with-color/bee-B1SF.svg\" width=\"200\">\n                    <p><br>Your bonus pay is unchanged, and remains at $0.40.</p>\n            ","response":0,"trial_type":"html-button-response","trial_index":30,"time_elapsed":235490,"internal_node_id":"0.0-4.0-1.11","subject_id":"61634b983fa2b375f536ab34","study_id":"60edd13110225f80f9f3709b","session_id":"6196bf5ecf90c83d0715552c","condition":"contingent","relevant_dimensions":["wings","legs"],"bee_group":{"antennae":"X","wings":"1","pattern":"X","legs":"F"},"bonus":0.9000000000000008},{"rt":4706.10000000149,"stimulus":"bees-with-color/bee-B2DF.svg","response":1,"trial_type":"image-button-response","trial_index":31,"time_elapsed":240197,"internal_node_id":"0.0-4.0-0.12","subject_id":"61634b983fa2b375f536ab34","study_id":"60edd13110225f80f9f3709b","session_id":"6196bf5ecf90c83d0715552c","condition":"contingent","relevant_dimensions":["wings","legs"],"bee_group":{"antennae":"X","wings":"1","pattern":"X","legs":"F"},"action":"avoid","summary":"bad-avoid","bonus":0.9000000000000008},{"rt":1087.2000000029802,"stimulus":"\n                    <p><b>Action: <em>avoid</em></b></p>\n                    <p>This is the bee that you just saw.</p>\n                    <img src=\"bees-with-color/bee-B2DF.svg\" width=\"200\">\n                    <p><br>Your bonus pay is unchanged, and remains at $0.40.</p>\n            ","response":0,"trial_type":"html-button-response","trial_index":32,"time_elapsed":241285,"internal_node_id":"0.0-4.0-1.12","subject_id":"61634b983fa2b375f536ab34","study_id":"60edd13110225f80f9f3709b","session_id":"6196bf5ecf90c83d0715552c","condition":"contingent","relevant_dimensions":["wings","legs"],"bee_group":{"antennae":"X","wings":"1","pattern":"X","legs":"F"},"bonus":0.9000000000000008},{"rt":1771.1000000014901,"stimulus":"bees-with-color/bee-B2SF.svg","response":0,"trial_type":"image-button-response","trial_index":33,"time_elapsed":243057,"internal_node_id":"0.0-4.0-0.13","subject_id":"61634b983fa2b375f536ab34","study_id":"60edd13110225f80f9f3709b","session_id":"6196bf5ecf90c83d0715552c","condition":"contingent","relevant_dimensions":["wings","legs"],"bee_group":{"antennae":"X","wings":"1","pattern":"X","legs":"F"},"action":"harvest","summary":"good-harvest","bonus":0.9000000000000008},{"rt":1277.8999999985099,"stimulus":"\n                    <p><b>Action: <em>harvest</em></b></p>\n                    <p>This is the bee that you just saw.</p>\n                    <img src=\"bees-with-color/bee-B2SF.svg\" width=\"200\">\n                    <p><span class=\"greenText\"><b>Successful harvest!</b></span><br>Your pay has increased by $0.02. Your bonus pay is now $0.42.</p>\n            ","response":0,"trial_type":"html-button-response","trial_index":34,"time_elapsed":244336,"internal_node_id":"0.0-4.0-1.13","subject_id":"61634b983fa2b375f536ab34","study_id":"60edd13110225f80f9f3709b","session_id":"6196bf5ecf90c83d0715552c","condition":"contingent","relevant_dimensions":["wings","legs"],"bee_group":{"antennae":"X","wings":"1","pattern":"X","legs":"F"},"bonus":0.9000000000000008},{"rt":3029.39999999851,"stimulus":"bees-with-color/bee-A1DM.svg","response":0,"trial_type":"image-button-response","trial_index":35,"time_elapsed":247366,"internal_node_id":"0.0-4.0-0.14","subject_id":"61634b983fa2b375f536ab34","study_id":"60edd13110225f80f9f3709b","session_id":"6196bf5ecf90c83d0715552c","condition":"contingent","relevant_dimensions":["wings","legs"],"bee_group":{"antennae":"X","wings":"1","pattern":"X","legs":"F"},"action":"harvest","summary":"good-harvest","bonus":0.9000000000000008},{"rt":856.2000000029802,"stimulus":"\n                    <p><b>Action: <em>harvest</em></b></p>\n                    <p>This is the bee that you just saw.</p>\n                    <img src=\"bees-with-color/bee-A1DM.svg\" width=\"200\">\n                    <p><span class=\"greenText\"><b>Successful harvest!</b></span><br>Your pay has increased by $0.02. Your bonus pay is now $0.44.</p>\n            ","response":0,"trial_type":"html-button-response","trial_index":36,"time_elapsed":248223,"internal_node_id":"0.0-4.0-1.14","subject_id":"61634b983fa2b375f536ab34","study_id":"60edd13110225f80f9f3709b","session_id":"6196bf5ecf90c83d0715552c","condition":"contingent","relevant_dimensions":["wings","legs"],"bee_group":{"antennae":"X","wings":"1","pattern":"X","legs":"F"},"bonus":0.9000000000000008},{"rt":2120.6999999955297,"stimulus":"bees-with-color/bee-B2SM.svg","response":1,"trial_type":"image-button-response","trial_index":37,"time_elapsed":250345,"internal_node_id":"0.0-4.0-0.15","subject_id":"61634b983fa2b375f536ab34","study_id":"60edd13110225f80f9f3709b","session_id":"6196bf5ecf90c83d0715552c","condition":"contingent","relevant_dimensions":["wings","legs"],"bee_group":{"antennae":"X","wings":"1","pattern":"X","legs":"F"},"action":"avoid","summary":"bad-avoid","bonus":0.9000000000000008},{"rt":979.1000000014901,"stimulus":"\n                    <p><b>Action: <em>avoid</em></b></p>\n                    <p>This is the bee that you just saw.</p>\n                    <img src=\"bees-with-color/bee-B2SM.svg\" width=\"200\">\n                    <p><br>Your bonus pay is unchanged, and remains at $0.44.</p>\n            ","response":0,"trial_type":"html-button-response","trial_index":38,"time_elapsed":251325,"internal_node_id":"0.0-4.0-1.15","subject_id":"61634b983fa2b375f536ab34","study_id":"60edd13110225f80f9f3709b","session_id":"6196bf5ecf90c83d0715552c","condition":"contingent","relevant_dimensions":["wings","legs"],"bee_group":{"antennae":"X","wings":"1","pattern":"X","legs":"F"},"bonus":0.9000000000000008},{"rt":1604.8999999985099,"stimulus":"bees-with-color/bee-A2DF.svg","response":0,"trial_type":"image-button-response","trial_index":39,"time_elapsed":252931,"internal_node_id":"0.0-4.0-0.16","subject_id":"61634b983fa2b375f536ab34","study_id":"60edd13110225f80f9f3709b","session_id":"6196bf5ecf90c83d0715552c","condition":"contingent","relevant_dimensions":["wings","legs"],"bee_group":{"antennae":"X","wings":"1","pattern":"X","legs":"F"},"action":"harvest","summary":"good-harvest","bonus":0.9000000000000008},{"rt":881,"stimulus":"\n                    <p><b>Action: <em>harvest</em></b></p>\n                    <p>This is the bee that you just saw.</p>\n                    <img src=\"bees-with-color/bee-A2DF.svg\" width=\"200\">\n                    <p><span class=\"greenText\"><b>Successful harvest!</b></span><br>Your pay has increased by $0.02. Your bonus pay is now $0.46.</p>\n            ","response":0,"trial_type":"html-button-response","trial_index":40,"time_elapsed":253813,"internal_node_id":"0.0-4.0-1.16","subject_id":"61634b983fa2b375f536ab34","study_id":"60edd13110225f80f9f3709b","session_id":"6196bf5ecf90c83d0715552c","condition":"contingent","relevant_dimensions":["wings","legs"],"bee_group":{"antennae":"X","wings":"1","pattern":"X","legs":"F"},"bonus":0.9000000000000008},{"rt":1140.1000000014901,"stimulus":"bees-with-color/bee-B2DF.svg","response":0,"trial_type":"image-button-response","trial_index":41,"time_elapsed":254954,"internal_node_id":"0.0-4.0-0.17","subject_id":"61634b983fa2b375f536ab34","study_id":"60edd13110225f80f9f3709b","session_id":"6196bf5ecf90c83d0715552c","condition":"contingent","relevant_dimensions":["wings","legs"],"bee_group":{"antennae":"X","wings":"1","pattern":"X","legs":"F"},"action":"harvest","summary":"good-harvest","bonus":0.9000000000000008},{"rt":1041,"stimulus":"\n                    <p><b>Action: <em>harvest</em></b></p>\n                    <p>This is the bee that you just saw.</p>\n                    <img src=\"bees-with-color/bee-B2DF.svg\" width=\"200\">\n                    <p><span class=\"greenText\"><b>Successful harvest!</b></span><br>Your pay has increased by $0.02. Your bonus pay is now $0.48.</p>\n            ","response":0,"trial_type":"html-button-response","trial_index":42,"time_elapsed":255996,"internal_node_id":"0.0-4.0-1.17","subject_id":"61634b983fa2b375f536ab34","study_id":"60edd13110225f80f9f3709b","session_id":"6196bf5ecf90c83d0715552c","condition":"contingent","relevant_dimensions":["wings","legs"],"bee_group":{"antennae":"X","wings":"1","pattern":"X","legs":"F"},"bonus":0.9000000000000008},{"rt":1791.1000000014901,"stimulus":"bees-with-color/bee-B1SF.svg","response":1,"trial_type":"image-button-response","trial_index":43,"time_elapsed":257788,"internal_node_id":"0.0-4.0-0.18","subject_id":"61634b983fa2b375f536ab34","study_id":"60edd13110225f80f9f3709b","session_id":"6196bf5ecf90c83d0715552c","condition":"contingent","relevant_dimensions":["wings","legs"],"bee_group":{"antennae":"X","wings":"1","pattern":"X","legs":"F"},"action":"avoid","summary":"good-avoid","bonus":0.9000000000000008},{"rt":650.2000000029802,"stimulus":"\n                    <p><b>Action: <em>avoid</em></b></p>\n                    <p>This is the bee that you just saw.</p>\n                    <img src=\"bees-with-color/bee-B1SF.svg\" width=\"200\">\n                    <p><br>Your bonus pay is unchanged, and remains at $0.48.</p>\n            ","response":0,"trial_type":"html-button-response","trial_index":44,"time_elapsed":258439,"internal_node_id":"0.0-4.0-1.18","subject_id":"61634b983fa2b375f536ab34","study_id":"60edd13110225f80f9f3709b","session_id":"6196bf5ecf90c83d0715552c","condition":"contingent","relevant_dimensions":["wings","legs"],"bee_group":{"antennae":"X","wings":"1","pattern":"X","legs":"F"},"bonus":0.9000000000000008},{"rt":738.1999999955297,"stimulus":"bees-with-color/bee-B1SM.svg","response":1,"trial_type":"image-button-response","trial_index":45,"time_elapsed":259178,"internal_node_id":"0.0-4.0-0.19","subject_id":"61634b983fa2b375f536ab34","study_id":"60edd13110225f80f9f3709b","session_id":"6196bf5ecf90c83d0715552c","condition":"contingent","relevant_dimensions":["wings","legs"],"bee_group":{"antennae":"X","wings":"1","pattern":"X","legs":"F"},"action":"avoid","summary":"bad-avoid","bonus":0.9000000000000008},{"rt":654.1000000014901,"stimulus":"\n                    <p><b>Action: <em>avoid</em></b></p>\n                    <p>This is the bee that you just saw.</p>\n                    <img src=\"bees-with-color/bee-B1SM.svg\" width=\"200\">\n                    <p><br>Your bonus pay is unchanged, and remains at $0.48.</p>\n            ","response":0,"trial_type":"html-button-response","trial_index":46,"time_elapsed":259833,"internal_node_id":"0.0-4.0-1.19","subject_id":"61634b983fa2b375f536ab34","study_id":"60edd13110225f80f9f3709b","session_id":"6196bf5ecf90c83d0715552c","condition":"contingent","relevant_dimensions":["wings","legs"],"bee_group":{"antennae":"X","wings":"1","pattern":"X","legs":"F"},"bonus":0.9000000000000008},{"rt":2810.10000000149,"stimulus":"bees-with-color/bee-B1DM.svg","response":1,"trial_type":"image-button-response","trial_index":47,"time_elapsed":262643,"internal_node_id":"0.0-4.0-0.20","subject_id":"61634b983fa2b375f536ab34","study_id":"60edd13110225f80f9f3709b","session_id":"6196bf5ecf90c83d0715552c","condition":"contingent","relevant_dimensions":["wings","legs"],"bee_group":{"antennae":"X","wings":"1","pattern":"X","legs":"F"},"action":"avoid","summary":"bad-avoid","bonus":0.9000000000000008},{"rt":640.3999999985099,"stimulus":"\n                    <p><b>Action: <em>avoid</em></b></p>\n                    <p>This is the bee that you just saw.</p>\n                    <img src=\"bees-with-color/bee-B1DM.svg\" width=\"200\">\n                    <p><br>Your bonus pay is unchanged, and remains at $0.48.</p>\n            ","response":0,"trial_type":"html-button-response","trial_index":48,"time_elapsed":263285,"internal_node_id":"0.0-4.0-1.20","subject_id":"61634b983fa2b375f536ab34","study_id":"60edd13110225f80f9f3709b","session_id":"6196bf5ecf90c83d0715552c","condition":"contingent","relevant_dimensions":["wings","legs"],"bee_group":{"antennae":"X","wings":"1","pattern":"X","legs":"F"},"bonus":0.9000000000000008},{"rt":1295.7999999970198,"stimulus":"bees-with-color/bee-A2DM.svg","response":1,"trial_type":"image-button-response","trial_index":49,"time_elapsed":264582,"internal_node_id":"0.0-4.0-0.21","subject_id":"61634b983fa2b375f536ab34","study_id":"60edd13110225f80f9f3709b","session_id":"6196bf5ecf90c83d0715552c","condition":"contingent","relevant_dimensions":["wings","legs"],"bee_group":{"antennae":"X","wings":"1","pattern":"X","legs":"F"},"action":"avoid","summary":"bad-avoid","bonus":0.9000000000000008},{"rt":667.1000000014901,"stimulus":"\n                    <p><b>Action: <em>avoid</em></b></p>\n                    <p>This is the bee that you just saw.</p>\n                    <img src=\"bees-with-color/bee-A2DM.svg\" width=\"200\">\n                    <p><br>Your bonus pay is unchanged, and remains at $0.48.</p>\n            ","response":0,"trial_type":"html-button-response","trial_index":50,"time_elapsed":265250,"internal_node_id":"0.0-4.0-1.21","subject_id":"61634b983fa2b375f536ab34","study_id":"60edd13110225f80f9f3709b","session_id":"6196bf5ecf90c83d0715552c","condition":"contingent","relevant_dimensions":["wings","legs"],"bee_group":{"antennae":"X","wings":"1","pattern":"X","legs":"F"},"bonus":0.9000000000000008},{"rt":1854.3999999985099,"stimulus":"bees-with-color/bee-B1DF.svg","response":0,"trial_type":"image-button-response","trial_index":51,"time_elapsed":267105,"internal_node_id":"0.0-4.0-0.22","subject_id":"61634b983fa2b375f536ab34","study_id":"60edd13110225f80f9f3709b","session_id":"6196bf5ecf90c83d0715552c","condition":"contingent","relevant_dimensions":["wings","legs"],"bee_group":{"antennae":"X","wings":"1","pattern":"X","legs":"F"},"action":"harvest","summary":"bad-harvest","bonus":0.9000000000000008},{"rt":1641,"stimulus":"\n                    <p><b>Action: <em>harvest</em></b></p>\n                    <p>This is the bee that you just saw.</p>\n                    <img src=\"bees-with-color/bee-B1DF.svg\" width=\"200\">\n                    <p><span class=\"redText\">Bad choice, the bee was angry.</span><br><b>You have been stung!</b><br>Your pay has been decreased by $0.10. Your bonus pay is now $0.38.</p>\n            ","response":0,"trial_type":"html-button-response","trial_index":52,"time_elapsed":268747,"internal_node_id":"0.0-4.0-1.22","subject_id":"61634b983fa2b375f536ab34","study_id":"60edd13110225f80f9f3709b","session_id":"6196bf5ecf90c83d0715552c","condition":"contingent","relevant_dimensions":["wings","legs"],"bee_group":{"antennae":"X","wings":"1","pattern":"X","legs":"F"},"bonus":0.9000000000000008},{"rt":1169.2999999970198,"stimulus":"bees-with-color/bee-B2SF.svg","response":1,"trial_type":"image-button-response","trial_index":53,"time_elapsed":269917,"internal_node_id":"0.0-4.0-0.23","subject_id":"61634b983fa2b375f536ab34","study_id":"60edd13110225f80f9f3709b","session_id":"6196bf5ecf90c83d0715552c","condition":"contingent","relevant_dimensions":["wings","legs"],"bee_group":{"antennae":"X","wings":"1","pattern":"X","legs":"F"},"action":"avoid","summary":"bad-avoid","bonus":0.9000000000000008},{"rt":843.8999999985099,"stimulus":"\n                    <p><b>Action: <em>avoid</em></b></p>\n                    <p>This is the bee that you just saw.</p>\n                    <img src=\"bees-with-color/bee-B2SF.svg\" width=\"200\">\n                    <p><br>Your bonus pay is unchanged, and remains at $0.38.</p>\n            ","response":0,"trial_type":"html-button-response","trial_index":54,"time_elapsed":270762,"internal_node_id":"0.0-4.0-1.23","subject_id":"61634b983fa2b375f536ab34","study_id":"60edd13110225f80f9f3709b","session_id":"6196bf5ecf90c83d0715552c","condition":"contingent","relevant_dimensions":["wings","legs"],"bee_group":{"antennae":"X","wings":"1","pattern":"X","legs":"F"},"bonus":0.9000000000000008},{"rt":572.2999999970198,"stimulus":"bees-with-color/bee-A1SM.svg","response":1,"trial_type":"image-button-response","trial_index":55,"time_elapsed":271335,"internal_node_id":"0.0-4.0-0.24","subject_id":"61634b983fa2b375f536ab34","study_id":"60edd13110225f80f9f3709b","session_id":"6196bf5ecf90c83d0715552c","condition":"contingent","relevant_dimensions":["wings","legs"],"bee_group":{"antennae":"X","wings":"1","pattern":"X","legs":"F"},"action":"avoid","summary":"bad-avoid","bonus":0.9000000000000008},{"rt":687,"stimulus":"\n                    <p><b>Action: <em>avoid</em></b></p>\n                    <p>This is the bee that you just saw.</p>\n                    <img src=\"bees-with-color/bee-A1SM.svg\" width=\"200\">\n                    <p><br>Your bonus pay is unchanged, and remains at $0.38.</p>\n            ","response":0,"trial_type":"html-button-response","trial_index":56,"time_elapsed":272023,"internal_node_id":"0.0-4.0-1.24","subject_id":"61634b983fa2b375f536ab34","study_id":"60edd13110225f80f9f3709b","session_id":"6196bf5ecf90c83d0715552c","condition":"contingent","relevant_dimensions":["wings","legs"],"bee_group":{"antennae":"X","wings":"1","pattern":"X","legs":"F"},"bonus":0.9000000000000008},{"rt":548.1000000014901,"stimulus":"bees-with-color/bee-A2SM.svg","response":1,"trial_type":"image-button-response","trial_index":57,"time_elapsed":272572,"internal_node_id":"0.0-4.0-0.25","subject_id":"61634b983fa2b375f536ab34","study_id":"60edd13110225f80f9f3709b","session_id":"6196bf5ecf90c83d0715552c","condition":"contingent","relevant_dimensions":["wings","legs"],"bee_group":{"antennae":"X","wings":"1","pattern":"X","legs":"F"},"action":"avoid","summary":"bad-avoid","bonus":0.9000000000000008},{"rt":767.1000000014901,"stimulus":"\n                    <p><b>Action: <em>avoid</em></b></p>\n                    <p>This is the bee that you just saw.</p>\n                    <img src=\"bees-with-color/bee-A2SM.svg\" width=\"200\">\n                    <p><br>Your bonus pay is unchanged, and remains at $0.38.</p>\n            ","response":0,"trial_type":"html-button-response","trial_index":58,"time_elapsed":273340,"internal_node_id":"0.0-4.0-1.25","subject_id":"61634b983fa2b375f536ab34","study_id":"60edd13110225f80f9f3709b","session_id":"6196bf5ecf90c83d0715552c","condition":"contingent","relevant_dimensions":["wings","legs"],"bee_group":{"antennae":"X","wings":"1","pattern":"X","legs":"F"},"bonus":0.9000000000000008},{"rt":2252,"stimulus":"bees-with-color/bee-A2SF.svg","response":0,"trial_type":"image-button-response","trial_index":59,"time_elapsed":275593,"internal_node_id":"0.0-4.0-0.26","subject_id":"61634b983fa2b375f536ab34","study_id":"60edd13110225f80f9f3709b","session_id":"6196bf5ecf90c83d0715552c","condition":"contingent","relevant_dimensions":["wings","legs"],"bee_group":{"antennae":"X","wings":"1","pattern":"X","legs":"F"},"action":"harvest","summary":"good-harvest","bonus":0.9000000000000008},{"rt":758.7000000029802,"stimulus":"\n                    <p><b>Action: <em>harvest</em></b></p>\n                    <p>This is the bee that you just saw.</p>\n                    <img src=\"bees-with-color/bee-A2SF.svg\" width=\"200\">\n                    <p><span class=\"greenText\"><b>Successful harvest!</b></span><br>Your pay has increased by $0.02. Your bonus pay is now $0.40.</p>\n            ","response":0,"trial_type":"html-button-response","trial_index":60,"time_elapsed":276352,"internal_node_id":"0.0-4.0-1.26","subject_id":"61634b983fa2b375f536ab34","study_id":"60edd13110225f80f9f3709b","session_id":"6196bf5ecf90c83d0715552c","condition":"contingent","relevant_dimensions":["wings","legs"],"bee_group":{"antennae":"X","wings":"1","pattern":"X","legs":"F"},"bonus":0.9000000000000008},{"rt":1449.6000000014901,"stimulus":"bees-with-color/bee-A1DM.svg","response":1,"trial_type":"image-button-response","trial_index":61,"time_elapsed":277803,"internal_node_id":"0.0-4.0-0.27","subject_id":"61634b983fa2b375f536ab34","study_id":"60edd13110225f80f9f3709b","session_id":"6196bf5ecf90c83d0715552c","condition":"contingent","relevant_dimensions":["wings","legs"],"bee_group":{"antennae":"X","wings":"1","pattern":"X","legs":"F"},"action":"avoid","summary":"bad-avoid","bonus":0.9000000000000008},{"rt":527.1000000014901,"stimulus":"\n                    <p><b>Action: <em>avoid</em></b></p>\n                    <p>This is the bee that you just saw.</p>\n                    <img src=\"bees-with-color/bee-A1DM.svg\" width=\"200\">\n                    <p><br>Your bonus pay is unchanged, and remains at $0.40.</p>\n            ","response":0,"trial_type":"html-button-response","trial_index":62,"time_elapsed":278331,"internal_node_id":"0.0-4.0-1.27","subject_id":"61634b983fa2b375f536ab34","study_id":"60edd13110225f80f9f3709b","session_id":"6196bf5ecf90c83d0715552c","condition":"contingent","relevant_dimensions":["wings","legs"],"bee_group":{"antennae":"X","wings":"1","pattern":"X","legs":"F"},"bonus":0.9000000000000008},{"rt":915.3999999985099,"stimulus":"bees-with-color/bee-A1SF.svg","response":0,"trial_type":"image-button-response","trial_index":63,"time_elapsed":279247,"internal_node_id":"0.0-4.0-0.28","subject_id":"61634b983fa2b375f536ab34","study_id":"60edd13110225f80f9f3709b","session_id":"6196bf5ecf90c83d0715552c","condition":"contingent","relevant_dimensions":["wings","legs"],"bee_group":{"antennae":"X","wings":"1","pattern":"X","legs":"F"},"action":"harvest","summary":"bad-harvest","bonus":0.9000000000000008},{"rt":967,"stimulus":"\n                    <p><b>Action: <em>harvest</em></b></p>\n                    <p>This is the bee that you just saw.</p>\n                    <img src=\"bees-with-color/bee-A1SF.svg\" width=\"200\">\n                    <p><span class=\"redText\">Bad choice, the bee was angry.</span><br><b>You have been stung!</b><br>Your pay has been decreased by $0.10. Your bonus pay is now $0.30.</p>\n            ","response":0,"trial_type":"html-button-response","trial_index":64,"time_elapsed":280215,"internal_node_id":"0.0-4.0-1.28","subject_id":"61634b983fa2b375f536ab34","study_id":"60edd13110225f80f9f3709b","session_id":"6196bf5ecf90c83d0715552c","condition":"contingent","relevant_dimensions":["wings","legs"],"bee_group":{"antennae":"X","wings":"1","pattern":"X","legs":"F"},"bonus":0.9000000000000008},{"rt":520.1999999955297,"stimulus":"bees-with-color/bee-B2SM.svg","response":1,"trial_type":"image-button-response","trial_index":65,"time_elapsed":280736,"internal_node_id":"0.0-4.0-0.29","subject_id":"61634b983fa2b375f536ab34","study_id":"60edd13110225f80f9f3709b","session_id":"6196bf5ecf90c83d0715552c","condition":"contingent","relevant_dimensions":["wings","legs"],"bee_group":{"antennae":"X","wings":"1","pattern":"X","legs":"F"},"action":"avoid","summary":"bad-avoid","bonus":0.9000000000000008},{"rt":915.3000000044703,"stimulus":"\n                    <p><b>Action: <em>avoid</em></b></p>\n                    <p>This is the bee that you just saw.</p>\n                    <img src=\"bees-with-color/bee-B2SM.svg\" width=\"200\">\n                    <p><br>Your bonus pay is unchanged, and remains at $0.30.</p>\n            ","response":0,"trial_type":"html-button-response","trial_index":66,"time_elapsed":281652,"internal_node_id":"0.0-4.0-1.29","subject_id":"61634b983fa2b375f536ab34","study_id":"60edd13110225f80f9f3709b","session_id":"6196bf5ecf90c83d0715552c","condition":"contingent","relevant_dimensions":["wings","legs"],"bee_group":{"antennae":"X","wings":"1","pattern":"X","legs":"F"},"bonus":0.9000000000000008},{"rt":1508.8999999985099,"stimulus":"bees-with-color/bee-A1DF.svg","response":1,"trial_type":"image-button-response","trial_index":67,"time_elapsed":283162,"internal_node_id":"0.0-4.0-0.30","subject_id":"61634b983fa2b375f536ab34","study_id":"60edd13110225f80f9f3709b","session_id":"6196bf5ecf90c83d0715552c","condition":"contingent","relevant_dimensions":["wings","legs"],"bee_group":{"antennae":"X","wings":"1","pattern":"X","legs":"F"},"action":"avoid","summary":"good-avoid","bonus":0.9000000000000008},{"rt":607.0999999940395,"stimulus":"\n                    <p><b>Action: <em>avoid</em></b></p>\n                    <p>This is the bee that you just saw.</p>\n                    <img src=\"bees-with-color/bee-A1DF.svg\" width=\"200\">\n                    <p><br>Your bonus pay is unchanged, and remains at $0.30.</p>\n            ","response":0,"trial_type":"html-button-response","trial_index":68,"time_elapsed":283770,"internal_node_id":"0.0-4.0-1.30","subject_id":"61634b983fa2b375f536ab34","study_id":"60edd13110225f80f9f3709b","session_id":"6196bf5ecf90c83d0715552c","condition":"contingent","relevant_dimensions":["wings","legs"],"bee_group":{"antennae":"X","wings":"1","pattern":"X","legs":"F"},"bonus":0.9000000000000008},{"rt":1101.1999999955297,"stimulus":"bees-with-color/bee-B2DM.svg","response":0,"trial_type":"image-button-response","trial_index":69,"time_elapsed":284872,"internal_node_id":"0.0-4.0-0.31","subject_id":"61634b983fa2b375f536ab34","study_id":"60edd13110225f80f9f3709b","session_id":"6196bf5ecf90c83d0715552c","condition":"contingent","relevant_dimensions":["wings","legs"],"bee_group":{"antennae":"X","wings":"1","pattern":"X","legs":"F"},"action":"harvest","summary":"good-harvest","bonus":0.9000000000000008},{"rt":660.1999999955297,"stimulus":"\n                    <p><b>Action: <em>harvest</em></b></p>\n                    <p>This is the bee that you just saw.</p>\n                    <img src=\"bees-with-color/bee-B2DM.svg\" width=\"200\">\n                    <p><span class=\"greenText\"><b>Successful harvest!</b></span><br>Your pay has increased by $0.02. Your bonus pay is now $0.32.</p>\n            ","response":0,"trial_type":"html-button-response","trial_index":70,"time_elapsed":285533,"internal_node_id":"0.0-4.0-1.31","subject_id":"61634b983fa2b375f536ab34","study_id":"60edd13110225f80f9f3709b","session_id":"6196bf5ecf90c83d0715552c","condition":"contingent","relevant_dimensions":["wings","legs"],"bee_group":{"antennae":"X","wings":"1","pattern":"X","legs":"F"},"bonus":0.9000000000000008},{"rt":2865.1999999955297,"stimulus":"bees-with-color/bee-B2SF.svg","response":0,"trial_type":"image-button-response","trial_index":71,"time_elapsed":288399,"internal_node_id":"0.0-4.0-0.32","subject_id":"61634b983fa2b375f536ab34","study_id":"60edd13110225f80f9f3709b","session_id":"6196bf5ecf90c83d0715552c","condition":"contingent","relevant_dimensions":["wings","legs"],"bee_group":{"antennae":"X","wings":"1","pattern":"X","legs":"F"},"action":"harvest","summary":"good-harvest","bonus":0.9000000000000008},{"rt":859,"stimulus":"\n                    <p><b>Action: <em>harvest</em></b></p>\n                    <p>This is the bee that you just saw.</p>\n                    <img src=\"bees-with-color/bee-B2SF.svg\" width=\"200\">\n                    <p><span class=\"greenText\"><b>Successful harvest!</b></span><br>Your pay has increased by $0.02. Your bonus pay is now $0.34.</p>\n            ","response":0,"trial_type":"html-button-response","trial_index":72,"time_elapsed":289259,"internal_node_id":"0.0-4.0-1.32","subject_id":"61634b983fa2b375f536ab34","study_id":"60edd13110225f80f9f3709b","session_id":"6196bf5ecf90c83d0715552c","condition":"contingent","relevant_dimensions":["wings","legs"],"bee_group":{"antennae":"X","wings":"1","pattern":"X","legs":"F"},"bonus":0.9000000000000008},{"rt":1502.1000000014901,"stimulus":"bees-with-color/bee-B2SM.svg","response":1,"trial_type":"image-button-response","trial_index":73,"time_elapsed":290762,"internal_node_id":"0.0-4.0-0.33","subject_id":"61634b983fa2b375f536ab34","study_id":"60edd13110225f80f9f3709b","session_id":"6196bf5ecf90c83d0715552c","condition":"contingent","relevant_dimensions":["wings","legs"],"bee_group":{"antennae":"X","wings":"1","pattern":"X","legs":"F"},"action":"avoid","summary":"bad-avoid","bonus":0.9000000000000008},{"rt":634.8999999985099,"stimulus":"\n                    <p><b>Action: <em>avoid</em></b></p>\n                    <p>This is the bee that you just saw.</p>\n                    <img src=\"bees-with-color/bee-B2SM.svg\" width=\"200\">\n                    <p><br>Your bonus pay is unchanged, and remains at $0.34.</p>\n            ","response":0,"trial_type":"html-button-response","trial_index":74,"time_elapsed":291398,"internal_node_id":"0.0-4.0-1.33","subject_id":"61634b983fa2b375f536ab34","study_id":"60edd13110225f80f9f3709b","session_id":"6196bf5ecf90c83d0715552c","condition":"contingent","relevant_dimensions":["wings","legs"],"bee_group":{"antennae":"X","wings":"1","pattern":"X","legs":"F"},"bonus":0.9000000000000008},{"rt":3115.10000000149,"stimulus":"bees-with-color/bee-A1SM.svg","response":1,"trial_type":"image-button-response","trial_index":75,"time_elapsed":294514,"internal_node_id":"0.0-4.0-0.34","subject_id":"61634b983fa2b375f536ab34","study_id":"60edd13110225f80f9f3709b","session_id":"6196bf5ecf90c83d0715552c","condition":"contingent","relevant_dimensions":["wings","legs"],"bee_group":{"antennae":"X","wings":"1","pattern":"X","legs":"F"},"action":"avoid","summary":"bad-avoid","bonus":0.9000000000000008},{"rt":615.8999999985099,"stimulus":"\n                    <p><b>Action: <em>avoid</em></b></p>\n                    <p>This is the bee that you just saw.</p>\n                    <img src=\"bees-with-color/bee-A1SM.svg\" width=\"200\">\n                    <p><br>Your bonus pay is unchanged, and remains at $0.34.</p>\n            ","response":0,"trial_type":"html-button-response","trial_index":76,"time_elapsed":295131,"internal_node_id":"0.0-4.0-1.34","subject_id":"61634b983fa2b375f536ab34","study_id":"60edd13110225f80f9f3709b","session_id":"6196bf5ecf90c83d0715552c","condition":"contingent","relevant_dimensions":["wings","legs"],"bee_group":{"antennae":"X","wings":"1","pattern":"X","legs":"F"},"bonus":0.9000000000000008},{"rt":2291.7999999970198,"stimulus":"bees-with-color/bee-B1DF.svg","response":1,"trial_type":"image-button-response","trial_index":77,"time_elapsed":297424,"internal_node_id":"0.0-4.0-0.35","subject_id":"61634b983fa2b375f536ab34","study_id":"60edd13110225f80f9f3709b","session_id":"6196bf5ecf90c83d0715552c","condition":"contingent","relevant_dimensions":["wings","legs"],"bee_group":{"antennae":"X","wings":"1","pattern":"X","legs":"F"},"action":"avoid","summary":"good-avoid","bonus":0.9000000000000008},{"rt":681.1999999955297,"stimulus":"\n                    <p><b>Action: <em>avoid</em></b></p>\n                    <p>This is the bee that you just saw.</p>\n                    <img src=\"bees-with-color/bee-B1DF.svg\" width=\"200\">\n                    <p><br>Your bonus pay is unchanged, and remains at $0.34.</p>\n            ","response":0,"trial_type":"html-button-response","trial_index":78,"time_elapsed":298106,"internal_node_id":"0.0-4.0-1.35","subject_id":"61634b983fa2b375f536ab34","study_id":"60edd13110225f80f9f3709b","session_id":"6196bf5ecf90c83d0715552c","condition":"contingent","relevant_dimensions":["wings","legs"],"bee_group":{"antennae":"X","wings":"1","pattern":"X","legs":"F"},"bonus":0.9000000000000008},{"rt":1497.5,"stimulus":"bees-with-color/bee-A2SF.svg","response":0,"trial_type":"image-button-response","trial_index":79,"time_elapsed":299604,"internal_node_id":"0.0-4.0-0.36","subject_id":"61634b983fa2b375f536ab34","study_id":"60edd13110225f80f9f3709b","session_id":"6196bf5ecf90c83d0715552c","condition":"contingent","relevant_dimensions":["wings","legs"],"bee_group":{"antennae":"X","wings":"1","pattern":"X","legs":"F"},"action":"harvest","summary":"good-harvest","bonus":0.9000000000000008},{"rt":856,"stimulus":"\n                    <p><b>Action: <em>harvest</em></b></p>\n                    <p>This is the bee that you just saw.</p>\n                    <img src=\"bees-with-color/bee-A2SF.svg\" width=\"200\">\n                    <p><span class=\"greenText\"><b>Successful harvest!</b></span><br>Your pay has increased by $0.02. Your bonus pay is now $0.36.</p>\n            ","response":0,"trial_type":"html-button-response","trial_index":80,"time_elapsed":300461,"internal_node_id":"0.0-4.0-1.36","subject_id":"61634b983fa2b375f536ab34","study_id":"60edd13110225f80f9f3709b","session_id":"6196bf5ecf90c83d0715552c","condition":"contingent","relevant_dimensions":["wings","legs"],"bee_group":{"antennae":"X","wings":"1","pattern":"X","legs":"F"},"bonus":0.9000000000000008},{"rt":1066.2999999970198,"stimulus":"bees-with-color/bee-B1DM.svg","response":1,"trial_type":"image-button-response","trial_index":81,"time_elapsed":301528,"internal_node_id":"0.0-4.0-0.37","subject_id":"61634b983fa2b375f536ab34","study_id":"60edd13110225f80f9f3709b","session_id":"6196bf5ecf90c83d0715552c","condition":"contingent","relevant_dimensions":["wings","legs"],"bee_group":{"antennae":"X","wings":"1","pattern":"X","legs":"F"},"action":"avoid","summary":"bad-avoid","bonus":0.9000000000000008},{"rt":633.1999999955297,"stimulus":"\n                    <p><b>Action: <em>avoid</em></b></p>\n                    <p>This is the bee that you just saw.</p>\n                    <img src=\"bees-with-color/bee-B1DM.svg\" width=\"200\">\n                    <p><br>Your bonus pay is unchanged, and remains at $0.36.</p>\n            ","response":0,"trial_type":"html-button-response","trial_index":82,"time_elapsed":302162,"internal_node_id":"0.0-4.0-1.37","subject_id":"61634b983fa2b375f536ab34","study_id":"60edd13110225f80f9f3709b","session_id":"6196bf5ecf90c83d0715552c","condition":"contingent","relevant_dimensions":["wings","legs"],"bee_group":{"antennae":"X","wings":"1","pattern":"X","legs":"F"},"bonus":0.9000000000000008},{"rt":965.3999999985099,"stimulus":"bees-with-color/bee-A1SF.svg","response":1,"trial_type":"image-button-response","trial_index":83,"time_elapsed":303128,"internal_node_id":"0.0-4.0-0.38","subject_id":"61634b983fa2b375f536ab34","study_id":"60edd13110225f80f9f3709b","session_id":"6196bf5ecf90c83d0715552c","condition":"contingent","relevant_dimensions":["wings","legs"],"bee_group":{"antennae":"X","wings":"1","pattern":"X","legs":"F"},"action":"avoid","summary":"good-avoid","bonus":0.9000000000000008},{"rt":573.3999999985099,"stimulus":"\n                    <p><b>Action: <em>avoid</em></b></p>\n                    <p>This is the bee that you just saw.</p>\n                    <img src=\"bees-with-color/bee-A1SF.svg\" width=\"200\">\n                    <p><br>Your bonus pay is unchanged, and remains at $0.36.</p>\n            ","response":0,"trial_type":"html-button-response","trial_index":84,"time_elapsed":303702,"internal_node_id":"0.0-4.0-1.38","subject_id":"61634b983fa2b375f536ab34","study_id":"60edd13110225f80f9f3709b","session_id":"6196bf5ecf90c83d0715552c","condition":"contingent","relevant_dimensions":["wings","legs"],"bee_group":{"antennae":"X","wings":"1","pattern":"X","legs":"F"},"bonus":0.9000000000000008},{"rt":983.7999999970198,"stimulus":"bees-with-color/bee-A2DF.svg","response":0,"trial_type":"image-button-response","trial_index":85,"time_elapsed":304687,"internal_node_id":"0.0-4.0-0.39","subject_id":"61634b983fa2b375f536ab34","study_id":"60edd13110225f80f9f3709b","session_id":"6196bf5ecf90c83d0715552c","condition":"contingent","relevant_dimensions":["wings","legs"],"bee_group":{"antennae":"X","wings":"1","pattern":"X","legs":"F"},"action":"harvest","summary":"good-harvest","bonus":0.9000000000000008},{"rt":696.9000000059605,"stimulus":"\n                    <p><b>Action: <em>harvest</em></b></p>\n                    <p>This is the bee that you just saw.</p>\n                    <img src=\"bees-with-color/bee-A2DF.svg\" width=\"200\">\n                    <p><span class=\"greenText\"><b>Successful harvest!</b></span><br>Your pay has increased by $0.02. Your bonus pay is now $0.38.</p>\n            ","response":0,"trial_type":"html-button-response","trial_index":86,"time_elapsed":305385,"internal_node_id":"0.0-4.0-1.39","subject_id":"61634b983fa2b375f536ab34","study_id":"60edd13110225f80f9f3709b","session_id":"6196bf5ecf90c83d0715552c","condition":"contingent","relevant_dimensions":["wings","legs"],"bee_group":{"antennae":"X","wings":"1","pattern":"X","legs":"F"},"bonus":0.9000000000000008},{"rt":880.3999999985099,"stimulus":"bees-with-color/bee-A1DM.svg","response":1,"trial_type":"image-button-response","trial_index":87,"time_elapsed":306266,"internal_node_id":"0.0-4.0-0.40","subject_id":"61634b983fa2b375f536ab34","study_id":"60edd13110225f80f9f3709b","session_id":"6196bf5ecf90c83d0715552c","condition":"contingent","relevant_dimensions":["wings","legs"],"bee_group":{"antennae":"X","wings":"1","pattern":"X","legs":"F"},"action":"avoid","summary":"bad-avoid","bonus":0.9000000000000008},{"rt":593,"stimulus":"\n                    <p><b>Action: <em>avoid</em></b></p>\n                    <p>This is the bee that you just saw.</p>\n                    <img src=\"bees-with-color/bee-A1DM.svg\" width=\"200\">\n                    <p><br>Your bonus pay is unchanged, and remains at $0.38.</p>\n            ","response":0,"trial_type":"html-button-response","trial_index":88,"time_elapsed":306860,"internal_node_id":"0.0-4.0-1.40","subject_id":"61634b983fa2b375f536ab34","study_id":"60edd13110225f80f9f3709b","session_id":"6196bf5ecf90c83d0715552c","condition":"contingent","relevant_dimensions":["wings","legs"],"bee_group":{"antennae":"X","wings":"1","pattern":"X","legs":"F"},"bonus":0.9000000000000008},{"rt":580.2999999970198,"stimulus":"bees-with-color/bee-B1SM.svg","response":1,"trial_type":"image-button-response","trial_index":89,"time_elapsed":307441,"internal_node_id":"0.0-4.0-0.41","subject_id":"61634b983fa2b375f536ab34","study_id":"60edd13110225f80f9f3709b","session_id":"6196bf5ecf90c83d0715552c","condition":"contingent","relevant_dimensions":["wings","legs"],"bee_group":{"antennae":"X","wings":"1","pattern":"X","legs":"F"},"action":"avoid","summary":"bad-avoid","bonus":0.9000000000000008},{"rt":477.1000000014901,"stimulus":"\n                    <p><b>Action: <em>avoid</em></b></p>\n                    <p>This is the bee that you just saw.</p>\n                    <img src=\"bees-with-color/bee-B1SM.svg\" width=\"200\">\n                    <p><br>Your bonus pay is unchanged, and remains at $0.38.</p>\n            ","response":0,"trial_type":"html-button-response","trial_index":90,"time_elapsed":307919,"internal_node_id":"0.0-4.0-1.41","subject_id":"61634b983fa2b375f536ab34","study_id":"60edd13110225f80f9f3709b","session_id":"6196bf5ecf90c83d0715552c","condition":"contingent","relevant_dimensions":["wings","legs"],"bee_group":{"antennae":"X","wings":"1","pattern":"X","legs":"F"},"bonus":0.9000000000000008},{"rt":612.8999999985099,"stimulus":"bees-with-color/bee-B1SF.svg","response":1,"trial_type":"image-button-response","trial_index":91,"time_elapsed":308533,"internal_node_id":"0.0-4.0-0.42","subject_id":"61634b983fa2b375f536ab34","study_id":"60edd13110225f80f9f3709b","session_id":"6196bf5ecf90c83d0715552c","condition":"contingent","relevant_dimensions":["wings","legs"],"bee_group":{"antennae":"X","wings":"1","pattern":"X","legs":"F"},"action":"avoid","summary":"good-avoid","bonus":0.9000000000000008},{"rt":464.8999999985099,"stimulus":"\n                    <p><b>Action: <em>avoid</em></b></p>\n                    <p>This is the bee that you just saw.</p>\n                    <img src=\"bees-with-color/bee-B1SF.svg\" width=\"200\">\n                    <p><br>Your bonus pay is unchanged, and remains at $0.38.</p>\n            ","response":0,"trial_type":"html-button-response","trial_index":92,"time_elapsed":308999,"internal_node_id":"0.0-4.0-1.42","subject_id":"61634b983fa2b375f536ab34","study_id":"60edd13110225f80f9f3709b","session_id":"6196bf5ecf90c83d0715552c","condition":"contingent","relevant_dimensions":["wings","legs"],"bee_group":{"antennae":"X","wings":"1","pattern":"X","legs":"F"},"bonus":0.9000000000000008},{"rt":1038.2999999970198,"stimulus":"bees-with-color/bee-A2SM.svg","response":0,"trial_type":"image-button-response","trial_index":93,"time_elapsed":310038,"internal_node_id":"0.0-4.0-0.43","subject_id":"61634b983fa2b375f536ab34","study_id":"60edd13110225f80f9f3709b","session_id":"6196bf5ecf90c83d0715552c","condition":"contingent","relevant_dimensions":["wings","legs"],"bee_group":{"antennae":"X","wings":"1","pattern":"X","legs":"F"},"action":"harvest","summary":"good-harvest","bonus":0.9000000000000008},{"rt":679.8999999985099,"stimulus":"\n                    <p><b>Action: <em>harvest</em></b></p>\n                    <p>This is the bee that you just saw.</p>\n                    <img src=\"bees-with-color/bee-A2SM.svg\" width=\"200\">\n                    <p><span class=\"greenText\"><b>Successful harvest!</b></span><br>Your pay has increased by $0.02. Your bonus pay is now $0.40.</p>\n            ","response":0,"trial_type":"html-button-response","trial_index":94,"time_elapsed":310719,"internal_node_id":"0.0-4.0-1.43","subject_id":"61634b983fa2b375f536ab34","study_id":"60edd13110225f80f9f3709b","session_id":"6196bf5ecf90c83d0715552c","condition":"contingent","relevant_dimensions":["wings","legs"],"bee_group":{"antennae":"X","wings":"1","pattern":"X","legs":"F"},"bonus":0.9000000000000008},{"rt":560.1000000014901,"stimulus":"bees-with-color/bee-B2DM.svg","response":1,"trial_type":"image-button-response","trial_index":95,"time_elapsed":311280,"internal_node_id":"0.0-4.0-0.44","subject_id":"61634b983fa2b375f536ab34","study_id":"60edd13110225f80f9f3709b","session_id":"6196bf5ecf90c83d0715552c","condition":"contingent","relevant_dimensions":["wings","legs"],"bee_group":{"antennae":"X","wings":"1","pattern":"X","legs":"F"},"action":"avoid","summary":"bad-avoid","bonus":0.9000000000000008},{"rt":891.1000000014901,"stimulus":"\n                    <p><b>Action: <em>avoid</em></b></p>\n                    <p>This is the bee that you just saw.</p>\n                    <img src=\"bees-with-color/bee-B2DM.svg\" width=\"200\">\n                    <p><br>Your bonus pay is unchanged, and remains at $0.40.</p>\n            ","response":0,"trial_type":"html-button-response","trial_index":96,"time_elapsed":312172,"internal_node_id":"0.0-4.0-1.44","subject_id":"61634b983fa2b375f536ab34","study_id":"60edd13110225f80f9f3709b","session_id":"6196bf5ecf90c83d0715552c","condition":"contingent","relevant_dimensions":["wings","legs"],"bee_group":{"antennae":"X","wings":"1","pattern":"X","legs":"F"},"bonus":0.9000000000000008},{"rt":823,"stimulus":"bees-with-color/bee-A1DF.svg","response":1,"trial_type":"image-button-response","trial_index":97,"time_elapsed":312996,"internal_node_id":"0.0-4.0-0.45","subject_id":"61634b983fa2b375f536ab34","study_id":"60edd13110225f80f9f3709b","session_id":"6196bf5ecf90c83d0715552c","condition":"contingent","relevant_dimensions":["wings","legs"],"bee_group":{"antennae":"X","wings":"1","pattern":"X","legs":"F"},"action":"avoid","summary":"good-avoid","bonus":0.9000000000000008},{"rt":1065.1999999955297,"stimulus":"\n                    <p><b>Action: <em>avoid</em></b></p>\n                    <p>This is the bee that you just saw.</p>\n                    <img src=\"bees-with-color/bee-A1DF.svg\" width=\"200\">\n                    <p><br>Your bonus pay is unchanged, and remains at $0.40.</p>\n            ","response":0,"trial_type":"html-button-response","trial_index":98,"time_elapsed":314062,"internal_node_id":"0.0-4.0-1.45","subject_id":"61634b983fa2b375f536ab34","study_id":"60edd13110225f80f9f3709b","session_id":"6196bf5ecf90c83d0715552c","condition":"contingent","relevant_dimensions":["wings","legs"],"bee_group":{"antennae":"X","wings":"1","pattern":"X","legs":"F"},"bonus":0.9000000000000008},{"rt":1376.2999999970198,"stimulus":"bees-with-color/bee-B2DF.svg","response":0,"trial_type":"image-button-response","trial_index":99,"time_elapsed":315439,"internal_node_id":"0.0-4.0-0.46","subject_id":"61634b983fa2b375f536ab34","study_id":"60edd13110225f80f9f3709b","session_id":"6196bf5ecf90c83d0715552c","condition":"contingent","relevant_dimensions":["wings","legs"],"bee_group":{"antennae":"X","wings":"1","pattern":"X","legs":"F"},"action":"harvest","summary":"good-harvest","bonus":0.9000000000000008},{"rt":980,"stimulus":"\n                    <p><b>Action: <em>harvest</em></b></p>\n                    <p>This is the bee that you just saw.</p>\n                    <img src=\"bees-with-color/bee-B2DF.svg\" width=\"200\">\n                    <p><span class=\"greenText\"><b>Successful harvest!</b></span><br>Your pay has increased by $0.02. Your bonus pay is now $0.42.</p>\n            ","response":0,"trial_type":"html-button-response","trial_index":100,"time_elapsed":316420,"internal_node_id":"0.0-4.0-1.46","subject_id":"61634b983fa2b375f536ab34","study_id":"60edd13110225f80f9f3709b","session_id":"6196bf5ecf90c83d0715552c","condition":"contingent","relevant_dimensions":["wings","legs"],"bee_group":{"antennae":"X","wings":"1","pattern":"X","legs":"F"},"bonus":0.9000000000000008},{"rt":2630.1999999955297,"stimulus":"bees-with-color/bee-A2DM.svg","response":0,"trial_type":"image-button-response","trial_index":101,"time_elapsed":319051,"internal_node_id":"0.0-4.0-0.47","subject_id":"61634b983fa2b375f536ab34","study_id":"60edd13110225f80f9f3709b","session_id":"6196bf5ecf90c83d0715552c","condition":"contingent","relevant_dimensions":["wings","legs"],"bee_group":{"antennae":"X","wings":"1","pattern":"X","legs":"F"},"action":"harvest","summary":"good-harvest","bonus":0.9000000000000008},{"rt":729.3999999985099,"stimulus":"\n                    <p><b>Action: <em>harvest</em></b></p>\n                    <p>This is the bee that you just saw.</p>\n                    <img src=\"bees-with-color/bee-A2DM.svg\" width=\"200\">\n                    <p><span class=\"greenText\"><b>Successful harvest!</b></span><br>Your pay has increased by $0.02. Your bonus pay is now $0.44.</p>\n            ","response":0,"trial_type":"html-button-response","trial_index":102,"time_elapsed":319781,"internal_node_id":"0.0-4.0-1.47","subject_id":"61634b983fa2b375f536ab34","study_id":"60edd13110225f80f9f3709b","session_id":"6196bf5ecf90c83d0715552c","condition":"contingent","relevant_dimensions":["wings","legs"],"bee_group":{"antennae":"X","wings":"1","pattern":"X","legs":"F"},"bonus":0.9000000000000008},{"rt":841.6999999955297,"stimulus":"bees-with-color/bee-B1SF.svg","response":1,"trial_type":"image-button-response","trial_index":103,"time_elapsed":320624,"internal_node_id":"0.0-4.0-0.48","subject_id":"61634b983fa2b375f536ab34","study_id":"60edd13110225f80f9f3709b","session_id":"6196bf5ecf90c83d0715552c","condition":"contingent","relevant_dimensions":["wings","legs"],"bee_group":{"antennae":"X","wings":"1","pattern":"X","legs":"F"},"action":"avoid","summary":"good-avoid","bonus":0.9000000000000008},{"rt":749.1000000014901,"stimulus":"\n                    <p><b>Action: <em>avoid</em></b></p>\n                    <p>This is the bee that you just saw.</p>\n                    <img src=\"bees-with-color/bee-B1SF.svg\" width=\"200\">\n                    <p><br>Your bonus pay is unchanged, and remains at $0.44.</p>\n            ","response":0,"trial_type":"html-button-response","trial_index":104,"time_elapsed":321374,"internal_node_id":"0.0-4.0-1.48","subject_id":"61634b983fa2b375f536ab34","study_id":"60edd13110225f80f9f3709b","session_id":"6196bf5ecf90c83d0715552c","condition":"contingent","relevant_dimensions":["wings","legs"],"bee_group":{"antennae":"X","wings":"1","pattern":"X","legs":"F"},"bonus":0.9000000000000008},{"rt":1004.2999999970198,"stimulus":"bees-with-color/bee-A2DM.svg","response":0,"trial_type":"image-button-response","trial_index":105,"time_elapsed":322379,"internal_node_id":"0.0-4.0-0.49","subject_id":"61634b983fa2b375f536ab34","study_id":"60edd13110225f80f9f3709b","session_id":"6196bf5ecf90c83d0715552c","condition":"contingent","relevant_dimensions":["wings","legs"],"bee_group":{"antennae":"X","wings":"1","pattern":"X","legs":"F"},"action":"harvest","summary":"good-harvest","bonus":0.9000000000000008},{"rt":689.0999999940395,"stimulus":"\n                    <p><b>Action: <em>harvest</em></b></p>\n                    <p>This is the bee that you just saw.</p>\n                    <img src=\"bees-with-color/bee-A2DM.svg\" width=\"200\">\n                    <p><span class=\"greenText\"><b>Successful harvest!</b></span><br>Your pay has increased by $0.02. Your bonus pay is now $0.46.</p>\n            ","response":0,"trial_type":"html-button-response","trial_index":106,"time_elapsed":323069,"internal_node_id":"0.0-4.0-1.49","subject_id":"61634b983fa2b375f536ab34","study_id":"60edd13110225f80f9f3709b","session_id":"6196bf5ecf90c83d0715552c","condition":"contingent","relevant_dimensions":["wings","legs"],"bee_group":{"antennae":"X","wings":"1","pattern":"X","legs":"F"},"bonus":0.9000000000000008},{"rt":466.3999999985099,"stimulus":"bees-with-color/bee-A1DM.svg","response":1,"trial_type":"image-button-response","trial_index":107,"time_elapsed":323536,"internal_node_id":"0.0-4.0-0.50","subject_id":"61634b983fa2b375f536ab34","study_id":"60edd13110225f80f9f3709b","session_id":"6196bf5ecf90c83d0715552c","condition":"contingent","relevant_dimensions":["wings","legs"],"bee_group":{"antennae":"X","wings":"1","pattern":"X","legs":"F"},"action":"avoid","summary":"bad-avoid","bonus":0.9000000000000008},{"rt":1124.8999999985099,"stimulus":"\n                    <p><b>Action: <em>avoid</em></b></p>\n                    <p>This is the bee that you just saw.</p>\n                    <img src=\"bees-with-color/bee-A1DM.svg\" width=\"200\">\n                    <p><br>Your bonus pay is unchanged, and remains at $0.46.</p>\n            ","response":0,"trial_type":"html-button-response","trial_index":108,"time_elapsed":324662,"internal_node_id":"0.0-4.0-1.50","subject_id":"61634b983fa2b375f536ab34","study_id":"60edd13110225f80f9f3709b","session_id":"6196bf5ecf90c83d0715552c","condition":"contingent","relevant_dimensions":["wings","legs"],"bee_group":{"antennae":"X","wings":"1","pattern":"X","legs":"F"},"bonus":0.9000000000000008},{"rt":1120.2000000029802,"stimulus":"bees-with-color/bee-B2SM.svg","response":0,"trial_type":"image-button-response","trial_index":109,"time_elapsed":325783,"internal_node_id":"0.0-4.0-0.51","subject_id":"61634b983fa2b375f536ab34","study_id":"60edd13110225f80f9f3709b","session_id":"6196bf5ecf90c83d0715552c","condition":"contingent","relevant_dimensions":["wings","legs"],"bee_group":{"antennae":"X","wings":"1","pattern":"X","legs":"F"},"action":"harvest","summary":"good-harvest","bonus":0.9000000000000008},{"rt":696.8999999985099,"stimulus":"\n                    <p><b>Action: <em>harvest</em></b></p>\n                    <p>This is the bee that you just saw.</p>\n                    <img src=\"bees-with-color/bee-B2SM.svg\" width=\"200\">\n                    <p><span class=\"greenText\"><b>Successful harvest!</b></span><br>Your pay has increased by $0.02. Your bonus pay is now $0.48.</p>\n            ","response":0,"trial_type":"html-button-response","trial_index":110,"time_elapsed":326481,"internal_node_id":"0.0-4.0-1.51","subject_id":"61634b983fa2b375f536ab34","study_id":"60edd13110225f80f9f3709b","session_id":"6196bf5ecf90c83d0715552c","condition":"contingent","relevant_dimensions":["wings","legs"],"bee_group":{"antennae":"X","wings":"1","pattern":"X","legs":"F"},"bonus":0.9000000000000008},{"rt":949.1000000014901,"stimulus":"bees-with-color/bee-A1SF.svg","response":1,"trial_type":"image-button-response","trial_index":111,"time_elapsed":327431,"internal_node_id":"0.0-4.0-0.52","subject_id":"61634b983fa2b375f536ab34","study_id":"60edd13110225f80f9f3709b","session_id":"6196bf5ecf90c83d0715552c","condition":"contingent","relevant_dimensions":["wings","legs"],"bee_group":{"antennae":"X","wings":"1","pattern":"X","legs":"F"},"action":"avoid","summary":"good-avoid","bonus":0.9000000000000008},{"rt":738,"stimulus":"\n                    <p><b>Action: <em>avoid</em></b></p>\n                    <p>This is the bee that you just saw.</p>\n                    <img src=\"bees-with-color/bee-A1SF.svg\" width=\"200\">\n                    <p><br>Your bonus pay is unchanged, and remains at $0.48.</p>\n            ","response":0,"trial_type":"html-button-response","trial_index":112,"time_elapsed":328170,"internal_node_id":"0.0-4.0-1.52","subject_id":"61634b983fa2b375f536ab34","study_id":"60edd13110225f80f9f3709b","session_id":"6196bf5ecf90c83d0715552c","condition":"contingent","relevant_dimensions":["wings","legs"],"bee_group":{"antennae":"X","wings":"1","pattern":"X","legs":"F"},"bonus":0.9000000000000008},{"rt":1171.1000000014901,"stimulus":"bees-with-color/bee-B2DM.svg","response":0,"trial_type":"image-button-response","trial_index":113,"time_elapsed":329342,"internal_node_id":"0.0-4.0-0.53","subject_id":"61634b983fa2b375f536ab34","study_id":"60edd13110225f80f9f3709b","session_id":"6196bf5ecf90c83d0715552c","condition":"contingent","relevant_dimensions":["wings","legs"],"bee_group":{"antennae":"X","wings":"1","pattern":"X","legs":"F"},"action":"harvest","summary":"good-harvest","bonus":0.9000000000000008},{"rt":577.2000000029802,"stimulus":"\n                    <p><b>Action: <em>harvest</em></b></p>\n                    <p>This is the bee that you just saw.</p>\n                    <img src=\"bees-with-color/bee-B2DM.svg\" width=\"200\">\n                    <p><span class=\"greenText\"><b>Successful harvest!</b></span><br>Your pay has increased by $0.02. Your bonus pay is now $0.50.</p>\n            ","response":0,"trial_type":"html-button-response","trial_index":114,"time_elapsed":329920,"internal_node_id":"0.0-4.0-1.53","subject_id":"61634b983fa2b375f536ab34","study_id":"60edd13110225f80f9f3709b","session_id":"6196bf5ecf90c83d0715552c","condition":"contingent","relevant_dimensions":["wings","legs"],"bee_group":{"antennae":"X","wings":"1","pattern":"X","legs":"F"},"bonus":0.9000000000000008},{"rt":1676,"stimulus":"bees-with-color/bee-A2DF.svg","response":0,"trial_type":"image-button-response","trial_index":115,"time_elapsed":331597,"internal_node_id":"0.0-4.0-0.54","subject_id":"61634b983fa2b375f536ab34","study_id":"60edd13110225f80f9f3709b","session_id":"6196bf5ecf90c83d0715552c","condition":"contingent","relevant_dimensions":["wings","legs"],"bee_group":{"antennae":"X","wings":"1","pattern":"X","legs":"F"},"action":"harvest","summary":"good-harvest","bonus":0.9000000000000008},{"rt":601.0999999940395,"stimulus":"\n                    <p><b>Action: <em>harvest</em></b></p>\n                    <p>This is the bee that you just saw.</p>\n                    <img src=\"bees-with-color/bee-A2DF.svg\" width=\"200\">\n                    <p><span class=\"greenText\"><b>Successful harvest!</b></span><br>Your pay has increased by $0.02. Your bonus pay is now $0.52.</p>\n            ","response":0,"trial_type":"html-button-response","trial_index":116,"time_elapsed":332199,"internal_node_id":"0.0-4.0-1.54","subject_id":"61634b983fa2b375f536ab34","study_id":"60edd13110225f80f9f3709b","session_id":"6196bf5ecf90c83d0715552c","condition":"contingent","relevant_dimensions":["wings","legs"],"bee_group":{"antennae":"X","wings":"1","pattern":"X","legs":"F"},"bonus":0.9000000000000008},{"rt":1025.3999999985099,"stimulus":"bees-with-color/bee-A1SM.svg","response":1,"trial_type":"image-button-response","trial_index":117,"time_elapsed":333225,"internal_node_id":"0.0-4.0-0.55","subject_id":"61634b983fa2b375f536ab34","study_id":"60edd13110225f80f9f3709b","session_id":"6196bf5ecf90c83d0715552c","condition":"contingent","relevant_dimensions":["wings","legs"],"bee_group":{"antennae":"X","wings":"1","pattern":"X","legs":"F"},"action":"avoid","summary":"bad-avoid","bonus":0.9000000000000008},{"rt":715.2000000029802,"stimulus":"\n                    <p><b>Action: <em>avoid</em></b></p>\n                    <p>This is the bee that you just saw.</p>\n                    <img src=\"bees-with-color/bee-A1SM.svg\" width=\"200\">\n                    <p><br>Your bonus pay is unchanged, and remains at $0.52.</p>\n            ","response":0,"trial_type":"html-button-response","trial_index":118,"time_elapsed":333941,"internal_node_id":"0.0-4.0-1.55","subject_id":"61634b983fa2b375f536ab34","study_id":"60edd13110225f80f9f3709b","session_id":"6196bf5ecf90c83d0715552c","condition":"contingent","relevant_dimensions":["wings","legs"],"bee_group":{"antennae":"X","wings":"1","pattern":"X","legs":"F"},"bonus":0.9000000000000008},{"rt":752.9000000059605,"stimulus":"bees-with-color/bee-B1SM.svg","response":1,"trial_type":"image-button-response","trial_index":119,"time_elapsed":334695,"internal_node_id":"0.0-4.0-0.56","subject_id":"61634b983fa2b375f536ab34","study_id":"60edd13110225f80f9f3709b","session_id":"6196bf5ecf90c83d0715552c","condition":"contingent","relevant_dimensions":["wings","legs"],"bee_group":{"antennae":"X","wings":"1","pattern":"X","legs":"F"},"action":"avoid","summary":"bad-avoid","bonus":0.9000000000000008},{"rt":705.6000000014901,"stimulus":"\n                    <p><b>Action: <em>avoid</em></b></p>\n                    <p>This is the bee that you just saw.</p>\n                    <img src=\"bees-with-color/bee-B1SM.svg\" width=\"200\">\n                    <p><br>Your bonus pay is unchanged, and remains at $0.52.</p>\n            ","response":0,"trial_type":"html-button-response","trial_index":120,"time_elapsed":335401,"internal_node_id":"0.0-4.0-1.56","subject_id":"61634b983fa2b375f536ab34","study_id":"60edd13110225f80f9f3709b","session_id":"6196bf5ecf90c83d0715552c","condition":"contingent","relevant_dimensions":["wings","legs"],"bee_group":{"antennae":"X","wings":"1","pattern":"X","legs":"F"},"bonus":0.9000000000000008},{"rt":580.1000000014901,"stimulus":"bees-with-color/bee-B1DF.svg","response":1,"trial_type":"image-button-response","trial_index":121,"time_elapsed":335982,"internal_node_id":"0.0-4.0-0.57","subject_id":"61634b983fa2b375f536ab34","study_id":"60edd13110225f80f9f3709b","session_id":"6196bf5ecf90c83d0715552c","condition":"contingent","relevant_dimensions":["wings","legs"],"bee_group":{"antennae":"X","wings":"1","pattern":"X","legs":"F"},"action":"avoid","summary":"good-avoid","bonus":0.9000000000000008},{"rt":607.1000000014901,"stimulus":"\n                    <p><b>Action: <em>avoid</em></b></p>\n                    <p>This is the bee that you just saw.</p>\n                    <img src=\"bees-with-color/bee-B1DF.svg\" width=\"200\">\n                    <p><br>Your bonus pay is unchanged, and remains at $0.52.</p>\n            ","response":0,"trial_type":"html-button-response","trial_index":122,"time_elapsed":336590,"internal_node_id":"0.0-4.0-1.57","subject_id":"61634b983fa2b375f536ab34","study_id":"60edd13110225f80f9f3709b","session_id":"6196bf5ecf90c83d0715552c","condition":"contingent","relevant_dimensions":["wings","legs"],"bee_group":{"antennae":"X","wings":"1","pattern":"X","legs":"F"},"bonus":0.9000000000000008},{"rt":821,"stimulus":"bees-with-color/bee-B2DF.svg","response":0,"trial_type":"image-button-response","trial_index":123,"time_elapsed":337412,"internal_node_id":"0.0-4.0-0.58","subject_id":"61634b983fa2b375f536ab34","study_id":"60edd13110225f80f9f3709b","session_id":"6196bf5ecf90c83d0715552c","condition":"contingent","relevant_dimensions":["wings","legs"],"bee_group":{"antennae":"X","wings":"1","pattern":"X","legs":"F"},"action":"harvest","summary":"good-harvest","bonus":0.9000000000000008},{"rt":561,"stimulus":"\n                    <p><b>Action: <em>harvest</em></b></p>\n                    <p>This is the bee that you just saw.</p>\n                    <img src=\"bees-with-color/bee-B2DF.svg\" width=\"200\">\n                    <p><span class=\"greenText\"><b>Successful harvest!</b></span><br>Your pay has increased by $0.02. Your bonus pay is now $0.54.</p>\n            ","response":0,"trial_type":"html-button-response","trial_index":124,"time_elapsed":337974,"internal_node_id":"0.0-4.0-1.58","subject_id":"61634b983fa2b375f536ab34","study_id":"60edd13110225f80f9f3709b","session_id":"6196bf5ecf90c83d0715552c","condition":"contingent","relevant_dimensions":["wings","legs"],"bee_group":{"antennae":"X","wings":"1","pattern":"X","legs":"F"},"bonus":0.9000000000000008},{"rt":494.19999999552965,"stimulus":"bees-with-color/bee-A1DF.svg","response":1,"trial_type":"image-button-response","trial_index":125,"time_elapsed":338469,"internal_node_id":"0.0-4.0-0.59","subject_id":"61634b983fa2b375f536ab34","study_id":"60edd13110225f80f9f3709b","session_id":"6196bf5ecf90c83d0715552c","condition":"contingent","relevant_dimensions":["wings","legs"],"bee_group":{"antennae":"X","wings":"1","pattern":"X","legs":"F"},"action":"avoid","summary":"good-avoid","bonus":0.9000000000000008},{"rt":690.2000000029802,"stimulus":"\n                    <p><b>Action: <em>avoid</em></b></p>\n                    <p>This is the bee that you just saw.</p>\n                    <img src=\"bees-with-color/bee-A1DF.svg\" width=\"200\">\n                    <p><br>Your bonus pay is unchanged, and remains at $0.54.</p>\n            ","response":0,"trial_type":"html-button-response","trial_index":126,"time_elapsed":339160,"internal_node_id":"0.0-4.0-1.59","subject_id":"61634b983fa2b375f536ab34","study_id":"60edd13110225f80f9f3709b","session_id":"6196bf5ecf90c83d0715552c","condition":"contingent","relevant_dimensions":["wings","legs"],"bee_group":{"antennae":"X","wings":"1","pattern":"X","legs":"F"},"bonus":0.9000000000000008},{"rt":596.1999999955297,"stimulus":"bees-with-color/bee-B1DM.svg","response":1,"trial_type":"image-button-response","trial_index":127,"time_elapsed":339757,"internal_node_id":"0.0-4.0-0.60","subject_id":"61634b983fa2b375f536ab34","study_id":"60edd13110225f80f9f3709b","session_id":"6196bf5ecf90c83d0715552c","condition":"contingent","relevant_dimensions":["wings","legs"],"bee_group":{"antennae":"X","wings":"1","pattern":"X","legs":"F"},"action":"avoid","summary":"bad-avoid","bonus":0.9000000000000008},{"rt":692,"stimulus":"\n                    <p><b>Action: <em>avoid</em></b></p>\n                    <p>This is the bee that you just saw.</p>\n                    <img src=\"bees-with-color/bee-B1DM.svg\" width=\"200\">\n                    <p><br>Your bonus pay is unchanged, and remains at $0.54.</p>\n            ","response":0,"trial_type":"html-button-response","trial_index":128,"time_elapsed":340450,"internal_node_id":"0.0-4.0-1.60","subject_id":"61634b983fa2b375f536ab34","study_id":"60edd13110225f80f9f3709b","session_id":"6196bf5ecf90c83d0715552c","condition":"contingent","relevant_dimensions":["wings","legs"],"bee_group":{"antennae":"X","wings":"1","pattern":"X","legs":"F"},"bonus":0.9000000000000008},{"rt":787.2999999970198,"stimulus":"bees-with-color/bee-B2SF.svg","response":0,"trial_type":"image-button-response","trial_index":129,"time_elapsed":341238,"internal_node_id":"0.0-4.0-0.61","subject_id":"61634b983fa2b375f536ab34","study_id":"60edd13110225f80f9f3709b","session_id":"6196bf5ecf90c83d0715552c","condition":"contingent","relevant_dimensions":["wings","legs"],"bee_group":{"antennae":"X","wings":"1","pattern":"X","legs":"F"},"action":"harvest","summary":"good-harvest","bonus":0.9000000000000008},{"rt":574.1000000014901,"stimulus":"\n                    <p><b>Action: <em>harvest</em></b></p>\n                    <p>This is the bee that you just saw.</p>\n                    <img src=\"bees-with-color/bee-B2SF.svg\" width=\"200\">\n                    <p><span class=\"greenText\"><b>Successful harvest!</b></span><br>Your pay has increased by $0.02. Your bonus pay is now $0.56.</p>\n            ","response":0,"trial_type":"html-button-response","trial_index":130,"time_elapsed":341813,"internal_node_id":"0.0-4.0-1.61","subject_id":"61634b983fa2b375f536ab34","study_id":"60edd13110225f80f9f3709b","session_id":"6196bf5ecf90c83d0715552c","condition":"contingent","relevant_dimensions":["wings","legs"],"bee_group":{"antennae":"X","wings":"1","pattern":"X","legs":"F"},"bonus":0.9000000000000008},{"rt":1022.8999999985099,"stimulus":"bees-with-color/bee-A2SM.svg","response":0,"trial_type":"image-button-response","trial_index":131,"time_elapsed":342837,"internal_node_id":"0.0-4.0-0.62","subject_id":"61634b983fa2b375f536ab34","study_id":"60edd13110225f80f9f3709b","session_id":"6196bf5ecf90c83d0715552c","condition":"contingent","relevant_dimensions":["wings","legs"],"bee_group":{"antennae":"X","wings":"1","pattern":"X","legs":"F"},"action":"harvest","summary":"good-harvest","bonus":0.9000000000000008},{"rt":550.1999999955297,"stimulus":"\n                    <p><b>Action: <em>harvest</em></b></p>\n                    <p>This is the bee that you just saw.</p>\n                    <img src=\"bees-with-color/bee-A2SM.svg\" width=\"200\">\n                    <p><span class=\"greenText\"><b>Successful harvest!</b></span><br>Your pay has increased by $0.02. Your bonus pay is now $0.58.</p>\n            ","response":0,"trial_type":"html-button-response","trial_index":132,"time_elapsed":343388,"internal_node_id":"0.0-4.0-1.62","subject_id":"61634b983fa2b375f536ab34","study_id":"60edd13110225f80f9f3709b","session_id":"6196bf5ecf90c83d0715552c","condition":"contingent","relevant_dimensions":["wings","legs"],"bee_group":{"antennae":"X","wings":"1","pattern":"X","legs":"F"},"bonus":0.9000000000000008},{"rt":930.2999999970198,"stimulus":"bees-with-color/bee-A2SF.svg","response":0,"trial_type":"image-button-response","trial_index":133,"time_elapsed":344319,"internal_node_id":"0.0-4.0-0.63","subject_id":"61634b983fa2b375f536ab34","study_id":"60edd13110225f80f9f3709b","session_id":"6196bf5ecf90c83d0715552c","condition":"contingent","relevant_dimensions":["wings","legs"],"bee_group":{"antennae":"X","wings":"1","pattern":"X","legs":"F"},"action":"harvest","summary":"good-harvest","bonus":0.9000000000000008},{"rt":923.1000000014901,"stimulus":"\n                    <p><b>Action: <em>harvest</em></b></p>\n                    <p>This is the bee that you just saw.</p>\n                    <img src=\"bees-with-color/bee-A2SF.svg\" width=\"200\">\n                    <p><span class=\"greenText\"><b>Successful harvest!</b></span><br>Your pay has increased by $0.02. Your bonus pay is now $0.60.</p>\n            ","response":0,"trial_type":"html-button-response","trial_index":134,"time_elapsed":345243,"internal_node_id":"0.0-4.0-1.63","subject_id":"61634b983fa2b375f536ab34","study_id":"60edd13110225f80f9f3709b","session_id":"6196bf5ecf90c83d0715552c","condition":"contingent","relevant_dimensions":["wings","legs"],"bee_group":{"antennae":"X","wings":"1","pattern":"X","legs":"F"},"bonus":0.9000000000000008},{"rt":7427,"stimulus":"You have completed the first part of this experiment.<br><br>You will now begin a shorter second part, in which you will receive no feedback.<br>The same rules regarding bonus pay apply.<br><br>Press any key to begin.","response":"k","trial_type":"html-keyboard-response","trial_index":135,"time_elapsed":352671,"internal_node_id":"0.0-5.0","subject_id":"61634b983fa2b375f536ab34","study_id":"60edd13110225f80f9f3709b","session_id":"6196bf5ecf90c83d0715552c","condition":"contingent","relevant_dimensions":["wings","legs"],"bee_group":{"antennae":"X","wings":"1","pattern":"X","legs":"F"},"bonus":0.9000000000000008},{"rt":5226.20000000298,"stimulus":"bees-with-color/bee-A2DF.svg","response":0,"trial_type":"image-button-response","trial_index":136,"time_elapsed":357902,"internal_node_id":"0.0-6.0-0.0","subject_id":"61634b983fa2b375f536ab34","study_id":"60edd13110225f80f9f3709b","session_id":"6196bf5ecf90c83d0715552c","condition":"contingent","relevant_dimensions":["wings","legs"],"bee_group":{"antennae":"X","wings":"1","pattern":"X","legs":"F"},"bonus":0.9000000000000008},{"rt":2157.2999999970198,"stimulus":"bees-with-color/bee-A1DF.svg","response":1,"trial_type":"image-button-response","trial_index":137,"time_elapsed":360060,"internal_node_id":"0.0-6.0-0.1","subject_id":"61634b983fa2b375f536ab34","study_id":"60edd13110225f80f9f3709b","session_id":"6196bf5ecf90c83d0715552c","condition":"contingent","relevant_dimensions":["wings","legs"],"bee_group":{"antennae":"X","wings":"1","pattern":"X","legs":"F"},"bonus":0.9000000000000008},{"rt":1390.6999999955297,"stimulus":"bees-with-color/bee-A1DM.svg","response":1,"trial_type":"image-button-response","trial_index":138,"time_elapsed":361452,"internal_node_id":"0.0-6.0-0.2","subject_id":"61634b983fa2b375f536ab34","study_id":"60edd13110225f80f9f3709b","session_id":"6196bf5ecf90c83d0715552c","condition":"contingent","relevant_dimensions":["wings","legs"],"bee_group":{"antennae":"X","wings":"1","pattern":"X","legs":"F"},"bonus":0.9000000000000008},{"rt":703.7999999970198,"stimulus":"bees-with-color/bee-B1DM.svg","response":1,"trial_type":"image-button-response","trial_index":139,"time_elapsed":362157,"internal_node_id":"0.0-6.0-0.3","subject_id":"61634b983fa2b375f536ab34","study_id":"60edd13110225f80f9f3709b","session_id":"6196bf5ecf90c83d0715552c","condition":"contingent","relevant_dimensions":["wings","legs"],"bee_group":{"antennae":"X","wings":"1","pattern":"X","legs":"F"},"bonus":0.9000000000000008},{"rt":693.7000000029802,"stimulus":"bees-with-color/bee-B1SF.svg","response":1,"trial_type":"image-button-response","trial_index":140,"time_elapsed":362852,"internal_node_id":"0.0-6.0-0.4","subject_id":"61634b983fa2b375f536ab34","study_id":"60edd13110225f80f9f3709b","session_id":"6196bf5ecf90c83d0715552c","condition":"contingent","relevant_dimensions":["wings","legs"],"bee_group":{"antennae":"X","wings":"1","pattern":"X","legs":"F"},"bonus":0.9000000000000008},{"rt":989.8999999985099,"stimulus":"bees-with-color/bee-A2SM.svg","response":0,"trial_type":"image-button-response","trial_index":141,"time_elapsed":363844,"internal_node_id":"0.0-6.0-0.5","subject_id":"61634b983fa2b375f536ab34","study_id":"60edd13110225f80f9f3709b","session_id":"6196bf5ecf90c83d0715552c","condition":"contingent","relevant_dimensions":["wings","legs"],"bee_group":{"antennae":"X","wings":"1","pattern":"X","legs":"F"},"bonus":0.9000000000000008},{"rt":632.3000000044703,"stimulus":"bees-with-color/bee-A1SM.svg","response":1,"trial_type":"image-button-response","trial_index":142,"time_elapsed":364477,"internal_node_id":"0.0-6.0-0.6","subject_id":"61634b983fa2b375f536ab34","study_id":"60edd13110225f80f9f3709b","session_id":"6196bf5ecf90c83d0715552c","condition":"contingent","relevant_dimensions":["wings","legs"],"bee_group":{"antennae":"X","wings":"1","pattern":"X","legs":"F"},"bonus":0.9000000000000008},{"rt":841.8999999985099,"stimulus":"bees-with-color/bee-B2DM.svg","response":0,"trial_type":"image-button-response","trial_index":143,"time_elapsed":365320,"internal_node_id":"0.0-6.0-0.7","subject_id":"61634b983fa2b375f536ab34","study_id":"60edd13110225f80f9f3709b","session_id":"6196bf5ecf90c83d0715552c","condition":"contingent","relevant_dimensions":["wings","legs"],"bee_group":{"antennae":"X","wings":"1","pattern":"X","legs":"F"},"bonus":0.9000000000000008},{"rt":779.7999999970198,"stimulus":"bees-with-color/bee-B2SM.svg","response":0,"trial_type":"image-button-response","trial_index":144,"time_elapsed":366101,"internal_node_id":"0.0-6.0-0.8","subject_id":"61634b983fa2b375f536ab34","study_id":"60edd13110225f80f9f3709b","session_id":"6196bf5ecf90c83d0715552c","condition":"contingent","relevant_dimensions":["wings","legs"],"bee_group":{"antennae":"X","wings":"1","pattern":"X","legs":"F"},"bonus":0.9000000000000008},{"rt":2075.10000000149,"stimulus":"bees-with-color/bee-B1DF.svg","response":1,"trial_type":"image-button-response","trial_index":145,"time_elapsed":368177,"internal_node_id":"0.0-6.0-0.9","subject_id":"61634b983fa2b375f536ab34","study_id":"60edd13110225f80f9f3709b","session_id":"6196bf5ecf90c83d0715552c","condition":"contingent","relevant_dimensions":["wings","legs"],"bee_group":{"antennae":"X","wings":"1","pattern":"X","legs":"F"},"bonus":0.9000000000000008},{"rt":849.7999999970198,"stimulus":"bees-with-color/bee-A1SF.svg","response":1,"trial_type":"image-button-response","trial_index":146,"time_elapsed":369028,"internal_node_id":"0.0-6.0-0.10","subject_id":"61634b983fa2b375f536ab34","study_id":"60edd13110225f80f9f3709b","session_id":"6196bf5ecf90c83d0715552c","condition":"contingent","relevant_dimensions":["wings","legs"],"bee_group":{"antennae":"X","wings":"1","pattern":"X","legs":"F"},"bonus":0.9000000000000008},{"rt":1118.6999999955297,"stimulus":"bees-with-color/bee-A2SF.svg","response":0,"trial_type":"image-button-response","trial_index":147,"time_elapsed":370148,"internal_node_id":"0.0-6.0-0.11","subject_id":"61634b983fa2b375f536ab34","study_id":"60edd13110225f80f9f3709b","session_id":"6196bf5ecf90c83d0715552c","condition":"contingent","relevant_dimensions":["wings","legs"],"bee_group":{"antennae":"X","wings":"1","pattern":"X","legs":"F"},"bonus":0.9000000000000008},{"rt":682.8999999985099,"stimulus":"bees-with-color/bee-B1SM.svg","response":1,"trial_type":"image-button-response","trial_index":148,"time_elapsed":370832,"internal_node_id":"0.0-6.0-0.12","subject_id":"61634b983fa2b375f536ab34","study_id":"60edd13110225f80f9f3709b","session_id":"6196bf5ecf90c83d0715552c","condition":"contingent","relevant_dimensions":["wings","legs"],"bee_group":{"antennae":"X","wings":"1","pattern":"X","legs":"F"},"bonus":0.9000000000000008},{"rt":1057.8999999985099,"stimulus":"bees-with-color/bee-A2DM.svg","response":0,"trial_type":"image-button-response","trial_index":149,"time_elapsed":371891,"internal_node_id":"0.0-6.0-0.13","subject_id":"61634b983fa2b375f536ab34","study_id":"60edd13110225f80f9f3709b","session_id":"6196bf5ecf90c83d0715552c","condition":"contingent","relevant_dimensions":["wings","legs"],"bee_group":{"antennae":"X","wings":"1","pattern":"X","legs":"F"},"bonus":0.9000000000000008},{"rt":1009,"stimulus":"bees-with-color/bee-B2SF.svg","response":0,"trial_type":"image-button-response","trial_index":150,"time_elapsed":372902,"internal_node_id":"0.0-6.0-0.14","subject_id":"61634b983fa2b375f536ab34","study_id":"60edd13110225f80f9f3709b","session_id":"6196bf5ecf90c83d0715552c","condition":"contingent","relevant_dimensions":["wings","legs"],"bee_group":{"antennae":"X","wings":"1","pattern":"X","legs":"F"},"bonus":0.9000000000000008},{"rt":1402.6000000014901,"stimulus":"bees-with-color/bee-B2DF.svg","response":1,"trial_type":"image-button-response","trial_index":151,"time_elapsed":374305,"internal_node_id":"0.0-6.0-0.15","subject_id":"61634b983fa2b375f536ab34","study_id":"60edd13110225f80f9f3709b","session_id":"6196bf5ecf90c83d0715552c","condition":"contingent","relevant_dimensions":["wings","legs"],"bee_group":{"antennae":"X","wings":"1","pattern":"X","legs":"F"},"bonus":0.9000000000000008},{"rt":2311.6999999955297,"stimulus":"bees-with-color/bee-A2SM.svg","response":0,"trial_type":"image-button-response","trial_index":152,"time_elapsed":376618,"internal_node_id":"0.0-6.0-0.16","subject_id":"61634b983fa2b375f536ab34","study_id":"60edd13110225f80f9f3709b","session_id":"6196bf5ecf90c83d0715552c","condition":"contingent","relevant_dimensions":["wings","legs"],"bee_group":{"antennae":"X","wings":"1","pattern":"X","legs":"F"},"bonus":0.9000000000000008},{"rt":1963.1000000014901,"stimulus":"bees-with-color/bee-A2DF.svg","response":0,"trial_type":"image-button-response","trial_index":153,"time_elapsed":378582,"internal_node_id":"0.0-6.0-0.17","subject_id":"61634b983fa2b375f536ab34","study_id":"60edd13110225f80f9f3709b","session_id":"6196bf5ecf90c83d0715552c","condition":"contingent","relevant_dimensions":["wings","legs"],"bee_group":{"antennae":"X","wings":"1","pattern":"X","legs":"F"},"bonus":0.9000000000000008},{"rt":1001.8999999985099,"stimulus":"bees-with-color/bee-B2SF.svg","response":0,"trial_type":"image-button-response","trial_index":154,"time_elapsed":379585,"internal_node_id":"0.0-6.0-0.18","subject_id":"61634b983fa2b375f536ab34","study_id":"60edd13110225f80f9f3709b","session_id":"6196bf5ecf90c83d0715552c","condition":"contingent","relevant_dimensions":["wings","legs"],"bee_group":{"antennae":"X","wings":"1","pattern":"X","legs":"F"},"bonus":0.9000000000000008},{"rt":814.8999999985099,"stimulus":"bees-with-color/bee-A1SM.svg","response":1,"trial_type":"image-button-response","trial_index":155,"time_elapsed":380401,"internal_node_id":"0.0-6.0-0.19","subject_id":"61634b983fa2b375f536ab34","study_id":"60edd13110225f80f9f3709b","session_id":"6196bf5ecf90c83d0715552c","condition":"contingent","relevant_dimensions":["wings","legs"],"bee_group":{"antennae":"X","wings":"1","pattern":"X","legs":"F"},"bonus":0.9000000000000008},{"rt":853.3000000044703,"stimulus":"bees-with-color/bee-A2SF.svg","response":0,"trial_type":"image-button-response","trial_index":156,"time_elapsed":381256,"internal_node_id":"0.0-6.0-0.20","subject_id":"61634b983fa2b375f536ab34","study_id":"60edd13110225f80f9f3709b","session_id":"6196bf5ecf90c83d0715552c","condition":"contingent","relevant_dimensions":["wings","legs"],"bee_group":{"antennae":"X","wings":"1","pattern":"X","legs":"F"},"bonus":0.9000000000000008},{"rt":2693.89999999851,"stimulus":"bees-with-color/bee-A1SF.svg","response":1,"trial_type":"image-button-response","trial_index":157,"time_elapsed":383950,"internal_node_id":"0.0-6.0-0.21","subject_id":"61634b983fa2b375f536ab34","study_id":"60edd13110225f80f9f3709b","session_id":"6196bf5ecf90c83d0715552c","condition":"contingent","relevant_dimensions":["wings","legs"],"bee_group":{"antennae":"X","wings":"1","pattern":"X","legs":"F"},"bonus":0.9000000000000008},{"rt":797.1000000014901,"stimulus":"bees-with-color/bee-B1SF.svg","response":1,"trial_type":"image-button-response","trial_index":158,"time_elapsed":384748,"internal_node_id":"0.0-6.0-0.22","subject_id":"61634b983fa2b375f536ab34","study_id":"60edd13110225f80f9f3709b","session_id":"6196bf5ecf90c83d0715552c","condition":"contingent","relevant_dimensions":["wings","legs"],"bee_group":{"antennae":"X","wings":"1","pattern":"X","legs":"F"},"bonus":0.9000000000000008},{"rt":1227.1000000014901,"stimulus":"bees-with-color/bee-B2DM.svg","response":0,"trial_type":"image-button-response","trial_index":159,"time_elapsed":385977,"internal_node_id":"0.0-6.0-0.23","subject_id":"61634b983fa2b375f536ab34","study_id":"60edd13110225f80f9f3709b","session_id":"6196bf5ecf90c83d0715552c","condition":"contingent","relevant_dimensions":["wings","legs"],"bee_group":{"antennae":"X","wings":"1","pattern":"X","legs":"F"},"bonus":0.9000000000000008},{"rt":815.6999999955297,"stimulus":"bees-with-color/bee-A1DF.svg","response":1,"trial_type":"image-button-response","trial_index":160,"time_elapsed":386793,"internal_node_id":"0.0-6.0-0.24","subject_id":"61634b983fa2b375f536ab34","study_id":"60edd13110225f80f9f3709b","session_id":"6196bf5ecf90c83d0715552c","condition":"contingent","relevant_dimensions":["wings","legs"],"bee_group":{"antennae":"X","wings":"1","pattern":"X","legs":"F"},"bonus":0.9000000000000008},{"rt":2551,"stimulus":"bees-with-color/bee-B1DF.svg","response":1,"trial_type":"image-button-response","trial_index":161,"time_elapsed":389345,"internal_node_id":"0.0-6.0-0.25","subject_id":"61634b983fa2b375f536ab34","study_id":"60edd13110225f80f9f3709b","session_id":"6196bf5ecf90c83d0715552c","condition":"contingent","relevant_dimensions":["wings","legs"],"bee_group":{"antennae":"X","wings":"1","pattern":"X","legs":"F"},"bonus":0.9000000000000008},{"rt":880.7999999970198,"stimulus":"bees-with-color/bee-B1SM.svg","response":1,"trial_type":"image-button-response","trial_index":162,"time_elapsed":390227,"internal_node_id":"0.0-6.0-0.26","subject_id":"61634b983fa2b375f536ab34","study_id":"60edd13110225f80f9f3709b","session_id":"6196bf5ecf90c83d0715552c","condition":"contingent","relevant_dimensions":["wings","legs"],"bee_group":{"antennae":"X","wings":"1","pattern":"X","legs":"F"},"bonus":0.9000000000000008},{"rt":826.8999999985099,"stimulus":"bees-with-color/bee-A2DM.svg","response":0,"trial_type":"image-button-response","trial_index":163,"time_elapsed":391055,"internal_node_id":"0.0-6.0-0.27","subject_id":"61634b983fa2b375f536ab34","study_id":"60edd13110225f80f9f3709b","session_id":"6196bf5ecf90c83d0715552c","condition":"contingent","relevant_dimensions":["wings","legs"],"bee_group":{"antennae":"X","wings":"1","pattern":"X","legs":"F"},"bonus":0.9000000000000008},{"rt":1054,"stimulus":"bees-with-color/bee-B2DF.svg","response":0,"trial_type":"image-button-response","trial_index":164,"time_elapsed":392110,"internal_node_id":"0.0-6.0-0.28","subject_id":"61634b983fa2b375f536ab34","study_id":"60edd13110225f80f9f3709b","session_id":"6196bf5ecf90c83d0715552c","condition":"contingent","relevant_dimensions":["wings","legs"],"bee_group":{"antennae":"X","wings":"1","pattern":"X","legs":"F"},"bonus":0.9000000000000008},{"rt":3741.89999999851,"stimulus":"bees-with-color/bee-A1DM.svg","response":1,"trial_type":"image-button-response","trial_index":165,"time_elapsed":395853,"internal_node_id":"0.0-6.0-0.29","subject_id":"61634b983fa2b375f536ab34","study_id":"60edd13110225f80f9f3709b","session_id":"6196bf5ecf90c83d0715552c","condition":"contingent","relevant_dimensions":["wings","legs"],"bee_group":{"antennae":"X","wings":"1","pattern":"X","legs":"F"},"bonus":0.9000000000000008},{"rt":520.7999999970198,"stimulus":"bees-with-color/bee-B1DM.svg","response":1,"trial_type":"image-button-response","trial_index":166,"time_elapsed":396375,"internal_node_id":"0.0-6.0-0.30","subj