[{"success":true,"trial_type":"fullscreen","trial_index":0,"time_elapsed":3546,"internal_node_id":"0.0-0.0","subject_id":"6133ba9a50d368581b0f82dc","study_id":"6197b3f67c2b5cd3b6d9596a","session_id":"6197b9f000deb38667dcd459","condition":"contingent","relevant_dimensions":["antennae","pattern"],"bee_group":{"antennae":"B","wings":"X","pattern":"S","legs":"X"},"bonus":1.4000000000000008},{"success":true,"timeout":false,"failed_images":[],"failed_audio":[],"failed_video":[],"trial_type":"preload","trial_index":1,"time_elapsed":6648,"internal_node_id":"0.0-1.0","subject_id":"6133ba9a50d368581b0f82dc","study_id":"6197b3f67c2b5cd3b6d9596a","session_id":"6197b9f000deb38667dcd459","condition":"contingent","relevant_dimensions":["antennae","pattern"],"bee_group":{"antennae":"B","wings":"X","pattern":"S","legs":"X"},"bonus":1.4000000000000008},{"rt":2506.300000011921,"stimulus":"Welcome! Press any key to begin.","response":"arrowleft","trial_type":"html-keyboard-response","trial_index":2,"time_elapsed":9157,"internal_node_id":"0.0-2.0","subject_id":"6133ba9a50d368581b0f82dc","study_id":"6197b3f67c2b5cd3b6d9596a","session_id":"6197b9f000deb38667dcd459","condition":"contingent","relevant_dimensions":["antennae","pattern"],"bee_group":{"antennae":"B","wings":"X","pattern":"S","legs":"X"},"bonus":1.4000000000000008},{"view_history":[{"page_index":0,"viewing_time":2567.300000011921},{"page_index":1,"viewing_time":9372.800000011921},{"page_index":2,"viewing_time":10912.399999976158},{"page_index":3,"viewing_time":18021},{"page_index":4,"viewing_time":3033.900000035763},{"page_index":5,"viewing_time":6271.699999988079},{"page_index":6,"viewing_time":4940.399999976158},{"page_index":7,"viewing_time":5305.300000011921},{"page_index":8,"viewing_time":5165.300000011921},{"page_index":9,"viewing_time":2688.600000023842},{"page_index":10,"viewing_time":1546.7999999523163},{"page_index":11,"viewing_time":9485.700000047684},{"page_index":12,"viewing_time":4542.599999964237},{"page_index":13,"viewing_time":1146.6000000238419},{"page_index":14,"viewing_time":1963.8999999761581}],"rt":86964.70000004768,"trial_type":"instructions","trial_index":3,"time_elapsed":96123,"internal_node_id":"0.0-3.0-0.0","subject_id":"6133ba9a50d368581b0f82dc","study_id":"6197b3f67c2b5cd3b6d9596a","session_id":"6197b9f000deb38667dcd459","condition":"contingent","relevant_dimensions":["antennae","pattern"],"bee_group":{"antennae":"B","wings":"X","pattern":"S","legs":"X"},"bonus":1.4000000000000008},{"rt":12779.699999988079,"response":{"Q0":["Two or six legs","Stripes or spots on body","Single or double wings","Antennae or no antennae"]},"question_order":[0],"trial_type":"survey-multi-select","trial_index":4,"time_elapsed":108908,"internal_node_id":"0.0-3.0-1.0","subject_id":"6133ba9a50d368581b0f82dc","study_id":"6197b3f67c2b5cd3b6d9596a","session_id":"6197b9f000deb38667dcd459","condition":"contingent","relevant_dimensions":["antennae","pattern"],"bee_group":{"antennae":"B","wings":"X","pattern":"S","legs":"X"},"correct":true,"bonus":1.4000000000000008},{"rt":31306.5,"response":{"Q1":"No.","Q2":"Based on the four features of the bee.","Q3":"You do not learn if it was friendly or dangerous, and do not alter your bonus."},"question_order":[0,1,2],"trial_type":"survey-multi-choice","trial_index":5,"time_elapsed":140219,"internal_node_id":"0.0-3.0-2.0","subject_id":"6133ba9a50d368581b0f82dc","study_id":"6197b3f67c2b5cd3b6d9596a","session_id":"6197b9f000deb38667dcd459","condition":"contingent","relevant_dimensions":["antennae","pattern"],"bee_group":{"antennae":"B","wings":"X","pattern":"S","legs":"X"},"correct":true,"bonus":1.4000000000000008},{"rt":1932,"stimulus":"<p>Congrats, you got everything right<br>When you're ready, click the button below to continue to the experiment.</p>","response":0,"trial_type":"html-button-response","trial_index":6,"time_elapsed":142155,"internal_node_id":"0.0-3.0-3.0","subject_id":"6133ba9a50d368581b0f82dc","study_id":"6197b3f67c2b5cd3b6d9596a","session_id":"6197b9f000deb38667dcd459","condition":"contingent","relevant_dimensions":["antennae","pattern"],"bee_group":{"antennae":"B","wings":"X","pattern":"S","legs":"X"},"bonus":1.4000000000000008},{"rt":2500.699999988079,"stimulus":"bees-with-color/bee-B1DF.svg","response":0,"trial_type":"image-button-response","trial_index":7,"time_elapsed":144659,"internal_node_id":"0.0-4.0-0.0","subject_id":"6133ba9a50d368581b0f82dc","study_id":"6197b3f67c2b5cd3b6d9596a","session_id":"6197b9f000deb38667dcd459","condition":"contingent","relevant_dimensions":["antennae","pattern"],"bee_group":{"antennae":"B","wings":"X","pattern":"S","legs":"X"},"action":"harvest","summary":"good-harvest","bonus":1.4000000000000008},{"rt":6473.899999976158,"stimulus":"\n                    <p><b>Action: <em>harvest</em></b></p>\n                    <p>This is the bee that you just saw.</p>\n                    <img src=\"bees-with-color/bee-B1DF.svg\" width=\"200\">\n                    <p><span class=\"greenText\"><b>Successful harvest!</b></span><br>Your pay has increased by $0.02. Your bonus pay is now $0.56.</p>\n            ","response":0,"trial_type":"html-button-response","trial_index":8,"time_elapsed":151136,"internal_node_id":"0.0-4.0-1.0","subject_id":"6133ba9a50d368581b0f82dc","study_id":"6197b3f67c2b5cd3b6d9596a","session_id":"6197b9f000deb38667dcd459","condition":"contingent","relevant_dimensions":["antennae","pattern"],"bee_group":{"antennae":"B","wings":"X","pattern":"S","legs":"X"},"bonus":1.4000000000000008},{"rt":2173.2000000476837,"stimulus":"bees-with-color/bee-A1SM.svg","response":1,"trial_type":"image-button-response","trial_index":9,"time_elapsed":153311,"internal_node_id":"0.0-4.0-0.1","subject_id":"6133ba9a50d368581b0f82dc","study_id":"6197b3f67c2b5cd3b6d9596a","session_id":"6197b9f000deb38667dcd459","condition":"contingent","relevant_dimensions":["antennae","pattern"],"bee_group":{"antennae":"B","wings":"X","pattern":"S","legs":"X"},"action":"avoid","summary":"bad-avoid","bonus":1.4000000000000008},{"rt":3110.900000035763,"stimulus":"\n                    <p><b>Action: <em>avoid</em></b></p>\n                    <p>This is the bee that you just saw.</p>\n                    <img src=\"bees-with-color/bee-A1SM.svg\" width=\"200\">\n                    <p><br>Your bonus pay is unchanged, and remains at $0.56.</p>\n            ","response":0,"trial_type":"html-button-response","trial_index":10,"time_elapsed":156424,"internal_node_id":"0.0-4.0-1.1","subject_id":"6133ba9a50d368581b0f82dc","study_id":"6197b3f67c2b5cd3b6d9596a","session_id":"6197b9f000deb38667dcd459","condition":"contingent","relevant_dimensions":["antennae","pattern"],"bee_group":{"antennae":"B","wings":"X","pattern":"S","legs":"X"},"bonus":1.4000000000000008},{"rt":1752.300000011921,"stimulus":"bees-with-color/bee-A2DF.svg","response":0,"trial_type":"image-button-response","trial_index":11,"time_elapsed":158179,"internal_node_id":"0.0-4.0-0.2","subject_id":"6133ba9a50d368581b0f82dc","study_id":"6197b3f67c2b5cd3b6d9596a","session_id":"6197b9f000deb38667dcd459","condition":"contingent","relevant_dimensions":["antennae","pattern"],"bee_group":{"antennae":"B","wings":"X","pattern":"S","legs":"X"},"action":"harvest","summary":"good-harvest","bonus":1.4000000000000008},{"rt":1692.7000000476837,"stimulus":"\n                    <p><b>Action: <em>harvest</em></b></p>\n                    <p>This is the bee that you just saw.</p>\n                    <img src=\"bees-with-color/bee-A2DF.svg\" width=\"200\">\n                    <p><span class=\"greenText\"><b>Successful harvest!</b></span><br>Your pay has increased by $0.02. Your bonus pay is now $0.58.</p>\n            ","response":0,"trial_type":"html-button-response","trial_index":12,"time_elapsed":159874,"internal_node_id":"0.0-4.0-1.2","subject_id":"6133ba9a50d368581b0f82dc","study_id":"6197b3f67c2b5cd3b6d9596a","session_id":"6197b9f000deb38667dcd459","condition":"contingent","relevant_dimensions":["antennae","pattern"],"bee_group":{"antennae":"B","wings":"X","pattern":"S","legs":"X"},"bonus":1.4000000000000008},{"rt":1524.7999999523163,"stimulus":"bees-with-color/bee-B1SF.svg","response":0,"trial_type":"image-button-response","trial_index":13,"time_elapsed":161400,"internal_node_id":"0.0-4.0-0.3","subject_id":"6133ba9a50d368581b0f82dc","study_id":"6197b3f67c2b5cd3b6d9596a","session_id":"6197b9f000deb38667dcd459","condition":"contingent","relevant_dimensions":["antennae","pattern"],"bee_group":{"antennae":"B","wings":"X","pattern":"S","legs":"X"},"action":"harvest","summary":"bad-harvest","bonus":1.4000000000000008},{"rt":1161.5,"stimulus":"\n                    <p><b>Action: <em>harvest</em></b></p>\n                    <p>This is the bee that you just saw.</p>\n                    <img src=\"bees-with-color/bee-B1SF.svg\" width=\"200\">\n                    <p><span class=\"redText\">Bad choice, the bee was angry.</span><br><b>You have been stung!</b><br>Your pay has been decreased by $0.10. Your bonus pay is now $0.48.</p>\n            ","response":0,"trial_type":"html-button-response","trial_index":14,"time_elapsed":162564,"internal_node_id":"0.0-4.0-1.3","subject_id":"6133ba9a50d368581b0f82dc","study_id":"6197b3f67c2b5cd3b6d9596a","session_id":"6197b9f000deb38667dcd459","condition":"contingent","relevant_dimensions":["antennae","pattern"],"bee_group":{"antennae":"B","wings":"X","pattern":"S","legs":"X"},"bonus":1.4000000000000008},{"rt":966.7000000476837,"stimulus":"bees-with-color/bee-A1DF.svg","response":0,"trial_type":"image-button-response","trial_index":15,"time_elapsed":163532,"internal_node_id":"0.0-4.0-0.4","subject_id":"6133ba9a50d368581b0f82dc","study_id":"6197b3f67c2b5cd3b6d9596a","session_id":"6197b9f000deb38667dcd459","condition":"contingent","relevant_dimensions":["antennae","pattern"],"bee_group":{"antennae":"B","wings":"X","pattern":"S","legs":"X"},"action":"harvest","summary":"good-harvest","bonus":1.4000000000000008},{"rt":1306.300000011921,"stimulus":"\n                    <p><b>Action: <em>harvest</em></b></p>\n                    <p>This is the bee that you just saw.</p>\n                    <img src=\"bees-with-color/bee-A1DF.svg\" width=\"200\">\n                    <p><span class=\"greenText\"><b>Successful harvest!</b></span><br>Your pay has increased by $0.02. Your bonus pay is now $0.50.</p>\n            ","response":0,"trial_type":"html-button-response","trial_index":16,"time_elapsed":164840,"internal_node_id":"0.0-4.0-1.4","subject_id":"6133ba9a50d368581b0f82dc","study_id":"6197b3f67c2b5cd3b6d9596a","session_id":"6197b9f000deb38667dcd459","condition":"contingent","relevant_dimensions":["antennae","pattern"],"bee_group":{"antennae":"B","wings":"X","pattern":"S","legs":"X"},"bonus":1.4000000000000008},{"rt":2061.100000023842,"stimulus":"bees-with-color/bee-A2DM.svg","response":0,"trial_type":"image-button-response","trial_index":17,"time_elapsed":166902,"internal_node_id":"0.0-4.0-0.5","subject_id":"6133ba9a50d368581b0f82dc","study_id":"6197b3f67c2b5cd3b6d9596a","session_id":"6197b9f000deb38667dcd459","condition":"contingent","relevant_dimensions":["antennae","pattern"],"bee_group":{"antennae":"B","wings":"X","pattern":"S","legs":"X"},"action":"harvest","summary":"good-harvest","bonus":1.4000000000000008},{"rt":741.5,"stimulus":"\n                    <p><b>Action: <em>harvest</em></b></p>\n                    <p>This is the bee that you just saw.</p>\n                    <img src=\"bees-with-color/bee-A2DM.svg\" width=\"200\">\n                    <p><span class=\"greenText\"><b>Successful harvest!</b></span><br>Your pay has increased by $0.02. Your bonus pay is now $0.52.</p>\n            ","response":0,"trial_type":"html-button-response","trial_index":18,"time_elapsed":167645,"internal_node_id":"0.0-4.0-1.5","subject_id":"6133ba9a50d368581b0f82dc","study_id":"6197b3f67c2b5cd3b6d9596a","session_id":"6197b9f000deb38667dcd459","condition":"contingent","relevant_dimensions":["antennae","pattern"],"bee_group":{"antennae":"B","wings":"X","pattern":"S","legs":"X"},"bonus":1.4000000000000008},{"rt":1340.1000000238419,"stimulus":"bees-with-color/bee-B2DM.svg","response":0,"trial_type":"image-button-response","trial_index":19,"time_elapsed":168986,"internal_node_id":"0.0-4.0-0.6","subject_id":"6133ba9a50d368581b0f82dc","study_id":"6197b3f67c2b5cd3b6d9596a","session_id":"6197b9f000deb38667dcd459","condition":"contingent","relevant_dimensions":["antennae","pattern"],"bee_group":{"antennae":"B","wings":"X","pattern":"S","legs":"X"},"action":"harvest","summary":"good-harvest","bonus":1.4000000000000008},{"rt":1355.2000000476837,"stimulus":"\n                    <p><b>Action: <em>harvest</em></b></p>\n                    <p>This is the bee that you just saw.</p>\n                    <img src=\"bees-with-color/bee-B2DM.svg\" width=\"200\">\n                    <p><span class=\"greenText\"><b>Successful harvest!</b></span><br>Your pay has increased by $0.02. Your bonus pay is now $0.54.</p>\n            ","response":0,"trial_type":"html-button-response","trial_index":20,"time_elapsed":170343,"internal_node_id":"0.0-4.0-1.6","subject_id":"6133ba9a50d368581b0f82dc","study_id":"6197b3f67c2b5cd3b6d9596a","session_id":"6197b9f000deb38667dcd459","condition":"contingent","relevant_dimensions":["antennae","pattern"],"bee_group":{"antennae":"B","wings":"X","pattern":"S","legs":"X"},"bonus":1.4000000000000008},{"rt":980.1000000238419,"stimulus":"bees-with-color/bee-B2SF.svg","response":1,"trial_type":"image-button-response","trial_index":21,"time_elapsed":171325,"internal_node_id":"0.0-4.0-0.7","subject_id":"6133ba9a50d368581b0f82dc","study_id":"6197b3f67c2b5cd3b6d9596a","session_id":"6197b9f000deb38667dcd459","condition":"contingent","relevant_dimensions":["antennae","pattern"],"bee_group":{"antennae":"B","wings":"X","pattern":"S","legs":"X"},"action":"avoid","summary":"good-avoid","bonus":1.4000000000000008},{"rt":1117.2999999523163,"stimulus":"\n                    <p><b>Action: <em>avoid</em></b></p>\n                    <p>This is the bee that you just saw.</p>\n                    <img src=\"bees-with-color/bee-B2SF.svg\" width=\"200\">\n                    <p><br>Your bonus pay is unchanged, and remains at $0.54.</p>\n            ","response":0,"trial_type":"html-button-response","trial_index":22,"time_elapsed":172444,"internal_node_id":"0.0-4.0-1.7","subject_id":"6133ba9a50d368581b0f82dc","study_id":"6197b3f67c2b5cd3b6d9596a","session_id":"6197b9f000deb38667dcd459","condition":"contingent","relevant_dimensions":["antennae","pattern"],"bee_group":{"antennae":"B","wings":"X","pattern":"S","legs":"X"},"bonus":1.4000000000000008},{"rt":829.1000000238419,"stimulus":"bees-with-color/bee-A1DM.svg","response":0,"trial_type":"image-button-response","trial_index":23,"time_elapsed":173275,"internal_node_id":"0.0-4.0-0.8","subject_id":"6133ba9a50d368581b0f82dc","study_id":"6197b3f67c2b5cd3b6d9596a","session_id":"6197b9f000deb38667dcd459","condition":"contingent","relevant_dimensions":["antennae","pattern"],"bee_group":{"antennae":"B","wings":"X","pattern":"S","legs":"X"},"action":"harvest","summary":"good-harvest","bonus":1.4000000000000008},{"rt":1292.4000000357628,"stimulus":"\n                    <p><b>Action: <em>harvest</em></b></p>\n                    <p>This is the bee that you just saw.</p>\n                    <img src=\"bees-with-color/bee-A1DM.svg\" width=\"200\">\n                    <p><span class=\"greenText\"><b>Successful harvest!</b></span><br>Your pay has increased by $0.02. Your bonus pay is now $0.56.</p>\n            ","response":0,"trial_type":"html-button-response","trial_index":24,"time_elapsed":174569,"internal_node_id":"0.0-4.0-1.8","subject_id":"6133ba9a50d368581b0f82dc","study_id":"6197b3f67c2b5cd3b6d9596a","session_id":"6197b9f000deb38667dcd459","condition":"contingent","relevant_dimensions":["antennae","pattern"],"bee_group":{"antennae":"B","wings":"X","pattern":"S","legs":"X"},"bonus":1.4000000000000008},{"rt":1874.800000011921,"stimulus":"bees-with-color/bee-A2SF.svg","response":1,"trial_type":"image-button-response","trial_index":25,"time_elapsed":176445,"internal_node_id":"0.0-4.0-0.9","subject_id":"6133ba9a50d368581b0f82dc","study_id":"6197b3f67c2b5cd3b6d9596a","session_id":"6197b9f000deb38667dcd459","condition":"contingent","relevant_dimensions":["antennae","pattern"],"bee_group":{"antennae":"B","wings":"X","pattern":"S","legs":"X"},"action":"avoid","summary":"bad-avoid","bonus":1.4000000000000008},{"rt":1176.199999988079,"stimulus":"\n                    <p><b>Action: <em>avoid</em></b></p>\n                    <p>This is the bee that you just saw.</p>\n                    <img src=\"bees-with-color/bee-A2SF.svg\" width=\"200\">\n                    <p><br>Your bonus pay is unchanged, and remains at $0.56.</p>\n            ","response":0,"trial_type":"html-button-response","trial_index":26,"time_elapsed":177623,"internal_node_id":"0.0-4.0-1.9","subject_id":"6133ba9a50d368581b0f82dc","study_id":"6197b3f67c2b5cd3b6d9596a","session_id":"6197b9f000deb38667dcd459","condition":"contingent","relevant_dimensions":["antennae","pattern"],"bee_group":{"antennae":"B","wings":"X","pattern":"S","legs":"X"},"bonus":1.4000000000000008},{"rt":948.9000000357628,"stimulus":"bees-with-color/bee-B1DM.svg","response":0,"trial_type":"image-button-response","trial_index":27,"time_elapsed":178573,"internal_node_id":"0.0-4.0-0.10","subject_id":"6133ba9a50d368581b0f82dc","study_id":"6197b3f67c2b5cd3b6d9596a","session_id":"6197b9f000deb38667dcd459","condition":"contingent","relevant_dimensions":["antennae","pattern"],"bee_group":{"antennae":"B","wings":"X","pattern":"S","legs":"X"},"action":"harvest","summary":"good-harvest","bonus":1.4000000000000008},{"rt":947.5999999642372,"stimulus":"\n                    <p><b>Action: <em>harvest</em></b></p>\n                    <p>This is the bee that you just saw.</p>\n                    <img src=\"bees-with-color/bee-B1DM.svg\" width=\"200\">\n                    <p><span class=\"greenText\"><b>Successful harvest!</b></span><br>Your pay has increased by $0.02. Your bonus pay is now $0.58.</p>\n            ","response":0,"trial_type":"html-button-response","trial_index":28,"time_elapsed":179522,"internal_node_id":"0.0-4.0-1.10","subject_id":"6133ba9a50d368581b0f82dc","study_id":"6197b3f67c2b5cd3b6d9596a","session_id":"6197b9f000deb38667dcd459","condition":"contingent","relevant_dimensions":["antennae","pattern"],"bee_group":{"antennae":"B","wings":"X","pattern":"S","legs":"X"},"bonus":1.4000000000000008},{"rt":769.3000000119209,"stimulus":"bees-with-color/bee-B1SM.svg","response":1,"trial_type":"image-button-response","trial_index":29,"time_elapsed":180293,"internal_node_id":"0.0-4.0-0.11","subject_id":"6133ba9a50d368581b0f82dc","study_id":"6197b3f67c2b5cd3b6d9596a","session_id":"6197b9f000deb38667dcd459","condition":"contingent","relevant_dimensions":["antennae","pattern"],"bee_group":{"antennae":"B","wings":"X","pattern":"S","legs":"X"},"action":"avoid","summary":"good-avoid","bonus":1.4000000000000008},{"rt":566.6000000238419,"stimulus":"\n                    <p><b>Action: <em>avoid</em></b></p>\n                    <p>This is the bee that you just saw.</p>\n                    <img src=\"bees-with-color/bee-B1SM.svg\" width=\"200\">\n                    <p><br>Your bonus pay is unchanged, and remains at $0.58.</p>\n            ","response":0,"trial_type":"html-button-response","trial_index":30,"time_elapsed":180861,"internal_node_id":"0.0-4.0-1.11","subject_id":"6133ba9a50d368581b0f82dc","study_id":"6197b3f67c2b5cd3b6d9596a","session_id":"6197b9f000deb38667dcd459","condition":"contingent","relevant_dimensions":["antennae","pattern"],"bee_group":{"antennae":"B","wings":"X","pattern":"S","legs":"X"},"bonus":1.4000000000000008},{"rt":1163.199999988079,"stimulus":"bees-with-color/bee-A2SM.svg","response":1,"trial_type":"image-button-response","trial_index":31,"time_elapsed":182026,"internal_node_id":"0.0-4.0-0.12","subject_id":"6133ba9a50d368581b0f82dc","study_id":"6197b3f67c2b5cd3b6d9596a","session_id":"6197b9f000deb38667dcd459","condition":"contingent","relevant_dimensions":["antennae","pattern"],"bee_group":{"antennae":"B","wings":"X","pattern":"S","legs":"X"},"action":"avoid","summary":"bad-avoid","bonus":1.4000000000000008},{"rt":454.0999999642372,"stimulus":"\n                    <p><b>Action: <em>avoid</em></b></p>\n                    <p>This is the bee that you just saw.</p>\n                    <img src=\"bees-with-color/bee-A2SM.svg\" width=\"200\">\n                    <p><br>Your bonus pay is unchanged, and remains at $0.58.</p>\n            ","response":0,"trial_type":"html-button-response","trial_index":32,"time_elapsed":182482,"internal_node_id":"0.0-4.0-1.12","subject_id":"6133ba9a50d368581b0f82dc","study_id":"6197b3f67c2b5cd3b6d9596a","session_id":"6197b9f000deb38667dcd459","condition":"contingent","relevant_dimensions":["antennae","pattern"],"bee_group":{"antennae":"B","wings":"X","pattern":"S","legs":"X"},"bonus":1.4000000000000008},{"rt":955.1000000238419,"stimulus":"bees-with-color/bee-B2DF.svg","response":0,"trial_type":"image-button-response","trial_index":33,"time_elapsed":183438,"internal_node_id":"0.0-4.0-0.13","subject_id":"6133ba9a50d368581b0f82dc","study_id":"6197b3f67c2b5cd3b6d9596a","session_id":"6197b9f000deb38667dcd459","condition":"contingent","relevant_dimensions":["antennae","pattern"],"bee_group":{"antennae":"B","wings":"X","pattern":"S","legs":"X"},"action":"harvest","summary":"good-harvest","bonus":1.4000000000000008},{"rt":808.6999999880791,"stimulus":"\n                    <p><b>Action: <em>harvest</em></b></p>\n                    <p>This is the bee that you just saw.</p>\n                    <img src=\"bees-with-color/bee-B2DF.svg\" width=\"200\">\n                    <p><span class=\"greenText\"><b>Successful harvest!</b></span><br>Your pay has increased by $0.02. Your bonus pay is now $0.60.</p>\n            ","response":0,"trial_type":"html-button-response","trial_index":34,"time_elapsed":184249,"internal_node_id":"0.0-4.0-1.13","subject_id":"6133ba9a50d368581b0f82dc","study_id":"6197b3f67c2b5cd3b6d9596a","session_id":"6197b9f000deb38667dcd459","condition":"contingent","relevant_dimensions":["antennae","pattern"],"bee_group":{"antennae":"B","wings":"X","pattern":"S","legs":"X"},"bonus":1.4000000000000008},{"rt":902.8000000119209,"stimulus":"bees-with-color/bee-B2SM.svg","response":1,"trial_type":"image-button-response","trial_index":35,"time_elapsed":185153,"internal_node_id":"0.0-4.0-0.14","subject_id":"6133ba9a50d368581b0f82dc","study_id":"6197b3f67c2b5cd3b6d9596a","session_id":"6197b9f000deb38667dcd459","condition":"contingent","relevant_dimensions":["antennae","pattern"],"bee_group":{"antennae":"B","wings":"X","pattern":"S","legs":"X"},"action":"avoid","summary":"good-avoid","bonus":1.4000000000000008},{"rt":808.8000000119209,"stimulus":"\n                    <p><b>Action: <em>avoid</em></b></p>\n                    <p>This is the bee that you just saw.</p>\n                    <img src=\"bees-with-color/bee-B2SM.svg\" width=\"200\">\n                    <p><br>Your bonus pay is unchanged, and remains at $0.60.</p>\n            ","response":0,"trial_type":"html-button-response","trial_index":36,"time_elapsed":185963,"internal_node_id":"0.0-4.0-1.14","subject_id":"6133ba9a50d368581b0f82dc","study_id":"6197b3f67c2b5cd3b6d9596a","session_id":"6197b9f000deb38667dcd459","condition":"contingent","relevant_dimensions":["antennae","pattern"],"bee_group":{"antennae":"B","wings":"X","pattern":"S","legs":"X"},"bonus":1.4000000000000008},{"rt":1426.1000000238419,"stimulus":"bees-with-color/bee-A1SF.svg","response":1,"trial_type":"image-button-response","trial_index":37,"time_elapsed":187391,"internal_node_id":"0.0-4.0-0.15","subject_id":"6133ba9a50d368581b0f82dc","study_id":"6197b3f67c2b5cd3b6d9596a","session_id":"6197b9f000deb38667dcd459","condition":"contingent","relevant_dimensions":["antennae","pattern"],"bee_group":{"antennae":"B","wings":"X","pattern":"S","legs":"X"},"action":"avoid","summary":"bad-avoid","bonus":1.4000000000000008},{"rt":518.0999999642372,"stimulus":"\n                    <p><b>Action: <em>avoid</em></b></p>\n                    <p>This is the bee that you just saw.</p>\n                    <img src=\"bees-with-color/bee-A1SF.svg\" width=\"200\">\n                    <p><br>Your bonus pay is unchanged, and remains at $0.60.</p>\n            ","response":0,"trial_type":"html-button-response","trial_index":38,"time_elapsed":187910,"internal_node_id":"0.0-4.0-1.15","subject_id":"6133ba9a50d368581b0f82dc","study_id":"6197b3f67c2b5cd3b6d9596a","session_id":"6197b9f000deb38667dcd459","condition":"contingent","relevant_dimensions":["antennae","pattern"],"bee_group":{"antennae":"B","wings":"X","pattern":"S","legs":"X"},"bonus":1.4000000000000008},{"rt":1019.0999999642372,"stimulus":"bees-with-color/bee-B1DF.svg","response":0,"trial_type":"image-button-response","trial_index":39,"time_elapsed":188931,"internal_node_id":"0.0-4.0-0.16","subject_id":"6133ba9a50d368581b0f82dc","study_id":"6197b3f67c2b5cd3b6d9596a","session_id":"6197b9f000deb38667dcd459","condition":"contingent","relevant_dimensions":["antennae","pattern"],"bee_group":{"antennae":"B","wings":"X","pattern":"S","legs":"X"},"action":"harvest","summary":"good-harvest","bonus":1.4000000000000008},{"rt":602,"stimulus":"\n                    <p><b>Action: <em>harvest</em></b></p>\n                    <p>This is the bee that you just saw.</p>\n                    <img src=\"bees-with-color/bee-B1DF.svg\" width=\"200\">\n                    <p><span class=\"greenText\"><b>Successful harvest!</b></span><br>Your pay has increased by $0.02. Your bonus pay is now $0.62.</p>\n            ","response":0,"trial_type":"html-button-response","trial_index":40,"time_elapsed":189536,"internal_node_id":"0.0-4.0-1.16","subject_id":"6133ba9a50d368581b0f82dc","study_id":"6197b3f67c2b5cd3b6d9596a","session_id":"6197b9f000deb38667dcd459","condition":"contingent","relevant_dimensions":["antennae","pattern"],"bee_group":{"antennae":"B","wings":"X","pattern":"S","legs":"X"},"bonus":1.4000000000000008},{"rt":1810.300000011921,"stimulus":"bees-with-color/bee-A1SF.svg","response":1,"trial_type":"image-button-response","trial_index":41,"time_elapsed":191347,"internal_node_id":"0.0-4.0-0.17","subject_id":"6133ba9a50d368581b0f82dc","study_id":"6197b3f67c2b5cd3b6d9596a","session_id":"6197b9f000deb38667dcd459","condition":"contingent","relevant_dimensions":["antennae","pattern"],"bee_group":{"antennae":"B","wings":"X","pattern":"S","legs":"X"},"action":"avoid","summary":"bad-avoid","bonus":1.4000000000000008},{"rt":885.9000000357628,"stimulus":"\n                    <p><b>Action: <em>avoid</em></b></p>\n                    <p>This is the bee that you just saw.</p>\n                    <img src=\"bees-with-color/bee-A1SF.svg\" width=\"200\">\n                    <p><br>Your bonus pay is unchanged, and remains at $0.62.</p>\n            ","response":0,"trial_type":"html-button-response","trial_index":42,"time_elapsed":192235,"internal_node_id":"0.0-4.0-1.17","subject_id":"6133ba9a50d368581b0f82dc","study_id":"6197b3f67c2b5cd3b6d9596a","session_id":"6197b9f000deb38667dcd459","condition":"contingent","relevant_dimensions":["antennae","pattern"],"bee_group":{"antennae":"B","wings":"X","pattern":"S","legs":"X"},"bonus":1.4000000000000008},{"rt":861.1000000238419,"stimulus":"bees-with-color/bee-A2DM.svg","response":0,"trial_type":"image-button-response","trial_index":43,"time_elapsed":193097,"internal_node_id":"0.0-4.0-0.18","subject_id":"6133ba9a50d368581b0f82dc","study_id":"6197b3f67c2b5cd3b6d9596a","session_id":"6197b9f000deb38667dcd459","condition":"contingent","relevant_dimensions":["antennae","pattern"],"bee_group":{"antennae":"B","wings":"X","pattern":"S","legs":"X"},"action":"harvest","summary":"good-harvest","bonus":1.4000000000000008},{"rt":1279.1000000238419,"stimulus":"\n                    <p><b>Action: <em>harvest</em></b></p>\n                    <p>This is the bee that you just saw.</p>\n                    <img src=\"bees-with-color/bee-A2DM.svg\" width=\"200\">\n                    <p><span class=\"greenText\"><b>Successful harvest!</b></span><br>Your pay has increased by $0.02. Your bonus pay is now $0.64.</p>\n            ","response":0,"trial_type":"html-button-response","trial_index":44,"time_elapsed":194377,"internal_node_id":"0.0-4.0-1.18","subject_id":"6133ba9a50d368581b0f82dc","study_id":"6197b3f67c2b5cd3b6d9596a","session_id":"6197b9f000deb38667dcd459","condition":"contingent","relevant_dimensions":["antennae","pattern"],"bee_group":{"antennae":"B","wings":"X","pattern":"S","legs":"X"},"bonus":1.4000000000000008},{"rt":936.3999999761581,"stimulus":"bees-with-color/bee-B2SM.svg","response":1,"trial_type":"image-button-response","trial_index":45,"time_elapsed":195315,"internal_node_id":"0.0-4.0-0.19","subject_id":"6133ba9a50d368581b0f82dc","study_id":"6197b3f67c2b5cd3b6d9596a","session_id":"6197b9f000deb38667dcd459","condition":"contingent","relevant_dimensions":["antennae","pattern"],"bee_group":{"antennae":"B","wings":"X","pattern":"S","legs":"X"},"action":"avoid","summary":"good-avoid","bonus":1.4000000000000008},{"rt":655,"stimulus":"\n                    <p><b>Action: <em>avoid</em></b></p>\n                    <p>This is the bee that you just saw.</p>\n                    <img src=\"bees-with-color/bee-B2SM.svg\" width=\"200\">\n                    <p><br>Your bonus pay is unchanged, and remains at $0.64.</p>\n            ","response":0,"trial_type":"html-button-response","trial_index":46,"time_elapsed":195971,"internal_node_id":"0.0-4.0-1.19","subject_id":"6133ba9a50d368581b0f82dc","study_id":"6197b3f67c2b5cd3b6d9596a","session_id":"6197b9f000deb38667dcd459","condition":"contingent","relevant_dimensions":["antennae","pattern"],"bee_group":{"antennae":"B","wings":"X","pattern":"S","legs":"X"},"bonus":1.4000000000000008},{"rt":1372,"stimulus":"bees-with-color/bee-A2SM.svg","response":1,"trial_type":"image-button-response","trial_index":47,"time_elapsed":197345,"internal_node_id":"0.0-4.0-0.20","subject_id":"6133ba9a50d368581b0f82dc","study_id":"6197b3f67c2b5cd3b6d9596a","session_id":"6197b9f000deb38667dcd459","condition":"contingent","relevant_dimensions":["antennae","pattern"],"bee_group":{"antennae":"B","wings":"X","pattern":"S","legs":"X"},"action":"avoid","summary":"bad-avoid","bonus":1.4000000000000008},{"rt":578.1999999880791,"stimulus":"\n                    <p><b>Action: <em>avoid</em></b></p>\n                    <p>This is the bee that you just saw.</p>\n                    <img src=\"bees-with-color/bee-A2SM.svg\" width=\"200\">\n                    <p><br>Your bonus pay is unchanged, and remains at $0.64.</p>\n            ","response":0,"trial_type":"html-button-response","trial_index":48,"time_elapsed":197925,"internal_node_id":"0.0-4.0-1.20","subject_id":"6133ba9a50d368581b0f82dc","study_id":"6197b3f67c2b5cd3b6d9596a","session_id":"6197b9f000deb38667dcd459","condition":"contingent","relevant_dimensions":["antennae","pattern"],"bee_group":{"antennae":"B","wings":"X","pattern":"S","legs":"X"},"bonus":1.4000000000000008},{"rt":866.3000000119209,"stimulus":"bees-with-color/bee-A1SM.svg","response":1,"trial_type":"image-button-response","trial_index":49,"time_elapsed":198792,"internal_node_id":"0.0-4.0-0.21","subject_id":"6133ba9a50d368581b0f82dc","study_id":"6197b3f67c2b5cd3b6d9596a","session_id":"6197b9f000deb38667dcd459","condition":"contingent","relevant_dimensions":["antennae","pattern"],"bee_group":{"antennae":"B","wings":"X","pattern":"S","legs":"X"},"action":"avoid","summary":"bad-avoid","bonus":1.4000000000000008},{"rt":574.3999999761581,"stimulus":"\n                    <p><b>Action: <em>avoid</em></b></p>\n                    <p>This is the bee that you just saw.</p>\n                    <img src=\"bees-with-color/bee-A1SM.svg\" width=\"200\">\n                    <p><br>Your bonus pay is unchanged, and remains at $0.64.</p>\n            ","response":0,"trial_type":"html-button-response","trial_index":50,"time_elapsed":199368,"internal_node_id":"0.0-4.0-1.21","subject_id":"6133ba9a50d368581b0f82dc","study_id":"6197b3f67c2b5cd3b6d9596a","session_id":"6197b9f000deb38667dcd459","condition":"contingent","relevant_dimensions":["antennae","pattern"],"bee_group":{"antennae":"B","wings":"X","pattern":"S","legs":"X"},"bonus":1.4000000000000008},{"rt":781,"stimulus":"bees-with-color/bee-A2DF.svg","response":0,"trial_type":"image-button-response","trial_index":51,"time_elapsed":200150,"internal_node_id":"0.0-4.0-0.22","subject_id":"6133ba9a50d368581b0f82dc","study_id":"6197b3f67c2b5cd3b6d9596a","session_id":"6197b9f000deb38667dcd459","condition":"contingent","relevant_dimensions":["antennae","pattern"],"bee_group":{"antennae":"B","wings":"X","pattern":"S","legs":"X"},"action":"harvest","summary":"good-harvest","bonus":1.4000000000000008},{"rt":711.1000000238419,"stimulus":"\n                    <p><b>Action: <em>harvest</em></b></p>\n                    <p>This is the bee that you just saw.</p>\n                    <img src=\"bees-with-color/bee-A2DF.svg\" width=\"200\">\n                    <p><span class=\"greenText\"><b>Successful harvest!</b></span><br>Your pay has increased by $0.02. Your bonus pay is now $0.66.</p>\n            ","response":0,"trial_type":"html-button-response","trial_index":52,"time_elapsed":200863,"internal_node_id":"0.0-4.0-1.22","subject_id":"6133ba9a50d368581b0f82dc","study_id":"6197b3f67c2b5cd3b6d9596a","session_id":"6197b9f000deb38667dcd459","condition":"contingent","relevant_dimensions":["antennae","pattern"],"bee_group":{"antennae":"B","wings":"X","pattern":"S","legs":"X"},"bonus":1.4000000000000008},{"rt":1318.300000011921,"stimulus":"bees-with-color/bee-B1SF.svg","response":1,"trial_type":"image-button-response","trial_index":53,"time_elapsed":202182,"internal_node_id":"0.0-4.0-0.23","subject_id":"6133ba9a50d368581b0f82dc","study_id":"6197b3f67c2b5cd3b6d9596a","session_id":"6197b9f000deb38667dcd459","condition":"contingent","relevant_dimensions":["antennae","pattern"],"bee_group":{"antennae":"B","wings":"X","pattern":"S","legs":"X"},"action":"avoid","summary":"good-avoid","bonus":1.4000000000000008},{"rt":605.1999999880791,"stimulus":"\n                    <p><b>Action: <em>avoid</em></b></p>\n                    <p>This is the bee that you just saw.</p>\n                    <img src=\"bees-with-color/bee-B1SF.svg\" width=\"200\">\n                    <p><br>Your bonus pay is unchanged, and remains at $0.66.</p>\n            ","response":0,"trial_type":"html-button-response","trial_index":54,"time_elapsed":202789,"internal_node_id":"0.0-4.0-1.23","subject_id":"6133ba9a50d368581b0f82dc","study_id":"6197b3f67c2b5cd3b6d9596a","session_id":"6197b9f000deb38667dcd459","condition":"contingent","relevant_dimensions":["antennae","pattern"],"bee_group":{"antennae":"B","wings":"X","pattern":"S","legs":"X"},"bonus":1.4000000000000008},{"rt":843.6000000238419,"stimulus":"bees-with-color/bee-B2DF.svg","response":0,"trial_type":"image-button-response","trial_index":55,"time_elapsed":203634,"internal_node_id":"0.0-4.0-0.24","subject_id":"6133ba9a50d368581b0f82dc","study_id":"6197b3f67c2b5cd3b6d9596a","session_id":"6197b9f000deb38667dcd459","condition":"contingent","relevant_dimensions":["antennae","pattern"],"bee_group":{"antennae":"B","wings":"X","pattern":"S","legs":"X"},"action":"harvest","summary":"good-harvest","bonus":1.4000000000000008},{"rt":1365.3999999761581,"stimulus":"\n                    <p><b>Action: <em>harvest</em></b></p>\n                    <p>This is the bee that you just saw.</p>\n                    <img src=\"bees-with-color/bee-B2DF.svg\" width=\"200\">\n                    <p><span class=\"greenText\"><b>Successful harvest!</b></span><br>Your pay has increased by $0.02. Your bonus pay is now $0.68.</p>\n            ","response":0,"trial_type":"html-button-response","trial_index":56,"time_elapsed":205000,"internal_node_id":"0.0-4.0-1.24","subject_id":"6133ba9a50d368581b0f82dc","study_id":"6197b3f67c2b5cd3b6d9596a","session_id":"6197b9f000deb38667dcd459","condition":"contingent","relevant_dimensions":["antennae","pattern"],"bee_group":{"antennae":"B","wings":"X","pattern":"S","legs":"X"},"bonus":1.4000000000000008},{"rt":686.3000000119209,"stimulus":"bees-with-color/bee-A2SF.svg","response":1,"trial_type":"image-button-response","trial_index":57,"time_elapsed":205688,"internal_node_id":"0.0-4.0-0.25","subject_id":"6133ba9a50d368581b0f82dc","study_id":"6197b3f67c2b5cd3b6d9596a","session_id":"6197b9f000deb38667dcd459","condition":"contingent","relevant_dimensions":["antennae","pattern"],"bee_group":{"antennae":"B","wings":"X","pattern":"S","legs":"X"},"action":"avoid","summary":"bad-avoid","bonus":1.4000000000000008},{"rt":837,"stimulus":"\n                    <p><b>Action: <em>avoid</em></b></p>\n                    <p>This is the bee that you just saw.</p>\n                    <img src=\"bees-with-color/bee-A2SF.svg\" width=\"200\">\n                    <p><br>Your bonus pay is unchanged, and remains at $0.68.</p>\n            ","response":0,"trial_type":"html-button-response","trial_index":58,"time_elapsed":206527,"internal_node_id":"0.0-4.0-1.25","subject_id":"6133ba9a50d368581b0f82dc","study_id":"6197b3f67c2b5cd3b6d9596a","session_id":"6197b9f000deb38667dcd459","condition":"contingent","relevant_dimensions":["antennae","pattern"],"bee_group":{"antennae":"B","wings":"X","pattern":"S","legs":"X"},"bonus":1.4000000000000008},{"rt":830.8999999761581,"stimulus":"bees-with-color/bee-B2SF.svg","response":1,"trial_type":"image-button-response","trial_index":59,"time_elapsed":207359,"internal_node_id":"0.0-4.0-0.26","subject_id":"6133ba9a50d368581b0f82dc","study_id":"6197b3f67c2b5cd3b6d9596a","session_id":"6197b9f000deb38667dcd459","condition":"contingent","relevant_dimensions":["antennae","pattern"],"bee_group":{"antennae":"B","wings":"X","pattern":"S","legs":"X"},"action":"avoid","summary":"good-avoid","bonus":1.4000000000000008},{"rt":717.6999999880791,"stimulus":"\n                    <p><b>Action: <em>avoid</em></b></p>\n                    <p>This is the bee that you just saw.</p>\n                    <img src=\"bees-with-color/bee-B2SF.svg\" width=\"200\">\n                    <p><br>Your bonus pay is unchanged, and remains at $0.68.</p>\n            ","response":0,"trial_type":"html-button-response","trial_index":60,"time_elapsed":208079,"internal_node_id":"0.0-4.0-1.26","subject_id":"6133ba9a50d368581b0f82dc","study_id":"6197b3f67c2b5cd3b6d9596a","session_id":"6197b9f000deb38667dcd459","condition":"contingent","relevant_dimensions":["antennae","pattern"],"bee_group":{"antennae":"B","wings":"X","pattern":"S","legs":"X"},"bonus":1.4000000000000008},{"rt":643.3999999761581,"stimulus":"bees-with-color/bee-B1DM.svg","response":0,"trial_type":"image-button-response","trial_index":61,"time_elapsed":208724,"internal_node_id":"0.0-4.0-0.27","subject_id":"6133ba9a50d368581b0f82dc","study_id":"6197b3f67c2b5cd3b6d9596a","session_id":"6197b9f000deb38667dcd459","condition":"contingent","relevant_dimensions":["antennae","pattern"],"bee_group":{"antennae":"B","wings":"X","pattern":"S","legs":"X"},"action":"harvest","summary":"good-harvest","bonus":1.4000000000000008},{"rt":560,"stimulus":"\n                    <p><b>Action: <em>harvest</em></b></p>\n                    <p>This is the bee that you just saw.</p>\n                    <img src=\"bees-with-color/bee-B1DM.svg\" width=\"200\">\n                    <p><span class=\"greenText\"><b>Successful harvest!</b></span><br>Your pay has increased by $0.02. Your bonus pay is now $0.70.</p>\n            ","response":0,"trial_type":"html-button-response","trial_index":62,"time_elapsed":209285,"internal_node_id":"0.0-4.0-1.27","subject_id":"6133ba9a50d368581b0f82dc","study_id":"6197b3f67c2b5cd3b6d9596a","session_id":"6197b9f000deb38667dcd459","condition":"contingent","relevant_dimensions":["antennae","pattern"],"bee_group":{"antennae":"B","wings":"X","pattern":"S","legs":"X"},"bonus":1.4000000000000008},{"rt":2968.099999964237,"stimulus":"bees-with-color/bee-A1DF.svg","response":0,"trial_type":"image-button-response","trial_index":63,"time_elapsed":212254,"internal_node_id":"0.0-4.0-0.28","subject_id":"6133ba9a50d368581b0f82dc","study_id":"6197b3f67c2b5cd3b6d9596a","session_id":"6197b9f000deb38667dcd459","condition":"contingent","relevant_dimensions":["antennae","pattern"],"bee_group":{"antennae":"B","wings":"X","pattern":"S","legs":"X"},"action":"harvest","summary":"good-harvest","bonus":1.4000000000000008},{"rt":603.5,"stimulus":"\n                    <p><b>Action: <em>harvest</em></b></p>\n                    <p>This is the bee that you just saw.</p>\n                    <img src=\"bees-with-color/bee-A1DF.svg\" width=\"200\">\n                    <p><span class=\"greenText\"><b>Successful harvest!</b></span><br>Your pay has increased by $0.02. Your bonus pay is now $0.72.</p>\n            ","response":0,"trial_type":"html-button-response","trial_index":64,"time_elapsed":212860,"internal_node_id":"0.0-4.0-1.28","subject_id":"6133ba9a50d368581b0f82dc","study_id":"6197b3f67c2b5cd3b6d9596a","session_id":"6197b9f000deb38667dcd459","condition":"contingent","relevant_dimensions":["antennae","pattern"],"bee_group":{"antennae":"B","wings":"X","pattern":"S","legs":"X"},"bonus":1.4000000000000008},{"rt":672.5,"stimulus":"bees-with-color/bee-A1DM.svg","response":0,"trial_type":"image-button-response","trial_index":65,"time_elapsed":213534,"internal_node_id":"0.0-4.0-0.29","subject_id":"6133ba9a50d368581b0f82dc","study_id":"6197b3f67c2b5cd3b6d9596a","session_id":"6197b9f000deb38667dcd459","condition":"contingent","relevant_dimensions":["antennae","pattern"],"bee_group":{"antennae":"B","wings":"X","pattern":"S","legs":"X"},"action":"harvest","summary":"good-harvest","bonus":1.4000000000000008},{"rt":960.5,"stimulus":"\n                    <p><b>Action: <em>harvest</em></b></p>\n                    <p>This is the bee that you just saw.</p>\n                    <img src=\"bees-with-color/bee-A1DM.svg\" width=\"200\">\n                    <p><span class=\"greenText\"><b>Successful harvest!</b></span><br>Your pay has increased by $0.02. Your bonus pay is now $0.74.</p>\n            ","response":0,"trial_type":"html-button-response","trial_index":66,"time_elapsed":214496,"internal_node_id":"0.0-4.0-1.29","subject_id":"6133ba9a50d368581b0f82dc","study_id":"6197b3f67c2b5cd3b6d9596a","session_id":"6197b9f000deb38667dcd459","condition":"contingent","relevant_dimensions":["antennae","pattern"],"bee_group":{"antennae":"B","wings":"X","pattern":"S","legs":"X"},"bonus":1.4000000000000008},{"rt":567.5,"stimulus":"bees-with-color/bee-B2DM.svg","response":0,"trial_type":"image-button-response","trial_index":67,"time_elapsed":215065,"internal_node_id":"0.0-4.0-0.30","subject_id":"6133ba9a50d368581b0f82dc","study_id":"6197b3f67c2b5cd3b6d9596a","session_id":"6197b9f000deb38667dcd459","condition":"contingent","relevant_dimensions":["antennae","pattern"],"bee_group":{"antennae":"B","wings":"X","pattern":"S","legs":"X"},"action":"harvest","summary":"good-harvest","bonus":1.4000000000000008},{"rt":575.2000000476837,"stimulus":"\n                    <p><b>Action: <em>harvest</em></b></p>\n                    <p>This is the bee that you just saw.</p>\n                    <img src=\"bees-with-color/bee-B2DM.svg\" width=\"200\">\n                    <p><span class=\"greenText\"><b>Successful harvest!</b></span><br>Your pay has increased by $0.02. Your bonus pay is now $0.76.</p>\n            ","response":0,"trial_type":"html-button-response","trial_index":68,"time_elapsed":215642,"internal_node_id":"0.0-4.0-1.30","subject_id":"6133ba9a50d368581b0f82dc","study_id":"6197b3f67c2b5cd3b6d9596a","session_id":"6197b9f000deb38667dcd459","condition":"contingent","relevant_dimensions":["antennae","pattern"],"bee_group":{"antennae":"B","wings":"X","pattern":"S","legs":"X"},"bonus":1.4000000000000008},{"rt":733,"stimulus":"bees-with-color/bee-B1SM.svg","response":1,"trial_type":"image-button-response","trial_index":69,"time_elapsed":216376,"internal_node_id":"0.0-4.0-0.31","subject_id":"6133ba9a50d368581b0f82dc","study_id":"6197b3f67c2b5cd3b6d9596a","session_id":"6197b9f000deb38667dcd459","condition":"contingent","relevant_dimensions":["antennae","pattern"],"bee_group":{"antennae":"B","wings":"X","pattern":"S","legs":"X"},"action":"avoid","summary":"good-avoid","bonus":1.4000000000000008},{"rt":665.0999999642372,"stimulus":"\n                    <p><b>Action: <em>avoid</em></b></p>\n                    <p>This is the bee that you just saw.</p>\n                    <img src=\"bees-with-color/bee-B1SM.svg\" width=\"200\">\n                    <p><br>Your bonus pay is unchanged, and remains at $0.76.</p>\n            ","response":0,"trial_type":"html-button-response","trial_index":70,"time_elapsed":217042,"internal_node_id":"0.0-4.0-1.31","subject_id":"6133ba9a50d368581b0f82dc","study_id":"6197b3f67c2b5cd3b6d9596a","session_id":"6197b9f000deb38667dcd459","condition":"contingent","relevant_dimensions":["antennae","pattern"],"bee_group":{"antennae":"B","wings":"X","pattern":"S","legs":"X"},"bonus":1.4000000000000008},{"rt":667.9000000357628,"stimulus":"bees-with-color/bee-B2DM.svg","response":0,"trial_type":"image-button-response","trial_index":71,"time_elapsed":217711,"internal_node_id":"0.0-4.0-0.32","subject_id":"6133ba9a50d368581b0f82dc","study_id":"6197b3f67c2b5cd3b6d9596a","session_id":"6197b9f000deb38667dcd459","condition":"contingent","relevant_dimensions":["antennae","pattern"],"bee_group":{"antennae":"B","wings":"X","pattern":"S","legs":"X"},"action":"harvest","summary":"good-harvest","bonus":1.4000000000000008},{"rt":456.30000001192093,"stimulus":"\n                    <p><b>Action: <em>harvest</em></b></p>\n                    <p>This is the bee that you just saw.</p>\n                    <img src=\"bees-with-color/bee-B2DM.svg\" width=\"200\">\n                    <p><span class=\"greenText\"><b>Successful harvest!</b></span><br>Your pay has increased by $0.02. Your bonus pay is now $0.78.</p>\n            ","response":0,"trial_type":"html-button-response","trial_index":72,"time_elapsed":218169,"internal_node_id":"0.0-4.0-1.32","subject_id":"6133ba9a50d368581b0f82dc","study_id":"6197b3f67c2b5cd3b6d9596a","session_id":"6197b9f000deb38667dcd459","condition":"contingent","relevant_dimensions":["antennae","pattern"],"bee_group":{"antennae":"B","wings":"X","pattern":"S","legs":"X"},"bonus":1.4000000000000008},{"rt":817.6000000238419,"stimulus":"bees-with-color/bee-B1SM.svg","response":1,"trial_type":"image-button-response","trial_index":73,"time_elapsed":218988,"internal_node_id":"0.0-4.0-0.33","subject_id":"6133ba9a50d368581b0f82dc","study_id":"6197b3f67c2b5cd3b6d9596a","session_id":"6197b9f000deb38667dcd459","condition":"contingent","relevant_dimensions":["antennae","pattern"],"bee_group":{"antennae":"B","wings":"X","pattern":"S","legs":"X"},"action":"avoid","summary":"good-avoid","bonus":1.4000000000000008},{"rt":495.9000000357628,"stimulus":"\n                    <p><b>Action: <em>avoid</em></b></p>\n                    <p>This is the bee that you just saw.</p>\n                    <img src=\"bees-with-color/bee-B1SM.svg\" width=\"200\">\n                    <p><br>Your bonus pay is unchanged, and remains at $0.78.</p>\n            ","response":0,"trial_type":"html-button-response","trial_index":74,"time_elapsed":219485,"internal_node_id":"0.0-4.0-1.33","subject_id":"6133ba9a50d368581b0f82dc","study_id":"6197b3f67c2b5cd3b6d9596a","session_id":"6197b9f000deb38667dcd459","condition":"contingent","relevant_dimensions":["antennae","pattern"],"bee_group":{"antennae":"B","wings":"X","pattern":"S","legs":"X"},"bonus":1.4000000000000008},{"rt":734.3999999761581,"stimulus":"bees-with-color/bee-A1SF.svg","response":1,"trial_type":"image-button-response","trial_index":75,"time_elapsed":220221,"internal_node_id":"0.0-4.0-0.34","subject_id":"6133ba9a50d368581b0f82dc","study_id":"6197b3f67c2b5cd3b6d9596a","session_id":"6197b9f000deb38667dcd459","condition":"contingent","relevant_dimensions":["antennae","pattern"],"bee_group":{"antennae":"B","wings":"X","pattern":"S","legs":"X"},"action":"avoid","summary":"bad-avoid","bonus":1.4000000000000008},{"rt":462.39999997615814,"stimulus":"\n                    <p><b>Action: <em>avoid</em></b></p>\n                    <p>This is the bee that you just saw.</p>\n                    <img src=\"bees-with-color/bee-A1SF.svg\" width=\"200\">\n                    <p><br>Your bonus pay is unchanged, and remains at $0.78.</p>\n            ","response":0,"trial_type":"html-button-response","trial_index":76,"time_elapsed":220684,"internal_node_id":"0.0-4.0-1.34","subject_id":"6133ba9a50d368581b0f82dc","study_id":"6197b3f67c2b5cd3b6d9596a","session_id":"6197b9f000deb38667dcd459","condition":"contingent","relevant_dimensions":["antennae","pattern"],"bee_group":{"antennae":"B","wings":"X","pattern":"S","legs":"X"},"bonus":1.4000000000000008},{"rt":730.1000000238419,"stimulus":"bees-with-color/bee-A2SM.svg","response":1,"trial_type":"image-button-response","trial_index":77,"time_elapsed":221416,"internal_node_id":"0.0-4.0-0.35","subject_id":"6133ba9a50d368581b0f82dc","study_id":"6197b3f67c2b5cd3b6d9596a","session_id":"6197b9f000deb38667dcd459","condition":"contingent","relevant_dimensions":["antennae","pattern"],"bee_group":{"antennae":"B","wings":"X","pattern":"S","legs":"X"},"action":"avoid","summary":"bad-avoid","bonus":1.4000000000000008},{"rt":624.8000000119209,"stimulus":"\n                    <p><b>Action: <em>avoid</em></b></p>\n                    <p>This is the bee that you just saw.</p>\n                    <img src=\"bees-with-color/bee-A2SM.svg\" width=\"200\">\n                    <p><br>Your bonus pay is unchanged, and remains at $0.78.</p>\n            ","response":0,"trial_type":"html-button-response","trial_index":78,"time_elapsed":222042,"internal_node_id":"0.0-4.0-1.35","subject_id":"6133ba9a50d368581b0f82dc","study_id":"6197b3f67c2b5cd3b6d9596a","session_id":"6197b9f000deb38667dcd459","condition":"contingent","relevant_dimensions":["antennae","pattern"],"bee_group":{"antennae":"B","wings":"X","pattern":"S","legs":"X"},"bonus":1.4000000000000008},{"rt":537.3999999761581,"stimulus":"bees-with-color/bee-B2SM.svg","response":1,"trial_type":"image-button-response","trial_index":79,"time_elapsed":222581,"internal_node_id":"0.0-4.0-0.36","subject_id":"6133ba9a50d368581b0f82dc","study_id":"6197b3f67c2b5cd3b6d9596a","session_id":"6197b9f000deb38667dcd459","condition":"contingent","relevant_dimensions":["antennae","pattern"],"bee_group":{"antennae":"B","wings":"X","pattern":"S","legs":"X"},"action":"avoid","summary":"good-avoid","bonus":1.4000000000000008},{"rt":450.30000001192093,"stimulus":"\n                    <p><b>Action: <em>avoid</em></b></p>\n                    <p>This is the bee that you just saw.</p>\n                    <img src=\"bees-with-color/bee-B2SM.svg\" width=\"200\">\n                    <p><br>Your bonus pay is unchanged, and remains at $0.78.</p>\n            ","response":0,"trial_type":"html-button-response","trial_index":80,"time_elapsed":223033,"internal_node_id":"0.0-4.0-1.36","subject_id":"6133ba9a50d368581b0f82dc","study_id":"6197b3f67c2b5cd3b6d9596a","session_id":"6197b9f000deb38667dcd459","condition":"contingent","relevant_dimensions":["antennae","pattern"],"bee_group":{"antennae":"B","wings":"X","pattern":"S","legs":"X"},"bonus":1.4000000000000008},{"rt":525.5,"stimulus":"bees-with-color/bee-A1SM.svg","response":1,"trial_type":"image-button-response","trial_index":81,"time_elapsed":223559,"internal_node_id":"0.0-4.0-0.37","subject_id":"6133ba9a50d368581b0f82dc","study_id":"6197b3f67c2b5cd3b6d9596a","session_id":"6197b9f000deb38667dcd459","condition":"contingent","relevant_dimensions":["antennae","pattern"],"bee_group":{"antennae":"B","wings":"X","pattern":"S","legs":"X"},"action":"avoid","summary":"bad-avoid","bonus":1.4000000000000008},{"rt":425.69999998807907,"stimulus":"\n                    <p><b>Action: <em>avoid</em></b></p>\n                    <p>This is the bee that you just saw.</p>\n                    <img src=\"bees-with-color/bee-A1SM.svg\" width=\"200\">\n                    <p><br>Your bonus pay is unchanged, and remains at $0.78.</p>\n            ","response":0,"trial_type":"html-button-response","trial_index":82,"time_elapsed":223986,"internal_node_id":"0.0-4.0-1.37","subject_id":"6133ba9a50d368581b0f82dc","study_id":"6197b3f67c2b5cd3b6d9596a","session_id":"6197b9f000deb38667dcd459","condition":"contingent","relevant_dimensions":["antennae","pattern"],"bee_group":{"antennae":"B","wings":"X","pattern":"S","legs":"X"},"bonus":1.4000000000000008},{"rt":547.8000000119209,"stimulus":"bees-with-color/bee-A2SF.svg","response":1,"trial_type":"image-button-response","trial_index":83,"time_elapsed":224535,"internal_node_id":"0.0-4.0-0.38","subject_id":"6133ba9a50d368581b0f82dc","study_id":"6197b3f67c2b5cd3b6d9596a","session_id":"6197b9f000deb38667dcd459","condition":"contingent","relevant_dimensions":["antennae","pattern"],"bee_group":{"antennae":"B","wings":"X","pattern":"S","legs":"X"},"action":"avoid","summary":"bad-avoid","bonus":1.4000000000000008},{"rt":550.7000000476837,"stimulus":"\n                    <p><b>Action: <em>avoid</em></b></p>\n                    <p>This is the bee that you just saw.</p>\n                    <img src=\"bees-with-color/bee-A2SF.svg\" width=\"200\">\n                    <p><br>Your bonus pay is unchanged, and remains at $0.78.</p>\n            ","response":0,"trial_type":"html-button-response","trial_index":84,"time_elapsed":225088,"internal_node_id":"0.0-4.0-1.38","subject_id":"6133ba9a50d368581b0f82dc","study_id":"6197b3f67c2b5cd3b6d9596a","session_id":"6197b9f000deb38667dcd459","condition":"contingent","relevant_dimensions":["antennae","pattern"],"bee_group":{"antennae":"B","wings":"X","pattern":"S","legs":"X"},"bonus":1.4000000000000008},{"rt":820.1000000238419,"stimulus":"bees-with-color/bee-A1DM.svg","response":0,"trial_type":"image-button-response","trial_index":85,"time_elapsed":225909,"internal_node_id":"0.0-4.0-0.39","subject_id":"6133ba9a50d368581b0f82dc","study_id":"6197b3f67c2b5cd3b6d9596a","session_id":"6197b9f000deb38667dcd459","condition":"contingent","relevant_dimensions":["antennae","pattern"],"bee_group":{"antennae":"B","wings":"X","pattern":"S","legs":"X"},"action":"harvest","summary":"good-harvest","bonus":1.4000000000000008},{"rt":580.3999999761581,"stimulus":"\n                    <p><b>Action: <em>harvest</em></b></p>\n                    <p>This is the bee that you just saw.</p>\n                    <img src=\"bees-with-color/bee-A1DM.svg\" width=\"200\">\n                    <p><span class=\"greenText\"><b>Successful harvest!</b></span><br>Your pay has increased by $0.02. Your bonus pay is now $0.80.</p>\n            ","response":0,"trial_type":"html-button-response","trial_index":86,"time_elapsed":226491,"internal_node_id":"0.0-4.0-1.39","subject_id":"6133ba9a50d368581b0f82dc","study_id":"6197b3f67c2b5cd3b6d9596a","session_id":"6197b9f000deb38667dcd459","condition":"contingent","relevant_dimensions":["antennae","pattern"],"bee_group":{"antennae":"B","wings":"X","pattern":"S","legs":"X"},"bonus":1.4000000000000008},{"rt":5603.099999964237,"stimulus":"bees-with-color/bee-B1SF.svg","response":1,"trial_type":"image-button-response","trial_index":87,"time_elapsed":232095,"internal_node_id":"0.0-4.0-0.40","subject_id":"6133ba9a50d368581b0f82dc","study_id":"6197b3f67c2b5cd3b6d9596a","session_id":"6197b9f000deb38667dcd459","condition":"contingent","relevant_dimensions":["antennae","pattern"],"bee_group":{"antennae":"B","wings":"X","pattern":"S","legs":"X"},"action":"avoid","summary":"good-avoid","bonus":1.4000000000000008},{"rt":620,"stimulus":"\n                    <p><b>Action: <em>avoid</em></b></p>\n                    <p>This is the bee that you just saw.</p>\n                    <img src=\"bees-with-color/bee-B1SF.svg\" width=\"200\">\n                    <p><br>Your bonus pay is unchanged, and remains at $0.80.</p>\n            ","response":0,"trial_type":"html-button-response","trial_index":88,"time_elapsed":232717,"internal_node_id":"0.0-4.0-1.40","subject_id":"6133ba9a50d368581b0f82dc","study_id":"6197b3f67c2b5cd3b6d9596a","session_id":"6197b9f000deb38667dcd459","condition":"contingent","relevant_dimensions":["antennae","pattern"],"bee_group":{"antennae":"B","wings":"X","pattern":"S","legs":"X"},"bonus":1.4000000000000008},{"rt":605.1999999880791,"stimulus":"bees-with-color/bee-A1DF.svg","response":0,"trial_type":"image-button-response","trial_index":89,"time_elapsed":233324,"internal_node_id":"0.0-4.0-0.41","subject_id":"6133ba9a50d368581b0f82dc","study_id":"6197b3f67c2b5cd3b6d9596a","session_id":"6197b9f000deb38667dcd459","condition":"contingent","relevant_dimensions":["antennae","pattern"],"bee_group":{"antennae":"B","wings":"X","pattern":"S","legs":"X"},"action":"harvest","summary":"good-harvest","bonus":1.4000000000000008},{"rt":776.8000000119209,"stimulus":"\n                    <p><b>Action: <em>harvest</em></b></p>\n                    <p>This is the bee that you just saw.</p>\n                    <img src=\"bees-with-color/bee-A1DF.svg\" width=\"200\">\n                    <p><span class=\"greenText\"><b>Successful harvest!</b></span><br>Your pay has increased by $0.02. Your bonus pay is now $0.82.</p>\n            ","response":0,"trial_type":"html-button-response","trial_index":90,"time_elapsed":234102,"internal_node_id":"0.0-4.0-1.41","subject_id":"6133ba9a50d368581b0f82dc","study_id":"6197b3f67c2b5cd3b6d9596a","session_id":"6197b9f000deb38667dcd459","condition":"contingent","relevant_dimensions":["antennae","pattern"],"bee_group":{"antennae":"B","wings":"X","pattern":"S","legs":"X"},"bonus":1.4000000000000008},{"rt":594,"stimulus":"bees-with-color/bee-B2SF.svg","response":1,"trial_type":"image-button-response","trial_index":91,"time_elapsed":234696,"internal_node_id":"0.0-4.0-0.42","subject_id":"6133ba9a50d368581b0f82dc","study_id":"6197b3f67c2b5cd3b6d9596a","session_id":"6197b9f000deb38667dcd459","condition":"contingent","relevant_dimensions":["antennae","pattern"],"bee_group":{"antennae":"B","wings":"X","pattern":"S","legs":"X"},"action":"avoid","summary":"good-avoid","bonus":1.4000000000000008},{"rt":497.9000000357628,"stimulus":"\n                    <p><b>Action: <em>avoid</em></b></p>\n                    <p>This is the bee that you just saw.</p>\n                    <img src=\"bees-with-color/bee-B2SF.svg\" width=\"200\">\n                    <p><br>Your bonus pay is unchanged, and remains at $0.82.</p>\n            ","response":0,"trial_type":"html-button-response","trial_index":92,"time_elapsed":235196,"internal_node_id":"0.0-4.0-1.42","subject_id":"6133ba9a50d368581b0f82dc","study_id":"6197b3f67c2b5cd3b6d9596a","session_id":"6197b9f000deb38667dcd459","condition":"contingent","relevant_dimensions":["antennae","pattern"],"bee_group":{"antennae":"B","wings":"X","pattern":"S","legs":"X"},"bonus":1.4000000000000008},{"rt":816.6999999880791,"stimulus":"bees-with-color/bee-B1DF.svg","response":0,"trial_type":"image-button-response","trial_index":93,"time_elapsed":236014,"internal_node_id":"0.0-4.0-0.43","subject_id":"6133ba9a50d368581b0f82dc","study_id":"6197b3f67c2b5cd3b6d9596a","session_id":"6197b9f000deb38667dcd459","condition":"contingent","relevant_dimensions":["antennae","pattern"],"bee_group":{"antennae":"B","wings":"X","pattern":"S","legs":"X"},"action":"harvest","summary":"good-harvest","bonus":1.4000000000000008},{"rt":485.5,"stimulus":"\n                    <p><b>Action: <em>harvest</em></b></p>\n                    <p>This is the bee that you just saw.</p>\n                    <img src=\"bees-with-color/bee-B1DF.svg\" width=\"200\">\n                    <p><span class=\"greenText\"><b>Successful harvest!</b></span><br>Your pay has increased by $0.02. Your bonus pay is now $0.84.</p>\n            ","response":0,"trial_type":"html-button-response","trial_index":94,"time_elapsed":236501,"internal_node_id":"0.0-4.0-1.43","subject_id":"6133ba9a50d368581b0f82dc","study_id":"6197b3f67c2b5cd3b6d9596a","session_id":"6197b9f000deb38667dcd459","condition":"contingent","relevant_dimensions":["antennae","pattern"],"bee_group":{"antennae":"B","wings":"X","pattern":"S","legs":"X"},"bonus":1.4000000000000008},{"rt":2502.699999988079,"stimulus":"bees-with-color/bee-B2DF.svg","response":0,"trial_type":"image-button-response","trial_index":95,"time_elapsed":239005,"internal_node_id":"0.0-4.0-0.44","subject_id":"6133ba9a50d368581b0f82dc","study_id":"6197b3f67c2b5cd3b6d9596a","session_id":"6197b9f000deb38667dcd459","condition":"contingent","relevant_dimensions":["antennae","pattern"],"bee_group":{"antennae":"B","wings":"X","pattern":"S","legs":"X"},"action":"harvest","summary":"good-harvest","bonus":1.4000000000000008},{"rt":590.3000000119209,"stimulus":"\n                    <p><b>Action: <em>harvest</em></b></p>\n                    <p>This is the bee that you just saw.</p>\n                    <img src=\"bees-with-color/bee-B2DF.svg\" width=\"200\">\n                    <p><span class=\"greenText\"><b>Successful harvest!</b></span><br>Your pay has increased by $0.02. Your bonus pay is now $0.86.</p>\n            ","response":0,"trial_type":"html-button-response","trial_index":96,"time_elapsed":239597,"internal_node_id":"0.0-4.0-1.44","subject_id":"6133ba9a50d368581b0f82dc","study_id":"6197b3f67c2b5cd3b6d9596a","session_id":"6197b9f000deb38667dcd459","condition":"contingent","relevant_dimensions":["antennae","pattern"],"bee_group":{"antennae":"B","wings":"X","pattern":"S","legs":"X"},"bonus":1.4000000000000008},{"rt":688.8999999761581,"stimulus":"bees-with-color/bee-A2DF.svg","response":0,"trial_type":"image-button-response","trial_index":97,"time_elapsed":240287,"internal_node_id":"0.0-4.0-0.45","subject_id":"6133ba9a50d368581b0f82dc","study_id":"6197b3f67c2b5cd3b6d9596a","session_id":"6197b9f000deb38667dcd459","condition":"contingent","relevant_dimensions":["antennae","pattern"],"bee_group":{"antennae":"B","wings":"X","pattern":"S","legs":"X"},"action":"harvest","summary":"good-harvest","bonus":1.4000000000000008},{"rt":429.5999999642372,"stimulus":"\n                    <p><b>Action: <em>harvest</em></b></p>\n                    <p>This is the bee that you just saw.</p>\n                    <img src=\"bees-with-color/bee-A2DF.svg\" width=\"200\">\n                    <p><span class=\"greenText\"><b>Successful harvest!</b></span><br>Your pay has increased by $0.02. Your bonus pay is now $0.88.</p>\n            ","response":0,"trial_type":"html-button-response","trial_index":98,"time_elapsed":240718,"internal_node_id":"0.0-4.0-1.45","subject_id":"6133ba9a50d368581b0f82dc","study_id":"6197b3f67c2b5cd3b6d9596a","session_id":"6197b9f000deb38667dcd459","condition":"contingent","relevant_dimensions":["antennae","pattern"],"bee_group":{"antennae":"B","wings":"X","pattern":"S","legs":"X"},"bonus":1.4000000000000008},{"rt":600.4000000357628,"stimulus":"bees-with-color/bee-B1DM.svg","response":0,"trial_type":"image-button-response","trial_index":99,"time_elapsed":241322,"internal_node_id":"0.0-4.0-0.46","subject_id":"6133ba9a50d368581b0f82dc","study_id":"6197b3f67c2b5cd3b6d9596a","session_id":"6197b9f000deb38667dcd459","condition":"contingent","relevant_dimensions":["antennae","pattern"],"bee_group":{"antennae":"B","wings":"X","pattern":"S","legs":"X"},"action":"harvest","summary":"good-harvest","bonus":1.4000000000000008},{"rt":586.2999999523163,"stimulus":"\n                    <p><b>Action: <em>harvest</em></b></p>\n                    <p>This is the bee that you just saw.</p>\n                    <img src=\"bees-with-color/bee-B1DM.svg\" width=\"200\">\n                    <p><span class=\"greenText\"><b>Successful harvest!</b></span><br>Your pay has increased by $0.02. Your bonus pay is now $0.90.</p>\n            ","response":0,"trial_type":"html-button-response","trial_index":100,"time_elapsed":241910,"internal_node_id":"0.0-4.0-1.46","subject_id":"6133ba9a50d368581b0f82dc","study_id":"6197b3f67c2b5cd3b6d9596a","session_id":"6197b9f000deb38667dcd459","condition":"contingent","relevant_dimensions":["antennae","pattern"],"bee_group":{"antennae":"B","wings":"X","pattern":"S","legs":"X"},"bonus":1.4000000000000008},{"rt":460.10000002384186,"stimulus":"bees-with-color/bee-A2DM.svg","response":0,"trial_type":"image-button-response","trial_index":101,"time_elapsed":242371,"internal_node_id":"0.0-4.0-0.47","subject_id":"6133ba9a50d368581b0f82dc","study_id":"6197b3f67c2b5cd3b6d9596a","session_id":"6197b9f000deb38667dcd459","condition":"contingent","relevant_dimensions":["antennae","pattern"],"bee_group":{"antennae":"B","wings":"X","pattern":"S","legs":"X"},"action":"harvest","summary":"good-harvest","bonus":1.4000000000000008},{"rt":637.7000000476837,"stimulus":"\n                    <p><b>Action: <em>harvest</em></b></p>\n                    <p>This is the bee that you just saw.</p>\n                    <img src=\"bees-with-color/bee-A2DM.svg\" width=\"200\">\n                    <p><span class=\"greenText\"><b>Successful harvest!</b></span><br>Your pay has increased by $0.02. Your bonus pay is now $0.92.</p>\n            ","response":0,"trial_type":"html-button-response","trial_index":102,"time_elapsed":243010,"internal_node_id":"0.0-4.0-1.47","subject_id":"6133ba9a50d368581b0f82dc","study_id":"6197b3f67c2b5cd3b6d9596a","session_id":"6197b9f000deb38667dcd459","condition":"contingent","relevant_dimensions":["antennae","pattern"],"bee_group":{"antennae":"B","wings":"X","pattern":"S","legs":"X"},"bonus":1.4000000000000008},{"rt":681.1999999880791,"stimulus":"bees-with-color/bee-A2SF.svg","response":1,"trial_type":"image-button-response","trial_index":103,"time_elapsed":243693,"internal_node_id":"0.0-4.0-0.48","subject_id":"6133ba9a50d368581b0f82dc","study_id":"6197b3f67c2b5cd3b6d9596a","session_id":"6197b9f000deb38667dcd459","condition":"contingent","relevant_dimensions":["antennae","pattern"],"bee_group":{"antennae":"B","wings":"X","pattern":"S","legs":"X"},"action":"avoid","summary":"bad-avoid","bonus":1.4000000000000008},{"rt":544.8000000119209,"stimulus":"\n                    <p><b>Action: <em>avoid</em></b></p>\n                    <p>This is the bee that you just saw.</p>\n                    <img src=\"bees-with-color/bee-A2SF.svg\" width=\"200\">\n                    <p><br>Your bonus pay is unchanged, and remains at $0.92.</p>\n            ","response":0,"trial_type":"html-button-response","trial_index":104,"time_elapsed":244239,"internal_node_id":"0.0-4.0-1.48","subject_id":"6133ba9a50d368581b0f82dc","study_id":"6197b3f67c2b5cd3b6d9596a","session_id":"6197b9f000deb38667dcd459","condition":"contingent","relevant_dimensions":["antennae","pattern"],"bee_group":{"antennae":"B","wings":"X","pattern":"S","legs":"X"},"bonus":1.4000000000000008},{"rt":1221.699999988079,"stimulus":"bees-with-color/bee-B2DF.svg","response":0,"trial_type":"image-button-response","trial_index":105,"time_elapsed":245462,"internal_node_id":"0.0-4.0-0.49","subject_id":"6133ba9a50d368581b0f82dc","study_id":"6197b3f67c2b5cd3b6d9596a","session_id":"6197b9f000deb38667dcd459","condition":"contingent","relevant_dimensions":["antennae","pattern"],"bee_group":{"antennae":"B","wings":"X","pattern":"S","legs":"X"},"action":"harvest","summary":"good-harvest","bonus":1.4000000000000008},{"rt":634.6000000238419,"stimulus":"\n                    <p><b>Action: <em>harvest</em></b></p>\n                    <p>This is the bee that you just saw.</p>\n                    <img src=\"bees-with-color/bee-B2DF.svg\" width=\"200\">\n                    <p><span class=\"greenText\"><b>Successful harvest!</b></span><br>Your pay has increased by $0.02. Your bonus pay is now $0.94.</p>\n            ","response":0,"trial_type":"html-button-response","trial_index":106,"time_elapsed":246098,"internal_node_id":"0.0-4.0-1.49","subject_id":"6133ba9a50d368581b0f82dc","study_id":"6197b3f67c2b5cd3b6d9596a","session_id":"6197b9f000deb38667dcd459","condition":"contingent","relevant_dimensions":["antennae","pattern"],"bee_group":{"antennae":"B","wings":"X","pattern":"S","legs":"X"},"bonus":1.4000000000000008},{"rt":1704.5,"stimulus":"bees-with-color/bee-A1DM.svg","response":0,"trial_type":"image-button-response","trial_index":107,"time_elapsed":247804,"internal_node_id":"0.0-4.0-0.50","subject_id":"6133ba9a50d368581b0f82dc","study_id":"6197b3f67c2b5cd3b6d9596a","session_id":"6197b9f000deb38667dcd459","condition":"contingent","relevant_dimensions":["antennae","pattern"],"bee_group":{"antennae":"B","wings":"X","pattern":"S","legs":"X"},"action":"harvest","summary":"good-harvest","bonus":1.4000000000000008},{"rt":424.80000001192093,"stimulus":"\n                    <p><b>Action: <em>harvest</em></b></p>\n                    <p>This is the bee that you just saw.</p>\n                    <img src=\"bees-with-color/bee-A1DM.svg\" width=\"200\">\n                    <p><span class=\"greenText\"><b>Successful harvest!</b></span><br>Your pay has increased by $0.02. Your bonus pay is now $0.96.</p>\n            ","response":0,"trial_type":"html-button-response","trial_index":108,"time_elapsed":248230,"internal_node_id":"0.0-4.0-1.50","subject_id":"6133ba9a50d368581b0f82dc","study_id":"6197b3f67c2b5cd3b6d9596a","session_id":"6197b9f000deb38667dcd459","condition":"contingent","relevant_dimensions":["antennae","pattern"],"bee_group":{"antennae":"B","wings":"X","pattern":"S","legs":"X"},"bonus":1.4000000000000008},{"rt":710.9000000357628,"stimulus":"bees-with-color/bee-A1SM.svg","response":1,"trial_type":"image-button-response","trial_index":109,"time_elapsed":248942,"internal_node_id":"0.0-4.0-0.51","subject_id":"6133ba9a50d368581b0f82dc","study_id":"6197b3f67c2b5cd3b6d9596a","session_id":"6197b9f000deb38667dcd459","condition":"contingent","relevant_dimensions":["antennae","pattern"],"bee_group":{"antennae":"B","wings":"X","pattern":"S","legs":"X"},"action":"avoid","summary":"bad-avoid","bonus":1.4000000000000008},{"rt":512.3000000119209,"stimulus":"\n                    <p><b>Action: <em>avoid</em></b></p>\n                    <p>This is the bee that you just saw.</p>\n                    <img src=\"bees-with-color/bee-A1SM.svg\" width=\"200\">\n                    <p><br>Your bonus pay is unchanged, and remains at $0.96.</p>\n            ","response":0,"trial_type":"html-button-response","trial_index":110,"time_elapsed":249456,"internal_node_id":"0.0-4.0-1.51","subject_id":"6133ba9a50d368581b0f82dc","study_id":"6197b3f67c2b5cd3b6d9596a","session_id":"6197b9f000deb38667dcd459","condition":"contingent","relevant_dimensions":["antennae","pattern"],"bee_group":{"antennae":"B","wings":"X","pattern":"S","legs":"X"},"bonus":1.4000000000000008},{"rt":857.9000000357628,"stimulus":"bees-with-color/bee-A2DF.svg","response":0,"trial_type":"image-button-response","trial_index":111,"time_elapsed":250315,"internal_node_id":"0.0-4.0-0.52","subject_id":"6133ba9a50d368581b0f82dc","study_id":"6197b3f67c2b5cd3b6d9596a","session_id":"6197b9f000deb38667dcd459","condition":"contingent","relevant_dimensions":["antennae","pattern"],"bee_group":{"antennae":"B","wings":"X","pattern":"S","legs":"X"},"action":"harvest","summary":"good-harvest","bonus":1.4000000000000008},{"rt":490,"stimulus":"\n                    <p><b>Action: <em>harvest</em></b></p>\n                    <p>This is the bee that you just saw.</p>\n                    <img src=\"bees-with-color/bee-A2DF.svg\" width=\"200\">\n                    <p><span class=\"greenText\"><b>Successful harvest!</b></span><br>Your pay has increased by $0.02. Your bonus pay is now $0.98.</p>\n            ","response":0,"trial_type":"html-button-response","trial_index":112,"time_elapsed":250806,"internal_node_id":"0.0-4.0-1.52","subject_id":"6133ba9a50d368581b0f82dc","study_id":"6197b3f67c2b5cd3b6d9596a","session_id":"6197b9f000deb38667dcd459","condition":"contingent","relevant_dimensions":["antennae","pattern"],"bee_group":{"antennae":"B","wings":"X","pattern":"S","legs":"X"},"bonus":1.4000000000000008},{"rt":930.8999999761581,"stimulus":"bees-with-color/bee-B2SF.svg","response":1,"trial_type":"image-button-response","trial_index":113,"time_elapsed":251738,"internal_node_id":"0.0-4.0-0.53","subject_id":"6133ba9a50d368581b0f82dc","study_id":"6197b3f67c2b5cd3b6d9596a","session_id":"6197b9f000deb38667dcd459","condition":"contingent","relevant_dimensions":["antennae","pattern"],"bee_group":{"antennae":"B","wings":"X","pattern":"S","legs":"X"},"action":"avoid","summary":"good-avoid","bonus":1.4000000000000008},{"rt":419.89999997615814,"stimulus":"\n                    <p><b>Action: <em>avoid</em></b></p>\n                    <p>This is the bee that you just saw.</p>\n                    <img src=\"bees-with-color/bee-B2SF.svg\" width=\"200\">\n                    <p><br>Your bonus pay is unchanged, and remains at $0.98.</p>\n            ","response":0,"trial_type":"html-button-response","trial_index":114,"time_elapsed":252159,"internal_node_id":"0.0-4.0-1.53","subject_id":"6133ba9a50d368581b0f82dc","study_id":"6197b3f67c2b5cd3b6d9596a","session_id":"6197b9f000deb38667dcd459","condition":"contingent","relevant_dimensions":["antennae","pattern"],"bee_group":{"antennae":"B","wings":"X","pattern":"S","legs":"X"},"bonus":1.4000000000000008},{"rt":716.5,"stimulus":"bees-with-color/bee-A1SF.svg","response":1,"trial_type":"image-button-response","trial_index":115,"time_elapsed":252877,"internal_node_id":"0.0-4.0-0.54","subject_id":"6133ba9a50d368581b0f82dc","study_id":"6197b3f67c2b5cd3b6d9596a","session_id":"6197b9f000deb38667dcd459","condition":"contingent","relevant_dimensions":["antennae","pattern"],"bee_group":{"antennae":"B","wings":"X","pattern":"S","legs":"X"},"action":"avoid","summary":"bad-avoid","bonus":1.4000000000000008},{"rt":453.19999998807907,"stimulus":"\n                    <p><b>Action: <em>avoid</em></b></p>\n                    <p>This is the bee that you just saw.</p>\n                    <img src=\"bees-with-color/bee-A1SF.svg\" width=\"200\">\n                    <p><br>Your bonus pay is unchanged, and remains at $0.98.</p>\n            ","response":0,"trial_type":"html-button-response","trial_index":116,"time_elapsed":253332,"internal_node_id":"0.0-4.0-1.54","subject_id":"6133ba9a50d368581b0f82dc","study_id":"6197b3f67c2b5cd3b6d9596a","session_id":"6197b9f000deb38667dcd459","condition":"contingent","relevant_dimensions":["antennae","pattern"],"bee_group":{"antennae":"B","wings":"X","pattern":"S","legs":"X"},"bonus":1.4000000000000008},{"rt":495,"stimulus":"bees-with-color/bee-B2SM.svg","response":1,"trial_type":"image-button-response","trial_index":117,"time_elapsed":253828,"internal_node_id":"0.0-4.0-0.55","subject_id":"6133ba9a50d368581b0f82dc","study_id":"6197b3f67c2b5cd3b6d9596a","session_id":"6197b9f000deb38667dcd459","condition":"contingent","relevant_dimensions":["antennae","pattern"],"bee_group":{"antennae":"B","wings":"X","pattern":"S","legs":"X"},"action":"avoid","summary":"good-avoid","bonus":1.4000000000000008},{"rt":397.39999997615814,"stimulus":"\n                    <p><b>Action: <em>avoid</em></b></p>\n                    <p>This is the bee that you just saw.</p>\n                    <img src=\"bees-with-color/bee-B2SM.svg\" width=\"200\">\n                    <p><br>Your bonus pay is unchanged, and remains at $0.98.</p>\n            ","response":0,"trial_type":"html-button-response","trial_index":118,"time_elapsed":254227,"internal_node_id":"0.0-4.0-1.55","subject_id":"6133ba9a50d368581b0f82dc","study_id":"6197b3f67c2b5cd3b6d9596a","session_id":"6197b9f000deb38667dcd459","condition":"contingent","relevant_dimensions":["antennae","pattern"],"bee_group":{"antennae":"B","wings":"X","pattern":"S","legs":"X"},"bonus":1.4000000000000008},{"rt":755.9000000357628,"stimulus":"bees-with-color/bee-B1DF.svg","response":0,"trial_type":"image-button-response","trial_index":119,"time_elapsed":254984,"internal_node_id":"0.0-4.0-0.56","subject_id":"6133ba9a50d368581b0f82dc","study_id":"6197b3f67c2b5cd3b6d9596a","session_id":"6197b9f000deb38667dcd459","condition":"contingent","relevant_dimensions":["antennae","pattern"],"bee_group":{"antennae":"B","wings":"X","pattern":"S","legs":"X"},"action":"harvest","summary":"good-harvest","bonus":1.4000000000000008},{"rt":573.5999999642372,"stimulus":"\n                    <p><b>Action: <em>harvest</em></b></p>\n                    <p>This is the bee that you just saw.</p>\n                    <img src=\"bees-with-color/bee-B1DF.svg\" width=\"200\">\n                    <p><span class=\"greenText\"><b>Successful harvest!</b></span><br>Your pay has increased by $0.02. Your bonus pay is now $1.00.</p>\n            ","response":0,"trial_type":"html-button-response","trial_index":120,"time_elapsed":255560,"internal_node_id":"0.0-4.0-1.56","subject_id":"6133ba9a50d368581b0f82dc","study_id":"6197b3f67c2b5cd3b6d9596a","session_id":"6197b9f000deb38667dcd459","condition":"contingent","relevant_dimensions":["antennae","pattern"],"bee_group":{"antennae":"B","wings":"X","pattern":"S","legs":"X"},"bonus":1.4000000000000008},{"rt":771.3000000119209,"stimulus":"bees-with-color/bee-B1SM.svg","response":1,"trial_type":"image-button-response","trial_index":121,"time_elapsed":256334,"internal_node_id":"0.0-4.0-0.57","subject_id":"6133ba9a50d368581b0f82dc","study_id":"6197b3f67c2b5cd3b6d9596a","session_id":"6197b9f000deb38667dcd459","condition":"contingent","relevant_dimensions":["antennae","pattern"],"bee_group":{"antennae":"B","wings":"X","pattern":"S","legs":"X"},"action":"avoid","summary":"good-avoid","bonus":1.4000000000000008},{"rt":465.60000002384186,"stimulus":"\n                    <p><b>Action: <em>avoid</em></b></p>\n                    <p>This is the bee that you just saw.</p>\n                    <img src=\"bees-with-color/bee-B1SM.svg\" width=\"200\">\n                    <p><br>Your bonus pay is unchanged, and remains at $1.00.</p>\n            ","response":0,"trial_type":"html-button-response","trial_index":122,"time_elapsed":256802,"internal_node_id":"0.0-4.0-1.57","subject_id":"6133ba9a50d368581b0f82dc","study_id":"6197b3f67c2b5cd3b6d9596a","session_id":"6197b9f000deb38667dcd459","condition":"contingent","relevant_dimensions":["antennae","pattern"],"bee_group":{"antennae":"B","wings":"X","pattern":"S","legs":"X"},"bonus":1.4000000000000008},{"rt":591.6000000238419,"stimulus":"bees-with-color/bee-A2DM.svg","response":0,"trial_type":"image-button-response","trial_index":123,"time_elapsed":257395,"internal_node_id":"0.0-4.0-0.58","subject_id":"6133ba9a50d368581b0f82dc","study_id":"6197b3f67c2b5cd3b6d9596a","session_id":"6197b9f000deb38667dcd459","condition":"contingent","relevant_dimensions":["antennae","pattern"],"bee_group":{"antennae":"B","wings":"X","pattern":"S","legs":"X"},"action":"harvest","summary":"good-harvest","bonus":1.4000000000000008},{"rt":531.1999999880791,"stimulus":"\n                    <p><b>Action: <em>harvest</em></b></p>\n                    <p>This is the bee that you just saw.</p>\n                    <img src=\"bees-with-color/bee-A2DM.svg\" width=\"200\">\n                    <p><span class=\"greenText\"><b>Successful harvest!</b></span><br>Your pay has increased by $0.02. Your bonus pay is now $1.02.</p>\n            ","response":0,"trial_type":"html-button-response","trial_index":124,"time_elapsed":257928,"internal_node_id":"0.0-4.0-1.58","subject_id":"6133ba9a50d368581b0f82dc","study_id":"6197b3f67c2b5cd3b6d9596a","session_id":"6197b9f000deb38667dcd459","condition":"contingent","relevant_dimensions":["antennae","pattern"],"bee_group":{"antennae":"B","wings":"X","pattern":"S","legs":"X"},"bonus":1.4000000000000008},{"rt":2027.300000011921,"stimulus":"bees-with-color/bee-A2SM.svg","response":1,"trial_type":"image-button-response","trial_index":125,"time_elapsed":259956,"internal_node_id":"0.0-4.0-0.59","subject_id":"6133ba9a50d368581b0f82dc","study_id":"6197b3f67c2b5cd3b6d9596a","session_id":"6197b9f000deb38667dcd459","condition":"contingent","relevant_dimensions":["antennae","pattern"],"bee_group":{"antennae":"B","wings":"X","pattern":"S","legs":"X"},"action":"avoid","summary":"bad-avoid","bonus":1.4000000000000008},{"rt":739.1999999880791,"stimulus":"\n                    <p><b>Action: <em>avoid</em></b></p>\n                    <p>This is the bee that you just saw.</p>\n                    <img src=\"bees-with-color/bee-A2SM.svg\" width=\"200\">\n                    <p><br>Your bonus pay is unchanged, and remains at $1.02.</p>\n            ","response":0,"trial_type":"html-button-response","trial_index":126,"time_elapsed":260697,"internal_node_id":"0.0-4.0-1.59","subject_id":"6133ba9a50d368581b0f82dc","study_id":"6197b3f67c2b5cd3b6d9596a","session_id":"6197b9f000deb38667dcd459","condition":"contingent","relevant_dimensions":["antennae","pattern"],"bee_group":{"antennae":"B","wings":"X","pattern":"S","legs":"X"},"bonus":1.4000000000000008},{"rt":435,"stimulus":"bees-with-color/bee-B2DM.svg","response":0,"trial_type":"image-button-response","trial_index":127,"time_elapsed":261134,"internal_node_id":"0.0-4.0-0.60","subject_id":"6133ba9a50d368581b0f82dc","study_id":"6197b3f67c2b5cd3b6d9596a","session_id":"6197b9f000deb38667dcd459","condition":"contingent","relevant_dimensions":["antennae","pattern"],"bee_group":{"antennae":"B","wings":"X","pattern":"S","legs":"X"},"action":"harvest","summary":"good-harvest","bonus":1.4000000000000008},{"rt":562.3999999761581,"stimulus":"\n                    <p><b>Action: <em>harvest</em></b></p>\n                    <p>This is the bee that you just saw.</p>\n                    <img src=\"bees-with-color/bee-B2DM.svg\" width=\"200\">\n                    <p><span class=\"greenText\"><b>Successful harvest!</b></span><br>Your pay has increased by $0.02. Your bonus pay is now $1.04.</p>\n            ","response":0,"trial_type":"html-button-response","trial_index":128,"time_elapsed":261698,"internal_node_id":"0.0-4.0-1.60","subject_id":"6133ba9a50d368581b0f82dc","study_id":"6197b3f67c2b5cd3b6d9596a","session_id":"6197b9f000deb38667dcd459","condition":"contingent","relevant_dimensions":["antennae","pattern"],"bee_group":{"antennae":"B","wings":"X","pattern":"S","legs":"X"},"bonus":1.4000000000000008},{"rt":1728.300000011921,"stimulus":"bees-with-color/bee-B1DM.svg","response":0,"trial_type":"image-button-response","trial_index":129,"time_elapsed":263428,"internal_node_id":"0.0-4.0-0.61","subject_id":"6133ba9a50d368581b0f82dc","study_id":"6197b3f67c2b5cd3b6d9596a","session_id":"6197b9f000deb38667dcd459","condition":"contingent","relevant_dimensions":["antennae","pattern"],"bee_group":{"antennae":"B","wings":"X","pattern":"S","legs":"X"},"action":"harvest","summary":"good-harvest","bonus":1.4000000000000008},{"rt":713.3999999761581,"stimulus":"\n                    <p><b>Action: <em>harvest</em></b></p>\n                    <p>This is the bee that you just saw.</p>\n                    <img src=\"bees-with-color/bee-B1DM.svg\" width=\"200\">\n                    <p><span class=\"greenText\"><b>Successful harvest!</b></span><br>Your pay has increased by $0.02. Your bonus pay is now $1.06.</p>\n            ","response":0,"trial_type":"html-button-response","trial_index":130,"time_elapsed":264142,"internal_node_id":"0.0-4.0-1.61","subject_id":"6133ba9a50d368581b0f82dc","study_id":"6197b3f67c2b5cd3b6d9596a","session_id":"6197b9f000deb38667dcd459","condition":"contingent","relevant_dimensions":["antennae","pattern"],"bee_group":{"antennae":"B","wings":"X","pattern":"S","legs":"X"},"bonus":1.4000000000000008},{"rt":647.1999999880791,"stimulus":"bees-with-color/bee-A1DF.svg","response":0,"trial_type":"image-button-response","trial_index":131,"time_elapsed":264790,"internal_node_id":"0.0-4.0-0.62","subject_id":"6133ba9a50d368581b0f82dc","study_id":"6197b3f67c2b5cd3b6d9596a","session_id":"6197b9f000deb38667dcd459","condition":"contingent","relevant_dimensions":["antennae","pattern"],"bee_group":{"antennae":"B","wings":"X","pattern":"S","legs":"X"},"action":"harvest","summary":"good-harvest","bonus":1.4000000000000008},{"rt":751.8999999761581,"stimulus":"\n                    <p><b>Action: <em>harvest</em></b></p>\n                    <p>This is the bee that you just saw.</p>\n                    <img src=\"bees-with-color/bee-A1DF.svg\" width=\"200\">\n                    <p><span class=\"greenText\"><b>Successful harvest!</b></span><br>Your pay has increased by $0.02. Your bonus pay is now $1.08.</p>\n            ","response":0,"trial_type":"html-button-response","trial_index":132,"time_elapsed":265544,"internal_node_id":"0.0-4.0-1.62","subject_id":"6133ba9a50d368581b0f82dc","study_id":"6197b3f67c2b5cd3b6d9596a","session_id":"6197b9f000deb38667dcd459","condition":"contingent","relevant_dimensions":["antennae","pattern"],"bee_group":{"antennae":"B","wings":"X","pattern":"S","legs":"X"},"bonus":1.4000000000000008},{"rt":686.8000000119209,"stimulus":"bees-with-color/bee-B1SF.svg","response":1,"trial_type":"image-button-response","trial_index":133,"time_elapsed":266232,"internal_node_id":"0.0-4.0-0.63","subject_id":"6133ba9a50d368581b0f82dc","study_id":"6197b3f67c2b5cd3b6d9596a","session_id":"6197b9f000deb38667dcd459","condition":"contingent","relevant_dimensions":["antennae","pattern"],"bee_group":{"antennae":"B","wings":"X","pattern":"S","legs":"X"},"action":"avoid","summary":"good-avoid","bonus":1.4000000000000008},{"rt":447.89999997615814,"stimulus":"\n                    <p><b>Action: <em>avoid</em></b></p>\n                    <p>This is the bee that you just saw.</p>\n                    <img src=\"bees-with-color/bee-B1SF.svg\" width=\"200\">\n                    <p><br>Your bonus pay is unchanged, and remains at $1.08.</p>\n            ","response":0,"trial_type":"html-button-response","trial_index":134,"time_elapsed":266681,"internal_node_id":"0.0-4.0-1.63","subject_id":"6133ba9a50d368581b0f82dc","study_id":"6197b3f67c2b5cd3b6d9596a","session_id":"6197b9f000deb38667dcd459","condition":"contingent","relevant_dimensions":["antennae","pattern"],"bee_group":{"antennae":"B","wings":"X","pattern":"S","legs":"X"},"bonus":1.4000000000000008},{"rt":13907.599999964237,"stimulus":"You have completed the first part of this experiment.<br><br>You will now begin a shorter second part, in which you will receive no feedback.<br>The same rules regarding bonus pay apply.<br><br>Press any key to begin.","response":"arrowleft","trial_type":"html-keyboard-response","trial_index":135,"time_elapsed":280590,"internal_node_id":"0.0-5.0","subject_id":"6133ba9a50d368581b0f82dc","study_id":"6197b3f67c2b5cd3b6d9596a","session_id":"6197b9f000deb38667dcd459","condition":"contingent","relevant_dimensions":["antennae","pattern"],"bee_group":{"antennae":"B","wings":"X","pattern":"S","legs":"X"},"bonus":1.4000000000000008},{"rt":1695.5,"stimulus":"bees-with-color/bee-B1DF.svg","response":0,"trial_type":"image-button-response","trial_index":136,"time_elapsed":282311,"internal_node_id":"0.0-6.0-0.0","subject_id":"6133ba9a50d368581b0f82dc","study_id":"6197b3f67c2b5cd3b6d9596a","session_id":"6197b9f000deb38667dcd459","condition":"contingent","relevant_dimensions":["antennae","pattern"],"bee_group":{"antennae":"B","wings":"X","pattern":"S","legs":"X"},"bonus":1.4000000000000008},{"rt":1605.1000000238419,"stimulus":"bees-with-color/bee-B2SF.svg","response":1,"trial_type":"image-button-response","trial_index":137,"time_elapsed":283917,"internal_node_id":"0.0-6.0-0.1","subject_id":"6133ba9a50d368581b0f82dc","study_id":"6197b3f67c2b5cd3b6d9596a","session_id":"6197b9f000deb38667dcd459","condition":"contingent","relevant_dimensions":["antennae","pattern"],"bee_group":{"antennae":"B","wings":"X","pattern":"S","legs":"X"},"bonus":1.4000000000000008},{"rt":1047,"stimulus":"bees-with-color/bee-B1SM.svg","response":1,"trial_type":"image-button-response","trial_index":138,"time_elapsed":284966,"internal_node_id":"0.0-6.0-0.2","subject_id":"6133ba9a50d368581b0f82dc","study_id":"6197b3f67c2b5cd3b6d9596a","session_id":"6197b9f000deb38667dcd459","condition":"contingent","relevant_dimensions":["antennae","pattern"],"bee_group":{"antennae":"B","wings":"X","pattern":"S","legs":"X"},"bonus":1.4000000000000008},{"rt":597.7999999523163,"stimulus":"bees-with-color/bee-A1DF.svg","response":0,"trial_type":"image-button-response","trial_index":139,"time_elapsed":285566,"internal_node_id":"0.0-6.0-0.3","subject_id":"6133ba9a50d368581b0f82dc","study_id":"6197b3f67c2b5cd3b6d9596a","session_id":"6197b9f000deb38667dcd459","condition":"contingent","relevant_dimensions":["antennae","pattern"],"bee_group":{"antennae":"B","wings":"X","pattern":"S","legs":"X"},"bonus":1.4000000000000008},{"rt":724,"stimulus":"bees-with-color/bee-A2SM.svg","response":1,"trial_type":"image-button-response","trial_index":140,"time_elapsed":286292,"internal_node_id":"0.0-6.0-0.4","subject_id":"6133ba9a50d368581b0f82dc","study_id":"6197b3f67c2b5cd3b6d9596a","session_id":"6197b9f000deb38667dcd459","condition":"contingent","relevant_dimensions":["antennae","pattern"],"bee_group":{"antennae":"B","wings":"X","pattern":"S","legs":"X"},"bonus":1.4000000000000008},{"rt":849.6999999880791,"stimulus":"bees-with-color/bee-A1SM.svg","response":1,"trial_type":"image-button-response","trial_index":141,"time_elapsed":287144,"internal_node_id":"0.0-6.0-0.5","subject_id":"6133ba9a50d368581b0f82dc","study_id":"6197b3f67c2b5cd3b6d9596a","session_id":"6197b9f000deb38667dcd459","condition":"contingent","relevant_dimensions":["antennae","pattern"],"bee_group":{"antennae":"B","wings":"X","pattern":"S","legs":"X"},"bonus":1.4000000000000008},{"rt":648,"stimulus":"bees-with-color/bee-B2DM.svg","response":0,"trial_type":"image-button-response","trial_index":142,"time_elapsed":287794,"internal_node_id":"0.0-6.0-0.6","subject_id":"6133ba9a50d368581b0f82dc","study_id":"6197b3f67c2b5cd3b6d9596a","session_id":"6197b9f000deb38667dcd459","condition":"contingent","relevant_dimensions":["antennae","pattern"],"bee_group":{"antennae":"B","wings":"X","pattern":"S","legs":"X"},"bonus":1.4000000000000008},{"rt":802.9000000357628,"stimulus":"bees-with-color/bee-B2DF.svg","response":0,"trial_type":"image-button-response","trial_index":143,"time_elapsed":288598,"internal_node_id":"0.0-6.0-0.7","subject_id":"6133ba9a50d368581b0f82dc","study_id":"6197b3f67c2b5cd3b6d9596a","session_id":"6197b9f000deb38667dcd459","condition":"contingent","relevant_dimensions":["antennae","pattern"],"bee_group":{"antennae":"B","wings":"X","pattern":"S","legs":"X"},"bonus":1.4000000000000008},{"rt":839.5,"stimulus":"bees-with-color/bee-B1DM.svg","response":0,"trial_type":"image-button-response","trial_index":144,"time_elapsed":289440,"internal_node_id":"0.0-6.0-0.8","subject_id":"6133ba9a50d368581b0f82dc","study_id":"6197b3f67c2b5cd3b6d9596a","session_id":"6197b9f000deb38667dcd459","condition":"contingent","relevant_dimensions":["antennae","pattern"],"bee_group":{"antennae":"B","wings":"X","pattern":"S","legs":"X"},"bonus":1.4000000000000008},{"rt":670,"stimulus":"bees-with-color/bee-A2DM.svg","response":0,"trial_type":"image-button-response","trial_index":145,"time_elapsed":290112,"internal_node_id":"0.0-6.0-0.9","subject_id":"6133ba9a50d368581b0f82dc","study_id":"6197b3f67c2b5cd3b6d9596a","session_id":"6197b9f000deb38667dcd459","condition":"contingent","relevant_dimensions":["antennae","pattern"],"bee_group":{"antennae":"B","wings":"X","pattern":"S","legs":"X"},"bonus":1.4000000000000008},{"rt":475.89999997615814,"stimulus":"bees-with-color/bee-B1SF.svg","response":1,"trial_type":"image-button-response","trial_index":146,"time_elapsed":290590,"internal_node_id":"0.0-6.0-0.10","subject_id":"6133ba9a50d368581b0f82dc","study_id":"6197b3f67c2b5cd3b6d9596a","session_id":"6197b9f000deb38667dcd459","condition":"contingent","relevant_dimensions":["antennae","pattern"],"bee_group":{"antennae":"B","wings":"X","pattern":"S","legs":"X"},"bonus":1.4000000000000008},{"rt":698.8999999761581,"stimulus":"bees-with-color/bee-A2SF.svg","response":1,"trial_type":"image-button-response","trial_index":147,"time_elapsed":291291,"internal_node_id":"0.0-6.0-0.11","subject_id":"6133ba9a50d368581b0f82dc","study_id":"6197b3f67c2b5cd3b6d9596a","session_id":"6197b9f000deb38667dcd459","condition":"contingent","relevant_dimensions":["antennae","pattern"],"bee_group":{"antennae":"B","wings":"X","pattern":"S","legs":"X"},"bonus":1.4000000000000008},{"rt":413.5,"stimulus":"bees-with-color/bee-B2SM.svg","response":1,"trial_type":"image-button-response","trial_index":148,"time_elapsed":291706,"internal_node_id":"0.0-6.0-0.12","subject_id":"6133ba9a50d368581b0f82dc","study_id":"6197b3f67c2b5cd3b6d9596a","session_id":"6197b9f000deb38667dcd459","condition":"contingent","relevant_dimensions":["antennae","pattern"],"bee_group":{"antennae":"B","wings":"X","pattern":"S","legs":"X"},"bonus":1.4000000000000008},{"rt":430.39999997615814,"stimulus":"bees-with-color/bee-A1SF.svg","response":1,"trial_type":"image-button-response","trial_index":149,"time_elapsed":292138,"internal_node_id":"0.0-6.0-0.13","subject_id":"6133ba9a50d368581b0f82dc","study_id":"6197b3f67c2b5cd3b6d9596a","session_id":"6197b9f000deb38667dcd459","condition":"contingent","relevant_dimensions":["antennae","pattern"],"bee_group":{"antennae":"B","wings":"X","pattern":"S","legs":"X"},"bonus":1.4000000000000008},{"rt":696.1000000238419,"stimulus":"bees-with-color/bee-A1DM.svg","response":0,"trial_type":"image-button-response","trial_index":150,"time_elapsed":292836,"internal_node_id":"0.0-6.0-0.14","subject_id":"6133ba9a50d368581b0f82dc","study_id":"6197b3f67c2b5cd3b6d9596a","session_id":"6197b9f000deb38667dcd459","condition":"contingent","relevant_dimensions":["antennae","pattern"],"bee_group":{"antennae":"B","wings":"X","pattern":"S","legs":"X"},"bonus":1.4000000000000008},{"rt":386.69999998807907,"stimulus":"bees-with-color/bee-A2DF.svg","response":0,"trial_type":"image-button-response","trial_index":151,"time_elapsed":293224,"internal_node_id":"0.0-6.0-0.15","subject_id":"6133ba9a50d368581b0f82dc","study_id":"6197b3f67c2b5cd3b6d9596a","session_id":"6197b9f000deb38667dcd459","condition":"contingent","relevant_dimensions":["antennae","pattern"],"bee_group":{"antennae":"B","wings":"X","pattern":"S","legs":"X"},"bonus":1.4000000000000008},{"rt":437.5,"stimulus":"bees-with-color/bee-A1DF.svg","response":0,"trial_type":"image-button-response","trial_index":152,"time_elapsed":293663,"internal_node_id":"0.0-6.0-0.16","subject_id":"6133ba9a50d368581b0f82dc","study_id":"6197b3f67c2b5cd3b6d9596a","session_id":"6197b9f000deb38667dcd459","condition":"contingent","relevant_dimensions":["antennae","pattern"],"bee_group":{"antennae":"B","wings":"X","pattern":"S","legs":"X"},"bonus":1.4000000000000008},{"rt":716.6999999880791,"stimulus":"bees-with-color/bee-B1SF.svg","response":1,"trial_type":"image-button-response","trial_index":153,"time_elapsed":294382,"internal_node_id":"0.0-6.0-0.17","subject_id":"6133ba9a50d368581b0f82dc","study_id":"6197b3f67c2b5cd3b6d9596a","session_id":"6197b9f000deb38667dcd459","condition":"contingent","relevant_dimensions":["antennae","pattern"],"bee_group":{"antennae":"B","wings":"X","pattern":"S","legs":"X"},"bonus":1.4000000000000008},{"rt":540.1999999880791,"stimulus":"bees-with-color/bee-B1SM.svg","response":1,"trial_type":"image-button-response","trial_index":154,"time_elapsed":294924,"internal_node_id":"0.0-6.0-0.18","subject_id":"6133ba9a50d368581b0f82dc","study_id":"6197b3f67c2b5cd3b6d9596a","session_id":"6197b9f000deb38667dcd459","condition":"contingent","relevant_dimensions":["antennae","pattern"],"bee_group":{"antennae":"B","wings":"X","pattern":"S","legs":"X"},"bonus":1.4000000000000008},{"rt":550.6999999880791,"stimulus":"bees-with-color/bee-B1DF.svg","response":0,"trial_type":"image-button-response","trial_index":155,"time_elapsed":295476,"internal_node_id":"0.0-6.0-0.19","subject_id":"6133ba9a50d368581b0f82dc","study_id":"6197b3f67c2b5cd3b6d9596a","session_id":"6197b9f000deb38667dcd459","condition":"contingent","relevant_dimensions":["antennae","pattern"],"bee_group":{"antennae":"B","wings":"X","pattern":"S","legs":"X"},"bonus":1.4000000000000008},{"rt":536.3000000119209,"stimulus":"bees-with-color/bee-B2DF.svg","response":0,"trial_type":"image-button-response","trial_index":156,"time_elapsed":296014,"internal_node_id":"0.0-6.0-0.20","subject_id":"6133ba9a50d368581b0f82dc","study_id":"6197b3f67c2b5cd3b6d9596a","session_id":"6197b9f000deb38667dcd459","condition":"contingent","relevant_dimensions":["antennae","pattern"],"bee_group":{"antennae":"B","wings":"X","pattern":"S","legs":"X"},"bonus":1.4000000000000008},{"rt":740,"stimulus":"bees-with-color/bee-B1DM.svg","response":0,"trial_type":"image-button-response","trial_index":157,"time_elapsed":296756,"internal_node_id":"0.0-6.0-0.21","subject_id":"6133ba9a50d368581b0f82dc","study_id":"6197b3f67c2b5cd3b6d9596a","session_id":"6197b9f000deb38667dcd459","condition":"contingent","relevant_dimensions":["antennae","pattern"],"bee_group":{"antennae":"B","wings":"X","pattern":"S","legs":"X"},"bonus":1.4000000000000008},{"rt":564.5,"stimulus":"bees-with-color/bee-A2SF.svg","response":1,"trial_type":"image-button-response","trial_index":158,"time_elapsed":297322,"internal_node_id":"0.0-6.0-0.22","subject_id":"6133ba9a50d368581b0f82dc","study_id":"6197b3f67c2b5cd3b6d9596a","session_id":"6197b9f000deb38667dcd459","condition":"contingent","relevant_dimensions":["antennae","pattern"],"bee_group":{"antennae":"B","wings":"X","pattern":"S","legs":"X"},"bonus":1.4000000000000008},{"rt":845,"stimulus":"bees-with-color/bee-A2DF.svg","response":0,"trial_type":"image-button-response","trial_index":159,"time_elapsed":298168,"internal_node_id":"0.0-6.0-0.23","subject_id":"6133ba9a50d368581b0f82dc","study_id":"6197b3f67c2b5cd3b6d9596a","session_id":"6197b9f000deb38667dcd459","condition":"contingent","relevant_dimensions":["antennae","pattern"],"bee_group":{"antennae":"B","wings":"X","pattern":"S","legs":"X"},"bonus":1.4000000000000008},{"rt":520.8999999761581,"stimulus":"bees-with-color/bee-B2SM.svg","response":1,"trial_type":"image-button-response","trial_index":160,"time_elapsed":298691,"internal_node_id":"0.0-6.0-0.24","subject_id":"6133ba9a50d368581b0f82dc","study_id":"6197b3f67c2b5cd3b6d9596a","session_id":"6197b9f000deb38667dcd459","condition":"contingent","relevant_dimensions":["antennae","pattern"],"bee_group":{"antennae":"B","wings":"X","pattern":"S","legs":"X"},"bonus":1.4000000000000008},{"rt":690.2999999523163,"stimulus":"bees-with-color/bee-B2SF.svg","response":1,"trial_type":"image-button-response","trial_index":161,"time_elapsed":299383,"internal_node_id":"0.0-6.0-0.25","subject_id":"6133ba9a50d368581b0f82dc","study_id":"6197b3f67c2b5cd3b6d9596a","session_id":"6197b9f000deb38667dcd459","condition":"contingent","relevant_dimensions":["antennae","pattern"],"bee_group":{"antennae":"B","wings":"X","pattern":"S","legs":"X"},"bonus":1.4000000000000008},{"rt":770.2000000476837,"stimulus":"bees-with-color/bee-B2DM.svg","response":0,"trial_type":"image-button-response","trial_index":162,"time_elapsed":300154,"internal_node_id":"0.0-6.0-0.26","subject_id":"6133ba9a50d368581b0f82dc","study_id":"6197b3f67c2b5cd3b6d9596a","session_id":"6197b9f000deb38667dcd459","condition":"contingent","relevant_dimensions":["antennae","pattern"],"bee_group":{"antennae":"B","wings":"X","pattern":"S","legs":"X"},"bonus":1.4000000000000008},{"rt":1796.5,"stimulus":"bees-with-color/bee-A2SM.svg","response":1,"trial_type":"image-button-response","trial_index":163,"time_elapsed":301952,"internal_node_id":"0.0-6.0-0.27","subject_id":"6133ba9a50d368581b0f82dc","study_id":"6197b3f67c2b5cd3b6d9596a","session_id":"6197b9f000deb38667dcd459","condition":"contingent",