[{"success":true,"trial_type":"fullscreen","trial_index":0,"time_elapsed":185378,"internal_node_id":"0.0-0.0","subject_id":"56a7da16c89737000b22953c","study_id":"6197b3f67c2b5cd3b6d9596a","session_id":"619be320921dea782e561a62","condition":"contingent","relevant_dimensions":["antennae","pattern"],"bee_group":{"antennae":"A","wings":"X","pattern":"S","legs":"X"},"bonus":1.080000000000001},{"success":true,"timeout":false,"failed_images":[],"failed_audio":[],"failed_video":[],"trial_type":"preload","trial_index":1,"time_elapsed":186740,"internal_node_id":"0.0-1.0","subject_id":"56a7da16c89737000b22953c","study_id":"6197b3f67c2b5cd3b6d9596a","session_id":"619be320921dea782e561a62","condition":"contingent","relevant_dimensions":["antennae","pattern"],"bee_group":{"antennae":"A","wings":"X","pattern":"S","legs":"X"},"bonus":1.080000000000001},{"rt":9358.400000035763,"stimulus":"Welcome! Press any key to begin.","response":"h","trial_type":"html-keyboard-response","trial_index":2,"time_elapsed":196101,"internal_node_id":"0.0-2.0","subject_id":"56a7da16c89737000b22953c","study_id":"6197b3f67c2b5cd3b6d9596a","session_id":"619be320921dea782e561a62","condition":"contingent","relevant_dimensions":["antennae","pattern"],"bee_group":{"antennae":"A","wings":"X","pattern":"S","legs":"X"},"bonus":1.080000000000001},{"view_history":[{"page_index":0,"viewing_time":3893.100000023842},{"page_index":1,"viewing_time":9568.399999976158},{"page_index":2,"viewing_time":5080.800000011921},{"page_index":3,"viewing_time":8984.5},{"page_index":4,"viewing_time":4008.399999976158},{"page_index":5,"viewing_time":3857},{"page_index":6,"viewing_time":5473},{"page_index":7,"viewing_time":4375.800000011921},{"page_index":8,"viewing_time":2720},{"page_index":9,"viewing_time":1840.300000011921},{"page_index":10,"viewing_time":2320.699999988079},{"page_index":11,"viewing_time":4656.899999976158},{"page_index":12,"viewing_time":9071.900000035763},{"page_index":13,"viewing_time":1408.199999988079},{"page_index":14,"viewing_time":1696.800000011921}],"rt":68956.10000002384,"trial_type":"instructions","trial_index":3,"time_elapsed":265058,"internal_node_id":"0.0-3.0-0.0","subject_id":"56a7da16c89737000b22953c","study_id":"6197b3f67c2b5cd3b6d9596a","session_id":"619be320921dea782e561a62","condition":"contingent","relevant_dimensions":["antennae","pattern"],"bee_group":{"antennae":"A","wings":"X","pattern":"S","legs":"X"},"bonus":1.080000000000001},{"rt":14956.700000047684,"response":{"Q0":["Two or six legs","Stripes or spots on body","Single or double wings","Antennae or no antennae"]},"question_order":[0],"trial_type":"survey-multi-select","trial_index":4,"time_elapsed":280021,"internal_node_id":"0.0-3.0-1.0","subject_id":"56a7da16c89737000b22953c","study_id":"6197b3f67c2b5cd3b6d9596a","session_id":"619be320921dea782e561a62","condition":"contingent","relevant_dimensions":["antennae","pattern"],"bee_group":{"antennae":"A","wings":"X","pattern":"S","legs":"X"},"correct":true,"bonus":1.080000000000001},{"rt":15702.199999988079,"response":{"Q1":"No.","Q2":"Based on the four features of the bee.","Q3":"You do not learn if it was friendly or dangerous, and do not alter your bonus."},"question_order":[0,1,2],"trial_type":"survey-multi-choice","trial_index":5,"time_elapsed":295727,"internal_node_id":"0.0-3.0-2.0","subject_id":"56a7da16c89737000b22953c","study_id":"6197b3f67c2b5cd3b6d9596a","session_id":"619be320921dea782e561a62","condition":"contingent","relevant_dimensions":["antennae","pattern"],"bee_group":{"antennae":"A","wings":"X","pattern":"S","legs":"X"},"correct":true,"bonus":1.080000000000001},{"rt":1582,"stimulus":"<p>Congrats, you got everything right<br>When you're ready, click the button below to continue to the experiment.</p>","response":0,"trial_type":"html-button-response","trial_index":6,"time_elapsed":297311,"internal_node_id":"0.0-3.0-3.0","subject_id":"56a7da16c89737000b22953c","study_id":"6197b3f67c2b5cd3b6d9596a","session_id":"619be320921dea782e561a62","condition":"contingent","relevant_dimensions":["antennae","pattern"],"bee_group":{"antennae":"A","wings":"X","pattern":"S","legs":"X"},"bonus":1.080000000000001},{"rt":2947.599999964237,"stimulus":"bees-with-color/bee-A1DM.svg","response":0,"trial_type":"image-button-response","trial_index":7,"time_elapsed":300262,"internal_node_id":"0.0-4.0-0.0","subject_id":"56a7da16c89737000b22953c","study_id":"6197b3f67c2b5cd3b6d9596a","session_id":"619be320921dea782e561a62","condition":"contingent","relevant_dimensions":["antennae","pattern"],"bee_group":{"antennae":"A","wings":"X","pattern":"S","legs":"X"},"action":"harvest","summary":"good-harvest","bonus":1.080000000000001},{"rt":5757.399999976158,"stimulus":"\n                    <p><b>Action: <em>harvest</em></b></p>\n                    <p>This is the bee that you just saw.</p>\n                    <img src=\"bees-with-color/bee-A1DM.svg\" width=\"200\">\n                    <p><span class=\"greenText\"><b>Successful harvest!</b></span><br>Your pay has increased by $0.02. Your bonus pay is now $0.56.</p>\n            ","response":0,"trial_type":"html-button-response","trial_index":8,"time_elapsed":306024,"internal_node_id":"0.0-4.0-1.0","subject_id":"56a7da16c89737000b22953c","study_id":"6197b3f67c2b5cd3b6d9596a","session_id":"619be320921dea782e561a62","condition":"contingent","relevant_dimensions":["antennae","pattern"],"bee_group":{"antennae":"A","wings":"X","pattern":"S","legs":"X"},"bonus":1.080000000000001},{"rt":2182.2999999523163,"stimulus":"bees-with-color/bee-A2DM.svg","response":1,"trial_type":"image-button-response","trial_index":9,"time_elapsed":308209,"internal_node_id":"0.0-4.0-0.1","subject_id":"56a7da16c89737000b22953c","study_id":"6197b3f67c2b5cd3b6d9596a","session_id":"619be320921dea782e561a62","condition":"contingent","relevant_dimensions":["antennae","pattern"],"bee_group":{"antennae":"A","wings":"X","pattern":"S","legs":"X"},"action":"avoid","summary":"bad-avoid","bonus":1.080000000000001},{"rt":1957.8999999761581,"stimulus":"\n                    <p><b>Action: <em>avoid</em></b></p>\n                    <p>This is the bee that you just saw.</p>\n                    <img src=\"bees-with-color/bee-A2DM.svg\" width=\"200\">\n                    <p><br>Your bonus pay is unchanged, and remains at $0.56.</p>\n            ","response":0,"trial_type":"html-button-response","trial_index":10,"time_elapsed":310169,"internal_node_id":"0.0-4.0-1.1","subject_id":"56a7da16c89737000b22953c","study_id":"6197b3f67c2b5cd3b6d9596a","session_id":"619be320921dea782e561a62","condition":"contingent","relevant_dimensions":["antennae","pattern"],"bee_group":{"antennae":"A","wings":"X","pattern":"S","legs":"X"},"bonus":1.080000000000001},{"rt":1397.5999999642372,"stimulus":"bees-with-color/bee-B1SF.svg","response":0,"trial_type":"image-button-response","trial_index":11,"time_elapsed":311569,"internal_node_id":"0.0-4.0-0.2","subject_id":"56a7da16c89737000b22953c","study_id":"6197b3f67c2b5cd3b6d9596a","session_id":"619be320921dea782e561a62","condition":"contingent","relevant_dimensions":["antennae","pattern"],"bee_group":{"antennae":"A","wings":"X","pattern":"S","legs":"X"},"action":"harvest","summary":"good-harvest","bonus":1.080000000000001},{"rt":2397.699999988079,"stimulus":"\n                    <p><b>Action: <em>harvest</em></b></p>\n                    <p>This is the bee that you just saw.</p>\n                    <img src=\"bees-with-color/bee-B1SF.svg\" width=\"200\">\n                    <p><span class=\"greenText\"><b>Successful harvest!</b></span><br>Your pay has increased by $0.02. Your bonus pay is now $0.58.</p>\n            ","response":0,"trial_type":"html-button-response","trial_index":12,"time_elapsed":313968,"internal_node_id":"0.0-4.0-1.2","subject_id":"56a7da16c89737000b22953c","study_id":"6197b3f67c2b5cd3b6d9596a","session_id":"619be320921dea782e561a62","condition":"contingent","relevant_dimensions":["antennae","pattern"],"bee_group":{"antennae":"A","wings":"X","pattern":"S","legs":"X"},"bonus":1.080000000000001},{"rt":3422.900000035763,"stimulus":"bees-with-color/bee-B1DF.svg","response":0,"trial_type":"image-button-response","trial_index":13,"time_elapsed":317393,"internal_node_id":"0.0-4.0-0.3","subject_id":"56a7da16c89737000b22953c","study_id":"6197b3f67c2b5cd3b6d9596a","session_id":"619be320921dea782e561a62","condition":"contingent","relevant_dimensions":["antennae","pattern"],"bee_group":{"antennae":"A","wings":"X","pattern":"S","legs":"X"},"action":"harvest","summary":"good-harvest","bonus":1.080000000000001},{"rt":1981.800000011921,"stimulus":"\n                    <p><b>Action: <em>harvest</em></b></p>\n                    <p>This is the bee that you just saw.</p>\n                    <img src=\"bees-with-color/bee-B1DF.svg\" width=\"200\">\n                    <p><span class=\"greenText\"><b>Successful harvest!</b></span><br>Your pay has increased by $0.02. Your bonus pay is now $0.60.</p>\n            ","response":0,"trial_type":"html-button-response","trial_index":14,"time_elapsed":319377,"internal_node_id":"0.0-4.0-1.3","subject_id":"56a7da16c89737000b22953c","study_id":"6197b3f67c2b5cd3b6d9596a","session_id":"619be320921dea782e561a62","condition":"contingent","relevant_dimensions":["antennae","pattern"],"bee_group":{"antennae":"A","wings":"X","pattern":"S","legs":"X"},"bonus":1.080000000000001},{"rt":2758.800000011921,"stimulus":"bees-with-color/bee-B2DM.svg","response":1,"trial_type":"image-button-response","trial_index":15,"time_elapsed":322138,"internal_node_id":"0.0-4.0-0.4","subject_id":"56a7da16c89737000b22953c","study_id":"6197b3f67c2b5cd3b6d9596a","session_id":"619be320921dea782e561a62","condition":"contingent","relevant_dimensions":["antennae","pattern"],"bee_group":{"antennae":"A","wings":"X","pattern":"S","legs":"X"},"action":"avoid","summary":"bad-avoid","bonus":1.080000000000001},{"rt":1661.800000011921,"stimulus":"\n                    <p><b>Action: <em>avoid</em></b></p>\n                    <p>This is the bee that you just saw.</p>\n                    <img src=\"bees-with-color/bee-B2DM.svg\" width=\"200\">\n                    <p><br>Your bonus pay is unchanged, and remains at $0.60.</p>\n            ","response":0,"trial_type":"html-button-response","trial_index":16,"time_elapsed":323802,"internal_node_id":"0.0-4.0-1.4","subject_id":"56a7da16c89737000b22953c","study_id":"6197b3f67c2b5cd3b6d9596a","session_id":"619be320921dea782e561a62","condition":"contingent","relevant_dimensions":["antennae","pattern"],"bee_group":{"antennae":"A","wings":"X","pattern":"S","legs":"X"},"bonus":1.080000000000001},{"rt":1621.8999999761581,"stimulus":"bees-with-color/bee-A1DF.svg","response":0,"trial_type":"image-button-response","trial_index":17,"time_elapsed":325426,"internal_node_id":"0.0-4.0-0.5","subject_id":"56a7da16c89737000b22953c","study_id":"6197b3f67c2b5cd3b6d9596a","session_id":"619be320921dea782e561a62","condition":"contingent","relevant_dimensions":["antennae","pattern"],"bee_group":{"antennae":"A","wings":"X","pattern":"S","legs":"X"},"action":"harvest","summary":"good-harvest","bonus":1.080000000000001},{"rt":2190.199999988079,"stimulus":"\n                    <p><b>Action: <em>harvest</em></b></p>\n                    <p>This is the bee that you just saw.</p>\n                    <img src=\"bees-with-color/bee-A1DF.svg\" width=\"200\">\n                    <p><span class=\"greenText\"><b>Successful harvest!</b></span><br>Your pay has increased by $0.02. Your bonus pay is now $0.62.</p>\n            ","response":0,"trial_type":"html-button-response","trial_index":18,"time_elapsed":327618,"internal_node_id":"0.0-4.0-1.5","subject_id":"56a7da16c89737000b22953c","study_id":"6197b3f67c2b5cd3b6d9596a","session_id":"619be320921dea782e561a62","condition":"contingent","relevant_dimensions":["antennae","pattern"],"bee_group":{"antennae":"A","wings":"X","pattern":"S","legs":"X"},"bonus":1.080000000000001},{"rt":2037.699999988079,"stimulus":"bees-with-color/bee-A2SM.svg","response":1,"trial_type":"image-button-response","trial_index":19,"time_elapsed":329659,"internal_node_id":"0.0-4.0-0.6","subject_id":"56a7da16c89737000b22953c","study_id":"6197b3f67c2b5cd3b6d9596a","session_id":"619be320921dea782e561a62","condition":"contingent","relevant_dimensions":["antennae","pattern"],"bee_group":{"antennae":"A","wings":"X","pattern":"S","legs":"X"},"action":"avoid","summary":"good-avoid","bonus":1.080000000000001},{"rt":1109.699999988079,"stimulus":"\n                    <p><b>Action: <em>avoid</em></b></p>\n                    <p>This is the bee that you just saw.</p>\n                    <img src=\"bees-with-color/bee-A2SM.svg\" width=\"200\">\n                    <p><br>Your bonus pay is unchanged, and remains at $0.62.</p>\n            ","response":0,"trial_type":"html-button-response","trial_index":20,"time_elapsed":330770,"internal_node_id":"0.0-4.0-1.6","subject_id":"56a7da16c89737000b22953c","study_id":"6197b3f67c2b5cd3b6d9596a","session_id":"619be320921dea782e561a62","condition":"contingent","relevant_dimensions":["antennae","pattern"],"bee_group":{"antennae":"A","wings":"X","pattern":"S","legs":"X"},"bonus":1.080000000000001},{"rt":1582.2000000476837,"stimulus":"bees-with-color/bee-A1SM.svg","response":0,"trial_type":"image-button-response","trial_index":21,"time_elapsed":332354,"internal_node_id":"0.0-4.0-0.7","subject_id":"56a7da16c89737000b22953c","study_id":"6197b3f67c2b5cd3b6d9596a","session_id":"619be320921dea782e561a62","condition":"contingent","relevant_dimensions":["antennae","pattern"],"bee_group":{"antennae":"A","wings":"X","pattern":"S","legs":"X"},"action":"harvest","summary":"bad-harvest","bonus":1.080000000000001},{"rt":1662.7000000476837,"stimulus":"\n                    <p><b>Action: <em>harvest</em></b></p>\n                    <p>This is the bee that you just saw.</p>\n                    <img src=\"bees-with-color/bee-A1SM.svg\" width=\"200\">\n                    <p><span class=\"redText\">Bad choice, the bee was angry.</span><br><b>You have been stung!</b><br>Your pay has been decreased by $0.10. Your bonus pay is now $0.52.</p>\n            ","response":0,"trial_type":"html-button-response","trial_index":22,"time_elapsed":334019,"internal_node_id":"0.0-4.0-1.7","subject_id":"56a7da16c89737000b22953c","study_id":"6197b3f67c2b5cd3b6d9596a","session_id":"619be320921dea782e561a62","condition":"contingent","relevant_dimensions":["antennae","pattern"],"bee_group":{"antennae":"A","wings":"X","pattern":"S","legs":"X"},"bonus":1.080000000000001},{"rt":3485.100000023842,"stimulus":"bees-with-color/bee-B1DM.svg","response":0,"trial_type":"image-button-response","trial_index":23,"time_elapsed":337507,"internal_node_id":"0.0-4.0-0.8","subject_id":"56a7da16c89737000b22953c","study_id":"6197b3f67c2b5cd3b6d9596a","session_id":"619be320921dea782e561a62","condition":"contingent","relevant_dimensions":["antennae","pattern"],"bee_group":{"antennae":"A","wings":"X","pattern":"S","legs":"X"},"action":"harvest","summary":"good-harvest","bonus":1.080000000000001},{"rt":1918.800000011921,"stimulus":"\n                    <p><b>Action: <em>harvest</em></b></p>\n                    <p>This is the bee that you just saw.</p>\n                    <img src=\"bees-with-color/bee-B1DM.svg\" width=\"200\">\n                    <p><span class=\"greenText\"><b>Successful harvest!</b></span><br>Your pay has increased by $0.02. Your bonus pay is now $0.54.</p>\n            ","response":0,"trial_type":"html-button-response","trial_index":24,"time_elapsed":339428,"internal_node_id":"0.0-4.0-1.8","subject_id":"56a7da16c89737000b22953c","study_id":"6197b3f67c2b5cd3b6d9596a","session_id":"619be320921dea782e561a62","condition":"contingent","relevant_dimensions":["antennae","pattern"],"bee_group":{"antennae":"A","wings":"X","pattern":"S","legs":"X"},"bonus":1.080000000000001},{"rt":1869.7000000476837,"stimulus":"bees-with-color/bee-A2DF.svg","response":0,"trial_type":"image-button-response","trial_index":25,"time_elapsed":341300,"internal_node_id":"0.0-4.0-0.9","subject_id":"56a7da16c89737000b22953c","study_id":"6197b3f67c2b5cd3b6d9596a","session_id":"619be320921dea782e561a62","condition":"contingent","relevant_dimensions":["antennae","pattern"],"bee_group":{"antennae":"A","wings":"X","pattern":"S","legs":"X"},"action":"harvest","summary":"good-harvest","bonus":1.080000000000001},{"rt":1477.8999999761581,"stimulus":"\n                    <p><b>Action: <em>harvest</em></b></p>\n                    <p>This is the bee that you just saw.</p>\n                    <img src=\"bees-with-color/bee-A2DF.svg\" width=\"200\">\n                    <p><span class=\"greenText\"><b>Successful harvest!</b></span><br>Your pay has increased by $0.02. Your bonus pay is now $0.56.</p>\n            ","response":0,"trial_type":"html-button-response","trial_index":26,"time_elapsed":342780,"internal_node_id":"0.0-4.0-1.9","subject_id":"56a7da16c89737000b22953c","study_id":"6197b3f67c2b5cd3b6d9596a","session_id":"619be320921dea782e561a62","condition":"contingent","relevant_dimensions":["antennae","pattern"],"bee_group":{"antennae":"A","wings":"X","pattern":"S","legs":"X"},"bonus":1.080000000000001},{"rt":1501.699999988079,"stimulus":"bees-with-color/bee-A1SF.svg","response":1,"trial_type":"image-button-response","trial_index":27,"time_elapsed":344284,"internal_node_id":"0.0-4.0-0.10","subject_id":"56a7da16c89737000b22953c","study_id":"6197b3f67c2b5cd3b6d9596a","session_id":"619be320921dea782e561a62","condition":"contingent","relevant_dimensions":["antennae","pattern"],"bee_group":{"antennae":"A","wings":"X","pattern":"S","legs":"X"},"action":"avoid","summary":"good-avoid","bonus":1.080000000000001},{"rt":1613.6000000238419,"stimulus":"\n                    <p><b>Action: <em>avoid</em></b></p>\n                    <p>This is the bee that you just saw.</p>\n                    <img src=\"bees-with-color/bee-A1SF.svg\" width=\"200\">\n                    <p><br>Your bonus pay is unchanged, and remains at $0.56.</p>\n            ","response":0,"trial_type":"html-button-response","trial_index":28,"time_elapsed":345900,"internal_node_id":"0.0-4.0-1.10","subject_id":"56a7da16c89737000b22953c","study_id":"6197b3f67c2b5cd3b6d9596a","session_id":"619be320921dea782e561a62","condition":"contingent","relevant_dimensions":["antennae","pattern"],"bee_group":{"antennae":"A","wings":"X","pattern":"S","legs":"X"},"bonus":1.080000000000001},{"rt":1477.7000000476837,"stimulus":"bees-with-color/bee-B2DF.svg","response":0,"trial_type":"image-button-response","trial_index":29,"time_elapsed":347380,"internal_node_id":"0.0-4.0-0.11","subject_id":"56a7da16c89737000b22953c","study_id":"6197b3f67c2b5cd3b6d9596a","session_id":"619be320921dea782e561a62","condition":"contingent","relevant_dimensions":["antennae","pattern"],"bee_group":{"antennae":"A","wings":"X","pattern":"S","legs":"X"},"action":"harvest","summary":"good-harvest","bonus":1.080000000000001},{"rt":1254.9000000357628,"stimulus":"\n                    <p><b>Action: <em>harvest</em></b></p>\n                    <p>This is the bee that you just saw.</p>\n                    <img src=\"bees-with-color/bee-B2DF.svg\" width=\"200\">\n                    <p><span class=\"greenText\"><b>Successful harvest!</b></span><br>Your pay has increased by $0.02. Your bonus pay is now $0.58.</p>\n            ","response":0,"trial_type":"html-button-response","trial_index":30,"time_elapsed":348637,"internal_node_id":"0.0-4.0-1.11","subject_id":"56a7da16c89737000b22953c","study_id":"6197b3f67c2b5cd3b6d9596a","session_id":"619be320921dea782e561a62","condition":"contingent","relevant_dimensions":["antennae","pattern"],"bee_group":{"antennae":"A","wings":"X","pattern":"S","legs":"X"},"bonus":1.080000000000001},{"rt":1518.1000000238419,"stimulus":"bees-with-color/bee-A2SF.svg","response":1,"trial_type":"image-button-response","trial_index":31,"time_elapsed":350157,"internal_node_id":"0.0-4.0-0.12","subject_id":"56a7da16c89737000b22953c","study_id":"6197b3f67c2b5cd3b6d9596a","session_id":"619be320921dea782e561a62","condition":"contingent","relevant_dimensions":["antennae","pattern"],"bee_group":{"antennae":"A","wings":"X","pattern":"S","legs":"X"},"action":"avoid","summary":"good-avoid","bonus":1.080000000000001},{"rt":1366,"stimulus":"\n                    <p><b>Action: <em>avoid</em></b></p>\n                    <p>This is the bee that you just saw.</p>\n                    <img src=\"bees-with-color/bee-A2SF.svg\" width=\"200\">\n                    <p><br>Your bonus pay is unchanged, and remains at $0.58.</p>\n            ","response":0,"trial_type":"html-button-response","trial_index":32,"time_elapsed":351525,"internal_node_id":"0.0-4.0-1.12","subject_id":"56a7da16c89737000b22953c","study_id":"6197b3f67c2b5cd3b6d9596a","session_id":"619be320921dea782e561a62","condition":"contingent","relevant_dimensions":["antennae","pattern"],"bee_group":{"antennae":"A","wings":"X","pattern":"S","legs":"X"},"bonus":1.080000000000001},{"rt":1093.4000000357628,"stimulus":"bees-with-color/bee-B1SM.svg","response":0,"trial_type":"image-button-response","trial_index":33,"time_elapsed":352621,"internal_node_id":"0.0-4.0-0.13","subject_id":"56a7da16c89737000b22953c","study_id":"6197b3f67c2b5cd3b6d9596a","session_id":"619be320921dea782e561a62","condition":"contingent","relevant_dimensions":["antennae","pattern"],"bee_group":{"antennae":"A","wings":"X","pattern":"S","legs":"X"},"action":"harvest","summary":"good-harvest","bonus":1.080000000000001},{"rt":1925.699999988079,"stimulus":"\n                    <p><b>Action: <em>harvest</em></b></p>\n                    <p>This is the bee that you just saw.</p>\n                    <img src=\"bees-with-color/bee-B1SM.svg\" width=\"200\">\n                    <p><span class=\"greenText\"><b>Successful harvest!</b></span><br>Your pay has increased by $0.02. Your bonus pay is now $0.60.</p>\n            ","response":0,"trial_type":"html-button-response","trial_index":34,"time_elapsed":354549,"internal_node_id":"0.0-4.0-1.13","subject_id":"56a7da16c89737000b22953c","study_id":"6197b3f67c2b5cd3b6d9596a","session_id":"619be320921dea782e561a62","condition":"contingent","relevant_dimensions":["antennae","pattern"],"bee_group":{"antennae":"A","wings":"X","pattern":"S","legs":"X"},"bonus":1.080000000000001},{"rt":1767.0999999642372,"stimulus":"bees-with-color/bee-B2SF.svg","response":1,"trial_type":"image-button-response","trial_index":35,"time_elapsed":356318,"internal_node_id":"0.0-4.0-0.14","subject_id":"56a7da16c89737000b22953c","study_id":"6197b3f67c2b5cd3b6d9596a","session_id":"619be320921dea782e561a62","condition":"contingent","relevant_dimensions":["antennae","pattern"],"bee_group":{"antennae":"A","wings":"X","pattern":"S","legs":"X"},"action":"avoid","summary":"bad-avoid","bonus":1.080000000000001},{"rt":1189.8999999761581,"stimulus":"\n                    <p><b>Action: <em>avoid</em></b></p>\n                    <p>This is the bee that you just saw.</p>\n                    <img src=\"bees-with-color/bee-B2SF.svg\" width=\"200\">\n                    <p><br>Your bonus pay is unchanged, and remains at $0.60.</p>\n            ","response":0,"trial_type":"html-button-response","trial_index":36,"time_elapsed":357510,"internal_node_id":"0.0-4.0-1.14","subject_id":"56a7da16c89737000b22953c","study_id":"6197b3f67c2b5cd3b6d9596a","session_id":"619be320921dea782e561a62","condition":"contingent","relevant_dimensions":["antennae","pattern"],"bee_group":{"antennae":"A","wings":"X","pattern":"S","legs":"X"},"bonus":1.080000000000001},{"rt":1325.6000000238419,"stimulus":"bees-with-color/bee-B2SM.svg","response":0,"trial_type":"image-button-response","trial_index":37,"time_elapsed":358839,"internal_node_id":"0.0-4.0-0.15","subject_id":"56a7da16c89737000b22953c","study_id":"6197b3f67c2b5cd3b6d9596a","session_id":"619be320921dea782e561a62","condition":"contingent","relevant_dimensions":["antennae","pattern"],"bee_group":{"antennae":"A","wings":"X","pattern":"S","legs":"X"},"action":"harvest","summary":"good-harvest","bonus":1.080000000000001},{"rt":1804.5,"stimulus":"\n                    <p><b>Action: <em>harvest</em></b></p>\n                    <p>This is the bee that you just saw.</p>\n                    <img src=\"bees-with-color/bee-B2SM.svg\" width=\"200\">\n                    <p><span class=\"greenText\"><b>Successful harvest!</b></span><br>Your pay has increased by $0.02. Your bonus pay is now $0.62.</p>\n            ","response":0,"trial_type":"html-button-response","trial_index":38,"time_elapsed":360646,"internal_node_id":"0.0-4.0-1.15","subject_id":"56a7da16c89737000b22953c","study_id":"6197b3f67c2b5cd3b6d9596a","session_id":"619be320921dea782e561a62","condition":"contingent","relevant_dimensions":["antennae","pattern"],"bee_group":{"antennae":"A","wings":"X","pattern":"S","legs":"X"},"bonus":1.080000000000001},{"rt":1295.199999988079,"stimulus":"bees-with-color/bee-B2DM.svg","response":0,"trial_type":"image-button-response","trial_index":39,"time_elapsed":361943,"internal_node_id":"0.0-4.0-0.16","subject_id":"56a7da16c89737000b22953c","study_id":"6197b3f67c2b5cd3b6d9596a","session_id":"619be320921dea782e561a62","condition":"contingent","relevant_dimensions":["antennae","pattern"],"bee_group":{"antennae":"A","wings":"X","pattern":"S","legs":"X"},"action":"harvest","summary":"good-harvest","bonus":1.080000000000001},{"rt":1397.2000000476837,"stimulus":"\n                    <p><b>Action: <em>harvest</em></b></p>\n                    <p>This is the bee that you just saw.</p>\n                    <img src=\"bees-with-color/bee-B2DM.svg\" width=\"200\">\n                    <p><span class=\"greenText\"><b>Successful harvest!</b></span><br>Your pay has increased by $0.02. Your bonus pay is now $0.64.</p>\n            ","response":0,"trial_type":"html-button-response","trial_index":40,"time_elapsed":363343,"internal_node_id":"0.0-4.0-1.16","subject_id":"56a7da16c89737000b22953c","study_id":"6197b3f67c2b5cd3b6d9596a","session_id":"619be320921dea782e561a62","condition":"contingent","relevant_dimensions":["antennae","pattern"],"bee_group":{"antennae":"A","wings":"X","pattern":"S","legs":"X"},"bonus":1.080000000000001},{"rt":1709.5,"stimulus":"bees-with-color/bee-A1DM.svg","response":0,"trial_type":"image-button-response","trial_index":41,"time_elapsed":365055,"internal_node_id":"0.0-4.0-0.17","subject_id":"56a7da16c89737000b22953c","study_id":"6197b3f67c2b5cd3b6d9596a","session_id":"619be320921dea782e561a62","condition":"contingent","relevant_dimensions":["antennae","pattern"],"bee_group":{"antennae":"A","wings":"X","pattern":"S","legs":"X"},"action":"harvest","summary":"good-harvest","bonus":1.080000000000001},{"rt":1494.199999988079,"stimulus":"\n                    <p><b>Action: <em>harvest</em></b></p>\n                    <p>This is the bee that you just saw.</p>\n                    <img src=\"bees-with-color/bee-A1DM.svg\" width=\"200\">\n                    <p><span class=\"greenText\"><b>Successful harvest!</b></span><br>Your pay has increased by $0.02. Your bonus pay is now $0.66.</p>\n            ","response":0,"trial_type":"html-button-response","trial_index":42,"time_elapsed":366551,"internal_node_id":"0.0-4.0-1.17","subject_id":"56a7da16c89737000b22953c","study_id":"6197b3f67c2b5cd3b6d9596a","session_id":"619be320921dea782e561a62","condition":"contingent","relevant_dimensions":["antennae","pattern"],"bee_group":{"antennae":"A","wings":"X","pattern":"S","legs":"X"},"bonus":1.080000000000001},{"rt":2565.800000011921,"stimulus":"bees-with-color/bee-A1DF.svg","response":0,"trial_type":"image-button-response","trial_index":43,"time_elapsed":369119,"internal_node_id":"0.0-4.0-0.18","subject_id":"56a7da16c89737000b22953c","study_id":"6197b3f67c2b5cd3b6d9596a","session_id":"619be320921dea782e561a62","condition":"contingent","relevant_dimensions":["antennae","pattern"],"bee_group":{"antennae":"A","wings":"X","pattern":"S","legs":"X"},"action":"harvest","summary":"good-harvest","bonus":1.080000000000001},{"rt":1038.300000011921,"stimulus":"\n                    <p><b>Action: <em>harvest</em></b></p>\n                    <p>This is the bee that you just saw.</p>\n                    <img src=\"bees-with-color/bee-A1DF.svg\" width=\"200\">\n                    <p><span class=\"greenText\"><b>Successful harvest!</b></span><br>Your pay has increased by $0.02. Your bonus pay is now $0.68.</p>\n            ","response":0,"trial_type":"html-button-response","trial_index":44,"time_elapsed":370159,"internal_node_id":"0.0-4.0-1.18","subject_id":"56a7da16c89737000b22953c","study_id":"6197b3f67c2b5cd3b6d9596a","session_id":"619be320921dea782e561a62","condition":"contingent","relevant_dimensions":["antennae","pattern"],"bee_group":{"antennae":"A","wings":"X","pattern":"S","legs":"X"},"bonus":1.080000000000001},{"rt":1223.1000000238419,"stimulus":"bees-with-color/bee-A2SM.svg","response":1,"trial_type":"image-button-response","trial_index":45,"time_elapsed":371384,"internal_node_id":"0.0-4.0-0.19","subject_id":"56a7da16c89737000b22953c","study_id":"6197b3f67c2b5cd3b6d9596a","session_id":"619be320921dea782e561a62","condition":"contingent","relevant_dimensions":["antennae","pattern"],"bee_group":{"antennae":"A","wings":"X","pattern":"S","legs":"X"},"action":"avoid","summary":"good-avoid","bonus":1.080000000000001},{"rt":645.4000000357628,"stimulus":"\n                    <p><b>Action: <em>avoid</em></b></p>\n                    <p>This is the bee that you just saw.</p>\n                    <img src=\"bees-with-color/bee-A2SM.svg\" width=\"200\">\n                    <p><br>Your bonus pay is unchanged, and remains at $0.68.</p>\n            ","response":0,"trial_type":"html-button-response","trial_index":46,"time_elapsed":372030,"internal_node_id":"0.0-4.0-1.19","subject_id":"56a7da16c89737000b22953c","study_id":"6197b3f67c2b5cd3b6d9596a","session_id":"619be320921dea782e561a62","condition":"contingent","relevant_dimensions":["antennae","pattern"],"bee_group":{"antennae":"A","wings":"X","pattern":"S","legs":"X"},"bonus":1.080000000000001},{"rt":1487.699999988079,"stimulus":"bees-with-color/bee-B1DF.svg","response":0,"trial_type":"image-button-response","trial_index":47,"time_elapsed":373520,"internal_node_id":"0.0-4.0-0.20","subject_id":"56a7da16c89737000b22953c","study_id":"6197b3f67c2b5cd3b6d9596a","session_id":"619be320921dea782e561a62","condition":"contingent","relevant_dimensions":["antennae","pattern"],"bee_group":{"antennae":"A","wings":"X","pattern":"S","legs":"X"},"action":"harvest","summary":"good-harvest","bonus":1.080000000000001},{"rt":1229.699999988079,"stimulus":"\n                    <p><b>Action: <em>harvest</em></b></p>\n                    <p>This is the bee that you just saw.</p>\n                    <img src=\"bees-with-color/bee-B1DF.svg\" width=\"200\">\n                    <p><span class=\"greenText\"><b>Successful harvest!</b></span><br>Your pay has increased by $0.02. Your bonus pay is now $0.70.</p>\n            ","response":0,"trial_type":"html-button-response","trial_index":48,"time_elapsed":374751,"internal_node_id":"0.0-4.0-1.20","subject_id":"56a7da16c89737000b22953c","study_id":"6197b3f67c2b5cd3b6d9596a","session_id":"619be320921dea782e561a62","condition":"contingent","relevant_dimensions":["antennae","pattern"],"bee_group":{"antennae":"A","wings":"X","pattern":"S","legs":"X"},"bonus":1.080000000000001},{"rt":1230.4000000357628,"stimulus":"bees-with-color/bee-B2DF.svg","response":0,"trial_type":"image-button-response","trial_index":49,"time_elapsed":375984,"internal_node_id":"0.0-4.0-0.21","subject_id":"56a7da16c89737000b22953c","study_id":"6197b3f67c2b5cd3b6d9596a","session_id":"619be320921dea782e561a62","condition":"contingent","relevant_dimensions":["antennae","pattern"],"bee_group":{"antennae":"A","wings":"X","pattern":"S","legs":"X"},"action":"harvest","summary":"good-harvest","bonus":1.080000000000001},{"rt":1374,"stimulus":"\n                    <p><b>Action: <em>harvest</em></b></p>\n                    <p>This is the bee that you just saw.</p>\n                    <img src=\"bees-with-color/bee-B2DF.svg\" width=\"200\">\n                    <p><span class=\"greenText\"><b>Successful harvest!</b></span><br>Your pay has increased by $0.02. Your bonus pay is now $0.72.</p>\n            ","response":0,"trial_type":"html-button-response","trial_index":50,"time_elapsed":377359,"internal_node_id":"0.0-4.0-1.21","subject_id":"56a7da16c89737000b22953c","study_id":"6197b3f67c2b5cd3b6d9596a","session_id":"619be320921dea782e561a62","condition":"contingent","relevant_dimensions":["antennae","pattern"],"bee_group":{"antennae":"A","wings":"X","pattern":"S","legs":"X"},"bonus":1.080000000000001},{"rt":1295.4000000357628,"stimulus":"bees-with-color/bee-B1SF.svg","response":1,"trial_type":"image-button-response","trial_index":51,"time_elapsed":378656,"internal_node_id":"0.0-4.0-0.22","subject_id":"56a7da16c89737000b22953c","study_id":"6197b3f67c2b5cd3b6d9596a","session_id":"619be320921dea782e561a62","condition":"contingent","relevant_dimensions":["antennae","pattern"],"bee_group":{"antennae":"A","wings":"X","pattern":"S","legs":"X"},"action":"avoid","summary":"bad-avoid","bonus":1.080000000000001},{"rt":726.3000000119209,"stimulus":"\n                    <p><b>Action: <em>avoid</em></b></p>\n                    <p>This is the bee that you just saw.</p>\n                    <img src=\"bees-with-color/bee-B1SF.svg\" width=\"200\">\n                    <p><br>Your bonus pay is unchanged, and remains at $0.72.</p>\n            ","response":0,"trial_type":"html-button-response","trial_index":52,"time_elapsed":379385,"internal_node_id":"0.0-4.0-1.22","subject_id":"56a7da16c89737000b22953c","study_id":"6197b3f67c2b5cd3b6d9596a","session_id":"619be320921dea782e561a62","condition":"contingent","relevant_dimensions":["antennae","pattern"],"bee_group":{"antennae":"A","wings":"X","pattern":"S","legs":"X"},"bonus":1.080000000000001},{"rt":3982.099999964237,"stimulus":"bees-with-color/bee-A2SF.svg","response":0,"trial_type":"image-button-response","trial_index":53,"time_elapsed":383368,"internal_node_id":"0.0-4.0-0.23","subject_id":"56a7da16c89737000b22953c","study_id":"6197b3f67c2b5cd3b6d9596a","session_id":"619be320921dea782e561a62","condition":"contingent","relevant_dimensions":["antennae","pattern"],"bee_group":{"antennae":"A","wings":"X","pattern":"S","legs":"X"},"action":"harvest","summary":"bad-harvest","bonus":1.080000000000001},{"rt":1542.1000000238419,"stimulus":"\n                    <p><b>Action: <em>harvest</em></b></p>\n                    <p>This is the bee that you just saw.</p>\n                    <img src=\"bees-with-color/bee-A2SF.svg\" width=\"200\">\n                    <p><span class=\"redText\">Bad choice, the bee was angry.</span><br><b>You have been stung!</b><br>Your pay has been decreased by $0.10. Your bonus pay is now $0.62.</p>\n            ","response":0,"trial_type":"html-button-response","trial_index":54,"time_elapsed":384912,"internal_node_id":"0.0-4.0-1.23","subject_id":"56a7da16c89737000b22953c","study_id":"6197b3f67c2b5cd3b6d9596a","session_id":"619be320921dea782e561a62","condition":"contingent","relevant_dimensions":["antennae","pattern"],"bee_group":{"antennae":"A","wings":"X","pattern":"S","legs":"X"},"bonus":1.080000000000001},{"rt":1573.4000000357628,"stimulus":"bees-with-color/bee-B1SM.svg","response":0,"trial_type":"image-button-response","trial_index":55,"time_elapsed":386489,"internal_node_id":"0.0-4.0-0.24","subject_id":"56a7da16c89737000b22953c","study_id":"6197b3f67c2b5cd3b6d9596a","session_id":"619be320921dea782e561a62","condition":"contingent","relevant_dimensions":["antennae","pattern"],"bee_group":{"antennae":"A","wings":"X","pattern":"S","legs":"X"},"action":"harvest","summary":"good-harvest","bonus":1.080000000000001},{"rt":1205.800000011921,"stimulus":"\n                    <p><b>Action: <em>harvest</em></b></p>\n                    <p>This is the bee that you just saw.</p>\n                    <img src=\"bees-with-color/bee-B1SM.svg\" width=\"200\">\n                    <p><span class=\"greenText\"><b>Successful harvest!</b></span><br>Your pay has increased by $0.02. Your bonus pay is now $0.64.</p>\n            ","response":0,"trial_type":"html-button-response","trial_index":56,"time_elapsed":387696,"internal_node_id":"0.0-4.0-1.24","subject_id":"56a7da16c89737000b22953c","study_id":"6197b3f67c2b5cd3b6d9596a","session_id":"619be320921dea782e561a62","condition":"contingent","relevant_dimensions":["antennae","pattern"],"bee_group":{"antennae":"A","wings":"X","pattern":"S","legs":"X"},"bonus":1.080000000000001},{"rt":1143,"stimulus":"bees-with-color/bee-B2SM.svg","response":0,"trial_type":"image-button-response","trial_index":57,"time_elapsed":388841,"internal_node_id":"0.0-4.0-0.25","subject_id":"56a7da16c89737000b22953c","study_id":"6197b3f67c2b5cd3b6d9596a","session_id":"619be320921dea782e561a62","condition":"contingent","relevant_dimensions":["antennae","pattern"],"bee_group":{"antennae":"A","wings":"X","pattern":"S","legs":"X"},"action":"harvest","summary":"good-harvest","bonus":1.080000000000001},{"rt":958.1000000238419,"stimulus":"\n                    <p><b>Action: <em>harvest</em></b></p>\n                    <p>This is the bee that you just saw.</p>\n                    <img src=\"bees-with-color/bee-B2SM.svg\" width=\"200\">\n                    <p><span class=\"greenText\"><b>Successful harvest!</b></span><br>Your pay has increased by $0.02. Your bonus pay is now $0.66.</p>\n            ","response":0,"trial_type":"html-button-response","trial_index":58,"time_elapsed":389802,"internal_node_id":"0.0-4.0-1.25","subject_id":"56a7da16c89737000b22953c","study_id":"6197b3f67c2b5cd3b6d9596a","session_id":"619be320921dea782e561a62","condition":"contingent","relevant_dimensions":["antennae","pattern"],"bee_group":{"antennae":"A","wings":"X","pattern":"S","legs":"X"},"bonus":1.080000000000001},{"rt":1278.0999999642372,"stimulus":"bees-with-color/bee-B1DM.svg","response":0,"trial_type":"image-button-response","trial_index":59,"time_elapsed":391082,"internal_node_id":"0.0-4.0-0.26","subject_id":"56a7da16c89737000b22953c","study_id":"6197b3f67c2b5cd3b6d9596a","session_id":"619be320921dea782e561a62","condition":"contingent","relevant_dimensions":["antennae","pattern"],"bee_group":{"antennae":"A","wings":"X","pattern":"S","legs":"X"},"action":"harvest","summary":"good-harvest","bonus":1.080000000000001},{"rt":1231,"stimulus":"\n                    <p><b>Action: <em>harvest</em></b></p>\n                    <p>This is the bee that you just saw.</p>\n                    <img src=\"bees-with-color/bee-B1DM.svg\" width=\"200\">\n                    <p><span class=\"greenText\"><b>Successful harvest!</b></span><br>Your pay has increased by $0.02. Your bonus pay is now $0.68.</p>\n            ","response":0,"trial_type":"html-button-response","trial_index":60,"time_elapsed":392314,"internal_node_id":"0.0-4.0-1.26","subject_id":"56a7da16c89737000b22953c","study_id":"6197b3f67c2b5cd3b6d9596a","session_id":"619be320921dea782e561a62","condition":"contingent","relevant_dimensions":["antennae","pattern"],"bee_group":{"antennae":"A","wings":"X","pattern":"S","legs":"X"},"bonus":1.080000000000001},{"rt":1541.199999988079,"stimulus":"bees-with-color/bee-B2SF.svg","response":1,"trial_type":"image-button-response","trial_index":61,"time_elapsed":393857,"internal_node_id":"0.0-4.0-0.27","subject_id":"56a7da16c89737000b22953c","study_id":"6197b3f67c2b5cd3b6d9596a","session_id":"619be320921dea782e561a62","condition":"contingent","relevant_dimensions":["antennae","pattern"],"bee_group":{"antennae":"A","wings":"X","pattern":"S","legs":"X"},"action":"avoid","summary":"bad-avoid","bonus":1.080000000000001},{"rt":1038,"stimulus":"\n                    <p><b>Action: <em>avoid</em></b></p>\n                    <p>This is the bee that you just saw.</p>\n                    <img src=\"bees-with-color/bee-B2SF.svg\" width=\"200\">\n                    <p><br>Your bonus pay is unchanged, and remains at $0.68.</p>\n            ","response":0,"trial_type":"html-button-response","trial_index":62,"time_elapsed":394897,"internal_node_id":"0.0-4.0-1.27","subject_id":"56a7da16c89737000b22953c","study_id":"6197b3f67c2b5cd3b6d9596a","session_id":"619be320921dea782e561a62","condition":"contingent","relevant_dimensions":["antennae","pattern"],"bee_group":{"antennae":"A","wings":"X","pattern":"S","legs":"X"},"bonus":1.080000000000001},{"rt":2374.899999976158,"stimulus":"bees-with-color/bee-A2DM.svg","response":0,"trial_type":"image-button-response","trial_index":63,"time_elapsed":397274,"internal_node_id":"0.0-4.0-0.28","subject_id":"56a7da16c89737000b22953c","study_id":"6197b3f67c2b5cd3b6d9596a","session_id":"619be320921dea782e561a62","condition":"contingent","relevant_dimensions":["antennae","pattern"],"bee_group":{"antennae":"A","wings":"X","pattern":"S","legs":"X"},"action":"harvest","summary":"good-harvest","bonus":1.080000000000001},{"rt":1326.4000000357628,"stimulus":"\n                    <p><b>Action: <em>harvest</em></b></p>\n                    <p>This is the bee that you just saw.</p>\n                    <img src=\"bees-with-color/bee-A2DM.svg\" width=\"200\">\n                    <p><span class=\"greenText\"><b>Successful harvest!</b></span><br>Your pay has increased by $0.02. Your bonus pay is now $0.70.</p>\n            ","response":0,"trial_type":"html-button-response","trial_index":64,"time_elapsed":398602,"internal_node_id":"0.0-4.0-1.28","subject_id":"56a7da16c89737000b22953c","study_id":"6197b3f67c2b5cd3b6d9596a","session_id":"619be320921dea782e561a62","condition":"contingent","relevant_dimensions":["antennae","pattern"],"bee_group":{"antennae":"A","wings":"X","pattern":"S","legs":"X"},"bonus":1.080000000000001},{"rt":1246.699999988079,"stimulus":"bees-with-color/bee-A1SM.svg","response":1,"trial_type":"image-button-response","trial_index":65,"time_elapsed":399851,"internal_node_id":"0.0-4.0-0.29","subject_id":"56a7da16c89737000b22953c","study_id":"6197b3f67c2b5cd3b6d9596a","session_id":"619be320921dea782e561a62","condition":"contingent","relevant_dimensions":["antennae","pattern"],"bee_group":{"antennae":"A","wings":"X","pattern":"S","legs":"X"},"action":"avoid","summary":"good-avoid","bonus":1.080000000000001},{"rt":1084.8999999761581,"stimulus":"\n                    <p><b>Action: <em>avoid</em></b></p>\n                    <p>This is the bee that you just saw.</p>\n                    <img src=\"bees-with-color/bee-A1SM.svg\" width=\"200\">\n                    <p><br>Your bonus pay is unchanged, and remains at $0.70.</p>\n            ","response":0,"trial_type":"html-button-response","trial_index":66,"time_elapsed":400938,"internal_node_id":"0.0-4.0-1.29","subject_id":"56a7da16c89737000b22953c","study_id":"6197b3f67c2b5cd3b6d9596a","session_id":"619be320921dea782e561a62","condition":"contingent","relevant_dimensions":["antennae","pattern"],"bee_group":{"antennae":"A","wings":"X","pattern":"S","legs":"X"},"bonus":1.080000000000001},{"rt":1063.300000011921,"stimulus":"bees-with-color/bee-A2DF.svg","response":0,"trial_type":"image-button-response","trial_index":67,"time_elapsed":402004,"internal_node_id":"0.0-4.0-0.30","subject_id":"56a7da16c89737000b22953c","study_id":"6197b3f67c2b5cd3b6d9596a","session_id":"619be320921dea782e561a62","condition":"contingent","relevant_dimensions":["antennae","pattern"],"bee_group":{"antennae":"A","wings":"X","pattern":"S","legs":"X"},"action":"harvest","summary":"good-harvest","bonus":1.080000000000001},{"rt":925.8000000119209,"stimulus":"\n                    <p><b>Action: <em>harvest</em></b></p>\n                    <p>This is the bee that you just saw.</p>\n                    <img src=\"bees-with-color/bee-A2DF.svg\" width=\"200\">\n                    <p><span class=\"greenText\"><b>Successful harvest!</b></span><br>Your pay has increased by $0.02. Your bonus pay is now $0.72.</p>\n            ","response":0,"trial_type":"html-button-response","trial_index":68,"time_elapsed":402931,"internal_node_id":"0.0-4.0-1.30","subject_id":"56a7da16c89737000b22953c","study_id":"6197b3f67c2b5cd3b6d9596a","session_id":"619be320921dea782e561a62","condition":"contingent","relevant_dimensions":["antennae","pattern"],"bee_group":{"antennae":"A","wings":"X","pattern":"S","legs":"X"},"bonus":1.080000000000001},{"rt":1853.9000000357628,"stimulus":"bees-with-color/bee-A1SF.svg","response":0,"trial_type":"image-button-response","trial_index":69,"time_elapsed":404787,"internal_node_id":"0.0-4.0-0.31","subject_id":"56a7da16c89737000b22953c","study_id":"6197b3f67c2b5cd3b6d9596a","session_id":"619be320921dea782e561a62","condition":"contingent","relevant_dimensions":["antennae","pattern"],"bee_group":{"antennae":"A","wings":"X","pattern":"S","legs":"X"},"action":"harvest","summary":"bad-harvest","bonus":1.080000000000001},{"rt":1157.8999999761581,"stimulus":"\n                    <p><b>Action: <em>harvest</em></b></p>\n                    <p>This is the bee that you just saw.</p>\n                    <img src=\"bees-with-color/bee-A1SF.svg\" width=\"200\">\n                    <p><span class=\"redText\">Bad choice, the bee was angry.</span><br><b>You have been stung!</b><br>Your pay has been decreased by $0.10. Your bonus pay is now $0.62.</p>\n            ","response":0,"trial_type":"html-button-response","trial_index":70,"time_elapsed":405947,"internal_node_id":"0.0-4.0-1.31","subject_id":"56a7da16c89737000b22953c","study_id":"6197b3f67c2b5cd3b6d9596a","session_id":"619be320921dea782e561a62","condition":"contingent","relevant_dimensions":["antennae","pattern"],"bee_group":{"antennae":"A","wings":"X","pattern":"S","legs":"X"},"bonus":1.080000000000001},{"rt":3286.599999964237,"stimulus":"bees-with-color/bee-A2DM.svg","response":0,"trial_type":"image-button-response","trial_index":71,"time_elapsed":409236,"internal_node_id":"0.0-4.0-0.32","subject_id":"56a7da16c89737000b22953c","study_id":"6197b3f67c2b5cd3b6d9596a","session_id":"619be320921dea782e561a62","condition":"contingent","relevant_dimensions":["antennae","pattern"],"bee_group":{"antennae":"A","wings":"X","pattern":"S","legs":"X"},"action":"harvest","summary":"good-harvest","bonus":1.080000000000001},{"rt":1268.8999999761581,"stimulus":"\n                    <p><b>Action: <em>harvest</em></b></p>\n                    <p>This is the bee that you just saw.</p>\n                    <img src=\"bees-with-color/bee-A2DM.svg\" width=\"200\">\n                    <p><span class=\"greenText\"><b>Successful harvest!</b></span><br>Your pay has increased by $0.02. Your bonus pay is now $0.64.</p>\n            ","response":0,"trial_type":"html-button-response","trial_index":72,"time_elapsed":410507,"internal_node_id":"0.0-4.0-1.32","subject_id":"56a7da16c89737000b22953c","study_id":"6197b3f67c2b5cd3b6d9596a","session_id":"619be320921dea782e561a62","condition":"contingent","relevant_dimensions":["antennae","pattern"],"bee_group":{"antennae":"A","wings":"X","pattern":"S","legs":"X"},"bonus":1.080000000000001},{"rt":2030.699999988079,"stimulus":"bees-with-color/bee-B1DM.svg","response":0,"trial_type":"image-button-response","trial_index":73,"time_elapsed":412540,"internal_node_id":"0.0-4.0-0.33","subject_id":"56a7da16c89737000b22953c","study_id":"6197b3f67c2b5cd3b6d9596a","session_id":"619be320921dea782e561a62","condition":"contingent","relevant_dimensions":["antennae","pattern"],"bee_group":{"antennae":"A","wings":"X","pattern":"S","legs":"X"},"action":"harvest","summary":"good-harvest","bonus":1.080000000000001},{"rt":1277,"stimulus":"\n                    <p><b>Action: <em>harvest</em></b></p>\n                    <p>This is the bee that you just saw.</p>\n                    <img src=\"bees-with-color/bee-B1DM.svg\" width=\"200\">\n                    <p><span class=\"greenText\"><b>Successful harvest!</b></span><br>Your pay has increased by $0.02. Your bonus pay is now $0.66.</p>\n            ","response":0,"trial_type":"html-button-response","trial_index":74,"time_elapsed":413820,"internal_node_id":"0.0-4.0-1.33","subject_id":"56a7da16c89737000b22953c","study_id":"6197b3f67c2b5cd3b6d9596a","session_id":"619be320921dea782e561a62","condition":"contingent","relevant_dimensions":["antennae","pattern"],"bee_group":{"antennae":"A","wings":"X","pattern":"S","legs":"X"},"bonus":1.080000000000001},{"rt":1236.9000000357628,"stimulus":"bees-with-color/bee-B2DM.svg","response":0,"trial_type":"image-button-response","trial_index":75,"time_elapsed":415060,"internal_node_id":"0.0-4.0-0.34","subject_id":"56a7da16c89737000b22953c","study_id":"6197b3f67c2b5cd3b6d9596a","session_id":"619be320921dea782e561a62","condition":"contingent","relevant_dimensions":["antennae","pattern"],"bee_group":{"antennae":"A","wings":"X","pattern":"S","legs":"X"},"action":"harvest","summary":"good-harvest","bonus":1.080000000000001},{"rt":973.8000000119209,"stimulus":"\n                    <p><b>Action: <em>harvest</em></b></p>\n                    <p>This is the bee that you just saw.</p>\n                    <img src=\"bees-with-color/bee-B2DM.svg\" width=\"200\">\n                    <p><span class=\"greenText\"><b>Successful harvest!</b></span><br>Your pay has increased by $0.02. Your bonus pay is now $0.68.</p>\n            ","response":0,"trial_type":"html-button-response","trial_index":76,"time_elapsed":416036,"internal_node_id":"0.0-4.0-1.34","subject_id":"56a7da16c89737000b22953c","study_id":"6197b3f67c2b5cd3b6d9596a","session_id":"619be320921dea782e561a62","condition":"contingent","relevant_dimensions":["antennae","pattern"],"bee_group":{"antennae":"A","wings":"X","pattern":"S","legs":"X"},"bonus":1.080000000000001},{"rt":1422.5,"stimulus":"bees-with-color/bee-B1SM.svg","response":1,"trial_type":"image-button-response","trial_index":77,"time_elapsed":417460,"internal_node_id":"0.0-4.0-0.35","subject_id":"56a7da16c89737000b22953c","study_id":"6197b3f67c2b5cd3b6d9596a","session_id":"619be320921dea782e561a62","condition":"contingent","relevant_dimensions":["antennae","pattern"],"bee_group":{"antennae":"A","wings":"X","pattern":"S","legs":"X"},"action":"avoid","summary":"bad-avoid","bonus":1.080000000000001},{"rt":838.4000000357628,"stimulus":"\n                    <p><b>Action: <em>avoid</em></b></p>\n                    <p>This is the bee that you just saw.</p>\n                    <img src=\"bees-with-color/bee-B1SM.svg\" width=\"200\">\n                    <p><br>Your bonus pay is unchanged, and remains at $0.68.</p>\n            ","response":0,"trial_type":"html-button-response","trial_index":78,"time_elapsed":418300,"internal_node_id":"0.0-4.0-1.35","subject_id":"56a7da16c89737000b22953c","study_id":"6197b3f67c2b5cd3b6d9596a","session_id":"619be320921dea782e561a62","condition":"contingent","relevant_dimensions":["antennae","pattern"],"bee_group":{"antennae":"A","wings":"X","pattern":"S","legs":"X"},"bonus":1.080000000000001},{"rt":3919.5,"stimulus":"bees-with-color/bee-A1SM.svg","response":0,"trial_type":"image-button-response","trial_index":79,"time_elapsed":422221,"internal_node_id":"0.0-4.0-0.36","subject_id":"56a7da16c89737000b22953c","study_id":"6197b3f67c2b5cd3b6d9596a","session_id":"619be320921dea782e561a62","condition":"contingent","relevant_dimensions":["antennae","pattern"],"bee_group":{"antennae":"A","wings":"X","pattern":"S","legs":"X"},"action":"harvest","summary":"bad-harvest","bonus":1.080000000000001},{"rt":2550.399999976158,"stimulus":"\n                    <p><b>Action: <em>harvest</em></b></p>\n                    <p>This is the bee that you just saw.</p>\n                    <img src=\"bees-with-color/bee-A1SM.svg\" width=\"200\">\n                    <p><span class=\"redText\">Bad choice, the bee was angry.</span><br><b>You have been stung!</b><br>Your pay has been decreased by $0.10. Your bonus pay is now $0.58.</p>\n            ","response":0,"trial_type":"html-button-response","trial_index":80,"time_elapsed":424773,"internal_node_id":"0.0-4.0-1.36","subject_id":"56a7da16c89737000b22953c","study_id":"6197b3f67c2b5cd3b6d9596a","session_id":"619be320921dea782e561a62","condition":"contingent","relevant_dimensions":["antennae","pattern"],"bee_group":{"antennae":"A","wings":"X","pattern":"S","legs":"X"},"bonus":1.080000000000001},{"rt":1502.300000011921,"stimulus":"bees-with-color/bee-A2DF.svg","response":0,"trial_type":"image-button-response","trial_index":81,"time_elapsed":426277,"internal_node_id":"0.0-4.0-0.37","subject_id":"56a7da16c89737000b22953c","study_id":"6197b3f67c2b5cd3b6d9596a","session_id":"619be320921dea782e561a62","condition":"contingent","relevant_dimensions":["antennae","pattern"],"bee_group":{"antennae":"A","wings":"X","pattern":"S","legs":"X"},"action":"harvest","summary":"good-harvest","bonus":1.080000000000001},{"rt":1135.300000011921,"stimulus":"\n                    <p><b>Action: <em>harvest</em></b></p>\n                    <p>This is the bee that you just saw.</p>\n                    <img src=\"bees-with-color/bee-A2DF.svg\" width=\"200\">\n                    <p><span class=\"greenText\"><b>Successful harvest!</b></span><br>Your pay has increased by $0.02. Your bonus pay is now $0.60.</p>\n            ","response":0,"trial_type":"html-button-response","trial_index":82,"time_elapsed":427414,"internal_node_id":"0.0-4.0-1.37","subject_id":"56a7da16c89737000b22953c","study_id":"6197b3f67c2b5cd3b6d9596a","session_id":"619be320921dea782e561a62","condition":"contingent","relevant_dimensions":["antennae","pattern"],"bee_group":{"antennae":"A","wings":"X","pattern":"S","legs":"X"},"bonus":1.080000000000001},{"rt":1126.5,"stimulus":"bees-with-color/bee-A1DM.svg","response":0,"trial_type":"image-button-response","trial_index":83,"time_elapsed":428542,"internal_node_id":"0.0-4.0-0.38","subject_id":"56a7da16c89737000b22953c","study_id":"6197b3f67c2b5cd3b6d9596a","session_id":"619be320921dea782e561a62","condition":"contingent","relevant_dimensions":["antennae","pattern"],"bee_group":{"antennae":"A","wings":"X","pattern":"S","legs":"X"},"action":"harvest","summary":"good-harvest","bonus":1.080000000000001},{"rt":1054.199999988079,"stimulus":"\n                    <p><b>Action: <em>harvest</em></b></p>\n                    <p>This is the bee that you just saw.</p>\n                    <img src=\"bees-with-color/bee-A1DM.svg\" width=\"200\">\n                    <p><span class=\"greenText\"><b>Successful harvest!</b></span><br>Your pay has increased by $0.02. Your bonus pay is now $0.62.</p>\n            ","response":0,"trial_type":"html-button-response","trial_index":84,"time_elapsed":429598,"internal_node_id":"0.0-4.0-1.38","subject_id":"56a7da16c89737000b22953c","study_id":"6197b3f67c2b5cd3b6d9596a","session_id":"619be320921dea782e561a62","condition":"contingent","relevant_dimensions":["antennae","pattern"],"bee_group":{"antennae":"A","wings":"X","pattern":"S","legs":"X"},"bonus":1.080000000000001},{"rt":1085.800000011921,"stimulus":"bees-with-color/bee-A1SF.svg","response":1,"trial_type":"image-button-response","trial_index":85,"time_elapsed":430686,"internal_node_id":"0.0-4.0-0.39","subject_id":"56a7da16c89737000b22953c","study_id":"6197b3f67c2b5cd3b6d9596a","session_id":"619be320921dea782e561a62","condition":"contingent","relevant_dimensions":["antennae","pattern"],"bee_group":{"antennae":"A","wings":"X","pattern":"S","legs":"X"},"action":"avoid","summary":"good-avoid","bonus":1.080000000000001},{"rt":974,"stimulus":"\n                    <p><b>Action: <em>avoid</em></b></p>\n                    <p>This is the bee that you just saw.</p>\n                    <img src=\"bees-with-color/bee-A1SF.svg\" width=\"200\">\n                    <p><br>Your bonus pay is unchanged, and remains at $0.62.</p>\n            ","response":0,"trial_type":"html-button-response","trial_index":86,"time_elapsed":431661,"internal_node_id":"0.0-4.0-1.39","subject_id":"56a7da16c89737000b22953c","study_id":"6197b3f67c2b5cd3b6d9596a","session_id":"619be320921dea782e561a62","condition":"contingent","relevant_dimensions":["antennae","pattern"],"bee_group":{"antennae":"A","wings":"X","pattern":"S","legs":"X"},"bonus":1.080000000000001},{"rt":1830.699999988079,"stimulus":"bees-with-color/bee-B1SF.svg","response":0,"trial_type":"image-button-response","trial_index":87,"time_elapsed":433494,"internal_node_id":"0.0-4.0-0.40","subject_id":"56a7da16c89737000b22953c","study_id":"6197b3f67c2b5cd3b6d9596a","session_id":"619be320921dea782e561a62","condition":"contingent","relevant_dimensions":["antennae","pattern"],"bee_group":{"antennae":"A","wings":"X","pattern":"S","legs":"X"},"action":"harvest","summary":"good-harvest","bonus":1.080000000000001},{"rt":1902.699999988079,"stimulus":"\n                    <p><b>Action: <em>harvest</em></b></p>\n                    <p>This is the bee that you just saw.</p>\n                    <img src=\"bees-with-color/bee-B1SF.svg\" width=\"200\">\n                    <p><span class=\"greenText\"><b>Successful harvest!</b></span><br>Your pay has increased by $0.02. Your bonus pay is now $0.64.</p>\n            ","response":0,"trial_type":"html-button-response","trial_index":88,"time_elapsed":435398,"internal_node_id":"0.0-4.0-1.40","subject_id":"56a7da16c89737000b22953c","study_id":"6197b3f67c2b5cd3b6d9596a","session_id":"619be320921dea782e561a62","condition":"contingent","relevant_dimensions":["antennae","pattern"],"bee_group":{"antennae":"A","wings":"X","pattern":"S","legs":"X"},"bonus":1.080000000000001},{"rt":2822.7000000476837,"stimulus":"bees-with-color/bee-B2SF.svg","response":1,"trial_type":"image-button-response","trial_index":89,"time_elapsed":438223,"internal_node_id":"0.0-4.0-0.41","subject_id":"56a7da16c89737000b22953c","study_id":"6197b3f67c2b5cd3b6d9596a","session_id":"619be320921dea782e561a62","condition":"contingent","relevant_dimensions":["antennae","pattern"],"bee_group":{"antennae":"A","wings":"X","pattern":"S","legs":"X"},"action":"avoid","summary":"bad-avoid","bonus":1.080000000000001},{"rt":814.2000000476837,"stimulus":"\n                    <p><b>Action: <em>avoid</em></b></p>\n                    <p>This is the bee that you just saw.</p>\n                    <img src=\"bees-with-color/bee-B2SF.svg\" width=\"200\">\n                    <p><br>Your bonus pay is unchanged, and remains at $0.64.</p>\n            ","response":0,"trial_type":"html-button-response","trial_index":90,"time_elapsed":439039,"internal_node_id":"0.0-4.0-1.41","subject_id":"56a7da16c89737000b22953c","study_id":"6197b3f67c2b5cd3b6d9596a","session_id":"619be320921dea782e561a62","condition":"contingent","relevant_dimensions":["antennae","pattern"],"bee_group":{"antennae":"A","wings":"X","pattern":"S","legs":"X"},"bonus":1.080000000000001},{"rt":1598.7000000476837,"stimulus":"bees-with-color/bee-A2SF.svg","response":0,"trial_type":"image-button-response","trial_index":91,"time_elapsed":440640,"internal_node_id":"0.0-4.0-0.42","subject_id":"56a7da16c89737000b22953c","study_id":"6197b3f67c2b5cd3b6d9596a","session_id":"619be320921dea782e561a62","condition":"contingent","relevant_dimensions":["antennae","pattern"],"bee_group":{"antennae":"A","wings":"X","pattern":"S","legs":"X"},"action":"harvest","summary":"bad-harvest","bonus":1.080000000000001},{"rt":1101.0999999642372,"stimulus":"\n                    <p><b>Action: <em>harvest</em></b></p>\n                    <p>This is the bee that you just saw.</p>\n                    <img src=\"bees-with-color/bee-A2SF.svg\" width=\"200\">\n                    <p><span class=\"redText\">Bad choice, the bee was angry.</span><br><b>You have been stung!</b><br>Your pay has been decreased by $0.10. Your bonus pay is now $0.54.</p>\n            ","response":0,"trial_type":"html-button-response","trial_index":92,"time_elapsed":441743,"internal_node_id":"0.0-4.0-1.42","subject_id":"56a7da16c89737000b22953c","study_id":"6197b3f67c2b5cd3b6d9596a","session_id":"619be320921dea782e561a62","condition":"contingent","relevant_dimensions":["antennae","pattern"],"bee_group":{"antennae":"A","wings":"X","pattern":"S","legs":"X"},"bonus":1.080000000000001},{"rt":1076.199999988079,"stimulus":"bees-with-color/bee-B2SM.svg","response":1,"trial_type":"image-button-response","trial_index":93,"time_elapsed":442823,"internal_node_id":"0.0-4.0-0.43","subject_id":"56a7da16c89737000b22953c","study_id":"6197b3f67c2b5cd3b6d9596a","session_id":"619be320921dea782e561a62","condition":"contingent","relevant_dimensions":["antennae","pattern"],"bee_group":{"antennae":"A","wings":"X","pattern":"S","legs":"X"},"action":"avoid","summary":"bad-avoid","bonus":1.080000000000001},{"rt":1511.1000000238419,"stimulus":"\n                    <p><b>Action: <em>avoid</em></b></p>\n                    <p>This is the bee that you just saw.</p>\n                    <img src=\"bees-with-color/bee-B2SM.svg\" width=\"200\">\n                    <p><br>Your bonus pay is unchanged, and remains at $0.54.</p>\n            ","response":0,"trial_type":"html-button-response","trial_index":94,"time_elapsed":444336,"internal_node_id":"0.0-4.0-1.43","subject_id":"56a7da16c89737000b22953c","study_id":"6197b3f67c2b5cd3b6d9596a","session_id":"619be320921dea782e561a62","condition":"contingent","relevant_dimensions":["antennae","pattern"],"bee_group":{"antennae":"A","wings":"X","pattern":"S","legs":"X"},"bonus":1.080000000000001},{"rt":1710.199999988079,"stimulus":"bees-with-color/bee-B2DF.svg","response":0,"trial_type":"image-button-response","trial_index":95,"time_elapsed":446047,"internal_node_id":"0.0-4.0-0.44","subject_id":"56a7da16c89737000b22953c","study_id":"6197b3f67c2b5cd3b6d9596a","session_id":"619be320921dea782e561a62","condition":"contingent","relevant_dimensions":["antennae","pattern"],"bee_group":{"antennae":"A","wings":"X","pattern":"S","legs":"X"},"action":"harvest","summary":"good-harvest","bonus":1.080000000000001},{"rt":1301.8999999761581,"stimulus":"\n                    <p><b>Action: <em>harvest</em></b></p>\n                    <p>This is the bee that you just saw.</p>\n                    <img src=\"bees-with-color/bee-B2DF.svg\" width=\"200\">\n                    <p><span class=\"greenText\"><b>Successful harvest!</b></span><br>Your pay has increased by $0.02. Your bonus pay is now $0.56.</p>\n            ","response":0,"trial_type":"html-button-response","trial_index":96,"time_elapsed":447351,"internal_node_id":"0.0-4.0-1.44","subject_id":"56a7da16c89737000b22953c","study_id":"6197b3f67c2b5cd3b6d9596a","session_id":"619be320921dea782e561a62","condition":"contingent","relevant_dimensions":["antennae","pattern"],"bee_group":{"antennae":"A","wings":"X","pattern":"S","legs":"X"},"bonus":1.080000000000001},{"rt":1470.3999999761581,"stimulus":"bees-with-color/bee-A2SM.svg","response":1,"trial_type":"image-button-response","trial_index":97,"time_elapsed":448824,"internal_node_id":"0.0-4.0-0.45","subject_id":"56a7da16c89737000b22953c","study_id":"6197b3f67c2b5cd3b6d9596a","session_id":"619be320921dea782e561a62","condition":"contingent","relevant_dimensions":["antennae","pattern"],"bee_group":{"antennae":"A","wings":"X","pattern":"S","legs":"X"},"action":"avoid","summary":"good-avoid","bonus":1.080000000000001},{"rt":1151,"stimulus":"\n                    <p><b>Action: <em>avoid</em></b></p>\n                    <p>This is the bee that you just saw.</p>\n                    <img src=\"bees-with-color/bee-A2SM.svg\" width=\"200\">\n                    <p><br>Your bonus pay is unchanged, and remains at $0.56.</p>\n            ","response":0,"trial_type":"html-button-response","trial_index":98,"time_elapsed":449976,"internal_node_id":"0.0-4.0-1.45","subject_id":"56a7da16c89737000b22953c","study_id":"6197b3f67c2b5cd3b6d9596a","session_id":"619be320921dea782e561a62","condition":"contingent","relevant_dimensions":["antennae","pattern"],"bee_group":{"antennae":"A","wings":"X","pattern":"S","legs":"X"},"bonus":1.080000000000001},{"rt":1221.1000000238419,"stimulus":"bees-with-color/bee-B1DF.svg","response":0,"trial_type":"image-button-response","trial_index":99,"time_elapsed":451201,"internal_node_id":"0.0-4.0-0.46","subject_id":"56a7da16c89737000b22953c","study_id":"6197b3f67c2b5cd3b6d9596a","session_id":"619be320921dea782e561a62","condition":"contingent","relevant_dimensions":["antennae","pattern"],"bee_group":{"antennae":"A","wings":"X","pattern":"S","legs":"X"},"action":"harvest","summary":"good-harvest","bonus":1.080000000000001},{"rt":1461.699999988079,"stimulus":"\n                    <p><b>Action: <em>harvest</em></b></p>\n                    <p>This is the bee that you just saw.</p>\n                    <img src=\"bees-with-color/bee-B1DF.svg\" width=\"200\">\n                    <p><span class=\"greenText\"><b>Successful harvest!</b></span><br>Your pay has increased by $0.02. Your bonus pay is now $0.58.</p>\n            ","response":0,"trial_type":"html-button-response","trial_index":100,"time_elapsed":452664,"internal_node_id":"0.0-4.0-1.46","subject_id":"56a7da16c89737000b22953c","study_id":"6197b3f67c2b5cd3b6d9596a","session_id":"619be320921dea782e561a62","condition":"contingent","relevant_dimensions":["antennae","pattern"],"bee_group":{"antennae":"A","wings":"X","pattern":"S","legs":"X"},"bonus":1.080000000000001},{"rt":1574.300000011921,"stimulus":"bees-with-color/bee-A1DF.svg","response":0,"trial_type":"image-button-response","trial_index":101,"time_elapsed":454240,"internal_node_id":"0.0-4.0-0.47","subject_id":"56a7da16c89737000b22953c","study_id":"6197b3f67c2b5cd3b6d9596a","session_id":"619be320921dea782e561a62","condition":"contingent","relevant_dimensions":["antennae","pattern"],"bee_group":{"antennae":"A","wings":"X","pattern":"S","legs":"X"},"action":"harvest","summary":"good-harvest","bonus":1.080000000000001},{"rt":838.9000000357628,"stimulus":"\n                    <p><b>Action: <em>harvest</em></b></p>\n                    <p>This is the bee that you just saw.</p>\n                    <img src=\"bees-with-color/bee-A1DF.svg\" width=\"200\">\n                    <p><span class=\"greenText\"><b>Successful harvest!</b></span><br>Your pay has increased by $0.02. Your bonus pay is now $0.60.</p>\n            ","response":0,"trial_type":"html-button-response","trial_index":102,"time_elapsed":455081,"internal_node_id":"0.0-4.0-1.47","subject_id":"56a7da16c89737000b22953c","study_id":"6197b3f67c2b5cd3b6d9596a","session_id":"619be320921dea782e561a62","condition":"contingent","relevant_dimensions":["antennae","pattern"],"bee_group":{"antennae":"A","wings":"X","pattern":"S","legs":"X"},"bonus":1.080000000000001},{"rt":1501.2999999523163,"stimulus":"bees-with-color/bee-B1SF.svg","response":1,"trial_type":"image-button-response","trial_index":103,"time_elapsed":456584,"internal_node_id":"0.0-4.0-0.48","subject_id":"56a7da16c89737000b22953c","study_id":"6197b3f67c2b5cd3b6d9596a","session_id":"619be320921dea782e561a62","condition":"contingent","relevant_dimensions":["antennae","pattern"],"bee_group":{"antennae":"A","wings":"X","pattern":"S","legs":"X"},"action":"avoid","summary":"bad-avoid","bonus":1.080000000000001},{"rt":782.8999999761581,"stimulus":"\n                    <p><b>Action: <em>avoid</em></b></p>\n                    <p>This is the bee that you just saw.</p>\n                    <img src=\"bees-with-color/bee-B1SF.svg\" width=\"200\">\n                    <p><br>Your bonus pay is unchanged, and remains at $0.60.</p>\n            ","response":0,"trial_type":"html-button-response","trial_index":104,"time_elapsed":457369,"internal_node_id":"0.0-4.0-1.48","subject_id":"56a7da16c89737000b22953c","study_id":"6197b3f67c2b5cd3b6d9596a","session_id":"619be320921dea782e561a62","condition":"contingent","relevant_dimensions":["antennae","pattern"],"bee_group":{"antennae":"A","wings":"X","pattern":"S","legs":"X"},"bonus":1.080000000000001},{"rt":1677.8999999761581,"stimulus":"bees-with-color/bee-B1SM.svg","response":1,"trial_type":"image-button-response","trial_index":105,"time_elapsed":459049,"internal_node_id":"0.0-4.0-0.49","subject_id":"56a7da16c89737000b22953c","study_id":"6197b3f67c2b5cd3b6d9596a","session_id":"619be320921dea782e561a62","condition":"contingent","relevant_dimensions":["antennae","pattern"],"bee_group":{"antennae":"A","wings":"X","pattern":"S","legs":"X"},"action":"avoid","summary":"bad-avoid","bonus":1.080000000000001},{"rt":774.1999999880791,"stimulus":"\n                    <p><b>Action: <em>avoid</em></b></p>\n                    <p>This is the bee that you just saw.</p>\n                    <img src=\"bees-with-color/bee-B1SM.svg\" width=\"200\">\n                    <p><br>Your bonus pay is unchanged, and remains at $0.60.</p>\n            ","response":0,"trial_type":"html-button-response","trial_index":106,"time_elapsed":459826,"internal_node_id":"0.0-4.0-1.49","subject_id":"56a7da16c89737000b22953c","study_id":"6197b3f67c2b5cd3b6d9596a","session_id":"619be320921dea782e561a62","condition":"contingent","relevant_dimensions":["antennae","pattern"],"bee_group":{"antennae":"A","wings":"X","pattern":"S","legs":"X"},"bonus":1.080000000000001},{"rt":1637.5,"stimulus":"bees-with-color/bee-A2SF.svg","response":1,"trial_type":"image-button-response","trial_index":107,"time_elapsed":461465,"internal_node_id":"0.0-4.0-0.50","subject_id":"56a7da16c89737000b22953c","study_id":"6197b3f67c2b5cd3b6d9596a","session_id":"619be320921dea782e561a62","condition":"contingent","relevant_dimensions":["antennae","pattern"],"bee_group":{"antennae":"A","wings":"X","pattern":"S","legs":"X"},"action":"avoid","summary":"good-avoid","bonus":1.080000000000001},{"rt":685.6999999880791,"stimulus":"\n                    <p><b>Action: <em>avoid</em></b></p>\n                    <p>This is the bee that you just saw.</p>\n                    <img src=\"bees-with-color/bee-A2SF.svg\" width=\"200\">\n                    <p><br>Your bonus pay is unchanged, and remains at $0.60.</p>\n            ","response":0,"trial_type":"html-button-response","trial_index":108,"time_elapsed":462153,"internal_node_id":"0.0-4.0-1.50","subject_id":"56a7da16c89737000b22953c","study_id":"6197b3f67c2b5cd3b6d9596a","session_id":"619be320921dea782e561a62","condition":"contingent","relevant_dimensions":["antennae","pattern"],"bee_group":{"antennae":"A","wings":"X","pattern":"S","legs":"X"},"bonus":1.080000000000001},{"rt":1135.199999988079,"stimulus":"bees-with-color/bee-B1DF.svg","response":0,"trial_type":"image-button-response","trial_index":109,"time_elapsed":463291,"internal_node_id":"0.0-4.0-0.51","subject_id":"56a7da16c89737000b22953c","study_id":"6197b3f67c2b5cd3b6d9596a","session_id":"619be320921dea782e561a62","condition":"contingent","relevant_dimensions":["antennae","pattern"],"bee_group":{"antennae":"A","wings":"X","pattern":"S","legs":"X"},"action":"harvest","summary":"good-harvest","bonus":1.080000000000001},{"rt":781.5,"stimulus":"\n                    <p><b>Action: <em>harvest</em></b></p>\n                    <p>This is the bee that you just saw.</p>\n                    <img src=\"bees-with-color/bee-B1DF.svg\" width=\"200\">\n                    <p><span class=\"greenText\"><b>Successful harvest!</b></span><br>Your pay has increased by $0.02. Your bonus pay is now $0.62.</p>\n            ","response":0,"trial_type":"html-button-response","trial_index":110,"time_elapsed":464074,"internal_node_id":"0.0-4.0-1.51","subject_id":"56a7da16c89737000b22953c","study_id":"6197b3f67c2b5cd3b6d9596a","session_id":"619be320921dea782e561a62","condition":"contingent","relevant_dimensions":["antennae","pattern"],"bee_group":{"antennae":"A","wings":"X","pattern":"S","legs":"X"},"bonus":1.080000000000001},{"rt":1390.2999999523163,"stimulus":"bees-with-color/bee-B2SM.svg","response":1,"trial_type":"image-button-response","trial_index":111,"time_elapsed":465466,"internal_node_id":"0.0-4.0-0.52","subject_id":"56a7da16c89737000b22953c","study_id":"6197b3f67c2b5cd3b6d9596a","session_id":"619be320921dea782e561a62","condition":"contingent","relevant_dimensions":["antennae","pattern"],"bee_group":{"antennae":"A","wings":"X","pattern":"S","legs":"X"},"action":"avoid","summary":"bad-avoid","bonus":1.080000000000001},{"rt":733.1000000238419,"stimulus":"\n                    <p><b>Action: <em>avoid</em></b></p>\n                    <p>This is the bee that you just saw.</p>\n                    <img src=\"bees-with-color/bee-B2SM.svg\" width=\"200\">\n                    <p><br>Your bonus pay is unchanged, and remains at $0.62.</p>\n            ","response":0,"trial_type":"html-button-response","trial_index":112,"time_elapsed":466201,"internal_node_id":"0.0-4.0-1.52","subject_id":"56a7da16c89737000b22953c","study_id":"6197b3f67c2b5cd3b6d9596a","session_id":"619be320921dea782e561a62","condition":"contingent","relevant_dimensions":["antennae","pattern"],"bee_group":{"antennae":"A","wings":"X","pattern":"S","legs":"X"},"bonus":1.080000000000001},{"rt":1111.7999999523163,"stimulus":"bees-with-color/bee-A1DF.svg","response":0,"trial_type":"image-button-response","trial_index":113,"time_elapsed":467314,"internal_node_id":"0.0-4.0-0.53","subject_id":"56a7da16c89737000b22953c","study_id":"6197b3f67c2b5cd3b6d9596a","session_id":"619be320921dea782e561a62","condition":"contingent","relevant_dimensions":["antennae","pattern"],"bee_group":{"antennae":"A","wings":"X","pattern":"S","legs":"X"},"action":"harvest","summary":"good-harvest","bonus":1.080000000000001},{"rt":822.3000000119209,"stimulus":"\n                    <p><b>Action: <em>harvest</em></b></p>\n                    <p>This is the bee that you just saw.</p>\n                    <img src=\"bees-with-color/bee-A1DF.svg\" width=\"200\">\n                    <p><span class=\"greenText\"><b>Successful harvest!</b></span><br>Your pay has increased by $0.02. Your bonus pay is now $0.64.</p>\n            ","response":0,"trial_type":"html-button-response","trial_index":114,"time_elapsed":468138,"internal_node_id":"0.0-4.0-1.53","subject_id":"56a7da16c89737000b22953c","study_id":"6197b3f67c2b5cd3b6d9596a","session_id":"619be320921dea782e561a62","condition":"contingent","relevant_dimensions":["antennae","pattern"],"bee_group":{"antennae":"A","wings":"X","pattern":"S","legs":"X"},"bonus":1.080000000000001},{"rt":1046.300000011921,"stimulus":"bees-with-color/bee-B2DM.svg","response":0,"trial_type":"image-button-response","trial_index":115,"time_elapsed":469186,"internal_node_id":"0.0-4.0-0.54","subject_id":"56a7da16c89737000b22953c","study_id":"6197b3f67c2b5cd3b6d9596a","session_id":"619be320921dea782e561a62","condition":"contingent","relevant_dimensions":["antennae","pattern"],"bee_group":{"antennae":"A","wings":"X","pattern":"S","legs":"X"},"action":"harvest","summary":"good-harvest","bonus":1.080000000000001},{"rt":822.3999999761581,"stimulus":"\n                    <p><b>Action: <em>harvest</em></b></p>\n                    <p>This is the bee that you just saw.</p>\n                    <img src=\"bees-with-color/bee-B2DM.svg\" width=\"200\">\n                    <p><span class=\"greenText\"><b>Successful harvest!</b></span><br>Your pay has increased by $0.02. Your bonus pay is now $0.66.</p>\n            ","response":0,"trial_type":"html-button-response","trial_index":116,"time_elapsed":470010,"internal_node_id":"0.0-4.0-1.54","subject_id":"56a7da16c89737000b22953c","study_id":"6197b3f67c2b5cd3b6d9596a","session_id":"619be320921dea782e561a62","condition":"contingent","relevant_dimensions":["antennae","pattern"],"bee_group":{"antennae":"A","wings":"X","pattern":"S","legs":"X"},"bonus":1.080000000000001},{"rt":1038.5,"stimulus":"bees-with-color/bee-A2SM.svg","response":1,"trial_type":"image-button-response","trial_index":117,"time_elapsed":471050,"internal_node_id":"0.0-4.0-0.55","subject_id":"56a7da16c89737000b22953c","study_id":"6197b3f67c2b5cd3b6d9596a","session_id":"619be320921dea782e561a62","condition":"contingent","relevant_dimensions":["antennae","pattern"],"bee_group":{"antennae":"A","wings":"X","pattern":"S","legs":"X"},"action":"avoid","summary":"good-avoid","bonus":1.080000000000001},{"rt":839.4000000357628,"stimulus":"\n                    <p><b>Action: <em>avoid</em></b></p>\n                    <p>This is the bee that you just saw.</p>\n                    <img src=\"bees-with-color/bee-A2SM.svg\" width=\"200\">\n                    <p><br>Your bonus pay is unchanged, and remains at $0.66.</p>\n            ","response":0,"trial_type":"html-button-response","trial_index":118,"time_elapsed":471891,"internal_node_id":"0.0-4.0-1.55","subject_id":"56a7da16c89737000b22953c","study_id":"6197b3f67c2b5cd3b6d9596a","session_id":"619be320921dea782e561a62","condition":"contingent","relevant_dimensions":["antennae","pattern"],"bee_group":{"antennae":"A","wings":"X","pattern":"S","legs":"X"},"bonus":1.080000000000001},{"rt":1110.3999999761581,"stimulus":"bees-with-color/bee-A1DM.svg","response":0,"trial_type":"image-button-response","trial_index":119,"time_elapsed":473003,"internal_node_id":"0.0-4.0-0.56","subject_id":"56a7da16c89737000b22953c","study_id":"6197b3f67c2b5cd3b6d9596a","session_id":"619be320921dea782e561a62","condition":"contingent","relevant_dimensions":["antennae","pattern"],"bee_group":{"antennae":"A","wings":"X","pattern":"S","legs":"X"},"action":"harvest","summary":"good-harvest","bonus":1.080000000000001},{"rt":758.4000000357628,"stimulus":"\n                    <p><b>Action: <em>harvest</em></b></p>\n                    <p>This is the bee that you just saw.</p>\n                    <img src=\"bees-with-color/bee-A1DM.svg\" width=\"200\">\n                    <p><span class=\"greenText\"><b>Successful harvest!</b></span><br>Your pay has increased by $0.02. Your bonus pay is now $0.68.</p>\n            ","response":0,"trial_type":"html-button-response","trial_index":120,"time_elapsed":473763,"internal_node_id":"0.0-4.0-1.56","subject_id":"56a7da16c89737000b22953c","study_id":"6197b3f67c2b5cd3b6d9596a","session_id":"619be320921dea782e561a62","condition":"contingent","relevant_dimensions":["antennae","pattern"],"bee_group":{"antennae":"A","wings":"X","pattern":"S","legs":"X"},"bonus":1.080000000000001},{"rt":1222.300000011921,"stimulus":"bees-with-color/bee-B1DM.svg","response":0,"trial_type":"image-button-response","trial_index":121,"time_elapsed":474987,"internal_node_id":"0.0-4.0-0.57","subject_id":"56a7da16c89737000b22953c","study_id":"6197b3f67c2b5cd3b6d9596a","session_id":"619be320921dea782e561a62","condition":"contingent","relevant_dimensions":["antennae","pattern"],"bee_group":{"antennae":"A","wings":"X","pattern":"S","legs":"X"},"action":"harvest","summary":"good-harvest","bonus":1.080000000000001},{"rt":894.0999999642372,"stimulus":"\n                    <p><b>Action: <em>harvest</em></b></p>\n                    <p>This is the bee that you just saw.</p>\n                    <img src=\"bees-with-color/bee-B1DM.svg\" width=\"200\">\n                    <p><span class=\"greenText\"><b>Successful harvest!</b></span><br>Your pay has increased by $0.02. Your bonus pay is now $0.70.</p>\n            ","response":0,"trial_type":"html-button-response","trial_index":122,"time_elapsed":475883,"internal_node_id":"0.0-4.0-1.57","subject_id":"56a7da16c89737000b22953c","study_id":"6197b3f67c2b5cd3b6d9596a","session_id":"619be320921dea782e561a62","condition":"contingent","relevant_dimensions":["antennae","pattern"],"bee_group":{"antennae":"A","wings":"X","pattern":"S","legs":"X"},"bonus":1.080000000000001},{"rt":1511.5,"stimulus":"bees-with-color/bee-A1SM.svg","response":1,"trial_type":"image-button-response","trial_index":123,"time_elapsed":477396,"internal_node_id":"0.0-4.0-0.58","subject_id":"56a7da16c89737000b22953c","study_id":"6197b3f67c2b5cd3b6d9596a","session_id":"619be320921dea782e561a62","condition":"contingent","relevant_dimensions":["antennae","pattern"],"bee_group":{"antennae":"A","wings":"X","pattern":"S","legs":"X"},"action":"avoid","summary":"good-avoid","bonus":1.080000000000001},{"rt":613.8000000119209,"stimulus":"\n                    <p><b>Action: <em>avoid</em></b></p>\n                    <p>This is the bee that you just saw.</p>\n                    <img src=\"bees-with-color/bee-A1SM.svg\" width=\"200\">\n                    <p><br>Your bonus pay is unchanged, and remains at $0.70.</p>\n            ","response":0,"trial_type":"html-button-response","trial_index":124,"time_elapsed":478012,"internal_node_id":"0.0-4.0-1.58","subject_id":"56a7da16c89737000b22953c","study_id":"6197b3f67c2b5cd3b6d9596a","session_id":"619be320921dea782e561a62","condition":"contingent","relevant_dimensions":["antennae","pattern"],"bee_group":{"antennae":"A","wings":"X","pattern":"S","legs":"X"},"bonus":1.080000000000001},{"rt":1174.5,"stimulus":"bees-with-color/bee-A1SF.svg","response":1,"trial_type":"image-button-response","trial_index":125,"time_elapsed":479188,"internal_node_id":"0.0-4.0-0.59","subject_id":"56a7da16c89737000b22953c","study_id":"6197b3f67c2b5cd3b6d9596a","session_id":"619be320921dea782e561a62","condition":"contingent","relevant_dimensions":["antennae","pattern"],"bee_group":{"antennae":"A","wings":"X","pattern":"S","legs":"X"},"action":"avoid","summary":"good-avoid","bonus":1.080000000000001},{"rt":854.0999999642372,"stimulus":"\n                    <p><b>Action: <em>avoid</em></b></p>\n                    <p>This is the bee that you just saw.</p>\n                    <img src=\"bees-with-color/bee-A1SF.svg\" width=\"200\">\n                    <p><br>Your bonus pay is unchanged, and remains at $0.70.</p>\n            ","response":0,"trial_type":"html-button-response","trial_index":126,"time_elapsed":480044,"internal_node_id":"0.0-4.0-1.59","subject_id":"56a7da16c89737000b22953c","study_id":"6197b3f67c2b5cd3b6d9596a","session_id":"619be320921dea782e561a62","condition":"contingent","relevant_dimensions":["antennae","pattern"],"bee_group":{"antennae":"A","wings":"X","pattern":"S","legs":"X"},"bonus":1.080000000000001},{"rt":1174,"stimulus":"bees-with-color/bee-B2DF.svg","response":0,"trial_type":"image-button-response","trial_index":127,"time_elapsed":481220,"internal_node_id":"0.0-4.0-0.60","subject_id":"56a7da16c89737000b22953c","study_id":"6197b3f67c2b5cd3b6d9596a","session_id":"619be320921dea782e561a62","condition":"contingent","relevant_dimensions":["antennae","pattern"],"bee_group":{"antennae":"A","wings":"X","pattern":"S","legs":"X"},"action":"harvest","summary":"good-harvest","bonus":1.080000000000001},{"rt":806.3000000119209,"stimulus":"\n                    <p><b>Action: <em>harvest</em></b></p>\n                    <p>This is the bee that you just saw.</p>\n                    <img src=\"bees-with-color/bee-B2DF.svg\" width=\"200\">\n                    <p><span class=\"greenText\"><b>Successful harvest!</b></span><br>Your pay has increased by $0.02. Your bonus pay is now $0.72.</p>\n            ","response":0,"trial_type":"html-button-response","trial_index":128,"time_elapsed":482028,"internal_node_id":"0.0-4.0-1.60","subject_id":"56a7da16c89737000b22953c","study_id":"6197b3f67c2b5cd3b6d9596a","session_id":"619be320921dea782e561a62","condition":"contingent","relevant_dimensions":["antennae","pattern"],"bee_group":{"antennae":"A","wings":"X","pattern":"S","legs":"X"},"bonus":1.080000000000001},{"rt":1198.800000011921,"stimulus":"bees-with-color/bee-A2DM.svg","response":0,"trial_type":"image-button-response","trial_index":129,"time_elapsed":483229,"internal_node_id":"0.0-4.0-0.61","subject_id":"56a7da16c89737000b22953c","study_id":"6197b3f67c2b5cd3b6d9596a","session_id":"619be320921dea782e561a62","condition":"contingent","relevant_dimensions":["antennae","pattern"],"bee_group":{"antennae":"A","wings":"X","pattern":"S","legs":"X"},"action":"harvest","summary":"good-harvest","bonus":1.080000000000001},{"rt":829.3999999761581,"stimulus":"\n                    <p><b>Action: <em>harvest</em></b></p>\n                    <p>This is the bee that you just saw.</p>\n                    <img src=\"bees-with-color/bee-A2DM.svg\" width=\"200\">\n                    <p><span class=\"greenText\"><b>Successful harvest!</b></span><br>Your pay has increased by $0.02. Your bonus pay is now $0.74.</p>\n            ","response":0,"trial_type":"html-button-response","trial_index":130,"time_elapsed":484060,"internal_node_id":"0.0-4.0-1.61","subject_id":"56a7da16c89737000b22953c","study_id":"6197b3f67c2b5cd3b6d9596a","session_id":"619be320921dea782e561a62","condition":"contingent","relevant_dimensions":["antennae","pattern"],"bee_group":{"antennae":"A","wings":"X","pattern":"S","legs":"X"},"bonus":1.080000000000001},{"rt":966.5,"stimulus":"bees-with-color/bee-A2DF.svg","response":0,"trial_type":"image-button-response","trial_index":131,"time_elapsed":485028,"internal_node_id":"0.0-4.0-0.62","subject_id":"56a7da16c89737000b22953c","study_id":"6197b3f67c2b5cd3b6d9596a","session_id":"619be320921dea782e561a62","condition":"contingent","relevant_dimensions":["antennae","pattern"],"bee_group":{"antennae":"A","wings":"X","pattern":"S","legs":"X"},"action":"harvest","summary":"good-harvest","bonus":1.080000000000001},{"rt":934.1000000238419,"stimulus":"\n                    <p><b>Action: <em>harvest</em></b></p>\n                    <p>This is the bee that you just saw.</p>\n                    <img src=\"bees-with-color/bee-A2DF.svg\" width=\"200\">\n                    <p><span class=\"greenText\"><b>Successful harvest!</b></span><br>Your pay has increased by $0.02. Your bonus pay is now $0.76.</p>\n            ","response":0,"trial_type":"html-button-response","trial_index":132,"time_elapsed":485964,"internal_node_id":"0.0-4.0-1.62","subject_id":"56a7da16c89737000b22953c","study_id":"6197b3f67c2b5cd3b6d9596a","session_id":"619be320921dea782e561a62","condition":"contingent","relevant_dimensions":["antennae","pattern"],"bee_group":{"antennae":"A","wings":"X","pattern":"S","legs":"X"},"bonus":1.080000000000001},{"rt":1062.4000000357628,"stimulus":"bees-with-color/bee-B2SF.svg","response":1,"trial_type":"image-button-response","trial_index":133,"time_elapsed":487029,"internal_node_id":"0.0-4.0-0.63","subject_id":"56a7da16c89737000b22953c","study_id":"6197b3f67c2b5cd3b6d9596a","session_id":"619be320921dea782e561a62","condition":"contingent","relevant_dimensions":["antennae","pattern"],"bee_group":{"antennae":"A","wings":"X","pattern":"S","legs":"X"},"action":"avoid","summary":"bad-avoid","bonus":1.080000000000001},{"rt":727,"stimulus":"\n                    <p><b>Action: <em>avoid</em></b></p>\n                    <p>This is the bee that you just saw.</p>\n                    <img src=\"bees-with-color/bee-B2SF.svg\" width=\"200\">\n                    <p><br>Your bonus pay is unchanged, and remains at $0.76.</p>\n            ","response":0,"trial_type":"html-button-response","trial_index":134,"time_elapsed":487757,"internal_node_id":"0.0-4.0-1.63","subject_id":"56a7da16c89737000b22953c","study_id":"6197b3f67c2b5cd3b6d9596a","session_id":"619be320921dea782e561a62","condition":"contingent","relevant_dimensions":["antennae","pattern"],"bee_group":{"antennae":"A","wings":"X","pattern":"S","legs":"X"},"bonus":1.080000000000001},{"rt":5856.100000023842,"stimulus":"You have completed the first part of this experiment.<br><br>You will now begin a shorter second part, in which you will receive no feedback.<br>The same rules regarding bonus pay apply.<br><br>Press any key to begin.","response":"d","trial_type":"html-keyboard-response","trial_index":135,"time_elapsed":493616,"internal_node_id":"0.0-5.0","subject_id":"56a7da16c89737000b22953c","study_id":"6197b3f67c2b5cd3b6d9596a","session_id":"619be320921dea782e561a62","condition":"contingent","relevant_dimensions":["antennae","pattern"],"bee_group":{"antennae":"A","wings":"X","pattern":"S","legs":"X"},"bonus":1.080000000000001},{"rt":2143.399999976158,"stimulus":"bees-with-color/bee-B1SM.svg","response":1,"trial_type":"image-button-response","trial_index":136,"time_elapsed":495782,"internal_node_id":"0.0-6.0-0.0","subject_id":"56a7da16c89737000b22953c","study_id":"6197b3f67c2b5cd3b6d9596a","session_id":"619be320921dea782e561a62","condition":"contingent","relevant_dimensions":["antennae","pattern"],"bee_group":{"antennae":"A","wings":"X","pattern":"S","legs":"X"},"bonus":1.080000000000001},{"rt":1053,"stimulus":"bees-with-color/bee-B1DF.svg","response":0,"trial_type":"image-button-response","trial_index":137,"time_elapsed":496838,"internal_node_id":"0.0-6.0-0.1","subject_id":"56a7da16c89737000b22953c","study_id":"6197b3f67c2b5cd3b6d9596a","session_id":"619be320921dea782e561a62","condition":"contingent","relevant_dimensions":["antennae","pattern"],"bee_group":{"antennae":"A","wings":"X","pattern":"S","legs":"X"},"bonus":1.080000000000001},{"rt":998.2000000476837,"stimulus":"bees-with-color/bee-B2SF.svg","response":1,"trial_type":"image-button-response","trial_index":138,"time_elapsed":497839,"internal_node_id":"0.0-6.0-0.2","subject_id":"56a7da16c89737000b22953c","study_id":"6197b3f67c2b5cd3b6d9596a","session_id":"619be320921dea782e561a62","condition":"contingent","relevant_dimensions":["antennae","pattern"],"bee_group":{"antennae":"A","wings":"X","pattern":"S","legs":"X"},"bonus":1.080000000000001},{"rt":1428.800000011921,"stimulus":"bees-with-color/bee-A1SM.svg","response":1,"trial_type":"image-button-response","trial_index":139,"time_elapsed":499271,"internal_node_id":"0.0-6.0-0.3","subject_id":"56a7da16c89737000b22953c","study_id":"6197b3f67c2b5cd3b6d9596a","session_id":"619be320921dea782e561a62","condition":"contingent","relevant_dimensions":["antennae","pattern"],"bee_group":{"antennae":"A","wings":"X","pattern":"S","legs":"X"},"bonus":1.080000000000001},{"rt":1044.8999999761581,"stimulus":"bees-with-color/bee-A1SF.svg","response":1,"trial_type":"image-button-response","trial_index":140,"time_elapsed":500318,"internal_node_id":"0.0-6.0-0.4","subject_id":"56a7da16c89737000b22953c","study_id":"6197b3f67c2b5cd3b6d9596a","session_id":"619be320921dea782e561a62","condition":"contingent","relevant_dimensions":["antennae","pattern"],"bee_group":{"antennae":"A","wings":"X","pattern":"S","legs":"X"},"bonus":1.080000000000001},{"rt":933.1000000238419,"stimulus":"bees-with-color/bee-B2DM.svg","response":0,"trial_type":"image-button-response","trial_index":141,"time_elapsed":501254,"internal_node_id":"0.0-6.0-0.5","subject_id":"56a7da16c89737000b22953c","study_id":"6197b3f67c2b5cd3b6d9596a","session_id":"619be320921dea782e561a62","condition":"contingent","relevant_dimensions":["antennae","pattern"],"bee_group":{"antennae":"A","wings":"X","pattern":"S","legs":"X"},"bonus":1.080000000000001},{"rt":645.8000000119209,"stimulus":"bees-with-color/bee-B2DF.svg","response":0,"trial_type":"image-button-response","trial_index":142,"time_elapsed":501904,"internal_node_id":"0.0-6.0-0.6","subject_id":"56a7da16c89737000b22953c","study_id":"6197b3f67c2b5cd3b6d9596a","session_id":"619be320921dea782e561a62","condition":"contingent","relevant_dimensions":["antennae","pattern"],"bee_group":{"antennae":"A","wings":"X","pattern":"S","legs":"X"},"bonus":1.080000000000001},{"rt":660.8999999761581,"stimulus":"bees-with-color/bee-A2DM.svg","response":0,"trial_type":"image-button-response","trial_index":143,"time_elapsed":502567,"internal_node_id":"0.0-6.0-0.7","subject_id":"56a7da16c89737000b22953c","study_id":"6197b3f67c2b5cd3b6d9596a","session_id":"619be320921dea782e561a62","condition":"contingent","relevant_dimensions":["antennae","pattern"],"bee_group":{"antennae":"A","wings":"X","pattern":"S","legs":"X"},"bonus":1.080000000000001},{"rt":997,"stimulus":"bees-with-color/bee-A2SM.svg","response":1,"trial_type":"image-button-response","trial_index":144,"time_elapsed":503567,"internal_node_id":"0.0-6.0-0.8","subject_id":"56a7da16c89737000b22953c","study_id":"6197b3f67c2b5cd3b6d9596a","session_id":"619be320921dea782e561a62","condition":"contingent","relevant_dimensions":["antennae","pattern"],"bee_group":{"antennae":"A","wings":"X","pattern":"S","legs":"X"},"bonus":1.080000000000001},{"rt":939.6000000238419,"stimulus":"bees-with-color/bee-A1DF.svg","response":0,"trial_type":"image-button-response","trial_index":145,"time_elapsed":504510,"internal_node_id":"0.0-6.0-0.9","subject_id":"56a7da16c89737000b22953c","study_id":"6197b3f67c2b5cd3b6d9596a","session_id":"619be320921dea782e561a62","condition":"contingent","relevant_dimensions":["antennae","pattern"],"bee_group":{"antennae":"A","wings":"X","pattern":"S","legs":"X"},"bonus":1.080000000000001},{"rt":846.5,"stimulus":"bees-with-color/bee-B1DM.svg","response":0,"trial_type":"image-button-response","trial_index":146,"time_elapsed":505359,"internal_node_id":"0.0-6.0-0.10","subject_id":"56a7da16c89737000b22953c","study_id":"6197b3f67c2b5cd3b6d9596a","session_id":"619be320921dea782e561a62","condition":"contingent","relevant_dimensions":["antennae","pattern"],"bee_group":{"antennae":"A","wings":"X","pattern":"S","legs":"X"},"bonus":1.080000000000001},{"rt":1021.2999999523163,"stimulus":"bees-with-color/bee-B1SF.svg","response":1,"trial_type":"image-button-response","trial_index":147,"time_elapsed":506383,"internal_node_id":"0.0-6.0-0.11","subject_id":"56a7da16c89737000b22953c","study_id":"6197b3f67c2b5cd3b6d9596a","session_id":"619be320921dea782e561a62","condition":"contingent","relevant_dimensions":["antennae","pattern"],"bee_group":{"antennae":"A","wings":"X","pattern":"S","legs":"X"},"bonus":1.080000000000001},{"rt":1557.5,"stimulus":"bees-with-color/bee-B2SM.svg","response":1,"trial_type":"image-button-response","trial_index":148,"time_elapsed":507943,"internal_node_id":"0.0-6.0-0.12","subject_id":"56a7da16c89737000b22953c","study_id":"6197b3f67c2b5cd3b6d9596a","session_id":"619be320921dea782e561a62","condition":"contingent","relevant_dimensions":["antennae","pattern"],"bee_group":{"antennae":"A","wings":"X","pattern":"S","legs":"X"},"bonus":1.080000000000001},{"rt":741.5999999642372,"stimulus":"bees-with-color/bee-A2SF.svg","response":1,"trial_type":"image-button-response","trial_index":149,"time_elapsed":508687,"internal_node_id":"0.0-6.0-0.13","subject_id":"56a7da16c89737000b22953c","study_id":"6197b3f67c2b5cd3b6d9596a","session_id":"619be320921dea782e561a62","condition":"contingent","relevant_dimensions":["antennae","pattern"],"bee_group":{"antennae":"A","wings":"X","pattern":"S","legs":"X"},"bonus":1.080000000000001},{"rt":1101.3999999761581,"stimulus":"bees-with-color/bee-A2DF.svg","response":0,"trial_type":"image-button-response","trial_index":150,"time_elapsed":509791,"internal_node_id":"0.0-6.0-0.14","subject_id":"56a7da16c89737000b22953c","study_id":"6197b3f67c2b5cd3b6d9596a","session_id":"619be320921dea782e561a62","condition":"contingent","relevant_dimensions":["antennae","pattern"],"bee_group":{"antennae":"A","wings":"X","pattern":"S","legs":"X"},"bonus":1.080000000000001},{"rt":701.5,"stimulus":"bees-with-color/bee-A1DM.svg","response":0,"trial_type":"image-button-response","trial_index":151,"time_elapsed":510495,"internal_node_id":"0.0-6.0-0.15","subject_id":"56a7da16c89737000b22953c","study_id":"6197b3f67c2b5cd3b6d9596a","session_id":"619be320921dea782e561a62","condition":"contingent","relevant_dimensions":["antennae","pattern"],"bee_group":{"antennae":"A","wings":"X","pattern":"S","legs":"X"},"bonus":1.080000000000001},{"rt":934.1000000238419,"stimulus":"bees-with-color/bee-A2SF.svg","response":1,"trial_type":"image-button-response","trial_index":152,"time_elapsed":511431,"internal_node_id":"0.0-6.0-0.16","subject_id":"56a7da16c89737000b22953c","study_id":"6197b3f67c2b5cd3b6d9596a","session_id":"619be320921dea782e561a62","condition":"contingent","relevant_dimensions":["antennae","pattern"],"bee_group":{"antennae":"A","wings":"X","pattern":"S","legs":"X"},"bonus":1.080000000000001},{"rt":791,"stimulus":"bees-with-color/bee-B1SF.svg","response":1,"trial_type":"image-button-response","trial_index":153,"time_elapsed":512224,"internal_node_id":"0.0-6.0-0.17","subject_id":"56a7da16c89737000b22953c","study_id":"6197b3f67c2b5cd3b6d9596a","session_id":"619be320921dea782e561a62","condition":"contingent","relevant_dimensions":["antennae","pattern"],"bee_group":{"antennae":"A","wings":"X","pattern":"S","legs":"X"},"bonus":1.080000000000001},{"rt":958,"stimulus":"bees-with-color/bee-A1DM.svg","response":0,"trial_type":"image-button-response","trial_index":154,"time_elapsed":513184,"internal_node_id":"0.0-6.0-0.18","subject_id":"56a7da16c89737000b22953c","study_id":"6197b3f67c2b5cd3b6d9596a","session_id":"619be320921dea782e561a62","condition":"contingent","relevant_dimensions":["antennae","pattern"],"bee_group":{"antennae":"A","wings":"X","pattern":"S","legs":"X"},"bonus":1.080000000000001},{"rt":765.5999999642372,"stimulus":"bees-with-color/bee-B1DM.svg","response":0,"trial_type":"image-button-response","trial_index":155,"time_elapsed":513952,"internal_node_id":"0.0-6.0-0.19","subject_id":"56a7da16c89737000b22953c","study_id":"6197b3f67c2b5cd3b6d9596a","session_id":"619be320921dea782e561a62","condition":"contingent","relevant_dimensions":["antennae","pattern"],"bee_group":{"antennae":"A","wings":"X","pattern":"S","legs":"X"},"bonus":1.080000000000001},{"rt":1045.9000000357628,"stimulus":"bees-with-color/bee-B2SF.svg","response":1,"trial_type":"image-button-response","trial_index":156,"time_elapsed":515000,"internal_node_id":"0.0-6.0-0.20","subject_id":"56a7da16c89737000b22953c","study_id":"6197b3f67c2b5cd3b6d9596a","session_id":"619be320921dea782e561a62","condition":"contingent","relevant_dimensions":["antennae","pattern"],"bee_group":{"antennae":"A","wings":"X","pattern":"S","legs":"X"},"bonus":1.080000000000001},{"rt":1053.699999988079,"stimulus":"bees-with-color/bee-A2DM.svg","response":0,"trial_type":"image-button-response","trial_index":157,"time_elapsed":516056,"internal_node_id":"0.0-6.0-0.21","subject_id":"56a7da16c89737000b22953c","study_id":"6197b3f67c2b5cd3b6d9596a","session_id":"619be320921dea782e561a62","condition":"contingent","relevant_dimensions":["antennae","pattern"],"bee_group":{"antennae":"A","wings":"X","pattern":"S","legs":"X"},"bonus":1.080000000000001},{"rt":717.8000000119209,"stimulus":"bees-with-color/bee-A2DF.svg","response":0,"trial_type":"image-button-response","trial_index":158,"time_elapsed":516776,"internal_node_id":"0.0-6.0-0.22","subject_id":"56a7da16c89737000b22953c","study_id":"6197b3f67c2b5cd3b6d9596a","session_id":"619be320921dea782e561a62","condition":"contingent","relevant_dimensions":["antennae","pattern"],"bee_group":{"antennae":"A","wings":"X","pattern":"S","legs":"X"},"bonus":1.080000000000001},{"rt":1111,"stimulus":"bees-with-color/bee-A2SM.svg","response":1,"trial_type":"image-button-response","trial_index":159,"time_elapsed":517889,"internal_node_id":"0.0-6.0-0.23","subject_id":"56a7da16c89737000b22953c","study_id":"6197b3f67c2b5cd3b6d9596a","session_id":"619be320921dea782e561a62","condition":"contingent","relevant_dimensions":["antennae","pattern"],"bee_group":{"antennae":"A","wings":"X","pattern":"S","legs":"X"},"bonus":1.080000000000001},{"rt":1197.8999999761581,"stimulus":"bees-with-color/bee-B2SM.svg","response":1,"trial_type":"image-button-response","trial_index":160,"time_elapsed":519089,"internal_node_id":"0.0-6.0-0.24","subject_id":"56a7da16c89737000b22953c","study_id":"6197b3f67c2b5cd3b6d9596a","session_id":"619be320921dea782e561a62","condition":"contingent","relevant_dimensions":["antennae","pattern"],"bee_group":{"antennae":"A","wings":"X","pattern":"S","legs":"X"},"bonus":1.080000000000001},{"rt":652.8000000119209,"stimulus":"bees-with-color/bee-A1SM.svg","response":1,"trial_type":"image-button-response","trial_index":161,"time_elapsed":519744,"internal_node_id":"0.0-6.0-0.25","subject_id":"56a7da16c89737000b22953c","study_id":"6197b3f67c2b5cd3b6d9596a","session_id":"619be320921dea782e561a62","condition":"contingent","relevant_dimensions":["antennae","pattern"],"bee_group":{"antennae":"A","wings":"X","pattern":"S","legs":"X"},"bonus":1.080000000000001},{"rt":701.3000000119209,"stimulus":"bees-with-color/bee-A1SF.svg","response":1,"trial_type":"image-button-response","trial_index":162,"time_elapsed