[{"success":true,"trial_type":"fullscreen","trial_index":0,"time_elapsed":3882,"internal_node_id":"0.0-0.0","subject_id":"60cce334ff73d2d13370a6e4","study_id":"6197b3f67c2b5cd3b6d9596a","session_id":"6197b58bf64b32a151fc49ea","condition":"contingent","relevant_dimensions":["pattern","legs"],"bee_group":{"antennae":"X","wings":"X","pattern":"S","legs":"M"},"bonus":0.08},{"success":true,"timeout":false,"failed_images":[],"failed_audio":[],"failed_video":[],"trial_type":"preload","trial_index":1,"time_elapsed":9863,"internal_node_id":"0.0-1.0","subject_id":"60cce334ff73d2d13370a6e4","study_id":"6197b3f67c2b5cd3b6d9596a","session_id":"6197b58bf64b32a151fc49ea","condition":"contingent","relevant_dimensions":["pattern","legs"],"bee_group":{"antennae":"X","wings":"X","pattern":"S","legs":"M"},"bonus":0.08},{"rt":2866.899999999907,"stimulus":"Welcome! Press any key to begin.","response":"f","trial_type":"html-keyboard-response","trial_index":2,"time_elapsed":12732,"internal_node_id":"0.0-2.0","subject_id":"60cce334ff73d2d13370a6e4","study_id":"6197b3f67c2b5cd3b6d9596a","session_id":"6197b58bf64b32a151fc49ea","condition":"contingent","relevant_dimensions":["pattern","legs"],"bee_group":{"antennae":"X","wings":"X","pattern":"S","legs":"M"},"bonus":0.08},{"view_history":[{"page_index":0,"viewing_time":8872.099999999977},{"page_index":1,"viewing_time":21296.099999999977},{"page_index":2,"viewing_time":33921.40000000002},{"page_index":3,"viewing_time":35450.90000000002},{"page_index":4,"viewing_time":9808.5},{"page_index":5,"viewing_time":12251},{"page_index":6,"viewing_time":16744.999999999884},{"page_index":7,"viewing_time":13628.300000000047},{"page_index":8,"viewing_time":7915.100000000093},{"page_index":9,"viewing_time":6022},{"page_index":10,"viewing_time":6218},{"page_index":11,"viewing_time":15789.399999999907},{"page_index":12,"viewing_time":16841},{"page_index":13,"viewing_time":3227.6999999999534},{"page_index":14,"viewing_time":7601.100000000093}],"rt":215588.49999999988,"trial_type":"instructions","trial_index":3,"time_elapsed":228321,"internal_node_id":"0.0-3.0-0.0","subject_id":"60cce334ff73d2d13370a6e4","study_id":"6197b3f67c2b5cd3b6d9596a","session_id":"6197b58bf64b32a151fc49ea","condition":"contingent","relevant_dimensions":["pattern","legs"],"bee_group":{"antennae":"X","wings":"X","pattern":"S","legs":"M"},"bonus":0.08},{"rt":25819.59999999986,"response":{"Q0":["Two or six legs","Stripes or spots on body","Single or double wings","Antennae or no antennae"]},"question_order":[0],"trial_type":"survey-multi-select","trial_index":4,"time_elapsed":254188,"internal_node_id":"0.0-3.0-1.0","subject_id":"60cce334ff73d2d13370a6e4","study_id":"6197b3f67c2b5cd3b6d9596a","session_id":"6197b58bf64b32a151fc49ea","condition":"contingent","relevant_dimensions":["pattern","legs"],"bee_group":{"antennae":"X","wings":"X","pattern":"S","legs":"M"},"correct":true,"bonus":0.08},{"rt":41614.30000000005,"response":{"Q1":"No.","Q2":"Based on the four features of the bee.","Q3":"You do not learn if it was friendly or dangerous, and do not alter your bonus."},"question_order":[0,1,2],"trial_type":"survey-multi-choice","trial_index":5,"time_elapsed":295951,"internal_node_id":"0.0-3.0-2.0","subject_id":"60cce334ff73d2d13370a6e4","study_id":"6197b3f67c2b5cd3b6d9596a","session_id":"6197b58bf64b32a151fc49ea","condition":"contingent","relevant_dimensions":["pattern","legs"],"bee_group":{"antennae":"X","wings":"X","pattern":"S","legs":"M"},"correct":true,"bonus":0.08},{"rt":5188.600000000093,"stimulus":"<p>Congrats, you got everything right<br>When you're ready, click the button below to continue to the experiment.</p>","response":0,"trial_type":"html-button-response","trial_index":6,"time_elapsed":301143,"internal_node_id":"0.0-3.0-3.0","subject_id":"60cce334ff73d2d13370a6e4","study_id":"6197b3f67c2b5cd3b6d9596a","session_id":"6197b58bf64b32a151fc49ea","condition":"contingent","relevant_dimensions":["pattern","legs"],"bee_group":{"antennae":"X","wings":"X","pattern":"S","legs":"M"},"bonus":0.08},{"rt":6809.899999999907,"stimulus":"bees-with-color/bee-B1DM.svg","response":0,"trial_type":"image-button-response","trial_index":7,"time_elapsed":307959,"internal_node_id":"0.0-4.0-0.0","subject_id":"60cce334ff73d2d13370a6e4","study_id":"6197b3f67c2b5cd3b6d9596a","session_id":"6197b58bf64b32a151fc49ea","condition":"contingent","relevant_dimensions":["pattern","legs"],"bee_group":{"antennae":"X","wings":"X","pattern":"S","legs":"M"},"action":"harvest","summary":"good-harvest","bonus":0.08},{"rt":19154.699999999953,"stimulus":"\n                    <p><b>Action: <em>harvest</em></b></p>\n                    <p>This is the bee that you just saw.</p>\n                    <img src=\"bees-with-color/bee-B1DM.svg\" width=\"200\">\n                    <p><span class=\"greenText\"><b>Successful harvest!</b></span><br>Your pay has increased by $0.02. Your bonus pay is now $0.56.</p>\n            ","response":0,"trial_type":"html-button-response","trial_index":8,"time_elapsed":327118,"internal_node_id":"0.0-4.0-1.0","subject_id":"60cce334ff73d2d13370a6e4","study_id":"6197b3f67c2b5cd3b6d9596a","session_id":"6197b58bf64b32a151fc49ea","condition":"contingent","relevant_dimensions":["pattern","legs"],"bee_group":{"antennae":"X","wings":"X","pattern":"S","legs":"M"},"bonus":0.08},{"rt":6635.90000000014,"stimulus":"bees-with-color/bee-A2DM.svg","response":0,"trial_type":"image-button-response","trial_index":9,"time_elapsed":333758,"internal_node_id":"0.0-4.0-0.1","subject_id":"60cce334ff73d2d13370a6e4","study_id":"6197b3f67c2b5cd3b6d9596a","session_id":"6197b58bf64b32a151fc49ea","condition":"contingent","relevant_dimensions":["pattern","legs"],"bee_group":{"antennae":"X","wings":"X","pattern":"S","legs":"M"},"action":"harvest","summary":"good-harvest","bonus":0.08},{"rt":7906.399999999907,"stimulus":"\n                    <p><b>Action: <em>harvest</em></b></p>\n                    <p>This is the bee that you just saw.</p>\n                    <img src=\"bees-with-color/bee-A2DM.svg\" width=\"200\">\n                    <p><span class=\"greenText\"><b>Successful harvest!</b></span><br>Your pay has increased by $0.02. Your bonus pay is now $0.58.</p>\n            ","response":0,"trial_type":"html-button-response","trial_index":10,"time_elapsed":341668,"internal_node_id":"0.0-4.0-1.1","subject_id":"60cce334ff73d2d13370a6e4","study_id":"6197b3f67c2b5cd3b6d9596a","session_id":"6197b58bf64b32a151fc49ea","condition":"contingent","relevant_dimensions":["pattern","legs"],"bee_group":{"antennae":"X","wings":"X","pattern":"S","legs":"M"},"bonus":0.08},{"rt":2497.5,"stimulus":"bees-with-color/bee-A1DF.svg","response":1,"trial_type":"image-button-response","trial_index":11,"time_elapsed":344169,"internal_node_id":"0.0-4.0-0.2","subject_id":"60cce334ff73d2d13370a6e4","study_id":"6197b3f67c2b5cd3b6d9596a","session_id":"6197b58bf64b32a151fc49ea","condition":"contingent","relevant_dimensions":["pattern","legs"],"bee_group":{"antennae":"X","wings":"X","pattern":"S","legs":"M"},"action":"avoid","summary":"bad-avoid","bonus":0.08},{"rt":4320.300000000047,"stimulus":"\n                    <p><b>Action: <em>avoid</em></b></p>\n                    <p>This is the bee that you just saw.</p>\n                    <img src=\"bees-with-color/bee-A1DF.svg\" width=\"200\">\n                    <p><br>Your bonus pay is unchanged, and remains at $0.58.</p>\n            ","response":0,"trial_type":"html-button-response","trial_index":12,"time_elapsed":348492,"internal_node_id":"0.0-4.0-1.2","subject_id":"60cce334ff73d2d13370a6e4","study_id":"6197b3f67c2b5cd3b6d9596a","session_id":"6197b58bf64b32a151fc49ea","condition":"contingent","relevant_dimensions":["pattern","legs"],"bee_group":{"antennae":"X","wings":"X","pattern":"S","legs":"M"},"bonus":0.08},{"rt":6218.699999999953,"stimulus":"bees-with-color/bee-B1SM.svg","response":0,"trial_type":"image-button-response","trial_index":13,"time_elapsed":354714,"internal_node_id":"0.0-4.0-0.3","subject_id":"60cce334ff73d2d13370a6e4","study_id":"6197b3f67c2b5cd3b6d9596a","session_id":"6197b58bf64b32a151fc49ea","condition":"contingent","relevant_dimensions":["pattern","legs"],"bee_group":{"antennae":"X","wings":"X","pattern":"S","legs":"M"},"action":"harvest","summary":"bad-harvest","bonus":0.08},{"rt":3367.3000000000466,"stimulus":"\n                    <p><b>Action: <em>harvest</em></b></p>\n                    <p>This is the bee that you just saw.</p>\n                    <img src=\"bees-with-color/bee-B1SM.svg\" width=\"200\">\n                    <p><span class=\"redText\">Bad choice, the bee was angry.</span><br><b>You have been stung!</b><br>Your pay has been decreased by $0.10. Your bonus pay is now $0.48.</p>\n            ","response":0,"trial_type":"html-button-response","trial_index":14,"time_elapsed":358083,"internal_node_id":"0.0-4.0-1.3","subject_id":"60cce334ff73d2d13370a6e4","study_id":"6197b3f67c2b5cd3b6d9596a","session_id":"6197b58bf64b32a151fc49ea","condition":"contingent","relevant_dimensions":["pattern","legs"],"bee_group":{"antennae":"X","wings":"X","pattern":"S","legs":"M"},"bonus":0.08},{"rt":3389.3000000000466,"stimulus":"bees-with-color/bee-B2SM.svg","response":0,"trial_type":"image-button-response","trial_index":15,"time_elapsed":361476,"internal_node_id":"0.0-4.0-0.4","subject_id":"60cce334ff73d2d13370a6e4","study_id":"6197b3f67c2b5cd3b6d9596a","session_id":"6197b58bf64b32a151fc49ea","condition":"contingent","relevant_dimensions":["pattern","legs"],"bee_group":{"antennae":"X","wings":"X","pattern":"S","legs":"M"},"action":"harvest","summary":"bad-harvest","bonus":0.08},{"rt":2305.5,"stimulus":"\n                    <p><b>Action: <em>harvest</em></b></p>\n                    <p>This is the bee that you just saw.</p>\n                    <img src=\"bees-with-color/bee-B2SM.svg\" width=\"200\">\n                    <p><span class=\"redText\">Bad choice, the bee was angry.</span><br><b>You have been stung!</b><br>Your pay has been decreased by $0.10. Your bonus pay is now $0.38.</p>\n            ","response":0,"trial_type":"html-button-response","trial_index":16,"time_elapsed":363784,"internal_node_id":"0.0-4.0-1.4","subject_id":"60cce334ff73d2d13370a6e4","study_id":"6197b3f67c2b5cd3b6d9596a","session_id":"6197b58bf64b32a151fc49ea","condition":"contingent","relevant_dimensions":["pattern","legs"],"bee_group":{"antennae":"X","wings":"X","pattern":"S","legs":"M"},"bonus":0.08},{"rt":3065,"stimulus":"bees-with-color/bee-B1DF.svg","response":0,"trial_type":"image-button-response","trial_index":17,"time_elapsed":366852,"internal_node_id":"0.0-4.0-0.5","subject_id":"60cce334ff73d2d13370a6e4","study_id":"6197b3f67c2b5cd3b6d9596a","session_id":"6197b58bf64b32a151fc49ea","condition":"contingent","relevant_dimensions":["pattern","legs"],"bee_group":{"antennae":"X","wings":"X","pattern":"S","legs":"M"},"action":"harvest","summary":"good-harvest","bonus":0.08},{"rt":1771.8000000000466,"stimulus":"\n                    <p><b>Action: <em>harvest</em></b></p>\n                    <p>This is the bee that you just saw.</p>\n                    <img src=\"bees-with-color/bee-B1DF.svg\" width=\"200\">\n                    <p><span class=\"greenText\"><b>Successful harvest!</b></span><br>Your pay has increased by $0.02. Your bonus pay is now $0.40.</p>\n            ","response":0,"trial_type":"html-button-response","trial_index":18,"time_elapsed":368628,"internal_node_id":"0.0-4.0-1.5","subject_id":"60cce334ff73d2d13370a6e4","study_id":"6197b3f67c2b5cd3b6d9596a","session_id":"6197b58bf64b32a151fc49ea","condition":"contingent","relevant_dimensions":["pattern","legs"],"bee_group":{"antennae":"X","wings":"X","pattern":"S","legs":"M"},"bonus":0.08},{"rt":3317.1999999999534,"stimulus":"bees-with-color/bee-A1DM.svg","response":0,"trial_type":"image-button-response","trial_index":19,"time_elapsed":371949,"internal_node_id":"0.0-4.0-0.6","subject_id":"60cce334ff73d2d13370a6e4","study_id":"6197b3f67c2b5cd3b6d9596a","session_id":"6197b58bf64b32a151fc49ea","condition":"contingent","relevant_dimensions":["pattern","legs"],"bee_group":{"antennae":"X","wings":"X","pattern":"S","legs":"M"},"action":"harvest","summary":"good-harvest","bonus":0.08},{"rt":1888.0999999998603,"stimulus":"\n                    <p><b>Action: <em>harvest</em></b></p>\n                    <p>This is the bee that you just saw.</p>\n                    <img src=\"bees-with-color/bee-A1DM.svg\" width=\"200\">\n                    <p><span class=\"greenText\"><b>Successful harvest!</b></span><br>Your pay has increased by $0.02. Your bonus pay is now $0.42.</p>\n            ","response":0,"trial_type":"html-button-response","trial_index":20,"time_elapsed":373839,"internal_node_id":"0.0-4.0-1.6","subject_id":"60cce334ff73d2d13370a6e4","study_id":"6197b3f67c2b5cd3b6d9596a","session_id":"6197b58bf64b32a151fc49ea","condition":"contingent","relevant_dimensions":["pattern","legs"],"bee_group":{"antennae":"X","wings":"X","pattern":"S","legs":"M"},"bonus":0.08},{"rt":1336.8999999999069,"stimulus":"bees-with-color/bee-A2DF.svg","response":1,"trial_type":"image-button-response","trial_index":21,"time_elapsed":375179,"internal_node_id":"0.0-4.0-0.7","subject_id":"60cce334ff73d2d13370a6e4","study_id":"6197b3f67c2b5cd3b6d9596a","session_id":"6197b58bf64b32a151fc49ea","condition":"contingent","relevant_dimensions":["pattern","legs"],"bee_group":{"antennae":"X","wings":"X","pattern":"S","legs":"M"},"action":"avoid","summary":"bad-avoid","bonus":0.08},{"rt":3134.8000000000466,"stimulus":"\n                    <p><b>Action: <em>avoid</em></b></p>\n                    <p>This is the bee that you just saw.</p>\n                    <img src=\"bees-with-color/bee-A2DF.svg\" width=\"200\">\n                    <p><br>Your bonus pay is unchanged, and remains at $0.42.</p>\n            ","response":0,"trial_type":"html-button-response","trial_index":22,"time_elapsed":378316,"internal_node_id":"0.0-4.0-1.7","subject_id":"60cce334ff73d2d13370a6e4","study_id":"6197b3f67c2b5cd3b6d9596a","session_id":"6197b58bf64b32a151fc49ea","condition":"contingent","relevant_dimensions":["pattern","legs"],"bee_group":{"antennae":"X","wings":"X","pattern":"S","legs":"M"},"bonus":0.08},{"rt":2781.899999999907,"stimulus":"bees-with-color/bee-B2DM.svg","response":1,"trial_type":"image-button-response","trial_index":23,"time_elapsed":381101,"internal_node_id":"0.0-4.0-0.8","subject_id":"60cce334ff73d2d13370a6e4","study_id":"6197b3f67c2b5cd3b6d9596a","session_id":"6197b58bf64b32a151fc49ea","condition":"contingent","relevant_dimensions":["pattern","legs"],"bee_group":{"antennae":"X","wings":"X","pattern":"S","legs":"M"},"action":"avoid","summary":"bad-avoid","bonus":0.08},{"rt":1270.1000000000931,"stimulus":"\n                    <p><b>Action: <em>avoid</em></b></p>\n                    <p>This is the bee that you just saw.</p>\n                    <img src=\"bees-with-color/bee-B2DM.svg\" width=\"200\">\n                    <p><br>Your bonus pay is unchanged, and remains at $0.42.</p>\n            ","response":0,"trial_type":"html-button-response","trial_index":24,"time_elapsed":382375,"internal_node_id":"0.0-4.0-1.8","subject_id":"60cce334ff73d2d13370a6e4","study_id":"6197b3f67c2b5cd3b6d9596a","session_id":"6197b58bf64b32a151fc49ea","condition":"contingent","relevant_dimensions":["pattern","legs"],"bee_group":{"antennae":"X","wings":"X","pattern":"S","legs":"M"},"bonus":0.08},{"rt":5512.299999999814,"stimulus":"bees-with-color/bee-A1SF.svg","response":1,"trial_type":"image-button-response","trial_index":25,"time_elapsed":387891,"internal_node_id":"0.0-4.0-0.9","subject_id":"60cce334ff73d2d13370a6e4","study_id":"6197b3f67c2b5cd3b6d9596a","session_id":"6197b58bf64b32a151fc49ea","condition":"contingent","relevant_dimensions":["pattern","legs"],"bee_group":{"antennae":"X","wings":"X","pattern":"S","legs":"M"},"action":"avoid","summary":"bad-avoid","bonus":0.08},{"rt":2244,"stimulus":"\n                    <p><b>Action: <em>avoid</em></b></p>\n                    <p>This is the bee that you just saw.</p>\n                    <img src=\"bees-with-color/bee-A1SF.svg\" width=\"200\">\n                    <p><br>Your bonus pay is unchanged, and remains at $0.42.</p>\n            ","response":0,"trial_type":"html-button-response","trial_index":26,"time_elapsed":390139,"internal_node_id":"0.0-4.0-1.9","subject_id":"60cce334ff73d2d13370a6e4","study_id":"6197b3f67c2b5cd3b6d9596a","session_id":"6197b58bf64b32a151fc49ea","condition":"contingent","relevant_dimensions":["pattern","legs"],"bee_group":{"antennae":"X","wings":"X","pattern":"S","legs":"M"},"bonus":0.08},{"rt":1990.1000000000931,"stimulus":"bees-with-color/bee-B2DF.svg","response":0,"trial_type":"image-button-response","trial_index":27,"time_elapsed":392137,"internal_node_id":"0.0-4.0-0.10","subject_id":"60cce334ff73d2d13370a6e4","study_id":"6197b3f67c2b5cd3b6d9596a","session_id":"6197b58bf64b32a151fc49ea","condition":"contingent","relevant_dimensions":["pattern","legs"],"bee_group":{"antennae":"X","wings":"X","pattern":"S","legs":"M"},"action":"harvest","summary":"good-harvest","bonus":0.08},{"rt":2752.5,"stimulus":"\n                    <p><b>Action: <em>harvest</em></b></p>\n                    <p>This is the bee that you just saw.</p>\n                    <img src=\"bees-with-color/bee-B2DF.svg\" width=\"200\">\n                    <p><span class=\"greenText\"><b>Successful harvest!</b></span><br>Your pay has increased by $0.02. Your bonus pay is now $0.44.</p>\n            ","response":0,"trial_type":"html-button-response","trial_index":28,"time_elapsed":394894,"internal_node_id":"0.0-4.0-1.10","subject_id":"60cce334ff73d2d13370a6e4","study_id":"6197b3f67c2b5cd3b6d9596a","session_id":"6197b58bf64b32a151fc49ea","condition":"contingent","relevant_dimensions":["pattern","legs"],"bee_group":{"antennae":"X","wings":"X","pattern":"S","legs":"M"},"bonus":0.08},{"rt":3520.4000000001397,"stimulus":"bees-with-color/bee-B1SF.svg","response":1,"trial_type":"image-button-response","trial_index":29,"time_elapsed":398417,"internal_node_id":"0.0-4.0-0.11","subject_id":"60cce334ff73d2d13370a6e4","study_id":"6197b3f67c2b5cd3b6d9596a","session_id":"6197b58bf64b32a151fc49ea","condition":"contingent","relevant_dimensions":["pattern","legs"],"bee_group":{"antennae":"X","wings":"X","pattern":"S","legs":"M"},"action":"avoid","summary":"bad-avoid","bonus":0.08},{"rt":2308.5,"stimulus":"\n                    <p><b>Action: <em>avoid</em></b></p>\n                    <p>This is the bee that you just saw.</p>\n                    <img src=\"bees-with-color/bee-B1SF.svg\" width=\"200\">\n                    <p><br>Your bonus pay is unchanged, and remains at $0.44.</p>\n            ","response":0,"trial_type":"html-button-response","trial_index":30,"time_elapsed":400727,"internal_node_id":"0.0-4.0-1.11","subject_id":"60cce334ff73d2d13370a6e4","study_id":"6197b3f67c2b5cd3b6d9596a","session_id":"6197b58bf64b32a151fc49ea","condition":"contingent","relevant_dimensions":["pattern","legs"],"bee_group":{"antennae":"X","wings":"X","pattern":"S","legs":"M"},"bonus":0.08},{"rt":1853.6000000000931,"stimulus":"bees-with-color/bee-A1SM.svg","response":0,"trial_type":"image-button-response","trial_index":31,"time_elapsed":402584,"internal_node_id":"0.0-4.0-0.12","subject_id":"60cce334ff73d2d13370a6e4","study_id":"6197b3f67c2b5cd3b6d9596a","session_id":"6197b58bf64b32a151fc49ea","condition":"contingent","relevant_dimensions":["pattern","legs"],"bee_group":{"antennae":"X","wings":"X","pattern":"S","legs":"M"},"action":"harvest","summary":"bad-harvest","bonus":0.08},{"rt":2267.2000000001863,"stimulus":"\n                    <p><b>Action: <em>harvest</em></b></p>\n                    <p>This is the bee that you just saw.</p>\n                    <img src=\"bees-with-color/bee-A1SM.svg\" width=\"200\">\n                    <p><span class=\"redText\">Bad choice, the bee was angry.</span><br><b>You have been stung!</b><br>Your pay has been decreased by $0.10. Your bonus pay is now $0.34.</p>\n            ","response":0,"trial_type":"html-button-response","trial_index":32,"time_elapsed":404853,"internal_node_id":"0.0-4.0-1.12","subject_id":"60cce334ff73d2d13370a6e4","study_id":"6197b3f67c2b5cd3b6d9596a","session_id":"6197b58bf64b32a151fc49ea","condition":"contingent","relevant_dimensions":["pattern","legs"],"bee_group":{"antennae":"X","wings":"X","pattern":"S","legs":"M"},"bonus":0.08},{"rt":2344.9000000001397,"stimulus":"bees-with-color/bee-A2SM.svg","response":0,"trial_type":"image-button-response","trial_index":33,"time_elapsed":407201,"internal_node_id":"0.0-4.0-0.13","subject_id":"60cce334ff73d2d13370a6e4","study_id":"6197b3f67c2b5cd3b6d9596a","session_id":"6197b58bf64b32a151fc49ea","condition":"contingent","relevant_dimensions":["pattern","legs"],"bee_group":{"antennae":"X","wings":"X","pattern":"S","legs":"M"},"action":"harvest","summary":"bad-harvest","bonus":0.08},{"rt":1539.3000000000466,"stimulus":"\n                    <p><b>Action: <em>harvest</em></b></p>\n                    <p>This is the bee that you just saw.</p>\n                    <img src=\"bees-with-color/bee-A2SM.svg\" width=\"200\">\n                    <p><span class=\"redText\">Bad choice, the bee was angry.</span><br><b>You have been stung!</b><br>Your pay has been decreased by $0.10. Your bonus pay is now $0.24.</p>\n            ","response":0,"trial_type":"html-button-response","trial_index":34,"time_elapsed":408743,"internal_node_id":"0.0-4.0-1.13","subject_id":"60cce334ff73d2d13370a6e4","study_id":"6197b3f67c2b5cd3b6d9596a","session_id":"6197b58bf64b32a151fc49ea","condition":"contingent","relevant_dimensions":["pattern","legs"],"bee_group":{"antennae":"X","wings":"X","pattern":"S","legs":"M"},"bonus":0.08},{"rt":1282.7000000001863,"stimulus":"bees-with-color/bee-B2SF.svg","response":1,"trial_type":"image-button-response","trial_index":35,"time_elapsed":410029,"internal_node_id":"0.0-4.0-0.14","subject_id":"60cce334ff73d2d13370a6e4","study_id":"6197b3f67c2b5cd3b6d9596a","session_id":"6197b58bf64b32a151fc49ea","condition":"contingent","relevant_dimensions":["pattern","legs"],"bee_group":{"antennae":"X","wings":"X","pattern":"S","legs":"M"},"action":"avoid","summary":"bad-avoid","bonus":0.08},{"rt":1646.1999999999534,"stimulus":"\n                    <p><b>Action: <em>avoid</em></b></p>\n                    <p>This is the bee that you just saw.</p>\n                    <img src=\"bees-with-color/bee-B2SF.svg\" width=\"200\">\n                    <p><br>Your bonus pay is unchanged, and remains at $0.24.</p>\n            ","response":0,"trial_type":"html-button-response","trial_index":36,"time_elapsed":411677,"internal_node_id":"0.0-4.0-1.14","subject_id":"60cce334ff73d2d13370a6e4","study_id":"6197b3f67c2b5cd3b6d9596a","session_id":"6197b58bf64b32a151fc49ea","condition":"contingent","relevant_dimensions":["pattern","legs"],"bee_group":{"antennae":"X","wings":"X","pattern":"S","legs":"M"},"bonus":0.08},{"rt":1144.5,"stimulus":"bees-with-color/bee-A2SF.svg","response":0,"trial_type":"image-button-response","trial_index":37,"time_elapsed":412824,"internal_node_id":"0.0-4.0-0.15","subject_id":"60cce334ff73d2d13370a6e4","study_id":"6197b3f67c2b5cd3b6d9596a","session_id":"6197b58bf64b32a151fc49ea","condition":"contingent","relevant_dimensions":["pattern","legs"],"bee_group":{"antennae":"X","wings":"X","pattern":"S","legs":"M"},"action":"harvest","summary":"good-harvest","bonus":0.08},{"rt":1460.6999999999534,"stimulus":"\n                    <p><b>Action: <em>harvest</em></b></p>\n                    <p>This is the bee that you just saw.</p>\n                    <img src=\"bees-with-color/bee-A2SF.svg\" width=\"200\">\n                    <p><span class=\"greenText\"><b>Successful harvest!</b></span><br>Your pay has increased by $0.02. Your bonus pay is now $0.26.</p>\n            ","response":0,"trial_type":"html-button-response","trial_index":38,"time_elapsed":414288,"internal_node_id":"0.0-4.0-1.15","subject_id":"60cce334ff73d2d13370a6e4","study_id":"6197b3f67c2b5cd3b6d9596a","session_id":"6197b58bf64b32a151fc49ea","condition":"contingent","relevant_dimensions":["pattern","legs"],"bee_group":{"antennae":"X","wings":"X","pattern":"S","legs":"M"},"bonus":0.08},{"rt":1788.5999999998603,"stimulus":"bees-with-color/bee-A2DF.svg","response":1,"trial_type":"image-button-response","trial_index":39,"time_elapsed":416079,"internal_node_id":"0.0-4.0-0.16","subject_id":"60cce334ff73d2d13370a6e4","study_id":"6197b3f67c2b5cd3b6d9596a","session_id":"6197b58bf64b32a151fc49ea","condition":"contingent","relevant_dimensions":["pattern","legs"],"bee_group":{"antennae":"X","wings":"X","pattern":"S","legs":"M"},"action":"avoid","summary":"bad-avoid","bonus":0.08},{"rt":1443.8999999999069,"stimulus":"\n                    <p><b>Action: <em>avoid</em></b></p>\n                    <p>This is the bee that you just saw.</p>\n                    <img src=\"bees-with-color/bee-A2DF.svg\" width=\"200\">\n                    <p><br>Your bonus pay is unchanged, and remains at $0.26.</p>\n            ","response":0,"trial_type":"html-button-response","trial_index":40,"time_elapsed":417526,"internal_node_id":"0.0-4.0-1.16","subject_id":"60cce334ff73d2d13370a6e4","study_id":"6197b3f67c2b5cd3b6d9596a","session_id":"6197b58bf64b32a151fc49ea","condition":"contingent","relevant_dimensions":["pattern","legs"],"bee_group":{"antennae":"X","wings":"X","pattern":"S","legs":"M"},"bonus":0.08},{"rt":1136.3999999999069,"stimulus":"bees-with-color/bee-A2DM.svg","response":1,"trial_type":"image-button-response","trial_index":41,"time_elapsed":418665,"internal_node_id":"0.0-4.0-0.17","subject_id":"60cce334ff73d2d13370a6e4","study_id":"6197b3f67c2b5cd3b6d9596a","session_id":"6197b58bf64b32a151fc49ea","condition":"contingent","relevant_dimensions":["pattern","legs"],"bee_group":{"antennae":"X","wings":"X","pattern":"S","legs":"M"},"action":"avoid","summary":"bad-avoid","bonus":0.08},{"rt":1320.6999999999534,"stimulus":"\n                    <p><b>Action: <em>avoid</em></b></p>\n                    <p>This is the bee that you just saw.</p>\n                    <img src=\"bees-with-color/bee-A2DM.svg\" width=\"200\">\n                    <p><br>Your bonus pay is unchanged, and remains at $0.26.</p>\n            ","response":0,"trial_type":"html-button-response","trial_index":42,"time_elapsed":419989,"internal_node_id":"0.0-4.0-1.17","subject_id":"60cce334ff73d2d13370a6e4","study_id":"6197b3f67c2b5cd3b6d9596a","session_id":"6197b58bf64b32a151fc49ea","condition":"contingent","relevant_dimensions":["pattern","legs"],"bee_group":{"antennae":"X","wings":"X","pattern":"S","legs":"M"},"bonus":0.08},{"rt":1170,"stimulus":"bees-with-color/bee-A1DF.svg","response":0,"trial_type":"image-button-response","trial_index":43,"time_elapsed":421162,"internal_node_id":"0.0-4.0-0.18","subject_id":"60cce334ff73d2d13370a6e4","study_id":"6197b3f67c2b5cd3b6d9596a","session_id":"6197b58bf64b32a151fc49ea","condition":"contingent","relevant_dimensions":["pattern","legs"],"bee_group":{"antennae":"X","wings":"X","pattern":"S","legs":"M"},"action":"harvest","summary":"good-harvest","bonus":0.08},{"rt":2083.2999999998137,"stimulus":"\n                    <p><b>Action: <em>harvest</em></b></p>\n                    <p>This is the bee that you just saw.</p>\n                    <img src=\"bees-with-color/bee-A1DF.svg\" width=\"200\">\n                    <p><span class=\"greenText\"><b>Successful harvest!</b></span><br>Your pay has increased by $0.02. Your bonus pay is now $0.28.</p>\n            ","response":0,"trial_type":"html-button-response","trial_index":44,"time_elapsed":423250,"internal_node_id":"0.0-4.0-1.18","subject_id":"60cce334ff73d2d13370a6e4","study_id":"6197b3f67c2b5cd3b6d9596a","session_id":"6197b58bf64b32a151fc49ea","condition":"contingent","relevant_dimensions":["pattern","legs"],"bee_group":{"antennae":"X","wings":"X","pattern":"S","legs":"M"},"bonus":0.08},{"rt":1561.5,"stimulus":"bees-with-color/bee-B2DF.svg","response":0,"trial_type":"image-button-response","trial_index":45,"time_elapsed":424814,"internal_node_id":"0.0-4.0-0.19","subject_id":"60cce334ff73d2d13370a6e4","study_id":"6197b3f67c2b5cd3b6d9596a","session_id":"6197b58bf64b32a151fc49ea","condition":"contingent","relevant_dimensions":["pattern","legs"],"bee_group":{"antennae":"X","wings":"X","pattern":"S","legs":"M"},"action":"harvest","summary":"good-harvest","bonus":0.08},{"rt":1639.1999999999534,"stimulus":"\n                    <p><b>Action: <em>harvest</em></b></p>\n                    <p>This is the bee that you just saw.</p>\n                    <img src=\"bees-with-color/bee-B2DF.svg\" width=\"200\">\n                    <p><span class=\"greenText\"><b>Successful harvest!</b></span><br>Your pay has increased by $0.02. Your bonus pay is now $0.30.</p>\n            ","response":0,"trial_type":"html-button-response","trial_index":46,"time_elapsed":426456,"internal_node_id":"0.0-4.0-1.19","subject_id":"60cce334ff73d2d13370a6e4","study_id":"6197b3f67c2b5cd3b6d9596a","session_id":"6197b58bf64b32a151fc49ea","condition":"contingent","relevant_dimensions":["pattern","legs"],"bee_group":{"antennae":"X","wings":"X","pattern":"S","legs":"M"},"bonus":0.08},{"rt":1483.3000000000466,"stimulus":"bees-with-color/bee-A1SF.svg","response":1,"trial_type":"image-button-response","trial_index":47,"time_elapsed":427943,"internal_node_id":"0.0-4.0-0.20","subject_id":"60cce334ff73d2d13370a6e4","study_id":"6197b3f67c2b5cd3b6d9596a","session_id":"6197b58bf64b32a151fc49ea","condition":"contingent","relevant_dimensions":["pattern","legs"],"bee_group":{"antennae":"X","wings":"X","pattern":"S","legs":"M"},"action":"avoid","summary":"bad-avoid","bonus":0.08},{"rt":1486.2000000001863,"stimulus":"\n                    <p><b>Action: <em>avoid</em></b></p>\n                    <p>This is the bee that you just saw.</p>\n                    <img src=\"bees-with-color/bee-A1SF.svg\" width=\"200\">\n                    <p><br>Your bonus pay is unchanged, and remains at $0.30.</p>\n            ","response":0,"trial_type":"html-button-response","trial_index":48,"time_elapsed":429431,"internal_node_id":"0.0-4.0-1.20","subject_id":"60cce334ff73d2d13370a6e4","study_id":"6197b3f67c2b5cd3b6d9596a","session_id":"6197b58bf64b32a151fc49ea","condition":"contingent","relevant_dimensions":["pattern","legs"],"bee_group":{"antennae":"X","wings":"X","pattern":"S","legs":"M"},"bonus":0.08},{"rt":1127.4000000001397,"stimulus":"bees-with-color/bee-B2DM.svg","response":1,"trial_type":"image-button-response","trial_index":49,"time_elapsed":430561,"internal_node_id":"0.0-4.0-0.21","subject_id":"60cce334ff73d2d13370a6e4","study_id":"6197b3f67c2b5cd3b6d9596a","session_id":"6197b58bf64b32a151fc49ea","condition":"contingent","relevant_dimensions":["pattern","legs"],"bee_group":{"antennae":"X","wings":"X","pattern":"S","legs":"M"},"action":"avoid","summary":"bad-avoid","bonus":0.08},{"rt":1941.1000000000931,"stimulus":"\n                    <p><b>Action: <em>avoid</em></b></p>\n                    <p>This is the bee that you just saw.</p>\n                    <img src=\"bees-with-color/bee-B2DM.svg\" width=\"200\">\n                    <p><br>Your bonus pay is unchanged, and remains at $0.30.</p>\n            ","response":0,"trial_type":"html-button-response","trial_index":50,"time_elapsed":432505,"internal_node_id":"0.0-4.0-1.21","subject_id":"60cce334ff73d2d13370a6e4","study_id":"6197b3f67c2b5cd3b6d9596a","session_id":"6197b58bf64b32a151fc49ea","condition":"contingent","relevant_dimensions":["pattern","legs"],"bee_group":{"antennae":"X","wings":"X","pattern":"S","legs":"M"},"bonus":0.08},{"rt":1306.8999999999069,"stimulus":"bees-with-color/bee-B2SM.svg","response":0,"trial_type":"image-button-response","trial_index":51,"time_elapsed":433816,"internal_node_id":"0.0-4.0-0.22","subject_id":"60cce334ff73d2d13370a6e4","study_id":"6197b3f67c2b5cd3b6d9596a","session_id":"6197b58bf64b32a151fc49ea","condition":"contingent","relevant_dimensions":["pattern","legs"],"bee_group":{"antennae":"X","wings":"X","pattern":"S","legs":"M"},"action":"harvest","summary":"bad-harvest","bonus":0.08},{"rt":1930.8000000000466,"stimulus":"\n                    <p><b>Action: <em>harvest</em></b></p>\n                    <p>This is the bee that you just saw.</p>\n                    <img src=\"bees-with-color/bee-B2SM.svg\" width=\"200\">\n                    <p><span class=\"redText\">Bad choice, the bee was angry.</span><br><b>You have been stung!</b><br>Your pay has been decreased by $0.10. Your bonus pay is now $0.20.</p>\n            ","response":0,"trial_type":"html-button-response","trial_index":52,"time_elapsed":435750,"internal_node_id":"0.0-4.0-1.22","subject_id":"60cce334ff73d2d13370a6e4","study_id":"6197b3f67c2b5cd3b6d9596a","session_id":"6197b58bf64b32a151fc49ea","condition":"contingent","relevant_dimensions":["pattern","legs"],"bee_group":{"antennae":"X","wings":"X","pattern":"S","legs":"M"},"bonus":0.08},{"rt":3119.6999999999534,"stimulus":"bees-with-color/bee-A2SM.svg","response":1,"trial_type":"image-button-response","trial_index":53,"time_elapsed":438871,"internal_node_id":"0.0-4.0-0.23","subject_id":"60cce334ff73d2d13370a6e4","study_id":"6197b3f67c2b5cd3b6d9596a","session_id":"6197b58bf64b32a151fc49ea","condition":"contingent","relevant_dimensions":["pattern","legs"],"bee_group":{"antennae":"X","wings":"X","pattern":"S","legs":"M"},"action":"avoid","summary":"good-avoid","bonus":0.08},{"rt":1569.5,"stimulus":"\n                    <p><b>Action: <em>avoid</em></b></p>\n                    <p>This is the bee that you just saw.</p>\n                    <img src=\"bees-with-color/bee-A2SM.svg\" width=\"200\">\n                    <p><br>Your bonus pay is unchanged, and remains at $0.20.</p>\n            ","response":0,"trial_type":"html-button-response","trial_index":54,"time_elapsed":440443,"internal_node_id":"0.0-4.0-1.23","subject_id":"60cce334ff73d2d13370a6e4","study_id":"6197b3f67c2b5cd3b6d9596a","session_id":"6197b58bf64b32a151fc49ea","condition":"contingent","relevant_dimensions":["pattern","legs"],"bee_group":{"antennae":"X","wings":"X","pattern":"S","legs":"M"},"bonus":0.08},{"rt":1059.1999999999534,"stimulus":"bees-with-color/bee-B1SM.svg","response":0,"trial_type":"image-button-response","trial_index":55,"time_elapsed":441505,"internal_node_id":"0.0-4.0-0.24","subject_id":"60cce334ff73d2d13370a6e4","study_id":"6197b3f67c2b5cd3b6d9596a","session_id":"6197b58bf64b32a151fc49ea","condition":"contingent","relevant_dimensions":["pattern","legs"],"bee_group":{"antennae":"X","wings":"X","pattern":"S","legs":"M"},"action":"harvest","summary":"bad-harvest","bonus":0.08},{"rt":6914.90000000014,"stimulus":"\n                    <p><b>Action: <em>harvest</em></b></p>\n                    <p>This is the bee that you just saw.</p>\n                    <img src=\"bees-with-color/bee-B1SM.svg\" width=\"200\">\n                    <p><span class=\"redText\">Bad choice, the bee was angry.</span><br><b>You have been stung!</b><br>Your pay has been decreased by $0.10. Your bonus pay is now $0.10.</p>\n            ","response":0,"trial_type":"html-button-response","trial_index":56,"time_elapsed":448427,"internal_node_id":"0.0-4.0-1.24","subject_id":"60cce334ff73d2d13370a6e4","study_id":"6197b3f67c2b5cd3b6d9596a","session_id":"6197b58bf64b32a151fc49ea","condition":"contingent","relevant_dimensions":["pattern","legs"],"bee_group":{"antennae":"X","wings":"X","pattern":"S","legs":"M"},"bonus":0.08},{"rt":2130.8000000000466,"stimulus":"bees-with-color/bee-A2SF.svg","response":0,"trial_type":"image-button-response","trial_index":57,"time_elapsed":450560,"internal_node_id":"0.0-4.0-0.25","subject_id":"60cce334ff73d2d13370a6e4","study_id":"6197b3f67c2b5cd3b6d9596a","session_id":"6197b58bf64b32a151fc49ea","condition":"contingent","relevant_dimensions":["pattern","legs"],"bee_group":{"antennae":"X","wings":"X","pattern":"S","legs":"M"},"action":"harvest","summary":"good-harvest","bonus":0.08},{"rt":1797.6999999999534,"stimulus":"\n                    <p><b>Action: <em>harvest</em></b></p>\n                    <p>This is the bee that you just saw.</p>\n                    <img src=\"bees-with-color/bee-A2SF.svg\" width=\"200\">\n                    <p><span class=\"greenText\"><b>Successful harvest!</b></span><br>Your pay has increased by $0.02. Your bonus pay is now $0.12.</p>\n            ","response":0,"trial_type":"html-button-response","trial_index":58,"time_elapsed":452363,"internal_node_id":"0.0-4.0-1.25","subject_id":"60cce334ff73d2d13370a6e4","study_id":"6197b3f67c2b5cd3b6d9596a","session_id":"6197b58bf64b32a151fc49ea","condition":"contingent","relevant_dimensions":["pattern","legs"],"bee_group":{"antennae":"X","wings":"X","pattern":"S","legs":"M"},"bonus":0.08},{"rt":4053.5,"stimulus":"bees-with-color/bee-A1DM.svg","response":0,"trial_type":"image-button-response","trial_index":59,"time_elapsed":456420,"internal_node_id":"0.0-4.0-0.26","subject_id":"60cce334ff73d2d13370a6e4","study_id":"6197b3f67c2b5cd3b6d9596a","session_id":"6197b58bf64b32a151fc49ea","condition":"contingent","relevant_dimensions":["pattern","legs"],"bee_group":{"antennae":"X","wings":"X","pattern":"S","legs":"M"},"action":"harvest","summary":"good-harvest","bonus":0.08},{"rt":2723.3000000000466,"stimulus":"\n                    <p><b>Action: <em>harvest</em></b></p>\n                    <p>This is the bee that you just saw.</p>\n                    <img src=\"bees-with-color/bee-A1DM.svg\" width=\"200\">\n                    <p><span class=\"greenText\"><b>Successful harvest!</b></span><br>Your pay has increased by $0.02. Your bonus pay is now $0.14.</p>\n            ","response":0,"trial_type":"html-button-response","trial_index":60,"time_elapsed":459147,"internal_node_id":"0.0-4.0-1.26","subject_id":"60cce334ff73d2d13370a6e4","study_id":"6197b3f67c2b5cd3b6d9596a","session_id":"6197b58bf64b32a151fc49ea","condition":"contingent","relevant_dimensions":["pattern","legs"],"bee_group":{"antennae":"X","wings":"X","pattern":"S","legs":"M"},"bonus":0.08},{"rt":2875.899999999907,"stimulus":"bees-with-color/bee-B1DF.svg","response":1,"trial_type":"image-button-response","trial_index":61,"time_elapsed":462026,"internal_node_id":"0.0-4.0-0.27","subject_id":"60cce334ff73d2d13370a6e4","study_id":"6197b3f67c2b5cd3b6d9596a","session_id":"6197b58bf64b32a151fc49ea","condition":"contingent","relevant_dimensions":["pattern","legs"],"bee_group":{"antennae":"X","wings":"X","pattern":"S","legs":"M"},"action":"avoid","summary":"bad-avoid","bonus":0.08},{"rt":1781,"stimulus":"\n                    <p><b>Action: <em>avoid</em></b></p>\n                    <p>This is the bee that you just saw.</p>\n                    <img src=\"bees-with-color/bee-B1DF.svg\" width=\"200\">\n                    <p><br>Your bonus pay is unchanged, and remains at $0.14.</p>\n            ","response":0,"trial_type":"html-button-response","trial_index":62,"time_elapsed":463810,"internal_node_id":"0.0-4.0-1.27","subject_id":"60cce334ff73d2d13370a6e4","study_id":"6197b3f67c2b5cd3b6d9596a","session_id":"6197b58bf64b32a151fc49ea","condition":"contingent","relevant_dimensions":["pattern","legs"],"bee_group":{"antennae":"X","wings":"X","pattern":"S","legs":"M"},"bonus":0.08},{"rt":7244.899999999907,"stimulus":"bees-with-color/bee-A1SM.svg","response":0,"trial_type":"image-button-response","trial_index":63,"time_elapsed":471058,"internal_node_id":"0.0-4.0-0.28","subject_id":"60cce334ff73d2d13370a6e4","study_id":"6197b3f67c2b5cd3b6d9596a","session_id":"6197b58bf64b32a151fc49ea","condition":"contingent","relevant_dimensions":["pattern","legs"],"bee_group":{"antennae":"X","wings":"X","pattern":"S","legs":"M"},"action":"harvest","summary":"bad-harvest","bonus":0.08},{"rt":1507.1999999999534,"stimulus":"\n                    <p><b>Action: <em>harvest</em></b></p>\n                    <p>This is the bee that you just saw.</p>\n                    <img src=\"bees-with-color/bee-A1SM.svg\" width=\"200\">\n                    <p><span class=\"redText\">Bad choice, the bee was angry.</span><br><b>You have been stung!</b><br>Your pay has been decreased by $0.10. Your bonus pay is now $0.04.</p>\n            ","response":0,"trial_type":"html-button-response","trial_index":64,"time_elapsed":472567,"internal_node_id":"0.0-4.0-1.28","subject_id":"60cce334ff73d2d13370a6e4","study_id":"6197b3f67c2b5cd3b6d9596a","session_id":"6197b58bf64b32a151fc49ea","condition":"contingent","relevant_dimensions":["pattern","legs"],"bee_group":{"antennae":"X","wings":"X","pattern":"S","legs":"M"},"bonus":0.08},{"rt":1414.1999999999534,"stimulus":"bees-with-color/bee-B1DM.svg","response":1,"trial_type":"image-button-response","trial_index":65,"time_elapsed":473984,"internal_node_id":"0.0-4.0-0.29","subject_id":"60cce334ff73d2d13370a6e4","study_id":"6197b3f67c2b5cd3b6d9596a","session_id":"6197b58bf64b32a151fc49ea","condition":"contingent","relevant_dimensions":["pattern","legs"],"bee_group":{"antennae":"X","wings":"X","pattern":"S","legs":"M"},"action":"avoid","summary":"bad-avoid","bonus":0.08},{"rt":1562.4000000001397,"stimulus":"\n                    <p><b>Action: <em>avoid</em></b></p>\n                    <p>This is the bee that you just saw.</p>\n                    <img src=\"bees-with-color/bee-B1DM.svg\" width=\"200\">\n                    <p><br>Your bonus pay is unchanged, and remains at $0.04.</p>\n            ","response":0,"trial_type":"html-button-response","trial_index":66,"time_elapsed":475549,"internal_node_id":"0.0-4.0-1.29","subject_id":"60cce334ff73d2d13370a6e4","study_id":"6197b3f67c2b5cd3b6d9596a","session_id":"6197b58bf64b32a151fc49ea","condition":"contingent","relevant_dimensions":["pattern","legs"],"bee_group":{"antennae":"X","wings":"X","pattern":"S","legs":"M"},"bonus":0.08},{"rt":1405.9000000001397,"stimulus":"bees-with-color/bee-B1SF.svg","response":0,"trial_type":"image-button-response","trial_index":67,"time_elapsed":476958,"internal_node_id":"0.0-4.0-0.30","subject_id":"60cce334ff73d2d13370a6e4","study_id":"6197b3f67c2b5cd3b6d9596a","session_id":"6197b58bf64b32a151fc49ea","condition":"contingent","relevant_dimensions":["pattern","legs"],"bee_group":{"antennae":"X","wings":"X","pattern":"S","legs":"M"},"action":"harvest","summary":"good-harvest","bonus":0.08},{"rt":1825.6999999999534,"stimulus":"\n                    <p><b>Action: <em>harvest</em></b></p>\n                    <p>This is the bee that you just saw.</p>\n                    <img src=\"bees-with-color/bee-B1SF.svg\" width=\"200\">\n                    <p><span class=\"greenText\"><b>Successful harvest!</b></span><br>Your pay has increased by $0.02. Your bonus pay is now $0.06.</p>\n            ","response":0,"trial_type":"html-button-response","trial_index":68,"time_elapsed":478786,"internal_node_id":"0.0-4.0-1.30","subject_id":"60cce334ff73d2d13370a6e4","study_id":"6197b3f67c2b5cd3b6d9596a","session_id":"6197b58bf64b32a151fc49ea","condition":"contingent","relevant_dimensions":["pattern","legs"],"bee_group":{"antennae":"X","wings":"X","pattern":"S","legs":"M"},"bonus":0.08},{"rt":3505.4000000001397,"stimulus":"bees-with-color/bee-B2SF.svg","response":1,"trial_type":"image-button-response","trial_index":69,"time_elapsed":482294,"internal_node_id":"0.0-4.0-0.31","subject_id":"60cce334ff73d2d13370a6e4","study_id":"6197b3f67c2b5cd3b6d9596a","session_id":"6197b58bf64b32a151fc49ea","condition":"contingent","relevant_dimensions":["pattern","legs"],"bee_group":{"antennae":"X","wings":"X","pattern":"S","legs":"M"},"action":"avoid","summary":"bad-avoid","bonus":0.08},{"rt":1764.1999999999534,"stimulus":"\n                    <p><b>Action: <em>avoid</em></b></p>\n                    <p>This is the bee that you just saw.</p>\n                    <img src=\"bees-with-color/bee-B2SF.svg\" width=\"200\">\n                    <p><br>Your bonus pay is unchanged, and remains at $0.06.</p>\n            ","response":0,"trial_type":"html-button-response","trial_index":70,"time_elapsed":484060,"internal_node_id":"0.0-4.0-1.31","subject_id":"60cce334ff73d2d13370a6e4","study_id":"6197b3f67c2b5cd3b6d9596a","session_id":"6197b58bf64b32a151fc49ea","condition":"contingent","relevant_dimensions":["pattern","legs"],"bee_group":{"antennae":"X","wings":"X","pattern":"S","legs":"M"},"bonus":0.08},{"rt":1251.3000000000466,"stimulus":"bees-with-color/bee-B2DM.svg","response":0,"trial_type":"image-button-response","trial_index":71,"time_elapsed":485315,"internal_node_id":"0.0-4.0-0.32","subject_id":"60cce334ff73d2d13370a6e4","study_id":"6197b3f67c2b5cd3b6d9596a","session_id":"6197b58bf64b32a151fc49ea","condition":"contingent","relevant_dimensions":["pattern","legs"],"bee_group":{"antennae":"X","wings":"X","pattern":"S","legs":"M"},"action":"harvest","summary":"good-harvest","bonus":0.08},{"rt":1671.1999999999534,"stimulus":"\n                    <p><b>Action: <em>harvest</em></b></p>\n                    <p>This is the bee that you just saw.</p>\n                    <img src=\"bees-with-color/bee-B2DM.svg\" width=\"200\">\n                    <p><span class=\"greenText\"><b>Successful harvest!</b></span><br>Your pay has increased by $0.02. Your bonus pay is now $0.08.</p>\n            ","response":0,"trial_type":"html-button-response","trial_index":72,"time_elapsed":486989,"internal_node_id":"0.0-4.0-1.32","subject_id":"60cce334ff73d2d13370a6e4","study_id":"6197b3f67c2b5cd3b6d9596a","session_id":"6197b58bf64b32a151fc49ea","condition":"contingent","relevant_dimensions":["pattern","legs"],"bee_group":{"antennae":"X","wings":"X","pattern":"S","legs":"M"},"bonus":0.08},{"rt":1166.5,"stimulus":"bees-with-color/bee-A2DF.svg","response":1,"trial_type":"image-button-response","trial_index":73,"time_elapsed":488158,"internal_node_id":"0.0-4.0-0.33","subject_id":"60cce334ff73d2d13370a6e4","study_id":"6197b3f67c2b5cd3b6d9596a","session_id":"6197b58bf64b32a151fc49ea","condition":"contingent","relevant_dimensions":["pattern","legs"],"bee_group":{"antennae":"X","wings":"X","pattern":"S","legs":"M"},"action":"avoid","summary":"bad-avoid","bonus":0.08},{"rt":1855.5,"stimulus":"\n                    <p><b>Action: <em>avoid</em></b></p>\n                    <p>This is the bee that you just saw.</p>\n                    <img src=\"bees-with-color/bee-A2DF.svg\" width=\"200\">\n                    <p><br>Your bonus pay is unchanged, and remains at $0.08.</p>\n            ","response":0,"trial_type":"html-button-response","trial_index":74,"time_elapsed":490016,"internal_node_id":"0.0-4.0-1.33","subject_id":"60cce334ff73d2d13370a6e4","study_id":"6197b3f67c2b5cd3b6d9596a","session_id":"6197b58bf64b32a151fc49ea","condition":"contingent","relevant_dimensions":["pattern","legs"],"bee_group":{"antennae":"X","wings":"X","pattern":"S","legs":"M"},"bonus":0.08},{"rt":1190.5,"stimulus":"bees-with-color/bee-B1DF.svg","response":0,"trial_type":"image-button-response","trial_index":75,"time_elapsed":491209,"internal_node_id":"0.0-4.0-0.34","subject_id":"60cce334ff73d2d13370a6e4","study_id":"6197b3f67c2b5cd3b6d9596a","session_id":"6197b58bf64b32a151fc49ea","condition":"contingent","relevant_dimensions":["pattern","legs"],"bee_group":{"antennae":"X","wings":"X","pattern":"S","legs":"M"},"action":"harvest","summary":"good-harvest","bonus":0.08},{"rt":1865,"stimulus":"\n                    <p><b>Action: <em>harvest</em></b></p>\n                    <p>This is the bee that you just saw.</p>\n                    <img src=\"bees-with-color/bee-B1DF.svg\" width=\"200\">\n                    <p><span class=\"greenText\"><b>Successful harvest!</b></span><br>Your pay has increased by $0.02. Your bonus pay is now $0.10.</p>\n            ","response":0,"trial_type":"html-button-response","trial_index":76,"time_elapsed":493076,"internal_node_id":"0.0-4.0-1.34","subject_id":"60cce334ff73d2d13370a6e4","study_id":"6197b3f67c2b5cd3b6d9596a","session_id":"6197b58bf64b32a151fc49ea","condition":"contingent","relevant_dimensions":["pattern","legs"],"bee_group":{"antennae":"X","wings":"X","pattern":"S","legs":"M"},"bonus":0.08},{"rt":2388.6999999999534,"stimulus":"bees-with-color/bee-A2DM.svg","response":0,"trial_type":"image-button-response","trial_index":77,"time_elapsed":495468,"internal_node_id":"0.0-4.0-0.35","subject_id":"60cce334ff73d2d13370a6e4","study_id":"6197b3f67c2b5cd3b6d9596a","session_id":"6197b58bf64b32a151fc49ea","condition":"contingent","relevant_dimensions":["pattern","legs"],"bee_group":{"antennae":"X","wings":"X","pattern":"S","legs":"M"},"action":"harvest","summary":"good-harvest","bonus":0.08},{"rt":1515.6999999999534,"stimulus":"\n                    <p><b>Action: <em>harvest</em></b></p>\n                    <p>This is the bee that you just saw.</p>\n                    <img src=\"bees-with-color/bee-A2DM.svg\" width=\"200\">\n                    <p><span class=\"greenText\"><b>Successful harvest!</b></span><br>Your pay has increased by $0.02. Your bonus pay is now $0.12.</p>\n            ","response":0,"trial_type":"html-button-response","trial_index":78,"time_elapsed":496986,"internal_node_id":"0.0-4.0-1.35","subject_id":"60cce334ff73d2d13370a6e4","study_id":"6197b3f67c2b5cd3b6d9596a","session_id":"6197b58bf64b32a151fc49ea","condition":"contingent","relevant_dimensions":["pattern","legs"],"bee_group":{"antennae":"X","wings":"X","pattern":"S","legs":"M"},"bonus":0.08},{"rt":2360.5,"stimulus":"bees-with-color/bee-B1SM.svg","response":1,"trial_type":"image-button-response","trial_index":79,"time_elapsed":499351,"internal_node_id":"0.0-4.0-0.36","subject_id":"60cce334ff73d2d13370a6e4","study_id":"6197b3f67c2b5cd3b6d9596a","session_id":"6197b58bf64b32a151fc49ea","condition":"contingent","relevant_dimensions":["pattern","legs"],"bee_group":{"antennae":"X","wings":"X","pattern":"S","legs":"M"},"action":"avoid","summary":"good-avoid","bonus":0.08},{"rt":1850.8000000000466,"stimulus":"\n                    <p><b>Action: <em>avoid</em></b></p>\n                    <p>This is the bee that you just saw.</p>\n                    <img src=\"bees-with-color/bee-B1SM.svg\" width=\"200\">\n                    <p><br>Your bonus pay is unchanged, and remains at $0.12.</p>\n            ","response":0,"trial_type":"html-button-response","trial_index":80,"time_elapsed":501207,"internal_node_id":"0.0-4.0-1.36","subject_id":"60cce334ff73d2d13370a6e4","study_id":"6197b3f67c2b5cd3b6d9596a","session_id":"6197b58bf64b32a151fc49ea","condition":"contingent","relevant_dimensions":["pattern","legs"],"bee_group":{"antennae":"X","wings":"X","pattern":"S","legs":"M"},"bonus":0.08},{"rt":4194.100000000093,"stimulus":"bees-with-color/bee-B2DF.svg","response":0,"trial_type":"image-button-response","trial_index":81,"time_elapsed":505406,"internal_node_id":"0.0-4.0-0.37","subject_id":"60cce334ff73d2d13370a6e4","study_id":"6197b3f67c2b5cd3b6d9596a","session_id":"6197b58bf64b32a151fc49ea","condition":"contingent","relevant_dimensions":["pattern","legs"],"bee_group":{"antennae":"X","wings":"X","pattern":"S","legs":"M"},"action":"harvest","summary":"good-harvest","bonus":0.08},{"rt":1623.0999999998603,"stimulus":"\n                    <p><b>Action: <em>harvest</em></b></p>\n                    <p>This is the bee that you just saw.</p>\n                    <img src=\"bees-with-color/bee-B2DF.svg\" width=\"200\">\n                    <p><span class=\"greenText\"><b>Successful harvest!</b></span><br>Your pay has increased by $0.02. Your bonus pay is now $0.14.</p>\n            ","response":0,"trial_type":"html-button-response","trial_index":82,"time_elapsed":507031,"internal_node_id":"0.0-4.0-1.37","subject_id":"60cce334ff73d2d13370a6e4","study_id":"6197b3f67c2b5cd3b6d9596a","session_id":"6197b58bf64b32a151fc49ea","condition":"contingent","relevant_dimensions":["pattern","legs"],"bee_group":{"antennae":"X","wings":"X","pattern":"S","legs":"M"},"bonus":0.08},{"rt":7169.600000000093,"stimulus":"bees-with-color/bee-B2SM.svg","response":0,"trial_type":"image-button-response","trial_index":83,"time_elapsed":514204,"internal_node_id":"0.0-4.0-0.38","subject_id":"60cce334ff73d2d13370a6e4","study_id":"6197b3f67c2b5cd3b6d9596a","session_id":"6197b58bf64b32a151fc49ea","condition":"contingent","relevant_dimensions":["pattern","legs"],"bee_group":{"antennae":"X","wings":"X","pattern":"S","legs":"M"},"action":"harvest","summary":"bad-harvest","bonus":0.08},{"rt":1862.6000000000931,"stimulus":"\n                    <p><b>Action: <em>harvest</em></b></p>\n                    <p>This is the bee that you just saw.</p>\n                    <img src=\"bees-with-color/bee-B2SM.svg\" width=\"200\">\n                    <p><span class=\"redText\">Bad choice, the bee was angry.</span><br><b>You have been stung!</b><br>Your pay has been decreased by $0.10. Your bonus pay is now $0.04.</p>\n            ","response":0,"trial_type":"html-button-response","trial_index":84,"time_elapsed":516071,"internal_node_id":"0.0-4.0-1.38","subject_id":"60cce334ff73d2d13370a6e4","study_id":"6197b3f67c2b5cd3b6d9596a","session_id":"6197b58bf64b32a151fc49ea","condition":"contingent","relevant_dimensions":["pattern","legs"],"bee_group":{"antennae":"X","wings":"X","pattern":"S","legs":"M"},"bonus":0.08},{"rt":2907.2000000001863,"stimulus":"bees-with-color/bee-A1DM.svg","response":0,"trial_type":"image-button-response","trial_index":85,"time_elapsed":518981,"internal_node_id":"0.0-4.0-0.39","subject_id":"60cce334ff73d2d13370a6e4","study_id":"6197b3f67c2b5cd3b6d9596a","session_id":"6197b58bf64b32a151fc49ea","condition":"contingent","relevant_dimensions":["pattern","legs"],"bee_group":{"antennae":"X","wings":"X","pattern":"S","legs":"M"},"action":"harvest","summary":"good-harvest","bonus":0.08},{"rt":1802.1999999999534,"stimulus":"\n                    <p><b>Action: <em>harvest</em></b></p>\n                    <p>This is the bee that you just saw.</p>\n                    <img src=\"bees-with-color/bee-A1DM.svg\" width=\"200\">\n                    <p><span class=\"greenText\"><b>Successful harvest!</b></span><br>Your pay has increased by $0.02. Your bonus pay is now $0.06.</p>\n            ","response":0,"trial_type":"html-button-response","trial_index":86,"time_elapsed":520786,"internal_node_id":"0.0-4.0-1.39","subject_id":"60cce334ff73d2d13370a6e4","study_id":"6197b3f67c2b5cd3b6d9596a","session_id":"6197b58bf64b32a151fc49ea","condition":"contingent","relevant_dimensions":["pattern","legs"],"bee_group":{"antennae":"X","wings":"X","pattern":"S","legs":"M"},"bonus":0.08},{"rt":3312.6999999999534,"stimulus":"bees-with-color/bee-A1SM.svg","response":1,"trial_type":"image-button-response","trial_index":87,"time_elapsed":524102,"internal_node_id":"0.0-4.0-0.40","subject_id":"60cce334ff73d2d13370a6e4","study_id":"6197b3f67c2b5cd3b6d9596a","session_id":"6197b58bf64b32a151fc49ea","condition":"contingent","relevant_dimensions":["pattern","legs"],"bee_group":{"antennae":"X","wings":"X","pattern":"S","legs":"M"},"action":"avoid","summary":"good-avoid","bonus":0.08},{"rt":1557.8999999999069,"stimulus":"\n                    <p><b>Action: <em>avoid</em></b></p>\n                    <p>This is the bee that you just saw.</p>\n                    <img src=\"bees-with-color/bee-A1SM.svg\" width=\"200\">\n                    <p><br>Your bonus pay is unchanged, and remains at $0.06.</p>\n            ","response":0,"trial_type":"html-button-response","trial_index":88,"time_elapsed":525667,"internal_node_id":"0.0-4.0-1.40","subject_id":"60cce334ff73d2d13370a6e4","study_id":"6197b3f67c2b5cd3b6d9596a","session_id":"6197b58bf64b32a151fc49ea","condition":"contingent","relevant_dimensions":["pattern","legs"],"bee_group":{"antennae":"X","wings":"X","pattern":"S","legs":"M"},"bonus":0.08},{"rt":1658.1999999999534,"stimulus":"bees-with-color/bee-B2SF.svg","response":1,"trial_type":"image-button-response","trial_index":89,"time_elapsed":527332,"internal_node_id":"0.0-4.0-0.41","subject_id":"60cce334ff73d2d13370a6e4","study_id":"6197b3f67c2b5cd3b6d9596a","session_id":"6197b58bf64b32a151fc49ea","condition":"contingent","relevant_dimensions":["pattern","legs"],"bee_group":{"antennae":"X","wings":"X","pattern":"S","legs":"M"},"action":"avoid","summary":"bad-avoid","bonus":0.08},{"rt":1763.6999999999534,"stimulus":"\n                    <p><b>Action: <em>avoid</em></b></p>\n                    <p>This is the bee that you just saw.</p>\n                    <img src=\"bees-with-color/bee-B2SF.svg\" width=\"200\">\n                    <p><br>Your bonus pay is unchanged, and remains at $0.06.</p>\n            ","response":0,"trial_type":"html-button-response","trial_index":90,"time_elapsed":529104,"internal_node_id":"0.0-4.0-1.41","subject_id":"60cce334ff73d2d13370a6e4","study_id":"6197b3f67c2b5cd3b6d9596a","session_id":"6197b58bf64b32a151fc49ea","condition":"contingent","relevant_dimensions":["pattern","legs"],"bee_group":{"antennae":"X","wings":"X","pattern":"S","legs":"M"},"bonus":0.08},{"rt":1815.8000000000466,"stimulus":"bees-with-color/bee-B1SF.svg","response":0,"trial_type":"image-button-response","trial_index":91,"time_elapsed":530922,"internal_node_id":"0.0-4.0-0.42","subject_id":"60cce334ff73d2d13370a6e4","study_id":"6197b3f67c2b5cd3b6d9596a","session_id":"6197b58bf64b32a151fc49ea","condition":"contingent","relevant_dimensions":["pattern","legs"],"bee_group":{"antennae":"X","wings":"X","pattern":"S","legs":"M"},"action":"harvest","summary":"good-harvest","bonus":0.08},{"rt":1957,"stimulus":"\n                    <p><b>Action: <em>harvest</em></b></p>\n                    <p>This is the bee that you just saw.</p>\n                    <img src=\"bees-with-color/bee-B1SF.svg\" width=\"200\">\n                    <p><span class=\"greenText\"><b>Successful harvest!</b></span><br>Your pay has increased by $0.02. Your bonus pay is now $0.08.</p>\n            ","response":0,"trial_type":"html-button-response","trial_index":92,"time_elapsed":532882,"internal_node_id":"0.0-4.0-1.42","subject_id":"60cce334ff73d2d13370a6e4","study_id":"6197b3f67c2b5cd3b6d9596a","session_id":"6197b58bf64b32a151fc49ea","condition":"contingent","relevant_dimensions":["pattern","legs"],"bee_group":{"antennae":"X","wings":"X","pattern":"S","legs":"M"},"bonus":0.08},{"rt":3544.100000000093,"stimulus":"bees-with-color/bee-A2SM.svg","response":0,"trial_type":"image-button-response","trial_index":93,"time_elapsed":536428,"internal_node_id":"0.0-4.0-0.43","subject_id":"60cce334ff73d2d13370a6e4","study_id":"6197b3f67c2b5cd3b6d9596a","session_id":"6197b58bf64b32a151fc49ea","condition":"contingent","relevant_dimensions":["pattern","legs"],"bee_group":{"antennae":"X","wings":"X","pattern":"S","legs":"M"},"action":"harvest","summary":"bad-harvest","bonus":0.08},{"rt":3087.6999999999534,"stimulus":"\n                    <p><b>Action: <em>harvest</em></b></p>\n                    <p>This is the bee that you just saw.</p>\n                    <img src=\"bees-with-color/bee-A2SM.svg\" width=\"200\">\n                    <p><span class=\"redText\">Bad choice, the bee was angry.</span><br><b>You have been stung!</b><br>Your pay has been decreased by $0.10. Your bonus pay is now $0.00.</p>\n            ","response":0,"trial_type":"html-button-response","trial_index":94,"time_elapsed":539518,"internal_node_id":"0.0-4.0-1.43","subject_id":"60cce334ff73d2d13370a6e4","study_id":"6197b3f67c2b5cd3b6d9596a","session_id":"6197b58bf64b32a151fc49ea","condition":"contingent","relevant_dimensions":["pattern","legs"],"bee_group":{"antennae":"X","wings":"X","pattern":"S","legs":"M"},"bonus":0.08},{"rt":2280.600000000093,"stimulus":"bees-with-color/bee-B1DM.svg","response":0,"trial_type":"image-button-response","trial_index":95,"time_elapsed":541803,"internal_node_id":"0.0-4.0-0.44","subject_id":"60cce334ff73d2d13370a6e4","study_id":"6197b3f67c2b5cd3b6d9596a","session_id":"6197b58bf64b32a151fc49ea","condition":"contingent","relevant_dimensions":["pattern","legs"],"bee_group":{"antennae":"X","wings":"X","pattern":"S","legs":"M"},"action":"harvest","summary":"good-harvest","bonus":0.08},{"rt":1924.3999999999069,"stimulus":"\n                    <p><b>Action: <em>harvest</em></b></p>\n                    <p>This is the bee that you just saw.</p>\n                    <img src=\"bees-with-color/bee-B1DM.svg\" width=\"200\">\n                    <p><span class=\"greenText\"><b>Successful harvest!</b></span><br>Your pay has increased by $0.02. Your bonus pay is now $0.02.</p>\n            ","response":0,"trial_type":"html-button-response","trial_index":96,"time_elapsed":543730,"internal_node_id":"0.0-4.0-1.44","subject_id":"60cce334ff73d2d13370a6e4","study_id":"6197b3f67c2b5cd3b6d9596a","session_id":"6197b58bf64b32a151fc49ea","condition":"contingent","relevant_dimensions":["pattern","legs"],"bee_group":{"antennae":"X","wings":"X","pattern":"S","legs":"M"},"bonus":0.08},{"rt":2259.5999999998603,"stimulus":"bees-with-color/bee-A2SF.svg","response":0,"trial_type":"image-button-response","trial_index":97,"time_elapsed":545992,"internal_node_id":"0.0-4.0-0.45","subject_id":"60cce334ff73d2d13370a6e4","study_id":"6197b3f67c2b5cd3b6d9596a","session_id":"6197b58bf64b32a151fc49ea","condition":"contingent","relevant_dimensions":["pattern","legs"],"bee_group":{"antennae":"X","wings":"X","pattern":"S","legs":"M"},"action":"harvest","summary":"good-harvest","bonus":0.08},{"rt":1336.2000000001863,"stimulus":"\n                    <p><b>Action: <em>harvest</em></b></p>\n                    <p>This is the bee that you just saw.</p>\n                    <img src=\"bees-with-color/bee-A2SF.svg\" width=\"200\">\n                    <p><span class=\"greenText\"><b>Successful harvest!</b></span><br>Your pay has increased by $0.02. Your bonus pay is now $0.04.</p>\n            ","response":0,"trial_type":"html-button-response","trial_index":98,"time_elapsed":547331,"internal_node_id":"0.0-4.0-1.45","subject_id":"60cce334ff73d2d13370a6e4","study_id":"6197b3f67c2b5cd3b6d9596a","session_id":"6197b58bf64b32a151fc49ea","condition":"contingent","relevant_dimensions":["pattern","legs"],"bee_group":{"antennae":"X","wings":"X","pattern":"S","legs":"M"},"bonus":0.08},{"rt":2305.5,"stimulus":"bees-with-color/bee-A1SF.svg","response":1,"trial_type":"image-button-response","trial_index":99,"time_elapsed":549639,"internal_node_id":"0.0-4.0-0.46","subject_id":"60cce334ff73d2d13370a6e4","study_id":"6197b3f67c2b5cd3b6d9596a","session_id":"6197b58bf64b32a151fc49ea","condition":"contingent","relevant_dimensions":["pattern","legs"],"bee_group":{"antennae":"X","wings":"X","pattern":"S","legs":"M"},"action":"avoid","summary":"bad-avoid","bonus":0.08},{"rt":1870.9000000001397,"stimulus":"\n                    <p><b>Action: <em>avoid</em></b></p>\n                    <p>This is the bee that you just saw.</p>\n                    <img src=\"bees-with-color/bee-A1SF.svg\" width=\"200\">\n                    <p><br>Your bonus pay is unchanged, and remains at $0.04.</p>\n            ","response":0,"trial_type":"html-button-response","trial_index":100,"time_elapsed":551512,"internal_node_id":"0.0-4.0-1.46","subject_id":"60cce334ff73d2d13370a6e4","study_id":"6197b3f67c2b5cd3b6d9596a","session_id":"6197b58bf64b32a151fc49ea","condition":"contingent","relevant_dimensions":["pattern","legs"],"bee_group":{"antennae":"X","wings":"X","pattern":"S","legs":"M"},"bonus":0.08},{"rt":1863.9000000001397,"stimulus":"bees-with-color/bee-A1DF.svg","response":1,"trial_type":"image-button-response","trial_index":101,"time_elapsed":553378,"internal_node_id":"0.0-4.0-0.47","subject_id":"60cce334ff73d2d13370a6e4","study_id":"6197b3f67c2b5cd3b6d9596a","session_id":"6197b58bf64b32a151fc49ea","condition":"contingent","relevant_dimensions":["pattern","legs"],"bee_group":{"antennae":"X","wings":"X","pattern":"S","legs":"M"},"action":"avoid","summary":"bad-avoid","bonus":0.08},{"rt":1592.6999999999534,"stimulus":"\n                    <p><b>Action: <em>avoid</em></b></p>\n                    <p>This is the bee that you just saw.</p>\n                    <img src=\"bees-with-color/bee-A1DF.svg\" width=\"200\">\n                    <p><br>Your bonus pay is unchanged, and remains at $0.04.</p>\n            ","response":0,"trial_type":"html-button-response","trial_index":102,"time_elapsed":554973,"internal_node_id":"0.0-4.0-1.47","subject_id":"60cce334ff73d2d13370a6e4","study_id":"6197b3f67c2b5cd3b6d9596a","session_id":"6197b58bf64b32a151fc49ea","condition":"contingent","relevant_dimensions":["pattern","legs"],"bee_group":{"antennae":"X","wings":"X","pattern":"S","legs":"M"},"bonus":0.08},{"rt":1392.8000000000466,"stimulus":"bees-with-color/bee-A2DM.svg","response":0,"trial_type":"image-button-response","trial_index":103,"time_elapsed":556370,"internal_node_id":"0.0-4.0-0.48","subject_id":"60cce334ff73d2d13370a6e4","study_id":"6197b3f67c2b5cd3b6d9596a","session_id":"6197b58bf64b32a151fc49ea","condition":"contingent","relevant_dimensions":["pattern","legs"],"bee_group":{"antennae":"X","wings":"X","pattern":"S","legs":"M"},"action":"harvest","summary":"good-harvest","bonus":0.08},{"rt":1580.9000000001397,"stimulus":"\n                    <p><b>Action: <em>harvest</em></b></p>\n                    <p>This is the bee that you just saw.</p>\n                    <img src=\"bees-with-color/bee-A2DM.svg\" width=\"200\">\n                    <p><span class=\"greenText\"><b>Successful harvest!</b></span><br>Your pay has increased by $0.02. Your bonus pay is now $0.06.</p>\n            ","response":0,"trial_type":"html-button-response","trial_index":104,"time_elapsed":557955,"internal_node_id":"0.0-4.0-1.48","subject_id":"60cce334ff73d2d13370a6e4","study_id":"6197b3f67c2b5cd3b6d9596a","session_id":"6197b58bf64b32a151fc49ea","condition":"contingent","relevant_dimensions":["pattern","legs"],"bee_group":{"antennae":"X","wings":"X","pattern":"S","legs":"M"},"bonus":0.08},{"rt":2374.5,"stimulus":"bees-with-color/bee-A2SM.svg","response":0,"trial_type":"image-button-response","trial_index":105,"time_elapsed":560332,"internal_node_id":"0.0-4.0-0.49","subject_id":"60cce334ff73d2d13370a6e4","study_id":"6197b3f67c2b5cd3b6d9596a","session_id":"6197b58bf64b32a151fc49ea","condition":"contingent","relevant_dimensions":["pattern","legs"],"bee_group":{"antennae":"X","wings":"X","pattern":"S","legs":"M"},"action":"harvest","summary":"bad-harvest","bonus":0.08},{"rt":2474.8000000000466,"stimulus":"\n                    <p><b>Action: <em>harvest</em></b></p>\n                    <p>This is the bee that you just saw.</p>\n                    <img src=\"bees-with-color/bee-A2SM.svg\" width=\"200\">\n                    <p><span class=\"redText\">Bad choice, the bee was angry.</span><br><b>You have been stung!</b><br>Your pay has been decreased by $0.10. Your bonus pay is now $0.00.</p>\n            ","response":0,"trial_type":"html-button-response","trial_index":106,"time_elapsed":562808,"internal_node_id":"0.0-4.0-1.49","subject_id":"60cce334ff73d2d13370a6e4","study_id":"6197b3f67c2b5cd3b6d9596a","session_id":"6197b58bf64b32a151fc49ea","condition":"contingent","relevant_dimensions":["pattern","legs"],"bee_group":{"antennae":"X","wings":"X","pattern":"S","legs":"M"},"bonus":0.08},{"rt":2243.5,"stimulus":"bees-with-color/bee-A1SF.svg","response":0,"trial_type":"image-button-response","trial_index":107,"time_elapsed":565054,"internal_node_id":"0.0-4.0-0.50","subject_id":"60cce334ff73d2d13370a6e4","study_id":"6197b3f67c2b5cd3b6d9596a","session_id":"6197b58bf64b32a151fc49ea","condition":"contingent","relevant_dimensions":["pattern","legs"],"bee_group":{"antennae":"X","wings":"X","pattern":"S","legs":"M"},"action":"harvest","summary":"good-harvest","bonus":0.08},{"rt":1570.2999999998137,"stimulus":"\n                    <p><b>Action: <em>harvest</em></b></p>\n                    <p>This is the bee that you just saw.</p>\n                    <img src=\"bees-with-color/bee-A1SF.svg\" width=\"200\">\n                    <p><span class=\"greenText\"><b>Successful harvest!</b></span><br>Your pay has increased by $0.02. Your bonus pay is now $0.02.</p>\n            ","response":0,"trial_type":"html-button-response","trial_index":108,"time_elapsed":566627,"internal_node_id":"0.0-4.0-1.50","subject_id":"60cce334ff73d2d13370a6e4","study_id":"6197b3f67c2b5cd3b6d9596a","session_id":"6197b58bf64b32a151fc49ea","condition":"contingent","relevant_dimensions":["pattern","legs"],"bee_group":{"antennae":"X","wings":"X","pattern":"S","legs":"M"},"bonus":0.08},{"rt":3464.100000000093,"stimulus":"bees-with-color/bee-B1DM.svg","response":0,"trial_type":"image-button-response","trial_index":109,"time_elapsed":570094,"internal_node_id":"0.0-4.0-0.51","subject_id":"60cce334ff73d2d13370a6e4","study_id":"6197b3f67c2b5cd3b6d9596a","session_id":"6197b58bf64b32a151fc49ea","condition":"contingent","relevant_dimensions":["pattern","legs"],"bee_group":{"antennae":"X","wings":"X","pattern":"S","legs":"M"},"action":"harvest","summary":"good-harvest","bonus":0.08},{"rt":1438.8999999999069,"stimulus":"\n                    <p><b>Action: <em>harvest</em></b></p>\n                    <p>This is the bee that you just saw.</p>\n                    <img src=\"bees-with-color/bee-B1DM.svg\" width=\"200\">\n                    <p><span class=\"greenText\"><b>Successful harvest!</b></span><br>Your pay has increased by $0.02. Your bonus pay is now $0.04.</p>\n            ","response":0,"trial_type":"html-button-response","trial_index":110,"time_elapsed":571536,"internal_node_id":"0.0-4.0-1.51","subject_id":"60cce334ff73d2d13370a6e4","study_id":"6197b3f67c2b5cd3b6d9596a","session_id":"6197b58bf64b32a151fc49ea","condition":"contingent","relevant_dimensions":["pattern","legs"],"bee_group":{"antennae":"X","wings":"X","pattern":"S","legs":"M"},"bonus":0.08},{"rt":1351.8000000000466,"stimulus":"bees-with-color/bee-A1DF.svg","response":0,"trial_type":"image-button-response","trial_index":111,"time_elapsed":572891,"internal_node_id":"0.0-4.0-0.52","subject_id":"60cce334ff73d2d13370a6e4","study_id":"6197b3f67c2b5cd3b6d9596a","session_id":"6197b58bf64b32a151fc49ea","condition":"contingent","relevant_dimensions":["pattern","legs"],"bee_group":{"antennae":"X","wings":"X","pattern":"S","legs":"M"},"action":"harvest","summary":"good-harvest","bonus":0.08},{"rt":1984.3999999999069,"stimulus":"\n                    <p><b>Action: <em>harvest</em></b></p>\n                    <p>This is the bee that you just saw.</p>\n                    <img src=\"bees-with-color/bee-A1DF.svg\" width=\"200\">\n                    <p><span class=\"greenText\"><b>Successful harvest!</b></span><br>Your pay has increased by $0.02. Your bonus pay is now $0.06.</p>\n            ","response":0,"trial_type":"html-button-response","trial_index":112,"time_elapsed":574880,"internal_node_id":"0.0-4.0-1.52","subject_id":"60cce334ff73d2d13370a6e4","study_id":"6197b3f67c2b5cd3b6d9596a","session_id":"6197b58bf64b32a151fc49ea","condition":"contingent","relevant_dimensions":["pattern","legs"],"bee_group":{"antennae":"X","wings":"X","pattern":"S","legs":"M"},"bonus":0.08},{"rt":1761.3999999999069,"stimulus":"bees-with-color/bee-B2SF.svg","response":0,"trial_type":"image-button-response","trial_index":113,"time_elapsed":576644,"internal_node_id":"0.0-4.0-0.53","subject_id":"60cce334ff73d2d13370a6e4","study_id":"6197b3f67c2b5cd3b6d9596a","session_id":"6197b58bf64b32a151fc49ea","condition":"contingent","relevant_dimensions":["pattern","legs"],"bee_group":{"antennae":"X","wings":"X","pattern":"S","legs":"M"},"action":"harvest","summary":"good-harvest","bonus":0.08},{"rt":1468.8000000000466,"stimulus":"\n                    <p><b>Action: <em>harvest</em></b></p>\n                    <p>This is the bee that you just saw.</p>\n                    <img src=\"bees-with-color/bee-B2SF.svg\" width=\"200\">\n                    <p><span class=\"greenText\"><b>Successful harvest!</b></span><br>Your pay has increased by $0.02. Your bonus pay is now $0.08.</p>\n            ","response":0,"trial_type":"html-button-response","trial_index":114,"time_elapsed":578115,"internal_node_id":"0.0-4.0-1.53","subject_id":"60cce334ff73d2d13370a6e4","study_id":"6197b3f67c2b5cd3b6d9596a","session_id":"6197b58bf64b32a151fc49ea","condition":"contingent","relevant_dimensions":["pattern","legs"],"bee_group":{"antennae":"X","wings":"X","pattern":"S","legs":"M"},"bonus":0.08},{"rt":1600.4000000001397,"stimulus":"bees-with-color/bee-A1SM.svg","response":1,"trial_type":"image-button-response","trial_index":115,"time_elapsed":579718,"internal_node_id":"0.0-4.0-0.54","subject_id":"60cce334ff73d2d13370a6e4","study_id":"6197b3f67c2b5cd3b6d9596a","session_id":"6197b58bf64b32a151fc49ea","condition":"contingent","relevant_dimensions":["pattern","legs"],"bee_group":{"antennae":"X","wings":"X","pattern":"S","legs":"M"},"action":"avoid","summary":"good-avoid","bonus":0.08},{"rt":1817.6000000000931,"stimulus":"\n                    <p><b>Action: <em>avoid</em></b></p>\n                    <p>This is the bee that you just saw.</p>\n                    <img src=\"bees-with-color/bee-A1SM.svg\" width=\"200\">\n                    <p><br>Your bonus pay is unchanged, and remains at $0.08.</p>\n            ","response":0,"trial_type":"html-button-response","trial_index":116,"time_elapsed":581538,"internal_node_id":"0.0-4.0-1.54","subject_id":"60cce334ff73d2d13370a6e4","study_id":"6197b3f67c2b5cd3b6d9596a","session_id":"6197b58bf64b32a151fc49ea","condition":"contingent","relevant_dimensions":["pattern","legs"],"bee_group":{"antennae":"X","wings":"X","pattern":"S","legs":"M"},"bonus":0.08},{"rt":1180.8000000000466,"stimulus":"bees-with-color/bee-B2DM.svg","response":0,"trial_type":"image-button-response","trial_index":117,"time_elapsed":582722,"internal_node_id":"0.0-4.0-0.55","subject_id":"60cce334ff73d2d13370a6e4","study_id":"6197b3f67c2b5cd3b6d9596a","session_id":"6197b58bf64b32a151fc49ea","condition":"contingent","relevant_dimensions":["pattern","legs"],"bee_group":{"antennae":"X","wings":"X","pattern":"S","legs":"M"},"action":"harvest","summary":"good-harvest","bonus":0.08},{"rt":2257.9000000001397,"stimulus":"\n                    <p><b>Action: <em>harvest</em></b></p>\n                    <p>This is the bee that you just saw.</p>\n                    <img src=\"bees-with-color/bee-B2DM.svg\" width=\"200\">\n                    <p><span class=\"greenText\"><b>Successful harvest!</b></span><br>Your pay has increased by $0.02. Your bonus pay is now $0.10.</p>\n            ","response":0,"trial_type":"html-button-response","trial_index":118,"time_elapsed":584982,"internal_node_id":"0.0-4.0-1.55","subject_id":"60cce334ff73d2d13370a6e4","study_id":"6197b3f67c2b5cd3b6d9596a","session_id":"6197b58bf64b32a151fc49ea","condition":"contingent","relevant_dimensions":["pattern","legs"],"bee_group":{"antennae":"X","wings":"X","pattern":"S","legs":"M"},"bonus":0.08},{"rt":2274.1999999999534,"stimulus":"bees-with-color/bee-A1DM.svg","response":0,"trial_type":"image-button-response","trial_index":119,"time_elapsed":587260,"internal_node_id":"0.0-4.0-0.56","subject_id":"60cce334ff73d2d13370a6e4","study_id":"6197b3f67c2b5cd3b6d9596a","session_id":"6197b58bf64b32a151fc49ea","condition":"contingent","relevant_dimensions":["pattern","legs"],"bee_group":{"antennae":"X","wings":"X","pattern":"S","legs":"M"},"action":"harvest","summary":"good-harvest","bonus":0.08},{"rt":1382.5,"stimulus":"\n                    <p><b>Action: <em>harvest</em></b></p>\n                    <p>This is the bee that you just saw.</p>\n                    <img src=\"bees-with-color/bee-A1DM.svg\" width=\"200\">\n                    <p><span class=\"greenText\"><b>Successful harvest!</b></span><br>Your pay has increased by $0.02. Your bonus pay is now $0.12.</p>\n            ","response":0,"trial_type":"html-button-response","trial_index":120,"time_elapsed":588646,"internal_node_id":"0.0-4.0-1.56","subject_id":"60cce334ff73d2d13370a6e4","study_id":"6197b3f67c2b5cd3b6d9596a","session_id":"6197b58bf64b32a151fc49ea","condition":"contingent","relevant_dimensions":["pattern","legs"],"bee_group":{"antennae":"X","wings":"X","pattern":"S","legs":"M"},"bonus":0.08},{"rt":1945.8000000000466,"stimulus":"bees-with-color/bee-A2SF.svg","response":0,"trial_type":"image-button-response","trial_index":121,"time_elapsed":590596,"internal_node_id":"0.0-4.0-0.57","subject_id":"60cce334ff73d2d13370a6e4","study_id":"6197b3f67c2b5cd3b6d9596a","session_id":"6197b58bf64b32a151fc49ea","condition":"contingent","relevant_dimensions":["pattern","legs"],"bee_group":{"antennae":"X","wings":"X","pattern":"S","legs":"M"},"action":"harvest","summary":"good-harvest","bonus":0.08},{"rt":1553.5,"stimulus":"\n                    <p><b>Action: <em>harvest</em></b></p>\n                    <p>This is the bee that you just saw.</p>\n                    <img src=\"bees-with-color/bee-A2SF.svg\" width=\"200\">\n                    <p><span class=\"greenText\"><b>Successful harvest!</b></span><br>Your pay has increased by $0.02. Your bonus pay is now $0.14.</p>\n            ","response":0,"trial_type":"html-button-response","trial_index":122,"time_elapsed":592151,"internal_node_id":"0.0-4.0-1.57","subject_id":"60cce334ff73d2d13370a6e4","study_id":"6197b3f67c2b5cd3b6d9596a","session_id":"6197b58bf64b32a151fc49ea","condition":"contingent","relevant_dimensions":["pattern","legs"],"bee_group":{"antennae":"X","wings":"X","pattern":"S","legs":"M"},"bonus":0.08},{"rt":3256.8000000000466,"stimulus":"bees-with-color/bee-A2DF.svg","response":0,"trial_type":"image-button-response","trial_index":123,"time_elapsed":595410,"internal_node_id":"0.0-4.0-0.58","subject_id":"60cce334ff73d2d13370a6e4","study_id":"6197b3f67c2b5cd3b6d9596a","session_id":"6197b58bf64b32a151fc49ea","condition":"contingent","relevant_dimensions":["pattern","legs"],"bee_group":{"antennae":"X","wings":"X","pattern":"S","legs":"M"},"action":"harvest","summary":"good-harvest","bonus":0.08},{"rt":1678.6999999999534,"stimulus":"\n                    <p><b>Action: <em>harvest</em></b></p>\n                    <p>This is the bee that you just saw.</p>\n                    <img src=\"bees-with-color/bee-A2DF.svg\" width=\"200\">\n                    <p><span class=\"greenText\"><b>Successful harvest!</b></span><br>Your pay has increased by $0.02. Your bonus pay is now $0.16.</p>\n            ","response":0,"trial_type":"html-button-response","trial_index":124,"time_elapsed":597092,"internal_node_id":"0.0-4.0-1.58","subject_id":"60cce334ff73d2d13370a6e4","study_id":"6197b3f67c2b5cd3b6d9596a","session_id":"6197b58bf64b32a151fc49ea","condition":"contingent","relevant_dimensions":["pattern","legs"],"bee_group":{"antennae":"X","wings":"X","pattern":"S","legs":"M"},"bonus":0.08},{"rt":2527,"stimulus":"bees-with-color/bee-B1DF.svg","response":1,"trial_type":"image-button-response","trial_index":125,"time_elapsed":599622,"internal_node_id":"0.0-4.0-0.59","subject_id":"60cce334ff73d2d13370a6e4","study_id":"6197b3f67c2b5cd3b6d9596a","session_id":"6197b58bf64b32a151fc49ea","condition":"contingent","relevant_dimensions":["pattern","legs"],"bee_group":{"antennae":"X","wings":"X","pattern":"S","legs":"M"},"action":"avoid","summary":"bad-avoid","bonus":0.08},{"rt":3101.9000000001397,"stimulus":"\n                    <p><b>Action: <em>avoid</em></b></p>\n                    <p>This is the bee that you just saw.</p>\n                    <img src=\"bees-with-color/bee-B1DF.svg\" width=\"200\">\n                    <p><br>Your bonus pay is unchanged, and remains at $0.16.</p>\n            ","response":0,"trial_type":"html-button-response","trial_index":126,"time_elapsed":602726,"internal_node_id":"0.0-4.0-1.59","subject_id":"60cce334ff73d2d13370a6e4","study_id":"6197b3f67c2b5cd3b6d9596a","session_id":"6197b58bf64b32a151fc49ea","condition":"contingent","relevant_dimensions":["pattern","legs"],"bee_group":{"antennae":"X","wings":"X","pattern":"S","legs":"M"},"bonus":0.08},{"rt":4255.300000000047,"stimulus":"bees-with-color/bee-B2SM.svg","response":0,"trial_type":"image-button-response","trial_index":127,"time_elapsed":606985,"internal_node_id":"0.0-4.0-0.60","subject_id":"60cce334ff73d2d13370a6e4","study_id":"6197b3f67c2b5cd3b6d9596a","session_id":"6197b58bf64b32a151fc49ea","condition":"contingent","relevant_dimensions":["pattern","legs"],"bee_group":{"antennae":"X","wings":"X","pattern":"S","legs":"M"},"action":"harvest","summary":"bad-harvest","bonus":0.08},{"rt":1367.9000000001397,"stimulus":"\n                    <p><b>Action: <em>harvest</em></b></p>\n                    <p>This is the bee that you just saw.</p>\n                    <img src=\"bees-with-color/bee-B2SM.svg\" width=\"200\">\n                    <p><span class=\"redText\">Bad choice, the bee was angry.</span><br><b>You have been stung!</b><br>Your pay has been decreased by $0.10. Your bonus pay is now $0.06.</p>\n            ","response":0,"trial_type":"html-button-response","trial_index":128,"time_elapsed":608356,"internal_node_id":"0.0-4.0-1.60","subject_id":"60cce334ff73d2d13370a6e4","study_id":"6197b3f67c2b5cd3b6d9596a","session_id":"6197b58bf64b32a151fc49ea","condition":"contingent","relevant_dimensions":["pattern","legs"],"bee_group":{"antennae":"X","wings":"X","pattern":"S","legs":"M"},"bonus":0.08},{"rt":1319.6999999999534,"stimulus":"bees-with-color/bee-B1SM.svg","response":0,"trial_type":"image-button-response","trial_index":129,"time_elapsed":609681,"internal_node_id":"0.0-4.0-0.61","subject_id":"60cce334ff73d2d13370a6e4","study_id":"6197b3f67c2b5cd3b6d9596a","session_id":"6197b58bf64b32a151fc49ea","condition":"contingent","relevant_dimensions":["pattern","legs"],"bee_group":{"antennae":"X","wings":"X","pattern":"S","legs":"M"},"action":"harvest","summary":"bad-harvest","bonus":0.08},{"rt":1694.5,"stimulus":"\n                    <p><b>Action: <em>harvest</em></b></p>\n                    <p>This is the bee that you just saw.</p>\n                    <img src=\"bees-with-color/bee-B1SM.svg\" width=\"200\">\n                    <p><span class=\"redText\">Bad choice, the bee was angry.</span><br><b>You have been stung!</b><br>Your pay has been decreased by $0.10. Your bonus pay is now $0.00.</p>\n            ","response":0,"trial_type":"html-button-response","trial_index":130,"time_elapsed":611381,"internal_node_id":"0.0-4.0-1.61","subject_id":"60cce334ff73d2d13370a6e4","study_id":"6197b3f67c2b5cd3b6d9596a","session_id":"6197b58bf64b32a151fc49ea","condition":"contingent","relevant_dimensions":["pattern","legs"],"bee_group":{"antennae":"X","wings":"X","pattern":"S","legs":"M"},"bonus":0.08},{"rt":1437.8000000000466,"stimulus":"bees-with-color/bee-B2DF.svg","response":0,"trial_type":"image-button-response","trial_index":131,"time_elapsed":612823,"internal_node_id":"0.0-4.0-0.62","subject_id":"60cce334ff73d2d13370a6e4","study_id":"6197b3f67c2b5cd3b6d9596a","session_id":"6197b58bf64b32a151fc49ea","condition":"contingent","relevant_dimensions":["pattern","legs"],"bee_group":{"antennae":"X","wings":"X","pattern":"S","legs":"M"},"action":"harvest","summary":"good-harvest","bonus":0.08},{"rt":1535.2000000001863,"stimulus":"\n                    <p><b>Action: <em>harvest</em></b></p>\n                    <p>This is the bee that you just saw.</p>\n                    <img src=\"bees-with-color/bee-B2DF.svg\" width=\"200\">\n                    <p><span class=\"greenText\"><b>Successful harvest!</b></span><br>Your pay has increased by $0.02. Your bonus pay is now $0.02.</p>\n            ","response":0,"trial_type":"html-button-response","trial_index":132,"time_elapsed":614362,"internal_node_id":"0.0-4.0-1.62","subject_id":"60cce334ff73d2d13370a6e4","study_id":"6197b3f67c2b5cd3b6d9596a","session_id":"6197b58bf64b32a151fc49ea","condition":"contingent","relevant_dimensions":["pattern","legs"],"bee_group":{"antennae":"X","wings":"X","pattern":"S","legs":"M"},"bonus":0.08},{"rt":1088.8999999999069,"stimulus":"bees-with-color/bee-B1SF.svg","response":0,"trial_type":"image-button-response","trial_index":133,"time_elapsed":615453,"internal_node_id":"0.0-4.0-0.63","subject_id":"60cce334ff73d2d13370a6e4","study_id":"6197b3f67c2b5cd3b6d9596a","session_id":"6197b58bf64b32a151fc49ea","condition":"contingent","relevant_dimensions":["pattern","legs"],"bee_group":{"antennae":"X","wings":"X","pattern":"S","legs":"M"},"action":"harvest","summary":"good-harvest","bonus":0.08},{"rt":2982.3000000000466,"stimulus":"\n                    <p><b>Action: <em>harvest</em></b></p>\n                    <p>This is the bee that you just saw.</p>\n                    <img src=\"bees-with-color/bee-B1SF.svg\" width=\"200\">\n                    <p><span class=\"greenText\"><b>Successful harvest!</b></span><br>Your pay has increased by $0.02. Your bonus pay is now $0.04.</p>\n            ","response":0,"trial_type":"html-button-response","trial_index":134,"time_elapsed":618438,"internal_node_id":"0.0-4.0-1.63","subject_id":"60cce334ff73d2d13370a6e4","study_id":"6197b3f67c2b5cd3b6d9596a","session_id":"6197b58bf64b32a151fc49ea","condition":"contingent","relevant_dimensions":["pattern","legs"],"bee_group":{"antennae":"X","wings":"X","pattern":"S","legs":"M"},"bonus":0.08},{"rt":10814.09999999986,"stimulus":"You have completed the first part of this experiment.<br><br>You will now begin a shorter second part, in which you will receive no feedback.<br>The same rules regarding bonus pay apply.<br><br>Press any key to begin.","response":"g","trial_type":"html-keyboard-response","trial_index":135,"time_elapsed":629254,"internal_node_id":"0.0-5.0","subject_id":"60cce334ff73d2d13370a6e4","study_id":"6197b3f67c2b5cd3b6d9596a","session_id":"6197b58bf64b32a151fc49ea","condition":"contingent","relevant_dimensions":["pattern","legs"],"bee_group":{"antennae":"X","wings":"X","pattern":"S","legs":"M"},"bonus":0.08},{"rt":4292.199999999953,"stimulus":"bees-with-color/bee-A1SF.svg","response":0,"trial_type":"image-button-response","trial_index":136,"time_elapsed":633709,"internal_node_id":"0.0-6.0-0.0","subject_id":"60cce334ff73d2d13370a6e4","study_id":"6197b3f67c2b5cd3b6d9596a","session_id":"6197b58bf64b32a151fc49ea","condition":"contingent","relevant_dimensions":["pattern","legs"],"bee_group":{"antennae":"X","wings":"X","pattern":"S","legs":"M"},"bonus":0.08},{"rt":6560.90000000014,"stimulus":"bees-with-color/bee-A1DM.svg","response":0,"trial_type":"image-button-response","trial_index":137,"time_elapsed":640274,"internal_node_id":"0.0-6.0-0.1","subject_id":"60cce334ff73d2d13370a6e4","study_id":"6197b3f67c2b5cd3b6d9596a","session_id":"6197b58bf64b32a151fc49ea","condition":"contingent","relevant_dimensions":["pattern","legs"],"bee_group":{"antennae":"X","wings":"X","pattern":"S","legs":"M"},"bonus":0.08},{"rt":3340.3000000000466,"stimulus":"bees-with-color/bee-B2DF.svg","response":0,"trial_type":"image-button-response","trial_index":138,"time_elapsed":643619,"internal_node_id":"0.0-6.0-0.2","subject_id":"60cce334ff73d2d13370a6e4","study_id":"6197b3f67c2b5cd3b6d9596a","session_id":"6197b58bf64b32a151fc49ea","condition":"contingent","relevant_dimensions":["pattern","legs"],"bee_group":{"antennae":"X","wings":"X","pattern":"S","legs":"M"},"bonus":0.08},{"rt":1793.6999999999534,"stimulus":"bees-with-color/bee-A2DM.svg","response":0,"trial_type":"image-button-response","trial_index":139,"time_elapsed":645416,"internal_node_id":"0.0-6.0-0.3","subject_id":"60cce334ff73d2d13370a6e4","study_id":"6197b3f67c2b5cd3b6d9596a","session_id":"6197b58bf64b32a151fc49ea","condition":"contingent","relevant_dimensions":["pattern","legs"],"bee_group":{"antennae":"X","wings":"X","pattern":"S","legs":"M"},"bonus":0.08},{"rt":1786.1999999999534,"stimulus":"bees-with-color/bee-A1DF.svg","response":1,"trial_type":"image-button-response","trial_index":140,"time_elapsed":647206,"internal_node_id":"0.0-6.0-0.4","subject_id":"60cce334ff73d2d13370a6e4","study_id":"6197b3f67c2b5cd3b6d9596a","session_id":"6197b58bf64b32a151fc49ea","condition":"contingent","relevant_dimensions":["pattern","legs"],"bee_group":{"antennae":"X","wings":"X","pattern":"S","legs":"M"},"bonus":0.08},{"rt":1162,"stimulus":"bees-with-color/bee-B1DF.svg","response":1,"trial_type":"image-button-response","trial_index":141,"time_elapsed":648373,"internal_node_id":"0.0-6.0-0.5","subject_id":"60cce334ff73d2d13370a6e4","study_id":"6197b3f67c2b5cd3b6d9596a","session_id":"6197b58bf64b32a151fc49ea","condition":"contingent","relevant_dimensions":["pattern","legs"],"bee_group":{"antennae":"X","wings":"X","pattern":"S","legs":"M"},"bonus":0.08},{"rt":2458.600000000093,"stimulus":"bees-with-color/bee-A2SM.svg","response":1,"trial_type":"image-button-response","trial_index":142,"time_elapsed":650835,"internal_node_id":"0.0-6.0-0.6","subject_id":"60cce334ff73d2d13370a6e4","study_id":"6197b3f67c2b5cd3b6d9596a","session_id":"6197b58bf64b32a151fc49ea","condition":"contingent","relevant_dimensions":["pattern","legs"],"bee_group":{"antennae":"X","wings":"X","pattern":"S","legs":"M"},"bonus":0.08},{"rt":1940.4000000001397,"stimulus":"bees-with-color/bee-B1SM.svg","response":0,"trial_type":"image-button-response","trial_index":143,"time_elapsed":652778,"internal_node_id":"0.0-6.0-0.7","subject_id":"60cce334ff73d2d13370a6e4","study_id":"6197b3f67c2b5cd3b6d9596a","session_id":"6197b58bf64b32a151fc49ea","condition":"contingent","relevant_dimensions":["pattern","legs"],"bee_group":{"antennae":"X","wings":"X","pattern":"S","legs":"M"},"bonus":0.08},{"rt":3223.3000000000466,"stimulus":"bees-with-color/bee-A1SM.svg","response":1,"trial_type":"image-button-response","trial_index":144,"time_elapsed":656007,"internal_node_id":"0.0-6.0-0.8","subject_id":"60cce334ff73d2d13370a6e4","study_id":"6197b3f67c2b5cd3b6d9596a","session_id":"6197b58bf64b32a151fc49ea","condition":"contingent","relevant_dimensions":["pattern","legs"],"bee_group":{"antennae":"X","wings":"X","pattern":"S","legs":"M"},"bonus":0.08},{"rt":2852.8000000000466,"stimulus":"bees-with-color/bee-B1DM.svg","response":0,"trial_type":"image-button-response","trial_index":145,"time_elapsed":658865,"internal_node_id":"0.0-6.0-0.9","subject_id":"60cce334ff73d2d13370a6e4","study_id":"6197b3f67c2b5cd3b6d9596a","session_id":"6197b58bf64b32a151fc49ea","condition":"contingent","relevant_dimensions":["pattern","legs"],"bee_group":{"antennae":"X","wings":"X","pattern":"S","legs":"M"},"bonus":0.08},{"rt":1784.1999999999534,"stimulus":"bees-with-color/bee-B2DM.svg","response":0,"trial_type":"image-button-response","trial_index":146,"time_elapsed":660653,"internal_node_id":"0.0-6.0-0.10","subject_id":"60cce334ff73d2d13370a6e4","study_id":"6197b3f67c2b5cd3b6d9596a","session_id":"6197b58bf64b32a151fc49ea","condition":"contingent","relevant_dimensions":["pattern","legs"],"bee_group":{"antennae":"X","wings":"X","pattern":"S","legs":"M"},"bonus":0.08},{"rt":2518.6999999999534,"stimulus":"bees-with-color/bee-B2SF.svg","response":0,"trial_type":"image-button-response","trial_index":147,"time_elapsed":663178,"internal_node_id":"0.0-6.0-0.11","subject_id":"60cce334ff73d2d13370a6e4","study_id":"6197b3f67c2b5cd3b6d9596a","session_id":"6197b58bf64b32a151fc49ea","condition":"contingent","relevant_dimensions":["pattern","legs"],"bee_group":{"antennae":"X","wings":"X","pattern":"S","legs":"M"},"bonus":0.08},{"rt":2174.6999999999534,"stimulus":"bees-with-color/bee-B2SM.svg","response":1,"trial_type":"image-button-response","trial_index":148,"time_elapsed":665360,"internal_node_id":"0.0-6.0-0.12","subject_id":"60cce334ff73d2d13370a6e4","study_id":"6197b3f67c2b5cd3b6d9596a","session_id":"6197b58bf64b32a151fc49ea","condition":"contingent","relevant_dimensions":["pattern","legs"],"bee_group":{"antennae":"X","wings":"X","pattern":"S","legs":"M"},"bonus":0.08},{"rt":3415.5,"stimulus":"bees-with-color/bee-A2DF.svg","response":0,"trial_type":"image-button-response","trial_index":149,"time_elapsed":668781,"internal_node_id":"0.0-6.0-0.13","subject_id":"60cce334ff73d2d13370a6e4","study_id":"6197b3f67c2b5cd3b6d9596a","session_id":"6197b58bf64b32a151fc49ea","condition":"contingent","relevant_dimensions":["pattern","legs"],"bee_group":{"antennae":"X","wings":"X","pattern":"S","legs":"M"},"bonus":0.08},{"rt":1646.5,"stimulus":"bees-with-color/bee-B1SF.svg","response":1,"trial_type":"image-button-response","trial_index":150,"time_elapsed":670433,"internal_node_id":"0.0-6.0-0.14","subject_id":"60cce334ff73d2d13370a6e4","study_id":"6197b3f67c2b5cd3b6d9596a","session_id":"6197b58bf64b32a151fc49ea","condition":"contingent","relevant_dimensions":["pattern","legs"],"bee_group":{"antennae":"X","wings":"X","pattern":"S","legs":"M"},"bonus":0.08},{"rt":1277.8999999999069,"stimulus":"bees-with-color/bee-A2SF.svg","response":0,"trial_type":"image-button-response","trial_index":151,"time_elapsed":671715,"internal_node_id":"0.0-6.0-0.15","subject_id":"60cce334ff73d2d13370a6e4","study_id":"6197b3f67c2b5cd3b6d9596a","session_id":"6197b58bf64b32a151fc49ea","condition":"contingent","relevant_dimensions":["pattern","legs"],"bee_group":{"antennae":"X","wings":"X","pattern":"S","legs":"M"},"bonus":0.08},{"rt":1823.6999999999534,"stimulus":"bees-with-color/bee-A2DM.svg","response":1,"trial_type":"image-button-response","trial_index":152,"time_elapsed":673542,"internal_node_id":"0.0-6.0-0.16","subject_id":"60cce334ff73d2d13370a6e4","study_id":"6197b3f67c2b5cd3b6d9596a","session_id":"6197b58bf64b32a151fc49ea","condition":"contingent","relevant_dimensions":["pattern","legs"],"bee_group":{"antennae":"X","wings":"X","pattern":"S","legs":"M"},"bonus":0.08},{"rt":1474.8000000000466,"stimulus":"bees-with-color/bee-B1SF.svg","response":0,"trial_type":"image-button-response","trial_index":153,"time_elapsed":675019,"internal_node_id":"0.0-6.0-0.17","subject_id":"60cce334ff73d2d13370a6e4","study_id":"6197b3f67c2b5cd3b6d9596a","session_id":"6197b58bf64b32a151fc49ea","condition":"contingent","relevant_dimensions":["pattern","legs"],"bee_group":{"antennae":"X","wings":"X","pattern":"S","legs":"M"},"bonus":0.08},{"rt":2684.9000000001397,"stimulus":"bees-with-color/bee-A1SM.svg","response":0,"trial_type":"image-button-response","trial_index":154,"time_elapsed":677708,"internal_node_id":"0.0-6.0-0.18","subject_id":"60cce334ff73d2d13370a6e4","study_id":"6197b3f67c2b5cd3b6d9596a","session_id":"6197b58bf64b32a151fc49ea","condition":"contingent","relevant_dimensions":["pattern","legs"],"bee_group":{"antennae":"X","wings":"X","pattern":"S","legs":"M"},"bonus":0.08},{"rt":634.1000000000931,"stimulus":"bees-with-color/bee-B2SM.svg","response":0,"trial_type":"image-button-response","trial_index":155,"time_elapsed":678350,"internal_node_id":"0.0-6.0-0.19","subject_id":"60cce334ff73d2d13370a6e4","study_id":"6197b3f67c2b5cd3b6d9596a","session_id":"6197b58bf64b32a151fc49ea","condition":"contingent","relevant_dimensions":["pattern","legs"],"bee_group":{"antennae":"X","wings":"X","pattern":"S","legs":"M"},"bonus":0.08},{"rt":606,"stimulus":"bees-with-color/bee-A1DF.svg","response":0,"trial_type":"image-button-response","trial_index":156,"time_elapsed":678960,"internal_node_id":"0.0-6.0-0.20","subject_id":"60cce334ff73d2d13370a6e4","study_id":"6197b3f67c2b5cd3b6d9596a","session_id":"6197b58bf64b32a151fc49ea","condition":"contingent","relevant_dimensions":["pattern","legs"],"bee_group":{"antennae":"X","wings":"X","pattern":"S","legs":"M"},"bonus":0.08},{"rt":846.3999999999069,"stimulus":"bees-with-color/bee-B1DF.svg","response":0,"trial_type":"image-button-response","trial_index":157,"time_elapsed":679811,"internal_node_id":"0.0-6.0-0.21","subject_id":"60cce334ff73d2d13370a6e4","study_id":"6197b3f67c2b5cd3b6d9596a","session_id":"6197b58bf64b32a151fc49ea","condition":"contingent","relevant_dimensions":["pattern","legs"],"bee_group":{"antennae":"X","wings":"X","pattern":"S","legs":"M"},"bonus":0.08},{"rt":1111.1000000000931,"stimulus":"bees-with-color/bee-B2DM.svg","response":1,"trial_type":"image-button-response","trial_index":158,"time_elapsed":680926,"internal_node_id":"0.0-6.0-0.22","subject_id":"60cce334ff73d2d13370a6e4","study_id":"6197b3f67c2b5cd3b6d9596a","session_id":"6197b58bf64b32a151fc49ea","condition":"contingent","relevant_dimensions":["pattern","legs"],"bee_group":{"antennae":"X","wings":"X","pattern":"S","legs":"M"},"bonus":0.08},{"rt":616.4000000001397,"stimulus":"bees-with-color/bee-B2SF.svg","response":1,"trial_type":"image-button-response","trial_index":159,"time_elapsed":681545,"internal_node_id":"0.0-6.0-0.23","subject_id":"60cce334ff73d2d13370a6e4","study_id":"6197b3f67c2b5cd3b6d9596a","session_id":"6197b58bf64b32a151fc49ea","condition":"contingent","relevant_dimensions":["pattern","legs"],"bee_group":{"antennae":"X","wings":"X","pattern":"S","legs":"M"},"bonus":0.08},{"rt":722,"stimulus":"bees-with-color/bee-A2SF.svg","response":1,"trial_type":"image-button-response","trial_index":160,"time_elapsed":682272,"internal_node_id":"0.0-6.0-0.24","subject_id":"60cce334ff73d2d13370a6e4","study_id":"6197b3f67c2b5cd3b6d9596a","session_id":"6197b58bf64b32a151fc49ea","condition":"contingent","relevant_dimensions":["pattern","legs"],"bee_group":{"antennae":"X","wings":"X","pattern":"S","legs":"M"},"bonus":0.08},{"rt":1406.1999999999534,"stimulus":"bees-with-color/bee-A2SM.svg","response":0,"trial_type":"image-button-response","trial_index":161,"time_elapsed":683681,"internal_node_id":"0.0-6.0-0.25","subject_id":"60cce334ff73d2d13370a6e4","study_id":"6197b3f67c2b5cd3b6d9596a","session_id":"6197b58bf64b32a151fc49ea","condition":"contingent","relevant_dimensions":["pattern","legs"],"bee_group":{"antennae":"X","wings":"X","pattern":"S","legs":"M"},"bonus":0.08},{"rt":617,"stimulus":"bees-with-color/bee-A1SF.svg","response":0,"trial_type":"image-button-response","trial_index":162,"time_elapsed":684301,"internal_node_id":"0.0-6.0-0.26","subject_id":"60cce334ff73d2d13370a6e4","study_id":"6197b3f67c2b5cd3b6d9596a","session_id":"6197b58bf64b32a151fc49ea","condition":"contingent","relevant_dimensions":["pattern","legs"],"bee_group":{"antennae":"X","wings":"X","pattern":"S","legs":"M"},"bonus":0.08},{"rt":693.8000000000466,"stimulus":"bees-with-color/bee-A2DF.svg","response":0,"trial_type":"image-button-response","trial_index":163,"time_elapsed":684997,"internal_node_id":"0.0-6.0-0.27","subject_id":"60cce334ff73d2d13370a6e4","study_id":"6197b3f67c2b5cd3b6d9596a","session_id":"6197b58bf64b32a151fc49ea","condition":"contingent","relevant_dimensions":["pattern","legs"],"bee_group":{"antennae":"X","wings":"X","pattern":"S","legs":"M"},"bonus":0.08},{"rt":1111.6999999999534,"stimulus":"bees-with-color/bee-B1SM.svg","response":1,"trial_type":"image-button-response","trial_index":164,"time_elapsed":686112,"internal_node_id":"0.0-6.0-0.28","subject_id":"60cce334ff73d2d13370a6e4","study_id":"6197b3f67c2b5cd3b6d9596a","session_id":"6197b58bf64b32a151fc49ea","condition":"contingent","relevant_dimensions":["pattern","legs"],"bee_group":{"antennae":"X","wings":"X","pattern":"S","legs":"M"},"bonus":0.08},{"rt":1002.6999999999534,"stimulus":"bees-with-color/bee-B1DM.svg","response":0,"trial_type":"image-button-response","trial_index":165,"time_elapsed":687118,"internal_node_id":"0.0-6.0-0.29","subject_id":"60cce334ff73d2d13370a6e4","study_id":"6197b3f67c2b5cd3b6d9596a","session_id":"6197b58bf64b32a151fc49ea","condition":"contingent","relevant_dimensions":["pattern","legs"],"bee_group":{"antennae":"X","wings":"X","pattern":"S","legs":"M"},"bonus":0.08},{"rt":616.8999999999069,"stimulus":"bees-with-color/bee-A1DM.svg","response":0,"trial_type":"image-button-response","trial_index":166,"time_elapsed":687738,"internal_node_id":"0.0-6.0-0.30","subject_id":"60cce334ff73d2d13370a6e4","study_id":"6197b3f67c2b5cd3b6d9596a","session_id":"6197b58bf64b32a151fc49ea","condition":"contingent","relevant_dimensions":["pattern","legs"],"bee_group":{"antennae":"X","wings":"X","pattern":"S","legs":"M"},"bonus":0.08},{"rt":2280.4000000001397,"stimulus":"bees-with-color/bee-B2DF.svg","response":1,"trial_type":"image-button-response","trial_index":167,"time_elapsed":690021,"internal_node_id":"0.0-6.0-0.31","subject_id":"60cce334ff73d2d13370a6e4","study_id":"6197b3f67c2b