[{"success":true,"trial_type":"fullscreen","trial_index":0,"time_elapsed":3215,"internal_node_id":"0.0-0.0","subject_id":"6012ed349807110d8eb941a6","study_id":"60edd13110225f80f9f3709b","session_id":"6196c99c60e7745670d28039","condition":"contingent","relevant_dimensions":["antennae","legs"],"bee_group":{"antennae":"B","wings":"X","pattern":"X","legs":"F"},"bonus":1.2600000000000013},{"success":true,"timeout":false,"failed_images":[],"failed_audio":[],"failed_video":[],"trial_type":"preload","trial_index":1,"time_elapsed":4293,"internal_node_id":"0.0-1.0","subject_id":"6012ed349807110d8eb941a6","study_id":"60edd13110225f80f9f3709b","session_id":"6196c99c60e7745670d28039","condition":"contingent","relevant_dimensions":["antennae","legs"],"bee_group":{"antennae":"B","wings":"X","pattern":"X","legs":"F"},"bonus":1.2600000000000013},{"rt":5494.60000000149,"stimulus":"Welcome! Press any key to begin.","response":" ","trial_type":"html-keyboard-response","trial_index":2,"time_elapsed":9790,"internal_node_id":"0.0-2.0","subject_id":"6012ed349807110d8eb941a6","study_id":"60edd13110225f80f9f3709b","session_id":"6196c99c60e7745670d28039","condition":"contingent","relevant_dimensions":["antennae","legs"],"bee_group":{"antennae":"B","wings":"X","pattern":"X","legs":"F"},"bonus":1.2600000000000013},{"view_history":[{"page_index":0,"viewing_time":5662.20000000298},{"page_index":1,"viewing_time":33185.5},{"page_index":2,"viewing_time":12320.59999999404},{"page_index":3,"viewing_time":12226.10000000149},{"page_index":4,"viewing_time":5222.70000000298},{"page_index":5,"viewing_time":8748.19999999553},{"page_index":6,"viewing_time":8420.20000000298},{"page_index":7,"viewing_time":6579},{"page_index":8,"viewing_time":3680},{"page_index":9,"viewing_time":2379.2000000029802},{"page_index":10,"viewing_time":2818.2999999970198},{"page_index":11,"viewing_time":12278.10000000149},{"page_index":12,"viewing_time":10007.10000000149},{"page_index":13,"viewing_time":1547.5999999940395},{"page_index":14,"viewing_time":3699.9000000059605}],"rt":128774.89999999851,"trial_type":"instructions","trial_index":3,"time_elapsed":138566,"internal_node_id":"0.0-3.0-0.0","subject_id":"6012ed349807110d8eb941a6","study_id":"60edd13110225f80f9f3709b","session_id":"6196c99c60e7745670d28039","condition":"contingent","relevant_dimensions":["antennae","legs"],"bee_group":{"antennae":"B","wings":"X","pattern":"X","legs":"F"},"bonus":1.2600000000000013},{"rt":10170.10000000149,"response":{"Q0":["Two or six legs","Stripes or spots on body","Single or double wings","Antennae or no antennae"]},"question_order":[0],"trial_type":"survey-multi-select","trial_index":4,"time_elapsed":148740,"internal_node_id":"0.0-3.0-1.0","subject_id":"6012ed349807110d8eb941a6","study_id":"60edd13110225f80f9f3709b","session_id":"6196c99c60e7745670d28039","condition":"contingent","relevant_dimensions":["antennae","legs"],"bee_group":{"antennae":"B","wings":"X","pattern":"X","legs":"F"},"correct":true,"bonus":1.2600000000000013},{"rt":17239.89999999851,"response":{"Q1":"No.","Q2":"Based on the four features of the bee.","Q3":"You do not learn if it was friendly or dangerous, and do not alter your bonus."},"question_order":[0,1,2],"trial_type":"survey-multi-choice","trial_index":5,"time_elapsed":165982,"internal_node_id":"0.0-3.0-2.0","subject_id":"6012ed349807110d8eb941a6","study_id":"60edd13110225f80f9f3709b","session_id":"6196c99c60e7745670d28039","condition":"contingent","relevant_dimensions":["antennae","legs"],"bee_group":{"antennae":"B","wings":"X","pattern":"X","legs":"F"},"correct":true,"bonus":1.2600000000000013},{"rt":1563.1999999955297,"stimulus":"<p>Congrats, you got everything right<br>When you're ready, click the button below to continue to the experiment.</p>","response":0,"trial_type":"html-button-response","trial_index":6,"time_elapsed":167546,"internal_node_id":"0.0-3.0-3.0","subject_id":"6012ed349807110d8eb941a6","study_id":"60edd13110225f80f9f3709b","session_id":"6196c99c60e7745670d28039","condition":"contingent","relevant_dimensions":["antennae","legs"],"bee_group":{"antennae":"B","wings":"X","pattern":"X","legs":"F"},"bonus":1.2600000000000013},{"rt":3477.8000000044703,"stimulus":"bees-with-color/bee-A1SM.svg","response":0,"trial_type":"image-button-response","trial_index":7,"time_elapsed":171025,"internal_node_id":"0.0-4.0-0.0","subject_id":"6012ed349807110d8eb941a6","study_id":"60edd13110225f80f9f3709b","session_id":"6196c99c60e7745670d28039","condition":"contingent","relevant_dimensions":["antennae","legs"],"bee_group":{"antennae":"B","wings":"X","pattern":"X","legs":"F"},"action":"harvest","summary":"good-harvest","bonus":1.2600000000000013},{"rt":12516.89999999851,"stimulus":"\n                    <p><b>Action: <em>harvest</em></b></p>\n                    <p>This is the bee that you just saw.</p>\n                    <img src=\"bees-with-color/bee-A1SM.svg\" width=\"200\">\n                    <p><span class=\"greenText\"><b>Successful harvest!</b></span><br>Your pay has increased by $0.02. Your bonus pay is now $0.56.</p>\n            ","response":0,"trial_type":"html-button-response","trial_index":8,"time_elapsed":183544,"internal_node_id":"0.0-4.0-1.0","subject_id":"6012ed349807110d8eb941a6","study_id":"60edd13110225f80f9f3709b","session_id":"6196c99c60e7745670d28039","condition":"contingent","relevant_dimensions":["antennae","legs"],"bee_group":{"antennae":"B","wings":"X","pattern":"X","legs":"F"},"bonus":1.2600000000000013},{"rt":7543,"stimulus":"bees-with-color/bee-A2DM.svg","response":1,"trial_type":"image-button-response","trial_index":9,"time_elapsed":191088,"internal_node_id":"0.0-4.0-0.1","subject_id":"6012ed349807110d8eb941a6","study_id":"60edd13110225f80f9f3709b","session_id":"6196c99c60e7745670d28039","condition":"contingent","relevant_dimensions":["antennae","legs"],"bee_group":{"antennae":"B","wings":"X","pattern":"X","legs":"F"},"action":"avoid","summary":"bad-avoid","bonus":1.2600000000000013},{"rt":5926.79999999702,"stimulus":"\n                    <p><b>Action: <em>avoid</em></b></p>\n                    <p>This is the bee that you just saw.</p>\n                    <img src=\"bees-with-color/bee-A2DM.svg\" width=\"200\">\n                    <p><br>Your bonus pay is unchanged, and remains at $0.56.</p>\n            ","response":0,"trial_type":"html-button-response","trial_index":10,"time_elapsed":197016,"internal_node_id":"0.0-4.0-1.1","subject_id":"6012ed349807110d8eb941a6","study_id":"60edd13110225f80f9f3709b","session_id":"6196c99c60e7745670d28039","condition":"contingent","relevant_dimensions":["antennae","legs"],"bee_group":{"antennae":"B","wings":"X","pattern":"X","legs":"F"},"bonus":1.2600000000000013},{"rt":3029.7000000029802,"stimulus":"bees-with-color/bee-B2DF.svg","response":0,"trial_type":"image-button-response","trial_index":11,"time_elapsed":200047,"internal_node_id":"0.0-4.0-0.2","subject_id":"6012ed349807110d8eb941a6","study_id":"60edd13110225f80f9f3709b","session_id":"6196c99c60e7745670d28039","condition":"contingent","relevant_dimensions":["antennae","legs"],"bee_group":{"antennae":"B","wings":"X","pattern":"X","legs":"F"},"action":"harvest","summary":"bad-harvest","bonus":1.2600000000000013},{"rt":30069.29999999702,"stimulus":"\n                    <p><b>Action: <em>harvest</em></b></p>\n                    <p>This is the bee that you just saw.</p>\n                    <img src=\"bees-with-color/bee-B2DF.svg\" width=\"200\">\n                    <p><span class=\"redText\">Bad choice, the bee was angry.</span><br><b>You have been stung!</b><br>Your pay has been decreased by $0.10. Your bonus pay is now $0.46.</p>\n            ","response":0,"trial_type":"html-button-response","trial_index":12,"time_elapsed":230117,"internal_node_id":"0.0-4.0-1.2","subject_id":"6012ed349807110d8eb941a6","study_id":"60edd13110225f80f9f3709b","session_id":"6196c99c60e7745670d28039","condition":"contingent","relevant_dimensions":["antennae","legs"],"bee_group":{"antennae":"B","wings":"X","pattern":"X","legs":"F"},"bonus":1.2600000000000013},{"rt":1759.1999999955297,"stimulus":"bees-with-color/bee-B1DM.svg","response":0,"trial_type":"image-button-response","trial_index":13,"time_elapsed":231878,"internal_node_id":"0.0-4.0-0.3","subject_id":"6012ed349807110d8eb941a6","study_id":"60edd13110225f80f9f3709b","session_id":"6196c99c60e7745670d28039","condition":"contingent","relevant_dimensions":["antennae","legs"],"bee_group":{"antennae":"B","wings":"X","pattern":"X","legs":"F"},"action":"harvest","summary":"good-harvest","bonus":1.2600000000000013},{"rt":24689.40000000596,"stimulus":"\n                    <p><b>Action: <em>harvest</em></b></p>\n                    <p>This is the bee that you just saw.</p>\n                    <img src=\"bees-with-color/bee-B1DM.svg\" width=\"200\">\n                    <p><span class=\"greenText\"><b>Successful harvest!</b></span><br>Your pay has increased by $0.02. Your bonus pay is now $0.48.</p>\n            ","response":0,"trial_type":"html-button-response","trial_index":14,"time_elapsed":256569,"internal_node_id":"0.0-4.0-1.3","subject_id":"6012ed349807110d8eb941a6","study_id":"60edd13110225f80f9f3709b","session_id":"6196c99c60e7745670d28039","condition":"contingent","relevant_dimensions":["antennae","legs"],"bee_group":{"antennae":"B","wings":"X","pattern":"X","legs":"F"},"bonus":1.2600000000000013},{"rt":1226.6000000014901,"stimulus":"bees-with-color/bee-B1DF.svg","response":0,"trial_type":"image-button-response","trial_index":15,"time_elapsed":257796,"internal_node_id":"0.0-4.0-0.4","subject_id":"6012ed349807110d8eb941a6","study_id":"60edd13110225f80f9f3709b","session_id":"6196c99c60e7745670d28039","condition":"contingent","relevant_dimensions":["antennae","legs"],"bee_group":{"antennae":"B","wings":"X","pattern":"X","legs":"F"},"action":"harvest","summary":"bad-harvest","bonus":1.2600000000000013},{"rt":105700.79999999702,"stimulus":"\n                    <p><b>Action: <em>harvest</em></b></p>\n                    <p>This is the bee that you just saw.</p>\n                    <img src=\"bees-with-color/bee-B1DF.svg\" width=\"200\">\n                    <p><span class=\"redText\">Bad choice, the bee was angry.</span><br><b>You have been stung!</b><br>Your pay has been decreased by $0.10. Your bonus pay is now $0.38.</p>\n            ","response":0,"trial_type":"html-button-response","trial_index":16,"time_elapsed":363498,"internal_node_id":"0.0-4.0-1.4","subject_id":"6012ed349807110d8eb941a6","study_id":"60edd13110225f80f9f3709b","session_id":"6196c99c60e7745670d28039","condition":"contingent","relevant_dimensions":["antennae","legs"],"bee_group":{"antennae":"B","wings":"X","pattern":"X","legs":"F"},"bonus":1.2600000000000013},{"rt":31733.09999999404,"stimulus":"bees-with-color/bee-A1DM.svg","response":0,"trial_type":"image-button-response","trial_index":17,"time_elapsed":395233,"internal_node_id":"0.0-4.0-0.5","subject_id":"6012ed349807110d8eb941a6","study_id":"60edd13110225f80f9f3709b","session_id":"6196c99c60e7745670d28039","condition":"contingent","relevant_dimensions":["antennae","legs"],"bee_group":{"antennae":"B","wings":"X","pattern":"X","legs":"F"},"action":"harvest","summary":"good-harvest","bonus":1.2600000000000013},{"rt":21206.20000000298,"stimulus":"\n                    <p><b>Action: <em>harvest</em></b></p>\n                    <p>This is the bee that you just saw.</p>\n                    <img src=\"bees-with-color/bee-A1DM.svg\" width=\"200\">\n                    <p><span class=\"greenText\"><b>Successful harvest!</b></span><br>Your pay has increased by $0.02. Your bonus pay is now $0.40.</p>\n            ","response":0,"trial_type":"html-button-response","trial_index":18,"time_elapsed":416441,"internal_node_id":"0.0-4.0-1.5","subject_id":"6012ed349807110d8eb941a6","study_id":"60edd13110225f80f9f3709b","session_id":"6196c99c60e7745670d28039","condition":"contingent","relevant_dimensions":["antennae","legs"],"bee_group":{"antennae":"B","wings":"X","pattern":"X","legs":"F"},"bonus":1.2600000000000013},{"rt":8168.30000000447,"stimulus":"bees-with-color/bee-A1DF.svg","response":0,"trial_type":"image-button-response","trial_index":19,"time_elapsed":424611,"internal_node_id":"0.0-4.0-0.6","subject_id":"6012ed349807110d8eb941a6","study_id":"60edd13110225f80f9f3709b","session_id":"6196c99c60e7745670d28039","condition":"contingent","relevant_dimensions":["antennae","legs"],"bee_group":{"antennae":"B","wings":"X","pattern":"X","legs":"F"},"action":"harvest","summary":"good-harvest","bonus":1.2600000000000013},{"rt":22023.89999999851,"stimulus":"\n                    <p><b>Action: <em>harvest</em></b></p>\n                    <p>This is the bee that you just saw.</p>\n                    <img src=\"bees-with-color/bee-A1DF.svg\" width=\"200\">\n                    <p><span class=\"greenText\"><b>Successful harvest!</b></span><br>Your pay has increased by $0.02. Your bonus pay is now $0.42.</p>\n            ","response":0,"trial_type":"html-button-response","trial_index":20,"time_elapsed":446636,"internal_node_id":"0.0-4.0-1.6","subject_id":"6012ed349807110d8eb941a6","study_id":"60edd13110225f80f9f3709b","session_id":"6196c99c60e7745670d28039","condition":"contingent","relevant_dimensions":["antennae","legs"],"bee_group":{"antennae":"B","wings":"X","pattern":"X","legs":"F"},"bonus":1.2600000000000013},{"rt":3924.89999999851,"stimulus":"bees-with-color/bee-A2DF.svg","response":0,"trial_type":"image-button-response","trial_index":21,"time_elapsed":450563,"internal_node_id":"0.0-4.0-0.7","subject_id":"6012ed349807110d8eb941a6","study_id":"60edd13110225f80f9f3709b","session_id":"6196c99c60e7745670d28039","condition":"contingent","relevant_dimensions":["antennae","legs"],"bee_group":{"antennae":"B","wings":"X","pattern":"X","legs":"F"},"action":"harvest","summary":"good-harvest","bonus":1.2600000000000013},{"rt":16483.89999999851,"stimulus":"\n                    <p><b>Action: <em>harvest</em></b></p>\n                    <p>This is the bee that you just saw.</p>\n                    <img src=\"bees-with-color/bee-A2DF.svg\" width=\"200\">\n                    <p><span class=\"greenText\"><b>Successful harvest!</b></span><br>Your pay has increased by $0.02. Your bonus pay is now $0.44.</p>\n            ","response":0,"trial_type":"html-button-response","trial_index":22,"time_elapsed":467048,"internal_node_id":"0.0-4.0-1.7","subject_id":"6012ed349807110d8eb941a6","study_id":"60edd13110225f80f9f3709b","session_id":"6196c99c60e7745670d28039","condition":"contingent","relevant_dimensions":["antennae","legs"],"bee_group":{"antennae":"B","wings":"X","pattern":"X","legs":"F"},"bonus":1.2600000000000013},{"rt":1121,"stimulus":"bees-with-color/bee-A2SF.svg","response":0,"trial_type":"image-button-response","trial_index":23,"time_elapsed":468171,"internal_node_id":"0.0-4.0-0.8","subject_id":"6012ed349807110d8eb941a6","study_id":"60edd13110225f80f9f3709b","session_id":"6196c99c60e7745670d28039","condition":"contingent","relevant_dimensions":["antennae","legs"],"bee_group":{"antennae":"B","wings":"X","pattern":"X","legs":"F"},"action":"harvest","summary":"good-harvest","bonus":1.2600000000000013},{"rt":41948.5,"stimulus":"\n                    <p><b>Action: <em>harvest</em></b></p>\n                    <p>This is the bee that you just saw.</p>\n                    <img src=\"bees-with-color/bee-A2SF.svg\" width=\"200\">\n                    <p><span class=\"greenText\"><b>Successful harvest!</b></span><br>Your pay has increased by $0.02. Your bonus pay is now $0.46.</p>\n            ","response":0,"trial_type":"html-button-response","trial_index":24,"time_elapsed":510120,"internal_node_id":"0.0-4.0-1.8","subject_id":"6012ed349807110d8eb941a6","study_id":"60edd13110225f80f9f3709b","session_id":"6196c99c60e7745670d28039","condition":"contingent","relevant_dimensions":["antennae","legs"],"bee_group":{"antennae":"B","wings":"X","pattern":"X","legs":"F"},"bonus":1.2600000000000013},{"rt":3149.5999999940395,"stimulus":"bees-with-color/bee-A2SM.svg","response":0,"trial_type":"image-button-response","trial_index":25,"time_elapsed":513271,"internal_node_id":"0.0-4.0-0.9","subject_id":"6012ed349807110d8eb941a6","study_id":"60edd13110225f80f9f3709b","session_id":"6196c99c60e7745670d28039","condition":"contingent","relevant_dimensions":["antennae","legs"],"bee_group":{"antennae":"B","wings":"X","pattern":"X","legs":"F"},"action":"harvest","summary":"good-harvest","bonus":1.2600000000000013},{"rt":17680.5,"stimulus":"\n                    <p><b>Action: <em>harvest</em></b></p>\n                    <p>This is the bee that you just saw.</p>\n                    <img src=\"bees-with-color/bee-A2SM.svg\" width=\"200\">\n                    <p><span class=\"greenText\"><b>Successful harvest!</b></span><br>Your pay has increased by $0.02. Your bonus pay is now $0.48.</p>\n            ","response":0,"trial_type":"html-button-response","trial_index":26,"time_elapsed":530953,"internal_node_id":"0.0-4.0-1.9","subject_id":"6012ed349807110d8eb941a6","study_id":"60edd13110225f80f9f3709b","session_id":"6196c99c60e7745670d28039","condition":"contingent","relevant_dimensions":["antennae","legs"],"bee_group":{"antennae":"B","wings":"X","pattern":"X","legs":"F"},"bonus":1.2600000000000013},{"rt":5641.80000000447,"stimulus":"bees-with-color/bee-B2SF.svg","response":0,"trial_type":"image-button-response","trial_index":27,"time_elapsed":536596,"internal_node_id":"0.0-4.0-0.10","subject_id":"6012ed349807110d8eb941a6","study_id":"60edd13110225f80f9f3709b","session_id":"6196c99c60e7745670d28039","condition":"contingent","relevant_dimensions":["antennae","legs"],"bee_group":{"antennae":"B","wings":"X","pattern":"X","legs":"F"},"action":"harvest","summary":"bad-harvest","bonus":1.2600000000000013},{"rt":30923,"stimulus":"\n                    <p><b>Action: <em>harvest</em></b></p>\n                    <p>This is the bee that you just saw.</p>\n                    <img src=\"bees-with-color/bee-B2SF.svg\" width=\"200\">\n                    <p><span class=\"redText\">Bad choice, the bee was angry.</span><br><b>You have been stung!</b><br>Your pay has been decreased by $0.10. Your bonus pay is now $0.38.</p>\n            ","response":0,"trial_type":"html-button-response","trial_index":28,"time_elapsed":567520,"internal_node_id":"0.0-4.0-1.10","subject_id":"6012ed349807110d8eb941a6","study_id":"60edd13110225f80f9f3709b","session_id":"6196c99c60e7745670d28039","condition":"contingent","relevant_dimensions":["antennae","legs"],"bee_group":{"antennae":"B","wings":"X","pattern":"X","legs":"F"},"bonus":1.2600000000000013},{"rt":24801.60000000149,"stimulus":"bees-with-color/bee-B2SM.svg","response":0,"trial_type":"image-button-response","trial_index":29,"time_elapsed":592322,"internal_node_id":"0.0-4.0-0.11","subject_id":"6012ed349807110d8eb941a6","study_id":"60edd13110225f80f9f3709b","session_id":"6196c99c60e7745670d28039","condition":"contingent","relevant_dimensions":["antennae","legs"],"bee_group":{"antennae":"B","wings":"X","pattern":"X","legs":"F"},"action":"harvest","summary":"good-harvest","bonus":1.2600000000000013},{"rt":21977.10000000149,"stimulus":"\n                    <p><b>Action: <em>harvest</em></b></p>\n                    <p>This is the bee that you just saw.</p>\n                    <img src=\"bees-with-color/bee-B2SM.svg\" width=\"200\">\n                    <p><span class=\"greenText\"><b>Successful harvest!</b></span><br>Your pay has increased by $0.02. Your bonus pay is now $0.40.</p>\n            ","response":0,"trial_type":"html-button-response","trial_index":30,"time_elapsed":614300,"internal_node_id":"0.0-4.0-1.11","subject_id":"6012ed349807110d8eb941a6","study_id":"60edd13110225f80f9f3709b","session_id":"6196c99c60e7745670d28039","condition":"contingent","relevant_dimensions":["antennae","legs"],"bee_group":{"antennae":"B","wings":"X","pattern":"X","legs":"F"},"bonus":1.2600000000000013},{"rt":11330.90000000596,"stimulus":"bees-with-color/bee-A1SF.svg","response":0,"trial_type":"image-button-response","trial_index":31,"time_elapsed":625632,"internal_node_id":"0.0-4.0-0.12","subject_id":"6012ed349807110d8eb941a6","study_id":"60edd13110225f80f9f3709b","session_id":"6196c99c60e7745670d28039","condition":"contingent","relevant_dimensions":["antennae","legs"],"bee_group":{"antennae":"B","wings":"X","pattern":"X","legs":"F"},"action":"harvest","summary":"good-harvest","bonus":1.2600000000000013},{"rt":27478,"stimulus":"\n                    <p><b>Action: <em>harvest</em></b></p>\n                    <p>This is the bee that you just saw.</p>\n                    <img src=\"bees-with-color/bee-A1SF.svg\" width=\"200\">\n                    <p><span class=\"greenText\"><b>Successful harvest!</b></span><br>Your pay has increased by $0.02. Your bonus pay is now $0.42.</p>\n            ","response":0,"trial_type":"html-button-response","trial_index":32,"time_elapsed":653112,"internal_node_id":"0.0-4.0-1.12","subject_id":"6012ed349807110d8eb941a6","study_id":"60edd13110225f80f9f3709b","session_id":"6196c99c60e7745670d28039","condition":"contingent","relevant_dimensions":["antennae","legs"],"bee_group":{"antennae":"B","wings":"X","pattern":"X","legs":"F"},"bonus":1.2600000000000013},{"rt":95864.70000000298,"stimulus":"bees-with-color/bee-B1SM.svg","response":0,"trial_type":"image-button-response","trial_index":33,"time_elapsed":748978,"internal_node_id":"0.0-4.0-0.13","subject_id":"6012ed349807110d8eb941a6","study_id":"60edd13110225f80f9f3709b","session_id":"6196c99c60e7745670d28039","condition":"contingent","relevant_dimensions":["antennae","legs"],"bee_group":{"antennae":"B","wings":"X","pattern":"X","legs":"F"},"action":"harvest","summary":"good-harvest","bonus":1.2600000000000013},{"rt":1350.1000000014901,"stimulus":"\n                    <p><b>Action: <em>harvest</em></b></p>\n                    <p>This is the bee that you just saw.</p>\n                    <img src=\"bees-with-color/bee-B1SM.svg\" width=\"200\">\n                    <p><span class=\"greenText\"><b>Successful harvest!</b></span><br>Your pay has increased by $0.02. Your bonus pay is now $0.44.</p>\n            ","response":0,"trial_type":"html-button-response","trial_index":34,"time_elapsed":750329,"internal_node_id":"0.0-4.0-1.13","subject_id":"6012ed349807110d8eb941a6","study_id":"60edd13110225f80f9f3709b","session_id":"6196c99c60e7745670d28039","condition":"contingent","relevant_dimensions":["antennae","legs"],"bee_group":{"antennae":"B","wings":"X","pattern":"X","legs":"F"},"bonus":1.2600000000000013},{"rt":75623.70000000298,"stimulus":"bees-with-color/bee-B2DM.svg","response":0,"trial_type":"image-button-response","trial_index":35,"time_elapsed":825954,"internal_node_id":"0.0-4.0-0.14","subject_id":"6012ed349807110d8eb941a6","study_id":"60edd13110225f80f9f3709b","session_id":"6196c99c60e7745670d28039","condition":"contingent","relevant_dimensions":["antennae","legs"],"bee_group":{"antennae":"B","wings":"X","pattern":"X","legs":"F"},"action":"harvest","summary":"good-harvest","bonus":1.2600000000000013},{"rt":28989,"stimulus":"\n                    <p><b>Action: <em>harvest</em></b></p>\n                    <p>This is the bee that you just saw.</p>\n                    <img src=\"bees-with-color/bee-B2DM.svg\" width=\"200\">\n                    <p><span class=\"greenText\"><b>Successful harvest!</b></span><br>Your pay has increased by $0.02. Your bonus pay is now $0.46.</p>\n            ","response":0,"trial_type":"html-button-response","trial_index":36,"time_elapsed":854944,"internal_node_id":"0.0-4.0-1.14","subject_id":"6012ed349807110d8eb941a6","study_id":"60edd13110225f80f9f3709b","session_id":"6196c99c60e7745670d28039","condition":"contingent","relevant_dimensions":["antennae","legs"],"bee_group":{"antennae":"B","wings":"X","pattern":"X","legs":"F"},"bonus":1.2600000000000013},{"rt":41879.90000000596,"stimulus":"bees-with-color/bee-B1SF.svg","response":0,"trial_type":"image-button-response","trial_index":37,"time_elapsed":896825,"internal_node_id":"0.0-4.0-0.15","subject_id":"6012ed349807110d8eb941a6","study_id":"60edd13110225f80f9f3709b","session_id":"6196c99c60e7745670d28039","condition":"contingent","relevant_dimensions":["antennae","legs"],"bee_group":{"antennae":"B","wings":"X","pattern":"X","legs":"F"},"action":"harvest","summary":"bad-harvest","bonus":1.2600000000000013},{"rt":16022.89999999851,"stimulus":"\n                    <p><b>Action: <em>harvest</em></b></p>\n                    <p>This is the bee that you just saw.</p>\n                    <img src=\"bees-with-color/bee-B1SF.svg\" width=\"200\">\n                    <p><span class=\"redText\">Bad choice, the bee was angry.</span><br><b>You have been stung!</b><br>Your pay has been decreased by $0.10. Your bonus pay is now $0.36.</p>\n            ","response":0,"trial_type":"html-button-response","trial_index":38,"time_elapsed":912849,"internal_node_id":"0.0-4.0-1.15","subject_id":"6012ed349807110d8eb941a6","study_id":"60edd13110225f80f9f3709b","session_id":"6196c99c60e7745670d28039","condition":"contingent","relevant_dimensions":["antennae","legs"],"bee_group":{"antennae":"B","wings":"X","pattern":"X","legs":"F"},"bonus":1.2600000000000013},{"rt":12327.79999999702,"stimulus":"bees-with-color/bee-A2DF.svg","response":0,"trial_type":"image-button-response","trial_index":39,"time_elapsed":925178,"internal_node_id":"0.0-4.0-0.16","subject_id":"6012ed349807110d8eb941a6","study_id":"60edd13110225f80f9f3709b","session_id":"6196c99c60e7745670d28039","condition":"contingent","relevant_dimensions":["antennae","legs"],"bee_group":{"antennae":"B","wings":"X","pattern":"X","legs":"F"},"action":"harvest","summary":"good-harvest","bonus":1.2600000000000013},{"rt":1641,"stimulus":"\n                    <p><b>Action: <em>harvest</em></b></p>\n                    <p>This is the bee that you just saw.</p>\n                    <img src=\"bees-with-color/bee-A2DF.svg\" width=\"200\">\n                    <p><span class=\"greenText\"><b>Successful harvest!</b></span><br>Your pay has increased by $0.02. Your bonus pay is now $0.38.</p>\n            ","response":0,"trial_type":"html-button-response","trial_index":40,"time_elapsed":926820,"internal_node_id":"0.0-4.0-1.16","subject_id":"6012ed349807110d8eb941a6","study_id":"60edd13110225f80f9f3709b","session_id":"6196c99c60e7745670d28039","condition":"contingent","relevant_dimensions":["antennae","legs"],"bee_group":{"antennae":"B","wings":"X","pattern":"X","legs":"F"},"bonus":1.2600000000000013},{"rt":17311,"stimulus":"bees-with-color/bee-B2SF.svg","response":0,"trial_type":"image-button-response","trial_index":41,"time_elapsed":944133,"internal_node_id":"0.0-4.0-0.17","subject_id":"6012ed349807110d8eb941a6","study_id":"60edd13110225f80f9f3709b","session_id":"6196c99c60e7745670d28039","condition":"contingent","relevant_dimensions":["antennae","legs"],"bee_group":{"antennae":"B","wings":"X","pattern":"X","legs":"F"},"action":"harvest","summary":"bad-harvest","bonus":1.2600000000000013},{"rt":18244.90000000596,"stimulus":"\n                    <p><b>Action: <em>harvest</em></b></p>\n                    <p>This is the bee that you just saw.</p>\n                    <img src=\"bees-with-color/bee-B2SF.svg\" width=\"200\">\n                    <p><span class=\"redText\">Bad choice, the bee was angry.</span><br><b>You have been stung!</b><br>Your pay has been decreased by $0.10. Your bonus pay is now $0.28.</p>\n            ","response":0,"trial_type":"html-button-response","trial_index":42,"time_elapsed":962379,"internal_node_id":"0.0-4.0-1.17","subject_id":"6012ed349807110d8eb941a6","study_id":"60edd13110225f80f9f3709b","session_id":"6196c99c60e7745670d28039","condition":"contingent","relevant_dimensions":["antennae","legs"],"bee_group":{"antennae":"B","wings":"X","pattern":"X","legs":"F"},"bonus":1.2600000000000013},{"rt":25965.80000000447,"stimulus":"bees-with-color/bee-B2SM.svg","response":0,"trial_type":"image-button-response","trial_index":43,"time_elapsed":988347,"internal_node_id":"0.0-4.0-0.18","subject_id":"6012ed349807110d8eb941a6","study_id":"60edd13110225f80f9f3709b","session_id":"6196c99c60e7745670d28039","condition":"contingent","relevant_dimensions":["antennae","legs"],"bee_group":{"antennae":"B","wings":"X","pattern":"X","legs":"F"},"action":"harvest","summary":"good-harvest","bonus":1.2600000000000013},{"rt":1013.7000000029802,"stimulus":"\n                    <p><b>Action: <em>harvest</em></b></p>\n                    <p>This is the bee that you just saw.</p>\n                    <img src=\"bees-with-color/bee-B2SM.svg\" width=\"200\">\n                    <p><span class=\"greenText\"><b>Successful harvest!</b></span><br>Your pay has increased by $0.02. Your bonus pay is now $0.30.</p>\n            ","response":0,"trial_type":"html-button-response","trial_index":44,"time_elapsed":989361,"internal_node_id":"0.0-4.0-1.18","subject_id":"6012ed349807110d8eb941a6","study_id":"60edd13110225f80f9f3709b","session_id":"6196c99c60e7745670d28039","condition":"contingent","relevant_dimensions":["antennae","legs"],"bee_group":{"antennae":"B","wings":"X","pattern":"X","legs":"F"},"bonus":1.2600000000000013},{"rt":10513.39999999851,"stimulus":"bees-with-color/bee-A1SF.svg","response":0,"trial_type":"image-button-response","trial_index":45,"time_elapsed":999876,"internal_node_id":"0.0-4.0-0.19","subject_id":"6012ed349807110d8eb941a6","study_id":"60edd13110225f80f9f3709b","session_id":"6196c99c60e7745670d28039","condition":"contingent","relevant_dimensions":["antennae","legs"],"bee_group":{"antennae":"B","wings":"X","pattern":"X","legs":"F"},"action":"harvest","summary":"good-harvest","bonus":1.2600000000000013},{"rt":1214.5,"stimulus":"\n                    <p><b>Action: <em>harvest</em></b></p>\n                    <p>This is the bee that you just saw.</p>\n                    <img src=\"bees-with-color/bee-A1SF.svg\" width=\"200\">\n                    <p><span class=\"greenText\"><b>Successful harvest!</b></span><br>Your pay has increased by $0.02. Your bonus pay is now $0.32.</p>\n            ","response":0,"trial_type":"html-button-response","trial_index":46,"time_elapsed":1001092,"internal_node_id":"0.0-4.0-1.19","subject_id":"6012ed349807110d8eb941a6","study_id":"60edd13110225f80f9f3709b","session_id":"6196c99c60e7745670d28039","condition":"contingent","relevant_dimensions":["antennae","legs"],"bee_group":{"antennae":"B","wings":"X","pattern":"X","legs":"F"},"bonus":1.2600000000000013},{"rt":7989,"stimulus":"bees-with-color/bee-A2SF.svg","response":0,"trial_type":"image-button-response","trial_index":47,"time_elapsed":1009081,"internal_node_id":"0.0-4.0-0.20","subject_id":"6012ed349807110d8eb941a6","study_id":"60edd13110225f80f9f3709b","session_id":"6196c99c60e7745670d28039","condition":"contingent","relevant_dimensions":["antennae","legs"],"bee_group":{"antennae":"B","wings":"X","pattern":"X","legs":"F"},"action":"harvest","summary":"good-harvest","bonus":1.2600000000000013},{"rt":920.3999999985099,"stimulus":"\n                    <p><b>Action: <em>harvest</em></b></p>\n                    <p>This is the bee that you just saw.</p>\n                    <img src=\"bees-with-color/bee-A2SF.svg\" width=\"200\">\n                    <p><span class=\"greenText\"><b>Successful harvest!</b></span><br>Your pay has increased by $0.02. Your bonus pay is now $0.34.</p>\n            ","response":0,"trial_type":"html-button-response","trial_index":48,"time_elapsed":1010003,"internal_node_id":"0.0-4.0-1.20","subject_id":"6012ed349807110d8eb941a6","study_id":"60edd13110225f80f9f3709b","session_id":"6196c99c60e7745670d28039","condition":"contingent","relevant_dimensions":["antennae","legs"],"bee_group":{"antennae":"B","wings":"X","pattern":"X","legs":"F"},"bonus":1.2600000000000013},{"rt":8982.30000000447,"stimulus":"bees-with-color/bee-A2SM.svg","response":0,"trial_type":"image-button-response","trial_index":49,"time_elapsed":1018986,"internal_node_id":"0.0-4.0-0.21","subject_id":"6012ed349807110d8eb941a6","study_id":"60edd13110225f80f9f3709b","session_id":"6196c99c60e7745670d28039","condition":"contingent","relevant_dimensions":["antennae","legs"],"bee_group":{"antennae":"B","wings":"X","pattern":"X","legs":"F"},"action":"harvest","summary":"good-harvest","bonus":1.2600000000000013},{"rt":1041.2999999970198,"stimulus":"\n                    <p><b>Action: <em>harvest</em></b></p>\n                    <p>This is the bee that you just saw.</p>\n                    <img src=\"bees-with-color/bee-A2SM.svg\" width=\"200\">\n                    <p><span class=\"greenText\"><b>Successful harvest!</b></span><br>Your pay has increased by $0.02. Your bonus pay is now $0.36.</p>\n            ","response":0,"trial_type":"html-button-response","trial_index":50,"time_elapsed":1020028,"internal_node_id":"0.0-4.0-1.21","subject_id":"6012ed349807110d8eb941a6","study_id":"60edd13110225f80f9f3709b","session_id":"6196c99c60e7745670d28039","condition":"contingent","relevant_dimensions":["antennae","legs"],"bee_group":{"antennae":"B","wings":"X","pattern":"X","legs":"F"},"bonus":1.2600000000000013},{"rt":18501,"stimulus":"bees-with-color/bee-B1DF.svg","response":0,"trial_type":"image-button-response","trial_index":51,"time_elapsed":1038530,"internal_node_id":"0.0-4.0-0.22","subject_id":"6012ed349807110d8eb941a6","study_id":"60edd13110225f80f9f3709b","session_id":"6196c99c60e7745670d28039","condition":"contingent","relevant_dimensions":["antennae","legs"],"bee_group":{"antennae":"B","wings":"X","pattern":"X","legs":"F"},"action":"harvest","summary":"bad-harvest","bonus":1.2600000000000013},{"rt":83272.5,"stimulus":"\n                    <p><b>Action: <em>harvest</em></b></p>\n                    <p>This is the bee that you just saw.</p>\n                    <img src=\"bees-with-color/bee-B1DF.svg\" width=\"200\">\n                    <p><span class=\"redText\">Bad choice, the bee was angry.</span><br><b>You have been stung!</b><br>Your pay has been decreased by $0.10. Your bonus pay is now $0.26.</p>\n            ","response":0,"trial_type":"html-button-response","trial_index":52,"time_elapsed":1121804,"internal_node_id":"0.0-4.0-1.22","subject_id":"6012ed349807110d8eb941a6","study_id":"60edd13110225f80f9f3709b","session_id":"6196c99c60e7745670d28039","condition":"contingent","relevant_dimensions":["antennae","legs"],"bee_group":{"antennae":"B","wings":"X","pattern":"X","legs":"F"},"bonus":1.2600000000000013},{"rt":3327.1999999955297,"stimulus":"bees-with-color/bee-A1DF.svg","response":0,"trial_type":"image-button-response","trial_index":53,"time_elapsed":1125132,"internal_node_id":"0.0-4.0-0.23","subject_id":"6012ed349807110d8eb941a6","study_id":"60edd13110225f80f9f3709b","session_id":"6196c99c60e7745670d28039","condition":"contingent","relevant_dimensions":["antennae","legs"],"bee_group":{"antennae":"B","wings":"X","pattern":"X","legs":"F"},"action":"harvest","summary":"good-harvest","bonus":1.2600000000000013},{"rt":1074.1999999955297,"stimulus":"\n                    <p><b>Action: <em>harvest</em></b></p>\n                    <p>This is the bee that you just saw.</p>\n                    <img src=\"bees-with-color/bee-A1DF.svg\" width=\"200\">\n                    <p><span class=\"greenText\"><b>Successful harvest!</b></span><br>Your pay has increased by $0.02. Your bonus pay is now $0.28.</p>\n            ","response":0,"trial_type":"html-button-response","trial_index":54,"time_elapsed":1126207,"internal_node_id":"0.0-4.0-1.23","subject_id":"6012ed349807110d8eb941a6","study_id":"60edd13110225f80f9f3709b","session_id":"6196c99c60e7745670d28039","condition":"contingent","relevant_dimensions":["antennae","legs"],"bee_group":{"antennae":"B","wings":"X","pattern":"X","legs":"F"},"bonus":1.2600000000000013},{"rt":1040.3999999985099,"stimulus":"bees-with-color/bee-A1DM.svg","response":0,"trial_type":"image-button-response","trial_index":55,"time_elapsed":1127249,"internal_node_id":"0.0-4.0-0.24","subject_id":"6012ed349807110d8eb941a6","study_id":"60edd13110225f80f9f3709b","session_id":"6196c99c60e7745670d28039","condition":"contingent","relevant_dimensions":["antennae","legs"],"bee_group":{"antennae":"B","wings":"X","pattern":"X","legs":"F"},"action":"harvest","summary":"good-harvest","bonus":1.2600000000000013},{"rt":904.1000000014901,"stimulus":"\n                    <p><b>Action: <em>harvest</em></b></p>\n                    <p>This is the bee that you just saw.</p>\n                    <img src=\"bees-with-color/bee-A1DM.svg\" width=\"200\">\n                    <p><span class=\"greenText\"><b>Successful harvest!</b></span><br>Your pay has increased by $0.02. Your bonus pay is now $0.30.</p>\n            ","response":0,"trial_type":"html-button-response","trial_index":56,"time_elapsed":1128154,"internal_node_id":"0.0-4.0-1.24","subject_id":"6012ed349807110d8eb941a6","study_id":"60edd13110225f80f9f3709b","session_id":"6196c99c60e7745670d28039","condition":"contingent","relevant_dimensions":["antennae","legs"],"bee_group":{"antennae":"B","wings":"X","pattern":"X","legs":"F"},"bonus":1.2600000000000013},{"rt":1071.3000000044703,"stimulus":"bees-with-color/bee-B2DF.svg","response":0,"trial_type":"image-button-response","trial_index":57,"time_elapsed":1129226,"internal_node_id":"0.0-4.0-0.25","subject_id":"6012ed349807110d8eb941a6","study_id":"60edd13110225f80f9f3709b","session_id":"6196c99c60e7745670d28039","condition":"contingent","relevant_dimensions":["antennae","legs"],"bee_group":{"antennae":"B","wings":"X","pattern":"X","legs":"F"},"action":"harvest","summary":"bad-harvest","bonus":1.2600000000000013},{"rt":2850.2000000029802,"stimulus":"\n                    <p><b>Action: <em>harvest</em></b></p>\n                    <p>This is the bee that you just saw.</p>\n                    <img src=\"bees-with-color/bee-B2DF.svg\" width=\"200\">\n                    <p><span class=\"redText\">Bad choice, the bee was angry.</span><br><b>You have been stung!</b><br>Your pay has been decreased by $0.10. Your bonus pay is now $0.20.</p>\n            ","response":0,"trial_type":"html-button-response","trial_index":58,"time_elapsed":1132078,"internal_node_id":"0.0-4.0-1.25","subject_id":"6012ed349807110d8eb941a6","study_id":"60edd13110225f80f9f3709b","session_id":"6196c99c60e7745670d28039","condition":"contingent","relevant_dimensions":["antennae","legs"],"bee_group":{"antennae":"B","wings":"X","pattern":"X","legs":"F"},"bonus":1.2600000000000013},{"rt":8137.89999999851,"stimulus":"bees-with-color/bee-B2DM.svg","response":0,"trial_type":"image-button-response","trial_index":59,"time_elapsed":1140217,"internal_node_id":"0.0-4.0-0.26","subject_id":"6012ed349807110d8eb941a6","study_id":"60edd13110225f80f9f3709b","session_id":"6196c99c60e7745670d28039","condition":"contingent","relevant_dimensions":["antennae","legs"],"bee_group":{"antennae":"B","wings":"X","pattern":"X","legs":"F"},"action":"harvest","summary":"good-harvest","bonus":1.2600000000000013},{"rt":919.5,"stimulus":"\n                    <p><b>Action: <em>harvest</em></b></p>\n                    <p>This is the bee that you just saw.</p>\n                    <img src=\"bees-with-color/bee-B2DM.svg\" width=\"200\">\n                    <p><span class=\"greenText\"><b>Successful harvest!</b></span><br>Your pay has increased by $0.02. Your bonus pay is now $0.22.</p>\n            ","response":0,"trial_type":"html-button-response","trial_index":60,"time_elapsed":1141137,"internal_node_id":"0.0-4.0-1.26","subject_id":"6012ed349807110d8eb941a6","study_id":"60edd13110225f80f9f3709b","session_id":"6196c99c60e7745670d28039","condition":"contingent","relevant_dimensions":["antennae","legs"],"bee_group":{"antennae":"B","wings":"X","pattern":"X","legs":"F"},"bonus":1.2600000000000013},{"rt":2866,"stimulus":"bees-with-color/bee-A1SM.svg","response":0,"trial_type":"image-button-response","trial_index":61,"time_elapsed":1144004,"internal_node_id":"0.0-4.0-0.27","subject_id":"6012ed349807110d8eb941a6","study_id":"60edd13110225f80f9f3709b","session_id":"6196c99c60e7745670d28039","condition":"contingent","relevant_dimensions":["antennae","legs"],"bee_group":{"antennae":"B","wings":"X","pattern":"X","legs":"F"},"action":"harvest","summary":"good-harvest","bonus":1.2600000000000013},{"rt":1239.6000000014901,"stimulus":"\n                    <p><b>Action: <em>harvest</em></b></p>\n                    <p>This is the bee that you just saw.</p>\n                    <img src=\"bees-with-color/bee-A1SM.svg\" width=\"200\">\n                    <p><span class=\"greenText\"><b>Successful harvest!</b></span><br>Your pay has increased by $0.02. Your bonus pay is now $0.24.</p>\n            ","response":0,"trial_type":"html-button-response","trial_index":62,"time_elapsed":1145245,"internal_node_id":"0.0-4.0-1.27","subject_id":"6012ed349807110d8eb941a6","study_id":"60edd13110225f80f9f3709b","session_id":"6196c99c60e7745670d28039","condition":"contingent","relevant_dimensions":["antennae","legs"],"bee_group":{"antennae":"B","wings":"X","pattern":"X","legs":"F"},"bonus":1.2600000000000013},{"rt":5352.69999999553,"stimulus":"bees-with-color/bee-B1DM.svg","response":0,"trial_type":"image-button-response","trial_index":63,"time_elapsed":1150599,"internal_node_id":"0.0-4.0-0.28","subject_id":"6012ed349807110d8eb941a6","study_id":"60edd13110225f80f9f3709b","session_id":"6196c99c60e7745670d28039","condition":"contingent","relevant_dimensions":["antennae","legs"],"bee_group":{"antennae":"B","wings":"X","pattern":"X","legs":"F"},"action":"harvest","summary":"good-harvest","bonus":1.2600000000000013},{"rt":1089.5999999940395,"stimulus":"\n                    <p><b>Action: <em>harvest</em></b></p>\n                    <p>This is the bee that you just saw.</p>\n                    <img src=\"bees-with-color/bee-B1DM.svg\" width=\"200\">\n                    <p><span class=\"greenText\"><b>Successful harvest!</b></span><br>Your pay has increased by $0.02. Your bonus pay is now $0.26.</p>\n            ","response":0,"trial_type":"html-button-response","trial_index":64,"time_elapsed":1151690,"internal_node_id":"0.0-4.0-1.28","subject_id":"6012ed349807110d8eb941a6","study_id":"60edd13110225f80f9f3709b","session_id":"6196c99c60e7745670d28039","condition":"contingent","relevant_dimensions":["antennae","legs"],"bee_group":{"antennae":"B","wings":"X","pattern":"X","legs":"F"},"bonus":1.2600000000000013},{"rt":4816,"stimulus":"bees-with-color/bee-B1SM.svg","response":0,"trial_type":"image-button-response","trial_index":65,"time_elapsed":1156507,"internal_node_id":"0.0-4.0-0.29","subject_id":"6012ed349807110d8eb941a6","study_id":"60edd13110225f80f9f3709b","session_id":"6196c99c60e7745670d28039","condition":"contingent","relevant_dimensions":["antennae","legs"],"bee_group":{"antennae":"B","wings":"X","pattern":"X","legs":"F"},"action":"harvest","summary":"good-harvest","bonus":1.2600000000000013},{"rt":1012.3000000044703,"stimulus":"\n                    <p><b>Action: <em>harvest</em></b></p>\n                    <p>This is the bee that you just saw.</p>\n                    <img src=\"bees-with-color/bee-B1SM.svg\" width=\"200\">\n                    <p><span class=\"greenText\"><b>Successful harvest!</b></span><br>Your pay has increased by $0.02. Your bonus pay is now $0.28.</p>\n            ","response":0,"trial_type":"html-button-response","trial_index":66,"time_elapsed":1157521,"internal_node_id":"0.0-4.0-1.29","subject_id":"6012ed349807110d8eb941a6","study_id":"60edd13110225f80f9f3709b","session_id":"6196c99c60e7745670d28039","condition":"contingent","relevant_dimensions":["antennae","legs"],"bee_group":{"antennae":"B","wings":"X","pattern":"X","legs":"F"},"bonus":1.2600000000000013},{"rt":3080.39999999851,"stimulus":"bees-with-color/bee-A2DM.svg","response":0,"trial_type":"image-button-response","trial_index":67,"time_elapsed":1160602,"internal_node_id":"0.0-4.0-0.30","subject_id":"6012ed349807110d8eb941a6","study_id":"60edd13110225f80f9f3709b","session_id":"6196c99c60e7745670d28039","condition":"contingent","relevant_dimensions":["antennae","legs"],"bee_group":{"antennae":"B","wings":"X","pattern":"X","legs":"F"},"action":"harvest","summary":"good-harvest","bonus":1.2600000000000013},{"rt":843.8000000044703,"stimulus":"\n                    <p><b>Action: <em>harvest</em></b></p>\n                    <p>This is the bee that you just saw.</p>\n                    <img src=\"bees-with-color/bee-A2DM.svg\" width=\"200\">\n                    <p><span class=\"greenText\"><b>Successful harvest!</b></span><br>Your pay has increased by $0.02. Your bonus pay is now $0.30.</p>\n            ","response":0,"trial_type":"html-button-response","trial_index":68,"time_elapsed":1161447,"internal_node_id":"0.0-4.0-1.30","subject_id":"6012ed349807110d8eb941a6","study_id":"60edd13110225f80f9f3709b","session_id":"6196c99c60e7745670d28039","condition":"contingent","relevant_dimensions":["antennae","legs"],"bee_group":{"antennae":"B","wings":"X","pattern":"X","legs":"F"},"bonus":1.2600000000000013},{"rt":9082.39999999851,"stimulus":"bees-with-color/bee-B1SF.svg","response":1,"trial_type":"image-button-response","trial_index":69,"time_elapsed":1170531,"internal_node_id":"0.0-4.0-0.31","subject_id":"6012ed349807110d8eb941a6","study_id":"60edd13110225f80f9f3709b","session_id":"6196c99c60e7745670d28039","condition":"contingent","relevant_dimensions":["antennae","legs"],"bee_group":{"antennae":"B","wings":"X","pattern":"X","legs":"F"},"action":"avoid","summary":"good-avoid","bonus":1.2600000000000013},{"rt":2560.3000000044703,"stimulus":"\n                    <p><b>Action: <em>avoid</em></b></p>\n                    <p>This is the bee that you just saw.</p>\n                    <img src=\"bees-with-color/bee-B1SF.svg\" width=\"200\">\n                    <p><br>Your bonus pay is unchanged, and remains at $0.30.</p>\n            ","response":0,"trial_type":"html-button-response","trial_index":70,"time_elapsed":1173093,"internal_node_id":"0.0-4.0-1.31","subject_id":"6012ed349807110d8eb941a6","study_id":"60edd13110225f80f9f3709b","session_id":"6196c99c60e7745670d28039","condition":"contingent","relevant_dimensions":["antennae","legs"],"bee_group":{"antennae":"B","wings":"X","pattern":"X","legs":"F"},"bonus":1.2600000000000013},{"rt":6432.5,"stimulus":"bees-with-color/bee-B2DM.svg","response":0,"trial_type":"image-button-response","trial_index":71,"time_elapsed":1179527,"internal_node_id":"0.0-4.0-0.32","subject_id":"6012ed349807110d8eb941a6","study_id":"60edd13110225f80f9f3709b","session_id":"6196c99c60e7745670d28039","condition":"contingent","relevant_dimensions":["antennae","legs"],"bee_group":{"antennae":"B","wings":"X","pattern":"X","legs":"F"},"action":"harvest","summary":"good-harvest","bonus":1.2600000000000013},{"rt":42314.5,"stimulus":"\n                    <p><b>Action: <em>harvest</em></b></p>\n                    <p>This is the bee that you just saw.</p>\n                    <img src=\"bees-with-color/bee-B2DM.svg\" width=\"200\">\n                    <p><span class=\"greenText\"><b>Successful harvest!</b></span><br>Your pay has increased by $0.02. Your bonus pay is now $0.32.</p>\n            ","response":0,"trial_type":"html-button-response","trial_index":72,"time_elapsed":1221842,"internal_node_id":"0.0-4.0-1.32","subject_id":"6012ed349807110d8eb941a6","study_id":"60edd13110225f80f9f3709b","session_id":"6196c99c60e7745670d28039","condition":"contingent","relevant_dimensions":["antennae","legs"],"bee_group":{"antennae":"B","wings":"X","pattern":"X","legs":"F"},"bonus":1.2600000000000013},{"rt":3662.5,"stimulus":"bees-with-color/bee-A1DM.svg","response":0,"trial_type":"image-button-response","trial_index":73,"time_elapsed":1225506,"internal_node_id":"0.0-4.0-0.33","subject_id":"6012ed349807110d8eb941a6","study_id":"60edd13110225f80f9f3709b","session_id":"6196c99c60e7745670d28039","condition":"contingent","relevant_dimensions":["antennae","legs"],"bee_group":{"antennae":"B","wings":"X","pattern":"X","legs":"F"},"action":"harvest","summary":"good-harvest","bonus":1.2600000000000013},{"rt":1043.3999999985099,"stimulus":"\n                    <p><b>Action: <em>harvest</em></b></p>\n                    <p>This is the bee that you just saw.</p>\n                    <img src=\"bees-with-color/bee-A1DM.svg\" width=\"200\">\n                    <p><span class=\"greenText\"><b>Successful harvest!</b></span><br>Your pay has increased by $0.02. Your bonus pay is now $0.34.</p>\n            ","response":0,"trial_type":"html-button-response","trial_index":74,"time_elapsed":1226551,"internal_node_id":"0.0-4.0-1.33","subject_id":"6012ed349807110d8eb941a6","study_id":"60edd13110225f80f9f3709b","session_id":"6196c99c60e7745670d28039","condition":"contingent","relevant_dimensions":["antennae","legs"],"bee_group":{"antennae":"B","wings":"X","pattern":"X","legs":"F"},"bonus":1.2600000000000013},{"rt":8497.5,"stimulus":"bees-with-color/bee-B1SF.svg","response":1,"trial_type":"image-button-response","trial_index":75,"time_elapsed":1235049,"internal_node_id":"0.0-4.0-0.34","subject_id":"6012ed349807110d8eb941a6","study_id":"60edd13110225f80f9f3709b","session_id":"6196c99c60e7745670d28039","condition":"contingent","relevant_dimensions":["antennae","legs"],"bee_group":{"antennae":"B","wings":"X","pattern":"X","legs":"F"},"action":"avoid","summary":"good-avoid","bonus":1.2600000000000013},{"rt":1090.5,"stimulus":"\n                    <p><b>Action: <em>avoid</em></b></p>\n                    <p>This is the bee that you just saw.</p>\n                    <img src=\"bees-with-color/bee-B1SF.svg\" width=\"200\">\n                    <p><br>Your bonus pay is unchanged, and remains at $0.34.</p>\n            ","response":0,"trial_type":"html-button-response","trial_index":76,"time_elapsed":1236141,"internal_node_id":"0.0-4.0-1.34","subject_id":"6012ed349807110d8eb941a6","study_id":"60edd13110225f80f9f3709b","session_id":"6196c99c60e7745670d28039","condition":"contingent","relevant_dimensions":["antennae","legs"],"bee_group":{"antennae":"B","wings":"X","pattern":"X","legs":"F"},"bonus":1.2600000000000013},{"rt":11375.80000000447,"stimulus":"bees-with-color/bee-A1DF.svg","response":0,"trial_type":"image-button-response","trial_index":77,"time_elapsed":1247517,"internal_node_id":"0.0-4.0-0.35","subject_id":"6012ed349807110d8eb941a6","study_id":"60edd13110225f80f9f3709b","session_id":"6196c99c60e7745670d28039","condition":"contingent","relevant_dimensions":["antennae","legs"],"bee_group":{"antennae":"B","wings":"X","pattern":"X","legs":"F"},"action":"harvest","summary":"good-harvest","bonus":1.2600000000000013},{"rt":873.2000000029802,"stimulus":"\n                    <p><b>Action: <em>harvest</em></b></p>\n                    <p>This is the bee that you just saw.</p>\n                    <img src=\"bees-with-color/bee-A1DF.svg\" width=\"200\">\n                    <p><span class=\"greenText\"><b>Successful harvest!</b></span><br>Your pay has increased by $0.02. Your bonus pay is now $0.36.</p>\n            ","response":0,"trial_type":"html-button-response","trial_index":78,"time_elapsed":1248391,"internal_node_id":"0.0-4.0-1.35","subject_id":"6012ed349807110d8eb941a6","study_id":"60edd13110225f80f9f3709b","session_id":"6196c99c60e7745670d28039","condition":"contingent","relevant_dimensions":["antennae","legs"],"bee_group":{"antennae":"B","wings":"X","pattern":"X","legs":"F"},"bonus":1.2600000000000013},{"rt":11233.20000000298,"stimulus":"bees-with-color/bee-B2SF.svg","response":1,"trial_type":"image-button-response","trial_index":79,"time_elapsed":1259626,"internal_node_id":"0.0-4.0-0.36","subject_id":"6012ed349807110d8eb941a6","study_id":"60edd13110225f80f9f3709b","session_id":"6196c99c60e7745670d28039","condition":"contingent","relevant_dimensions":["antennae","legs"],"bee_group":{"antennae":"B","wings":"X","pattern":"X","legs":"F"},"action":"avoid","summary":"good-avoid","bonus":1.2600000000000013},{"rt":1596.8999999985099,"stimulus":"\n                    <p><b>Action: <em>avoid</em></b></p>\n                    <p>This is the bee that you just saw.</p>\n                    <img src=\"bees-with-color/bee-B2SF.svg\" width=\"200\">\n                    <p><br>Your bonus pay is unchanged, and remains at $0.36.</p>\n            ","response":0,"trial_type":"html-button-response","trial_index":80,"time_elapsed":1261223,"internal_node_id":"0.0-4.0-1.36","subject_id":"6012ed349807110d8eb941a6","study_id":"60edd13110225f80f9f3709b","session_id":"6196c99c60e7745670d28039","condition":"contingent","relevant_dimensions":["antennae","legs"],"bee_group":{"antennae":"B","wings":"X","pattern":"X","legs":"F"},"bonus":1.2600000000000013},{"rt":2500.39999999851,"stimulus":"bees-with-color/bee-B2SM.svg","response":0,"trial_type":"image-button-response","trial_index":81,"time_elapsed":1263725,"internal_node_id":"0.0-4.0-0.37","subject_id":"6012ed349807110d8eb941a6","study_id":"60edd13110225f80f9f3709b","session_id":"6196c99c60e7745670d28039","condition":"contingent","relevant_dimensions":["antennae","legs"],"bee_group":{"antennae":"B","wings":"X","pattern":"X","legs":"F"},"action":"harvest","summary":"good-harvest","bonus":1.2600000000000013},{"rt":1853.1000000014901,"stimulus":"\n                    <p><b>Action: <em>harvest</em></b></p>\n                    <p>This is the bee that you just saw.</p>\n                    <img src=\"bees-with-color/bee-B2SM.svg\" width=\"200\">\n                    <p><span class=\"greenText\"><b>Successful harvest!</b></span><br>Your pay has increased by $0.02. Your bonus pay is now $0.38.</p>\n            ","response":0,"trial_type":"html-button-response","trial_index":82,"time_elapsed":1265579,"internal_node_id":"0.0-4.0-1.37","subject_id":"6012ed349807110d8eb941a6","study_id":"60edd13110225f80f9f3709b","session_id":"6196c99c60e7745670d28039","condition":"contingent","relevant_dimensions":["antennae","legs"],"bee_group":{"antennae":"B","wings":"X","pattern":"X","legs":"F"},"bonus":1.2600000000000013},{"rt":1334.3999999985099,"stimulus":"bees-with-color/bee-A2SM.svg","response":0,"trial_type":"image-button-response","trial_index":83,"time_elapsed":1266914,"internal_node_id":"0.0-4.0-0.38","subject_id":"6012ed349807110d8eb941a6","study_id":"60edd13110225f80f9f3709b","session_id":"6196c99c60e7745670d28039","condition":"contingent","relevant_dimensions":["antennae","legs"],"bee_group":{"antennae":"B","wings":"X","pattern":"X","legs":"F"},"action":"harvest","summary":"good-harvest","bonus":1.2600000000000013},{"rt":1183.6000000014901,"stimulus":"\n                    <p><b>Action: <em>harvest</em></b></p>\n                    <p>This is the bee that you just saw.</p>\n                    <img src=\"bees-with-color/bee-A2SM.svg\" width=\"200\">\n                    <p><span class=\"greenText\"><b>Successful harvest!</b></span><br>Your pay has increased by $0.02. Your bonus pay is now $0.40.</p>\n            ","response":0,"trial_type":"html-button-response","trial_index":84,"time_elapsed":1268099,"internal_node_id":"0.0-4.0-1.38","subject_id":"6012ed349807110d8eb941a6","study_id":"60edd13110225f80f9f3709b","session_id":"6196c99c60e7745670d28039","condition":"contingent","relevant_dimensions":["antennae","legs"],"bee_group":{"antennae":"B","wings":"X","pattern":"X","legs":"F"},"bonus":1.2600000000000013},{"rt":5087.89999999851,"stimulus":"bees-with-color/bee-B1DM.svg","response":0,"trial_type":"image-button-response","trial_index":85,"time_elapsed":1273188,"internal_node_id":"0.0-4.0-0.39","subject_id":"6012ed349807110d8eb941a6","study_id":"60edd13110225f80f9f3709b","session_id":"6196c99c60e7745670d28039","condition":"contingent","relevant_dimensions":["antennae","legs"],"bee_group":{"antennae":"B","wings":"X","pattern":"X","legs":"F"},"action":"harvest","summary":"good-harvest","bonus":1.2600000000000013},{"rt":1105.5,"stimulus":"\n                    <p><b>Action: <em>harvest</em></b></p>\n                    <p>This is the bee that you just saw.</p>\n                    <img src=\"bees-with-color/bee-B1DM.svg\" width=\"200\">\n                    <p><span class=\"greenText\"><b>Successful harvest!</b></span><br>Your pay has increased by $0.02. Your bonus pay is now $0.42.</p>\n            ","response":0,"trial_type":"html-button-response","trial_index":86,"time_elapsed":1274294,"internal_node_id":"0.0-4.0-1.39","subject_id":"6012ed349807110d8eb941a6","study_id":"60edd13110225f80f9f3709b","session_id":"6196c99c60e7745670d28039","condition":"contingent","relevant_dimensions":["antennae","legs"],"bee_group":{"antennae":"B","wings":"X","pattern":"X","legs":"F"},"bonus":1.2600000000000013},{"rt":4474.89999999851,"stimulus":"bees-with-color/bee-B1DF.svg","response":1,"trial_type":"image-button-response","trial_index":87,"time_elapsed":1278770,"internal_node_id":"0.0-4.0-0.40","subject_id":"6012ed349807110d8eb941a6","study_id":"60edd13110225f80f9f3709b","session_id":"6196c99c60e7745670d28039","condition":"contingent","relevant_dimensions":["antennae","legs"],"bee_group":{"antennae":"B","wings":"X","pattern":"X","legs":"F"},"action":"avoid","summary":"good-avoid","bonus":1.2600000000000013},{"rt":1149.6000000014901,"stimulus":"\n                    <p><b>Action: <em>avoid</em></b></p>\n                    <p>This is the bee that you just saw.</p>\n                    <img src=\"bees-with-color/bee-B1DF.svg\" width=\"200\">\n                    <p><br>Your bonus pay is unchanged, and remains at $0.42.</p>\n            ","response":0,"trial_type":"html-button-response","trial_index":88,"time_elapsed":1279921,"internal_node_id":"0.0-4.0-1.40","subject_id":"6012ed349807110d8eb941a6","study_id":"60edd13110225f80f9f3709b","session_id":"6196c99c60e7745670d28039","condition":"contingent","relevant_dimensions":["antennae","legs"],"bee_group":{"antennae":"B","wings":"X","pattern":"X","legs":"F"},"bonus":1.2600000000000013},{"rt":1884,"stimulus":"bees-with-color/bee-A2DF.svg","response":0,"trial_type":"image-button-response","trial_index":89,"time_elapsed":1281806,"internal_node_id":"0.0-4.0-0.41","subject_id":"6012ed349807110d8eb941a6","study_id":"60edd13110225f80f9f3709b","session_id":"6196c99c60e7745670d28039","condition":"contingent","relevant_dimensions":["antennae","legs"],"bee_group":{"antennae":"B","wings":"X","pattern":"X","legs":"F"},"action":"harvest","summary":"good-harvest","bonus":1.2600000000000013},{"rt":996.1000000014901,"stimulus":"\n                    <p><b>Action: <em>harvest</em></b></p>\n                    <p>This is the bee that you just saw.</p>\n                    <img src=\"bees-with-color/bee-A2DF.svg\" width=\"200\">\n                    <p><span class=\"greenText\"><b>Successful harvest!</b></span><br>Your pay has increased by $0.02. Your bonus pay is now $0.44.</p>\n            ","response":0,"trial_type":"html-button-response","trial_index":90,"time_elapsed":1282803,"internal_node_id":"0.0-4.0-1.41","subject_id":"6012ed349807110d8eb941a6","study_id":"60edd13110225f80f9f3709b","session_id":"6196c99c60e7745670d28039","condition":"contingent","relevant_dimensions":["antennae","legs"],"bee_group":{"antennae":"B","wings":"X","pattern":"X","legs":"F"},"bonus":1.2600000000000013},{"rt":919.3999999985099,"stimulus":"bees-with-color/bee-A1SM.svg","response":0,"trial_type":"image-button-response","trial_index":91,"time_elapsed":1283723,"internal_node_id":"0.0-4.0-0.42","subject_id":"6012ed349807110d8eb941a6","study_id":"60edd13110225f80f9f3709b","session_id":"6196c99c60e7745670d28039","condition":"contingent","relevant_dimensions":["antennae","legs"],"bee_group":{"antennae":"B","wings":"X","pattern":"X","legs":"F"},"action":"harvest","summary":"good-harvest","bonus":1.2600000000000013},{"rt":843.8999999985099,"stimulus":"\n                    <p><b>Action: <em>harvest</em></b></p>\n                    <p>This is the bee that you just saw.</p>\n                    <img src=\"bees-with-color/bee-A1SM.svg\" width=\"200\">\n                    <p><span class=\"greenText\"><b>Successful harvest!</b></span><br>Your pay has increased by $0.02. Your bonus pay is now $0.46.</p>\n            ","response":0,"trial_type":"html-button-response","trial_index":92,"time_elapsed":1284568,"internal_node_id":"0.0-4.0-1.42","subject_id":"6012ed349807110d8eb941a6","study_id":"60edd13110225f80f9f3709b","session_id":"6196c99c60e7745670d28039","condition":"contingent","relevant_dimensions":["antennae","legs"],"bee_group":{"antennae":"B","wings":"X","pattern":"X","legs":"F"},"bonus":1.2600000000000013},{"rt":950.6000000014901,"stimulus":"bees-with-color/bee-A2SF.svg","response":0,"trial_type":"image-button-response","trial_index":93,"time_elapsed":1285520,"internal_node_id":"0.0-4.0-0.43","subject_id":"6012ed349807110d8eb941a6","study_id":"60edd13110225f80f9f3709b","session_id":"6196c99c60e7745670d28039","condition":"contingent","relevant_dimensions":["antennae","legs"],"bee_group":{"antennae":"B","wings":"X","pattern":"X","legs":"F"},"action":"harvest","summary":"good-harvest","bonus":1.2600000000000013},{"rt":874.8000000044703,"stimulus":"\n                    <p><b>Action: <em>harvest</em></b></p>\n                    <p>This is the bee that you just saw.</p>\n                    <img src=\"bees-with-color/bee-A2SF.svg\" width=\"200\">\n                    <p><span class=\"greenText\"><b>Successful harvest!</b></span><br>Your pay has increased by $0.02. Your bonus pay is now $0.48.</p>\n            ","response":0,"trial_type":"html-button-response","trial_index":94,"time_elapsed":1286396,"internal_node_id":"0.0-4.0-1.43","subject_id":"6012ed349807110d8eb941a6","study_id":"60edd13110225f80f9f3709b","session_id":"6196c99c60e7745670d28039","condition":"contingent","relevant_dimensions":["antennae","legs"],"bee_group":{"antennae":"B","wings":"X","pattern":"X","legs":"F"},"bonus":1.2600000000000013},{"rt":827.5999999940395,"stimulus":"bees-with-color/bee-A2DM.svg","response":0,"trial_type":"image-button-response","trial_index":95,"time_elapsed":1287225,"internal_node_id":"0.0-4.0-0.44","subject_id":"6012ed349807110d8eb941a6","study_id":"60edd13110225f80f9f3709b","session_id":"6196c99c60e7745670d28039","condition":"contingent","relevant_dimensions":["antennae","legs"],"bee_group":{"antennae":"B","wings":"X","pattern":"X","legs":"F"},"action":"harvest","summary":"good-harvest","bonus":1.2600000000000013},{"rt":903.3999999985099,"stimulus":"\n                    <p><b>Action: <em>harvest</em></b></p>\n                    <p>This is the bee that you just saw.</p>\n                    <img src=\"bees-with-color/bee-A2DM.svg\" width=\"200\">\n                    <p><span class=\"greenText\"><b>Successful harvest!</b></span><br>Your pay has increased by $0.02. Your bonus pay is now $0.50.</p>\n            ","response":0,"trial_type":"html-button-response","trial_index":96,"time_elapsed":1288129,"internal_node_id":"0.0-4.0-1.44","subject_id":"6012ed349807110d8eb941a6","study_id":"60edd13110225f80f9f3709b","session_id":"6196c99c60e7745670d28039","condition":"contingent","relevant_dimensions":["antennae","legs"],"bee_group":{"antennae":"B","wings":"X","pattern":"X","legs":"F"},"bonus":1.2600000000000013},{"rt":2295.3000000044703,"stimulus":"bees-with-color/bee-B1SM.svg","response":0,"trial_type":"image-button-response","trial_index":97,"time_elapsed":1290426,"internal_node_id":"0.0-4.0-0.45","subject_id":"6012ed349807110d8eb941a6","study_id":"60edd13110225f80f9f3709b","session_id":"6196c99c60e7745670d28039","condition":"contingent","relevant_dimensions":["antennae","legs"],"bee_group":{"antennae":"B","wings":"X","pattern":"X","legs":"F"},"action":"harvest","summary":"good-harvest","bonus":1.2600000000000013},{"rt":735.5,"stimulus":"\n                    <p><b>Action: <em>harvest</em></b></p>\n                    <p>This is the bee that you just saw.</p>\n                    <img src=\"bees-with-color/bee-B1SM.svg\" width=\"200\">\n                    <p><span class=\"greenText\"><b>Successful harvest!</b></span><br>Your pay has increased by $0.02. Your bonus pay is now $0.52.</p>\n            ","response":0,"trial_type":"html-button-response","trial_index":98,"time_elapsed":1291162,"internal_node_id":"0.0-4.0-1.45","subject_id":"6012ed349807110d8eb941a6","study_id":"60edd13110225f80f9f3709b","session_id":"6196c99c60e7745670d28039","condition":"contingent","relevant_dimensions":["antennae","legs"],"bee_group":{"antennae":"B","wings":"X","pattern":"X","legs":"F"},"bonus":1.2600000000000013},{"rt":4764.5,"stimulus":"bees-with-color/bee-B2DF.svg","response":1,"trial_type":"image-button-response","trial_index":99,"time_elapsed":1295928,"internal_node_id":"0.0-4.0-0.46","subject_id":"6012ed349807110d8eb941a6","study_id":"60edd13110225f80f9f3709b","session_id":"6196c99c60e7745670d28039","condition":"contingent","relevant_dimensions":["antennae","legs"],"bee_group":{"antennae":"B","wings":"X","pattern":"X","legs":"F"},"action":"avoid","summary":"good-avoid","bonus":1.2600000000000013},{"rt":1153.5,"stimulus":"\n                    <p><b>Action: <em>avoid</em></b></p>\n                    <p>This is the bee that you just saw.</p>\n                    <img src=\"bees-with-color/bee-B2DF.svg\" width=\"200\">\n                    <p><br>Your bonus pay is unchanged, and remains at $0.52.</p>\n            ","response":0,"trial_type":"html-button-response","trial_index":100,"time_elapsed":1297083,"internal_node_id":"0.0-4.0-1.46","subject_id":"6012ed349807110d8eb941a6","study_id":"60edd13110225f80f9f3709b","session_id":"6196c99c60e7745670d28039","condition":"contingent","relevant_dimensions":["antennae","legs"],"bee_group":{"antennae":"B","wings":"X","pattern":"X","legs":"F"},"bonus":1.2600000000000013},{"rt":1163.8000000044703,"stimulus":"bees-with-color/bee-A1SF.svg","response":0,"trial_type":"image-button-response","trial_index":101,"time_elapsed":1298248,"internal_node_id":"0.0-4.0-0.47","subject_id":"6012ed349807110d8eb941a6","study_id":"60edd13110225f80f9f3709b","session_id":"6196c99c60e7745670d28039","condition":"contingent","relevant_dimensions":["antennae","legs"],"bee_group":{"antennae":"B","wings":"X","pattern":"X","legs":"F"},"action":"harvest","summary":"good-harvest","bonus":1.2600000000000013},{"rt":887.8999999985099,"stimulus":"\n                    <p><b>Action: <em>harvest</em></b></p>\n                    <p>This is the bee that you just saw.</p>\n                    <img src=\"bees-with-color/bee-A1SF.svg\" width=\"200\">\n                    <p><span class=\"greenText\"><b>Successful harvest!</b></span><br>Your pay has increased by $0.02. Your bonus pay is now $0.54.</p>\n            ","response":0,"trial_type":"html-button-response","trial_index":102,"time_elapsed":1299137,"internal_node_id":"0.0-4.0-1.47","subject_id":"6012ed349807110d8eb941a6","study_id":"60edd13110225f80f9f3709b","session_id":"6196c99c60e7745670d28039","condition":"contingent","relevant_dimensions":["antennae","legs"],"bee_group":{"antennae":"B","wings":"X","pattern":"X","legs":"F"},"bonus":1.2600000000000013},{"rt":1622.8999999985099,"stimulus":"bees-with-color/bee-A1DF.svg","response":0,"trial_type":"image-button-response","trial_index":103,"time_elapsed":1300761,"internal_node_id":"0.0-4.0-0.48","subject_id":"6012ed349807110d8eb941a6","study_id":"60edd13110225f80f9f3709b","session_id":"6196c99c60e7745670d28039","condition":"contingent","relevant_dimensions":["antennae","legs"],"bee_group":{"antennae":"B","wings":"X","pattern":"X","legs":"F"},"action":"harvest","summary":"good-harvest","bonus":1.2600000000000013},{"rt":922.3000000044703,"stimulus":"\n                    <p><b>Action: <em>harvest</em></b></p>\n                    <p>This is the bee that you just saw.</p>\n                    <img src=\"bees-with-color/bee-A1DF.svg\" width=\"200\">\n                    <p><span class=\"greenText\"><b>Successful harvest!</b></span><br>Your pay has increased by $0.02. Your bonus pay is now $0.56.</p>\n            ","response":0,"trial_type":"html-button-response","trial_index":104,"time_elapsed":1301684,"internal_node_id":"0.0-4.0-1.48","subject_id":"6012ed349807110d8eb941a6","study_id":"60edd13110225f80f9f3709b","session_id":"6196c99c60e7745670d28039","condition":"contingent","relevant_dimensions":["antennae","legs"],"bee_group":{"antennae":"B","wings":"X","pattern":"X","legs":"F"},"bonus":1.2600000000000013},{"rt":1455.8999999985099,"stimulus":"bees-with-color/bee-B1DM.svg","response":0,"trial_type":"image-button-response","trial_index":105,"time_elapsed":1303142,"internal_node_id":"0.0-4.0-0.49","subject_id":"6012ed349807110d8eb941a6","study_id":"60edd13110225f80f9f3709b","session_id":"6196c99c60e7745670d28039","condition":"contingent","relevant_dimensions":["antennae","legs"],"bee_group":{"antennae":"B","wings":"X","pattern":"X","legs":"F"},"action":"harvest","summary":"good-harvest","bonus":1.2600000000000013},{"rt":887.1999999955297,"stimulus":"\n                    <p><b>Action: <em>harvest</em></b></p>\n                    <p>This is the bee that you just saw.</p>\n                    <img src=\"bees-with-color/bee-B1DM.svg\" width=\"200\">\n                    <p><span class=\"greenText\"><b>Successful harvest!</b></span><br>Your pay has increased by $0.02. Your bonus pay is now $0.58.</p>\n            ","response":0,"trial_type":"html-button-response","trial_index":106,"time_elapsed":1304030,"internal_node_id":"0.0-4.0-1.49","subject_id":"6012ed349807110d8eb941a6","study_id":"60edd13110225f80f9f3709b","session_id":"6196c99c60e7745670d28039","condition":"contingent","relevant_dimensions":["antennae","legs"],"bee_group":{"antennae":"B","wings":"X","pattern":"X","legs":"F"},"bonus":1.2600000000000013},{"rt":1317.5,"stimulus":"bees-with-color/bee-A1DM.svg","response":0,"trial_type":"image-button-response","trial_index":107,"time_elapsed":1305349,"internal_node_id":"0.0-4.0-0.50","subject_id":"6012ed349807110d8eb941a6","study_id":"60edd13110225f80f9f3709b","session_id":"6196c99c60e7745670d28039","condition":"contingent","relevant_dimensions":["antennae","legs"],"bee_group":{"antennae":"B","wings":"X","pattern":"X","legs":"F"},"action":"harvest","summary":"good-harvest","bonus":1.2600000000000013},{"rt":765.2999999970198,"stimulus":"\n                    <p><b>Action: <em>harvest</em></b></p>\n                    <p>This is the bee that you just saw.</p>\n                    <img src=\"bees-with-color/bee-A1DM.svg\" width=\"200\">\n                    <p><span class=\"greenText\"><b>Successful harvest!</b></span><br>Your pay has increased by $0.02. Your bonus pay is now $0.60.</p>\n            ","response":0,"trial_type":"html-button-response","trial_index":108,"time_elapsed":1306115,"internal_node_id":"0.0-4.0-1.50","subject_id":"6012ed349807110d8eb941a6","study_id":"60edd13110225f80f9f3709b","session_id":"6196c99c60e7745670d28039","condition":"contingent","relevant_dimensions":["antennae","legs"],"bee_group":{"antennae":"B","wings":"X","pattern":"X","legs":"F"},"bonus":1.2600000000000013},{"rt":2669.5,"stimulus":"bees-with-color/bee-B2SF.svg","response":1,"trial_type":"image-button-response","trial_index":109,"time_elapsed":1308786,"internal_node_id":"0.0-4.0-0.51","subject_id":"6012ed349807110d8eb941a6","study_id":"60edd13110225f80f9f3709b","session_id":"6196c99c60e7745670d28039","condition":"contingent","relevant_dimensions":["antennae","legs"],"bee_group":{"antennae":"B","wings":"X","pattern":"X","legs":"F"},"action":"avoid","summary":"good-avoid","bonus":1.2600000000000013},{"rt":825.6000000014901,"stimulus":"\n                    <p><b>Action: <em>avoid</em></b></p>\n                    <p>This is the bee that you just saw.</p>\n                    <img src=\"bees-with-color/bee-B2SF.svg\" width=\"200\">\n                    <p><br>Your bonus pay is unchanged, and remains at $0.60.</p>\n            ","response":0,"trial_type":"html-button-response","trial_index":110,"time_elapsed":1309613,"internal_node_id":"0.0-4.0-1.51","subject_id":"6012ed349807110d8eb941a6","study_id":"60edd13110225f80f9f3709b","session_id":"6196c99c60e7745670d28039","condition":"contingent","relevant_dimensions":["antennae","legs"],"bee_group":{"antennae":"B","wings":"X","pattern":"X","legs":"F"},"bonus":1.2600000000000013},{"rt":1271.6000000014901,"stimulus":"bees-with-color/bee-A1SF.svg","response":0,"trial_type":"image-button-response","trial_index":111,"time_elapsed":1310886,"internal_node_id":"0.0-4.0-0.52","subject_id":"6012ed349807110d8eb941a6","study_id":"60edd13110225f80f9f3709b","session_id":"6196c99c60e7745670d28039","condition":"contingent","relevant_dimensions":["antennae","legs"],"bee_group":{"antennae":"B","wings":"X","pattern":"X","legs":"F"},"action":"harvest","summary":"good-harvest","bonus":1.2600000000000013},{"rt":1055.3999999985099,"stimulus":"\n                    <p><b>Action: <em>harvest</em></b></p>\n                    <p>This is the bee that you just saw.</p>\n                    <img src=\"bees-with-color/bee-A1SF.svg\" width=\"200\">\n                    <p><span class=\"greenText\"><b>Successful harvest!</b></span><br>Your pay has increased by $0.02. Your bonus pay is now $0.62.</p>\n            ","response":0,"trial_type":"html-button-response","trial_index":112,"time_elapsed":1311942,"internal_node_id":"0.0-4.0-1.52","subject_id":"6012ed349807110d8eb941a6","study_id":"60edd13110225f80f9f3709b","session_id":"6196c99c60e7745670d28039","condition":"contingent","relevant_dimensions":["antennae","legs"],"bee_group":{"antennae":"B","wings":"X","pattern":"X","legs":"F"},"bonus":1.2600000000000013},{"rt":4313.5,"stimulus":"bees-with-color/bee-B2DF.svg","response":1,"trial_type":"image-button-response","trial_index":113,"time_elapsed":1316256,"internal_node_id":"0.0-4.0-0.53","subject_id":"6012ed349807110d8eb941a6","study_id":"60edd13110225f80f9f3709b","session_id":"6196c99c60e7745670d28039","condition":"contingent","relevant_dimensions":["antennae","legs"],"bee_group":{"antennae":"B","wings":"X","pattern":"X","legs":"F"},"action":"avoid","summary":"good-avoid","bonus":1.2600000000000013},{"rt":904.4000000059605,"stimulus":"\n                    <p><b>Action: <em>avoid</em></b></p>\n                    <p>This is the bee that you just saw.</p>\n                    <img src=\"bees-with-color/bee-B2DF.svg\" width=\"200\">\n                    <p><br>Your bonus pay is unchanged, and remains at $0.62.</p>\n            ","response":0,"trial_type":"html-button-response","trial_index":114,"time_elapsed":1317162,"internal_node_id":"0.0-4.0-1.53","subject_id":"6012ed349807110d8eb941a6","study_id":"60edd13110225f80f9f3709b","session_id":"6196c99c60e7745670d28039","condition":"contingent","relevant_dimensions":["antennae","legs"],"bee_group":{"antennae":"B","wings":"X","pattern":"X","legs":"F"},"bonus":1.2600000000000013},{"rt":994.3000000044703,"stimulus":"bees-with-color/bee-A2SM.svg","response":0,"trial_type":"image-button-response","trial_index":115,"time_elapsed":1318157,"internal_node_id":"0.0-4.0-0.54","subject_id":"6012ed349807110d8eb941a6","study_id":"60edd13110225f80f9f3709b","session_id":"6196c99c60e7745670d28039","condition":"contingent","relevant_dimensions":["antennae","legs"],"bee_group":{"antennae":"B","wings":"X","pattern":"X","legs":"F"},"action":"harvest","summary":"good-harvest","bonus":1.2600000000000013},{"rt":2252.7000000029802,"stimulus":"\n                    <p><b>Action: <em>harvest</em></b></p>\n                    <p>This is the bee that you just saw.</p>\n                    <img src=\"bees-with-color/bee-A2SM.svg\" width=\"200\">\n                    <p><span class=\"greenText\"><b>Successful harvest!</b></span><br>Your pay has increased by $0.02. Your bonus pay is now $0.64.</p>\n            ","response":0,"trial_type":"html-button-response","trial_index":116,"time_elapsed":1320410,"internal_node_id":"0.0-4.0-1.54","subject_id":"6012ed349807110d8eb941a6","study_id":"60edd13110225f80f9f3709b","session_id":"6196c99c60e7745670d28039","condition":"contingent","relevant_dimensions":["antennae","legs"],"bee_group":{"antennae":"B","wings":"X","pattern":"X","legs":"F"},"bonus":1.2600000000000013},{"rt":1884.3999999985099,"stimulus":"bees-with-color/bee-B1SM.svg","response":0,"trial_type":"image-button-response","trial_index":117,"time_elapsed":1322296,"internal_node_id":"0.0-4.0-0.55","subject_id":"6012ed349807110d8eb941a6","study_id":"60edd13110225f80f9f3709b","session_id":"6196c99c60e7745670d28039","condition":"contingent","relevant_dimensions":["antennae","legs"],"bee_group":{"antennae":"B","wings":"X","pattern":"X","legs":"F"},"action":"harvest","summary":"good-harvest","bonus":1.2600000000000013},{"rt":1043.9000000059605,"stimulus":"\n                    <p><b>Action: <em>harvest</em></b></p>\n                    <p>This is the bee that you just saw.</p>\n                    <img src=\"bees-with-color/bee-B1SM.svg\" width=\"200\">\n                    <p><span class=\"greenText\"><b>Successful harvest!</b></span><br>Your pay has increased by $0.02. Your bonus pay is now $0.66.</p>\n            ","response":0,"trial_type":"html-button-response","trial_index":118,"time_elapsed":1323340,"internal_node_id":"0.0-4.0-1.55","subject_id":"6012ed349807110d8eb941a6","study_id":"60edd13110225f80f9f3709b","session_id":"6196c99c60e7745670d28039","condition":"contingent","relevant_dimensions":["antennae","legs"],"bee_group":{"antennae":"B","wings":"X","pattern":"X","legs":"F"},"bonus":1.2600000000000013},{"rt":3383.5,"stimulus":"bees-with-color/bee-B2SM.svg","response":0,"trial_type":"image-button-response","trial_index":119,"time_elapsed":1326725,"internal_node_id":"0.0-4.0-0.56","subject_id":"6012ed349807110d8eb941a6","study_id":"60edd13110225f80f9f3709b","session_id":"6196c99c60e7745670d28039","condition":"contingent","relevant_dimensions":["antennae","legs"],"bee_group":{"antennae":"B","wings":"X","pattern":"X","legs":"F"},"action":"harvest","summary":"good-harvest","bonus":1.2600000000000013},{"rt":765.2999999970198,"stimulus":"\n                    <p><b>Action: <em>harvest</em></b></p>\n                    <p>This is the bee that you just saw.</p>\n                    <img src=\"bees-with-color/bee-B2SM.svg\" width=\"200\">\n                    <p><span class=\"greenText\"><b>Successful harvest!</b></span><br>Your pay has increased by $0.02. Your bonus pay is now $0.68.</p>\n            ","response":0,"trial_type":"html-button-response","trial_index":120,"time_elapsed":1327491,"internal_node_id":"0.0-4.0-1.56","subject_id":"6012ed349807110d8eb941a6","study_id":"60edd13110225f80f9f3709b","session_id":"6196c99c60e7745670d28039","condition":"contingent","relevant_dimensions":["antennae","legs"],"bee_group":{"antennae":"B","wings":"X","pattern":"X","legs":"F"},"bonus":1.2600000000000013},{"rt":1101.8000000044703,"stimulus":"bees-with-color/bee-A2SF.svg","response":0,"trial_type":"image-button-response","trial_index":121,"time_elapsed":1328594,"internal_node_id":"0.0-4.0-0.57","subject_id":"6012ed349807110d8eb941a6","study_id":"60edd13110225f80f9f3709b","session_id":"6196c99c60e7745670d28039","condition":"contingent","relevant_dimensions":["antennae","legs"],"bee_group":{"antennae":"B","wings":"X","pattern":"X","legs":"F"},"action":"harvest","summary":"good-harvest","bonus":1.2600000000000013},{"rt":750.5,"stimulus":"\n                    <p><b>Action: <em>harvest</em></b></p>\n                    <p>This is the bee that you just saw.</p>\n                    <img src=\"bees-with-color/bee-A2SF.svg\" width=\"200\">\n                    <p><span class=\"greenText\"><b>Successful harvest!</b></span><br>Your pay has increased by $0.02. Your bonus pay is now $0.70.</p>\n            ","response":0,"trial_type":"html-button-response","trial_index":122,"time_elapsed":1329345,"internal_node_id":"0.0-4.0-1.57","subject_id":"6012ed349807110d8eb941a6","study_id":"60edd13110225f80f9f3709b","session_id":"6196c99c60e7745670d28039","condition":"contingent","relevant_dimensions":["antennae","legs"],"bee_group":{"antennae":"B","wings":"X","pattern":"X","legs":"F"},"bonus":1.2600000000000013},{"rt":1591.2999999970198,"stimulus":"bees-with-color/bee-B1DF.svg","response":1,"trial_type":"image-button-response","trial_index":123,"time_elapsed":1330937,"internal_node_id":"0.0-4.0-0.58","subject_id":"6012ed349807110d8eb941a6","study_id":"60edd13110225f80f9f3709b","session_id":"6196c99c60e7745670d28039","condition":"contingent","relevant_dimensions":["antennae","legs"],"bee_group":{"antennae":"B","wings":"X","pattern":"X","legs":"F"},"action":"avoid","summary":"good-avoid","bonus":1.2600000000000013},{"rt":798.6000000014901,"stimulus":"\n                    <p><b>Action: <em>avoid</em></b></p>\n                    <p>This is the bee that you just saw.</p>\n                    <img src=\"bees-with-color/bee-B1DF.svg\" width=\"200\">\n                    <p><br>Your bonus pay is unchanged, and remains at $0.70.</p>\n            ","response":0,"trial_type":"html-button-response","trial_index":124,"time_elapsed":1331737,"internal_node_id":"0.0-4.0-1.58","subject_id":"6012ed349807110d8eb941a6","study_id":"60edd13110225f80f9f3709b","session_id":"6196c99c60e7745670d28039","condition":"contingent","relevant_dimensions":["antennae","legs"],"bee_group":{"antennae":"B","wings":"X","pattern":"X","legs":"F"},"bonus":1.2600000000000013},{"rt":1134.2000000029802,"stimulus":"bees-with-color/bee-A1SM.svg","response":0,"trial_type":"image-button-response","trial_index":125,"time_elapsed":1332872,"internal_node_id":"0.0-4.0-0.59","subject_id":"6012ed349807110d8eb941a6","study_id":"60edd13110225f80f9f3709b","session_id":"6196c99c60e7745670d28039","condition":"contingent","relevant_dimensions":["antennae","legs"],"bee_group":{"antennae":"B","wings":"X","pattern":"X","legs":"F"},"action":"harvest","summary":"good-harvest","bonus":1.2600000000000013},{"rt":905.6000000014901,"stimulus":"\n                    <p><b>Action: <em>harvest</em></b></p>\n                    <p>This is the bee that you just saw.</p>\n                    <img src=\"bees-with-color/bee-A1SM.svg\" width=\"200\">\n                    <p><span class=\"greenText\"><b>Successful harvest!</b></span><br>Your pay has increased by $0.02. Your bonus pay is now $0.72.</p>\n            ","response":0,"trial_type":"html-button-response","trial_index":126,"time_elapsed":1333778,"internal_node_id":"0.0-4.0-1.59","subject_id":"6012ed349807110d8eb941a6","study_id":"60edd13110225f80f9f3709b","session_id":"6196c99c60e7745670d28039","condition":"contingent","relevant_dimensions":["antennae","legs"],"bee_group":{"antennae":"B","wings":"X","pattern":"X","legs":"F"},"bonus":1.2600000000000013},{"rt":1104.7000000029802,"stimulus":"bees-with-color/bee-A2DF.svg","response":0,"trial_type":"image-button-response","trial_index":127,"time_elapsed":1334884,"internal_node_id":"0.0-4.0-0.60","subject_id":"6012ed349807110d8eb941a6","study_id":"60edd13110225f80f9f3709b","session_id":"6196c99c60e7745670d28039","condition":"contingent","relevant_dimensions":["antennae","legs"],"bee_group":{"antennae":"B","wings":"X","pattern":"X","legs":"F"},"action":"harvest","summary":"good-harvest","bonus":1.2600000000000013},{"rt":982.5,"stimulus":"\n                    <p><b>Action: <em>harvest</em></b></p>\n                    <p>This is the bee that you just saw.</p>\n                    <img src=\"bees-with-color/bee-A2DF.svg\" width=\"200\">\n                    <p><span class=\"greenText\"><b>Successful harvest!</b></span><br>Your pay has increased by $0.02. Your bonus pay is now $0.74.</p>\n            ","response":0,"trial_type":"html-button-response","trial_index":128,"time_elapsed":1335867,"internal_node_id":"0.0-4.0-1.60","subject_id":"6012ed349807110d8eb941a6","study_id":"60edd13110225f80f9f3709b","session_id":"6196c99c60e7745670d28039","condition":"contingent","relevant_dimensions":["antennae","legs"],"bee_group":{"antennae":"B","wings":"X","pattern":"X","legs":"F"},"bonus":1.2600000000000013},{"rt":1301.7999999970198,"stimulus":"bees-with-color/bee-B2DM.svg","response":0,"trial_type":"image-button-response","trial_index":129,"time_elapsed":1337170,"internal_node_id":"0.0-4.0-0.61","subject_id":"6012ed349807110d8eb941a6","study_id":"60edd13110225f80f9f3709b","session_id":"6196c99c60e7745670d28039","condition":"contingent","relevant_dimensions":["antennae","legs"],"bee_group":{"antennae":"B","wings":"X","pattern":"X","legs":"F"},"action":"harvest","summary":"good-harvest","bonus":1.2600000000000013},{"rt":675,"stimulus":"\n                    <p><b>Action: <em>harvest</em></b></p>\n                    <p>This is the bee that you just saw.</p>\n                    <img src=\"bees-with-color/bee-B2DM.svg\" width=\"200\">\n                    <p><span class=\"greenText\"><b>Successful harvest!</b></span><br>Your pay has increased by $0.02. Your bonus pay is now $0.76.</p>\n            ","response":0,"trial_type":"html-button-response","trial_index":130,"time_elapsed":1337846,"internal_node_id":"0.0-4.0-1.61","subject_id":"6012ed349807110d8eb941a6","study_id":"60edd13110225f80f9f3709b","session_id":"6196c99c60e7745670d28039","condition":"contingent","relevant_dimensions":["antennae","legs"],"bee_group":{"antennae":"B","wings":"X","pattern":"X","legs":"F"},"bonus":1.2600000000000013},{"rt":2312.4000000059605,"stimulus":"bees-with-color/bee-B1SF.svg","response":1,"trial_type":"image-button-response","trial_index":131,"time_elapsed":1340160,"internal_node_id":"0.0-4.0-0.62","subject_id":"6012ed349807110d8eb941a6","study_id":"60edd13110225f80f9f3709b","session_id":"6196c99c60e7745670d28039","condition":"contingent","relevant_dimensions":["antennae","legs"],"bee_group":{"antennae":"B","wings":"X","pattern":"X","legs":"F"},"action":"avoid","summary":"good-avoid","bonus":1.2600000000000013},{"rt":886.3000000044703,"stimulus":"\n                    <p><b>Action: <em>avoid</em></b></p>\n                    <p>This is the bee that you just saw.</p>\n                    <img src=\"bees-with-color/bee-B1SF.svg\" width=\"200\">\n                    <p><br>Your bonus pay is unchanged, and remains at $0.76.</p>\n            ","response":0,"trial_type":"html-button-response","trial_index":132,"time_elapsed":1341047,"internal_node_id":"0.0-4.0-1.62","subject_id":"6012ed349807110d8eb941a6","study_id":"60edd13110225f80f9f3709b","session_id":"6196c99c60e7745670d28039","condition":"contingent","relevant_dimensions":["antennae","legs"],"bee_group":{"antennae":"B","wings":"X","pattern":"X","legs":"F"},"bonus":1.2600000000000013},{"rt":1503,"stimulus":"bees-with-color/bee-A2DM.svg","response":0,"trial_type":"image-button-response","trial_index":133,"time_elapsed":1342551,"internal_node_id":"0.0-4.0-0.63","subject_id":"6012ed349807110d8eb941a6","study_id":"60edd13110225f80f9f3709b","session_id":"6196c99c60e7745670d28039","condition":"contingent","relevant_dimensions":["antennae","legs"],"bee_group":{"antennae":"B","wings":"X","pattern":"X","legs":"F"},"action":"harvest","summary":"good-harvest","bonus":1.2600000000000013},{"rt":706.8999999985099,"stimulus":"\n                    <p><b>Action: <em>harvest</em></b></p>\n                    <p>This is the bee that you just saw.</p>\n                    <img src=\"bees-with-color/bee-A2DM.svg\" width=\"200\">\n                    <p><span class=\"greenText\"><b>Successful harvest!</b></span><br>Your pay has increased by $0.02. Your bonus pay is now $0.78.</p>\n            ","response":0,"trial_type":"html-button-response","trial_index":134,"time_elapsed":1343259,"internal_node_id":"0.0-4.0-1.63","subject_id":"6012ed349807110d8eb941a6","study_id":"60edd13110225f80f9f3709b","session_id":"6196c99c60e7745670d28039","condition":"contingent","relevant_dimensions":["antennae","legs"],"bee_group":{"antennae":"B","wings":"X","pattern":"X","legs":"F"},"bonus":1.2600000000000013},{"rt":4214.20000000298,"stimulus":"You have completed the first part of this experiment.<br><br>You will now begin a shorter second part, in which you will receive no feedback.<br>The same rules regarding bonus pay apply.<br><br>Press any key to begin.","response":" ","trial_type":"html-keyboard-response","trial_index":135,"time_elapsed":1347474,"internal_node_id":"0.0-5.0","subject_id":"6012ed349807110d8eb941a6","study_id":"60edd13110225f80f9f3709b","session_id":"6196c99c60e7745670d28039","condition":"contingent","relevant_dimensions":["antennae","legs"],"bee_group":{"antennae":"B","wings":"X","pattern":"X","legs":"F"},"bonus":1.2600000000000013},{"rt":2964.0999999940395,"stimulus":"bees-with-color/bee-A2DF.svg","response":0,"trial_type":"image-button-response","trial_index":136,"time_elapsed":1350448,"internal_node_id":"0.0-6.0-0.0","subject_id":"6012ed349807110d8eb941a6","study_id":"60edd13110225f80f9f3709b","session_id":"6196c99c60e7745670d28039","condition":"contingent","relevant_dimensions":["antennae","legs"],"bee_group":{"antennae":"B","wings":"X","pattern":"X","legs":"F"},"bonus":1.2600000000000013},{"rt":2063.7999999970198,"stimulus":"bees-with-color/bee-B2DF.svg","response":1,"trial_type":"image-button-response","trial_index":137,"time_elapsed":1352514,"internal_node_id":"0.0-6.0-0.1","subject_id":"6012ed349807110d8eb941a6","study_id":"60edd13110225f80f9f3709b","session_id":"6196c99c60e7745670d28039","condition":"contingent","relevant_dimensions":["antennae","legs"],"bee_group":{"antennae":"B","wings":"X","pattern":"X","legs":"F"},"bonus":1.2600000000000013},{"rt":641.6999999955297,"stimulus":"bees-with-color/bee-A1SF.svg","response":0,"trial_type":"image-button-response","trial_index":138,"time_elapsed":1353157,"internal_node_id":"0.0-6.0-0.2","subject_id":"6012ed349807110d8eb941a6","study_id":"60edd13110225f80f9f3709b","session_id":"6196c99c60e7745670d28039","condition":"contingent","relevant_dimensions":["antennae","legs"],"bee_group":{"antennae":"B","wings":"X","pattern":"X","legs":"F"},"bonus":1.2600000000000013},{"rt":2158.2000000029802,"stimulus":"bees-with-color/bee-B2SF.svg","response":1,"trial_type":"image-button-response","trial_index":139,"time_elapsed":1355317,"internal_node_id":"0.0-6.0-0.3","subject_id":"6012ed349807110d8eb941a6","study_id":"60edd13110225f80f9f3709b","session_id":"6196c99c60e7745670d28039","condition":"contingent","relevant_dimensions":["antennae","legs"],"bee_group":{"antennae":"B","wings":"X","pattern":"X","legs":"F"},"bonus":1.2600000000000013},{"rt":1990.5,"stimulus":"bees-with-color/bee-B1SM.svg","response":0,"trial_type":"image-button-response","trial_index":140,"time_elapsed":1357309,"internal_node_id":"0.0-6.0-0.4","subject_id":"6012ed349807110d8eb941a6","study_id":"60edd13110225f80f9f3709b","session_id":"6196c99c60e7745670d28039","condition":"contingent","relevant_dimensions":["antennae","legs"],"bee_group":{"antennae":"B","wings":"X","pattern":"X","legs":"F"},"bonus":1.2600000000000013},{"rt":905.3999999985099,"stimulus":"bees-with-color/bee-A1SM.svg","response":0,"trial_type":"image-button-response","trial_index":141,"time_elapsed":1358216,"internal_node_id":"0.0-6.0-0.5","subject_id":"6012ed349807110d8eb941a6","study_id":"60edd13110225f80f9f3709b","session_id":"6196c99c60e7745670d28039","condition":"contingent","relevant_dimensions":["antennae","legs"],"bee_group":{"antennae":"B","wings":"X","pattern":"X","legs":"F"},"bonus":1.2600000000000013},{"rt":686.2999999970198,"stimulus":"bees-with-color/bee-A1DM.svg","response":0,"trial_type":"image-button-response","trial_index":142,"time_elapsed":1358904,"internal_node_id":"0.0-6.0-0.6","subject_id":"6012ed349807110d8eb941a6","study_id":"60edd13110225f80f9f3709b","session_id":"6196c99c60e7745670d28039","condition":"contingent","relevant_dimensions":["antennae","legs"],"bee_group":{"antennae":"B","wings":"X","pattern":"X","legs":"F"},"bonus":1.2600000000000013},{"rt":2832.5999999940395,"stimulus":"bees-with-color/bee-A1DF.svg","response":0,"trial_type":"image-button-response","trial_index":143,"time_elapsed":1361738,"internal_node_id":"0.0-6.0-0.7","subject_id":"6012ed349807110d8eb941a6","study_id":"60edd13110225f80f9f3709b","session_id":"6196c99c60e7745670d28039","condition":"contingent","relevant_dimensions":["antennae","legs"],"bee_group":{"antennae":"B","wings":"X","pattern":"X","legs":"F"},"bonus":1.2600000000000013},{"rt":1179.2999999970198,"stimulus":"bees-with-color/bee-B1SF.svg","response":1,"trial_type":"image-button-response","trial_index":144,"time_elapsed":1362918,"internal_node_id":"0.0-6.0-0.8","subject_id":"6012ed349807110d8eb941a6","study_id":"60edd13110225f80f9f3709b","session_id":"6196c99c60e7745670d28039","condition":"contingent","relevant_dimensions":["antennae","legs"],"bee_group":{"antennae":"B","wings":"X","pattern":"X","legs":"F"},"bonus":1.2600000000000013},{"rt":734.1000000014901,"stimulus":"bees-with-color/bee-A2SF.svg","response":0,"trial_type":"image-button-response","trial_index":145,"time_elapsed":1363654,"internal_node_id":"0.0-6.0-0.9","subject_id":"6012ed349807110d8eb941a6","study_id":"60edd13110225f80f9f3709b","session_id":"6196c99c60e7745670d28039","condition":"contingent","relevant_dimensions":["antennae","legs"],"bee_group":{"antennae":"B","wings":"X","pattern":"X","legs":"F"},"bonus":1.2600000000000013},{"rt":1176.8999999985099,"stimulus":"bees-with-color/bee-A2DM.svg","response":0,"trial_type":"image-button-response","trial_index":146,"time_elapsed":1364832,"internal_node_id":"0.0-6.0-0.10","subject_id":"6012ed349807110d8eb941a6","study_id":"60edd13110225f80f9f3709b","session_id":"6196c99c60e7745670d28039","condition":"contingent","relevant_dimensions":["antennae","legs"],"bee_group":{"antennae":"B","wings":"X","pattern":"X","legs":"F"},"bonus":1.2600000000000013},{"rt":1409,"stimulus":"bees-with-color/bee-B1DM.svg","response":0,"trial_type":"image-button-response","trial_index":147,"time_elapsed":1366242,"internal_node_id":"0.0-6.0-0.11","subject_id":"6012ed349807110d8eb941a6","study_id":"60edd13110225f80f9f3709b","session_id":"6196c99c60e7745670d28039","condition":"contingent","relevant_dimensions":["antennae","legs"],"bee_group":{"antennae":"B","wings":"X","pattern":"X","legs":"F"},"bonus":1.2600000000000013},{"rt":1404.8999999985099,"stimulus":"bees-with-color/bee-B2SM.svg","response":0,"trial_type":"image-button-response","trial_index":148,"time_elapsed":1367649,"internal_node_id":"0.0-6.0-0.12","subject_id":"6012ed349807110d8eb941a6","study_id":"60edd13110225f80f9f3709b","session_id":"6196c99c60e7745670d28039","condition":"contingent","relevant_dimensions":["antennae","legs"],"bee_group":{"antennae":"B","wings":"X","pattern":"X","legs":"F"},"bonus":1.2600000000000013},{"rt":1394.7000000029802,"stimulus":"bees-with-color/bee-B1DF.svg","response":1,"trial_type":"image-button-response","trial_index":149,"time_elapsed":1369045,"internal_node_id":"0.0-6.0-0.13","subject_id":"6012ed349807110d8eb941a6","study_id":"60edd13110225f80f9f3709b","session_id":"6196c99c60e7745670d28039","condition":"contingent","relevant_dimensions":["antennae","legs"],"bee_group":{"antennae":"B","wings":"X","pattern":"X","legs":"F"},"bonus":1.2600000000000013},{"rt":1945.9000000059605,"stimulus":"bees-with-color/bee-A2SM.svg","response":0,"trial_type":"image-button-response","trial_index":150,"time_elapsed":1370992,"internal_node_id":"0.0-6.0-0.14","subject_id":"6012ed349807110d8eb941a6","study_id":"60edd13110225f80f9f3709b","session_id":"6196c99c60e7745670d28039","condition":"contingent","relevant_dimensions":["antennae","legs"],"bee_group":{"antennae":"B","wings":"X","pattern":"X","legs":"F"},"bonus":1.2600000000000013},{"rt":1010.6000000014901,"stimulus":"bees-with-color/bee-B2DM.svg","response":0,"trial_type":"image-button-response","trial_index":151,"time_elapsed":1372004,"internal_node_id":"0.0-6.0-0.15","subject_id":"6012ed349807110d8eb941a6","study_id":"60edd13110225f80f9f3709b","session_id":"6196c99c60e7745670d28039","condition":"contingent","relevant_dimensions":["antennae","legs"],"bee_group":{"antennae":"B","wings":"X","pattern":"X","legs":"F"},"bonus":1.2600000000000013},{"rt":1946.1000000014901,"stimulus":"bees-with-color/bee-B2SF.svg","response":1,"trial_type":"image-button-response","trial_index":152,"time_elapsed":1373951,"internal_node_id":"0.0-6.0-0.16","subject_id":"6012ed349807110d8eb941a6","study_id":"60edd13110225f80f9f3709b","session_id":"6196c99c60e7745670d28039","condition":"contingent","relevant_dimensions":["antennae","legs"],"bee_group":{"antennae":"B","wings":"X","pattern":"X","legs":"F"},"bonus":1.2600000000000013},{"rt":1211.1000000014901,"stimulus":"bees-with-color/bee-B1SF.svg","response":1,"trial_type":"image-button-response","trial_index":153,"time_elapsed":1375163,"internal_node_id":"0.0-6.0-0.17","subject_id":"6012ed349807110d8eb941a6","study_id":"60edd13110225f80f9f3709b","session_id":"6196c99c60e7745670d28039","condition":"contingent","relevant_dimensions":["antennae","legs"],"bee_group":{"antennae":"B","wings":"X","pattern":"X","legs":"F"},"bonus":1.2600000000000013},{"rt":978.8000000044703,"stimulus":"bees-with-color/bee-A1DF.svg","response":0,"trial_type":"image-button-response","trial_index":154,"time_elapsed":1376143,"internal_node_id":"0.0-6.0-0.18","subject_id":"6012ed349807110d8eb941a6","study_id":"60edd13110225f80f9f3709b","session_id":"6196c99c60e7745670d28039","condition":"contingent","relevant_dimensions":["antennae","legs"],"bee_group":{"antennae":"B","wings":"X","pattern":"X","legs":"F"},"bonus":1.2600000000000013},{"rt":795.1000000014901,"stimulus":"bees-with-color/bee-A2DF.svg","response":0,"trial_type":"image-button-response","trial_index":155,"time_elapsed":1376939,"internal_node_id":"0.0-6.0-0.19","subject_id":"6012ed349807110d8eb941a6","study_id":"60edd13110225f80f9f3709b","session_id":"6196c99c60e7745670d28039","condition":"contingent","relevant_dimensions":["antennae","legs"],"bee_group":{"antennae":"B","wings":"X","pattern":"X","legs":"F"},"bonus":1.2600000000000013},{"rt":1606.8000000044703,"stimulus":"bees-with-color/bee-B1DM.svg","response":0,"trial_type":"image-button-response","trial_index":156,"time_elapsed":1378547,"internal_node_id":"0.0-6.0-0.20","subject_id":"6012ed349807110d8eb941a6","study_id":"60edd13110225f80f9f3709b","session_id":"6196c99c60e7745670d28039","condition":"contingent","relevant_dimensions":["antennae","legs"],"bee_group":{"antennae":"B","wings":"X","pattern":"X","legs":"F"},"bonus":1.2600000000000013},{"rt":920,"stimulus":"bees-with-color/bee-A1SM.svg","response":0,"trial_type":"image-button-response","trial_index":157,"time_elapsed":1379468,"internal_node_id":"0.0-6.0-0.21","subject_id":"6012ed349807110d8eb941a6","study_id":"60edd13110225f80f9f3709b","session_id":"6196c99c60e7745670d28039","condition":"contingent","relevant_dimensions":["antennae","legs"],"bee_group":{"antennae":"B","wings":"X","pattern":"X","legs":"F"},"bonus":1.2600000000000013},{"rt":2954.60000000149,"stimulus":"bees-with-color/bee-B2SM.svg","response":0,"trial_type":"image-button-response","trial_index":158,"time_elapsed":1382423,"internal_node_id":"0.0-6.0-0.22","subject_id":"6012ed349807110d8eb941a6","study_id":"60edd13110225f80f9f3709b","session_id":"6196c99c60e7745670d28039","condition":"contingent","relevant_dimensions":["antennae","legs"],"bee_group":{"antennae":"B","wings":"X","pattern":"X","legs":"F"},"bonus":1.2600000000000013},{"rt":917.6999999955297,"stimulus":"bees-with-color/bee-B1SM.svg","response":0,"trial_type":"image-button-response","trial_index":159,"time_elapsed":1383342,"internal_node_id":"0.0-6.0-0.23","subject_id":"6012ed349807110d8eb941a6","study_id":"60edd13110225f80f9f3709b","session_id":"6196c99c60e7745670d28039","condition":"contingent","relevant_dimensions":["antennae","legs"],"bee_group":{"antennae":"B","wings":"X","pattern":"X","legs":"F"},"bonus":1.2600000000000013},{"rt":1257.2000000029802,"stimulus":"bees-with-color/bee-A1DM.svg","response":0,"trial_type":"image-button-response","trial_index":160,"time_elapsed":1384600,"internal_node_id":"0.0-6.0-0.24","subject_id":"6012ed349807110d8eb941a6","study_id":"60edd13110225f80f9f3709b","session_id":"6196c