[{"success":true,"trial_type":"fullscreen","trial_index":0,"time_elapsed":1862489,"internal_node_id":"0.0-0.0","subject_id":"5e54f6b65bac434dd4dd05c3","study_id":"6197b3f67c2b5cd3b6d9596a","session_id":"6197bac843f66f8a2cbb79f2","condition":"contingent","relevant_dimensions":["antennae","pattern"],"bee_group":{"antennae":"A","wings":"X","pattern":"S","legs":"X"},"bonus":1.5800000000000014},{"success":true,"timeout":false,"failed_images":[],"failed_audio":[],"failed_video":[],"trial_type":"preload","trial_index":1,"time_elapsed":1864213,"internal_node_id":"0.0-1.0","subject_id":"5e54f6b65bac434dd4dd05c3","study_id":"6197b3f67c2b5cd3b6d9596a","session_id":"6197bac843f66f8a2cbb79f2","condition":"contingent","relevant_dimensions":["antennae","pattern"],"bee_group":{"antennae":"A","wings":"X","pattern":"S","legs":"X"},"bonus":1.5800000000000014},{"rt":5387.199999928474,"stimulus":"Welcome! Press any key to begin.","response":" ","trial_type":"html-keyboard-response","trial_index":2,"time_elapsed":1869600,"internal_node_id":"0.0-2.0","subject_id":"5e54f6b65bac434dd4dd05c3","study_id":"6197b3f67c2b5cd3b6d9596a","session_id":"6197bac843f66f8a2cbb79f2","condition":"contingent","relevant_dimensions":["antennae","pattern"],"bee_group":{"antennae":"A","wings":"X","pattern":"S","legs":"X"},"bonus":1.5800000000000014},{"view_history":[{"page_index":0,"viewing_time":8774.300000071526},{"page_index":1,"viewing_time":14335.899999976158},{"page_index":2,"viewing_time":102759.70000004768},{"page_index":3,"viewing_time":15024},{"page_index":4,"viewing_time":8960.099999904633},{"page_index":5,"viewing_time":6095.900000095367},{"page_index":6,"viewing_time":12320},{"page_index":7,"viewing_time":4456},{"page_index":8,"viewing_time":3431.899999976158},{"page_index":9,"viewing_time":2448.1999999284744},{"page_index":10,"viewing_time":2055.8000000715256},{"page_index":11,"viewing_time":10456.199999928474},{"page_index":12,"viewing_time":8151.900000095367},{"page_index":13,"viewing_time":2120.0999999046326},{"page_index":14,"viewing_time":4231.900000095367}],"rt":205622.10000002384,"trial_type":"instructions","trial_index":3,"time_elapsed":2075223,"internal_node_id":"0.0-3.0-0.0","subject_id":"5e54f6b65bac434dd4dd05c3","study_id":"6197b3f67c2b5cd3b6d9596a","session_id":"6197bac843f66f8a2cbb79f2","condition":"contingent","relevant_dimensions":["antennae","pattern"],"bee_group":{"antennae":"A","wings":"X","pattern":"S","legs":"X"},"bonus":1.5800000000000014},{"rt":11189.600000023842,"response":{"Q0":["Two or six legs","Stripes or spots on body","Single or double wings","Antennae or no antennae"]},"question_order":[0],"trial_type":"survey-multi-select","trial_index":4,"time_elapsed":2086415,"internal_node_id":"0.0-3.0-1.0","subject_id":"5e54f6b65bac434dd4dd05c3","study_id":"6197b3f67c2b5cd3b6d9596a","session_id":"6197bac843f66f8a2cbb79f2","condition":"contingent","relevant_dimensions":["antennae","pattern"],"bee_group":{"antennae":"A","wings":"X","pattern":"S","legs":"X"},"correct":true,"bonus":1.5800000000000014},{"rt":19206.299999952316,"response":{"Q1":"No.","Q2":"Based on the four features of the bee.","Q3":"You do not learn if it was friendly or dangerous, and do not alter your bonus."},"question_order":[0,1,2],"trial_type":"survey-multi-choice","trial_index":5,"time_elapsed":2105623,"internal_node_id":"0.0-3.0-2.0","subject_id":"5e54f6b65bac434dd4dd05c3","study_id":"6197b3f67c2b5cd3b6d9596a","session_id":"6197bac843f66f8a2cbb79f2","condition":"contingent","relevant_dimensions":["antennae","pattern"],"bee_group":{"antennae":"A","wings":"X","pattern":"S","legs":"X"},"correct":true,"bonus":1.5800000000000014},{"rt":2631.100000023842,"stimulus":"<p>Congrats, you got everything right<br>When you're ready, click the button below to continue to the experiment.</p>","response":0,"trial_type":"html-button-response","trial_index":6,"time_elapsed":2108255,"internal_node_id":"0.0-3.0-3.0","subject_id":"5e54f6b65bac434dd4dd05c3","study_id":"6197b3f67c2b5cd3b6d9596a","session_id":"6197bac843f66f8a2cbb79f2","condition":"contingent","relevant_dimensions":["antennae","pattern"],"bee_group":{"antennae":"A","wings":"X","pattern":"S","legs":"X"},"bonus":1.5800000000000014},{"rt":12270,"stimulus":"bees-with-color/bee-A1SF.svg","response":0,"trial_type":"image-button-response","trial_index":7,"time_elapsed":2120528,"internal_node_id":"0.0-4.0-0.0","subject_id":"5e54f6b65bac434dd4dd05c3","study_id":"6197b3f67c2b5cd3b6d9596a","session_id":"6197bac843f66f8a2cbb79f2","condition":"contingent","relevant_dimensions":["antennae","pattern"],"bee_group":{"antennae":"A","wings":"X","pattern":"S","legs":"X"},"action":"harvest","summary":"bad-harvest","bonus":1.5800000000000014},{"rt":22398.699999928474,"stimulus":"\n                    <p><b>Action: <em>harvest</em></b></p>\n                    <p>This is the bee that you just saw.</p>\n                    <img src=\"bees-with-color/bee-A1SF.svg\" width=\"200\">\n                    <p><span class=\"redText\">Bad choice, the bee was angry.</span><br><b>You have been stung!</b><br>Your pay has been decreased by $0.10. Your bonus pay is now $0.44.</p>\n            ","response":0,"trial_type":"html-button-response","trial_index":8,"time_elapsed":2142928,"internal_node_id":"0.0-4.0-1.0","subject_id":"5e54f6b65bac434dd4dd05c3","study_id":"6197b3f67c2b5cd3b6d9596a","session_id":"6197bac843f66f8a2cbb79f2","condition":"contingent","relevant_dimensions":["antennae","pattern"],"bee_group":{"antennae":"A","wings":"X","pattern":"S","legs":"X"},"bonus":1.5800000000000014},{"rt":3094.2000000476837,"stimulus":"bees-with-color/bee-B2DF.svg","response":0,"trial_type":"image-button-response","trial_index":9,"time_elapsed":2146023,"internal_node_id":"0.0-4.0-0.1","subject_id":"5e54f6b65bac434dd4dd05c3","study_id":"6197b3f67c2b5cd3b6d9596a","session_id":"6197bac843f66f8a2cbb79f2","condition":"contingent","relevant_dimensions":["antennae","pattern"],"bee_group":{"antennae":"A","wings":"X","pattern":"S","legs":"X"},"action":"harvest","summary":"good-harvest","bonus":1.5800000000000014},{"rt":15455.100000023842,"stimulus":"\n                    <p><b>Action: <em>harvest</em></b></p>\n                    <p>This is the bee that you just saw.</p>\n                    <img src=\"bees-with-color/bee-B2DF.svg\" width=\"200\">\n                    <p><span class=\"greenText\"><b>Successful harvest!</b></span><br>Your pay has increased by $0.02. Your bonus pay is now $0.46.</p>\n            ","response":0,"trial_type":"html-button-response","trial_index":10,"time_elapsed":2161479,"internal_node_id":"0.0-4.0-1.1","subject_id":"5e54f6b65bac434dd4dd05c3","study_id":"6197b3f67c2b5cd3b6d9596a","session_id":"6197bac843f66f8a2cbb79f2","condition":"contingent","relevant_dimensions":["antennae","pattern"],"bee_group":{"antennae":"A","wings":"X","pattern":"S","legs":"X"},"bonus":1.5800000000000014},{"rt":3758.5,"stimulus":"bees-with-color/bee-B2SM.svg","response":0,"trial_type":"image-button-response","trial_index":11,"time_elapsed":2165240,"internal_node_id":"0.0-4.0-0.2","subject_id":"5e54f6b65bac434dd4dd05c3","study_id":"6197b3f67c2b5cd3b6d9596a","session_id":"6197bac843f66f8a2cbb79f2","condition":"contingent","relevant_dimensions":["antennae","pattern"],"bee_group":{"antennae":"A","wings":"X","pattern":"S","legs":"X"},"action":"harvest","summary":"good-harvest","bonus":1.5800000000000014},{"rt":11206.300000071526,"stimulus":"\n                    <p><b>Action: <em>harvest</em></b></p>\n                    <p>This is the bee that you just saw.</p>\n                    <img src=\"bees-with-color/bee-B2SM.svg\" width=\"200\">\n                    <p><span class=\"greenText\"><b>Successful harvest!</b></span><br>Your pay has increased by $0.02. Your bonus pay is now $0.48.</p>\n            ","response":0,"trial_type":"html-button-response","trial_index":12,"time_elapsed":2176448,"internal_node_id":"0.0-4.0-1.2","subject_id":"5e54f6b65bac434dd4dd05c3","study_id":"6197b3f67c2b5cd3b6d9596a","session_id":"6197bac843f66f8a2cbb79f2","condition":"contingent","relevant_dimensions":["antennae","pattern"],"bee_group":{"antennae":"A","wings":"X","pattern":"S","legs":"X"},"bonus":1.5800000000000014},{"rt":1070.5,"stimulus":"bees-with-color/bee-A2DM.svg","response":0,"trial_type":"image-button-response","trial_index":13,"time_elapsed":2177519,"internal_node_id":"0.0-4.0-0.3","subject_id":"5e54f6b65bac434dd4dd05c3","study_id":"6197b3f67c2b5cd3b6d9596a","session_id":"6197bac843f66f8a2cbb79f2","condition":"contingent","relevant_dimensions":["antennae","pattern"],"bee_group":{"antennae":"A","wings":"X","pattern":"S","legs":"X"},"action":"harvest","summary":"good-harvest","bonus":1.5800000000000014},{"rt":1534.8999999761581,"stimulus":"\n                    <p><b>Action: <em>harvest</em></b></p>\n                    <p>This is the bee that you just saw.</p>\n                    <img src=\"bees-with-color/bee-A2DM.svg\" width=\"200\">\n                    <p><span class=\"greenText\"><b>Successful harvest!</b></span><br>Your pay has increased by $0.02. Your bonus pay is now $0.50.</p>\n            ","response":0,"trial_type":"html-button-response","trial_index":14,"time_elapsed":2179055,"internal_node_id":"0.0-4.0-1.3","subject_id":"5e54f6b65bac434dd4dd05c3","study_id":"6197b3f67c2b5cd3b6d9596a","session_id":"6197bac843f66f8a2cbb79f2","condition":"contingent","relevant_dimensions":["antennae","pattern"],"bee_group":{"antennae":"A","wings":"X","pattern":"S","legs":"X"},"bonus":1.5800000000000014},{"rt":1311.2000000476837,"stimulus":"bees-with-color/bee-B1SF.svg","response":0,"trial_type":"image-button-response","trial_index":15,"time_elapsed":2180368,"internal_node_id":"0.0-4.0-0.4","subject_id":"5e54f6b65bac434dd4dd05c3","study_id":"6197b3f67c2b5cd3b6d9596a","session_id":"6197bac843f66f8a2cbb79f2","condition":"contingent","relevant_dimensions":["antennae","pattern"],"bee_group":{"antennae":"A","wings":"X","pattern":"S","legs":"X"},"action":"harvest","summary":"good-harvest","bonus":1.5800000000000014},{"rt":903,"stimulus":"\n                    <p><b>Action: <em>harvest</em></b></p>\n                    <p>This is the bee that you just saw.</p>\n                    <img src=\"bees-with-color/bee-B1SF.svg\" width=\"200\">\n                    <p><span class=\"greenText\"><b>Successful harvest!</b></span><br>Your pay has increased by $0.02. Your bonus pay is now $0.52.</p>\n            ","response":0,"trial_type":"html-button-response","trial_index":16,"time_elapsed":2181272,"internal_node_id":"0.0-4.0-1.4","subject_id":"5e54f6b65bac434dd4dd05c3","study_id":"6197b3f67c2b5cd3b6d9596a","session_id":"6197bac843f66f8a2cbb79f2","condition":"contingent","relevant_dimensions":["antennae","pattern"],"bee_group":{"antennae":"A","wings":"X","pattern":"S","legs":"X"},"bonus":1.5800000000000014},{"rt":766.6000000238419,"stimulus":"bees-with-color/bee-B1DF.svg","response":0,"trial_type":"image-button-response","trial_index":17,"time_elapsed":2182039,"internal_node_id":"0.0-4.0-0.5","subject_id":"5e54f6b65bac434dd4dd05c3","study_id":"6197b3f67c2b5cd3b6d9596a","session_id":"6197bac843f66f8a2cbb79f2","condition":"contingent","relevant_dimensions":["antennae","pattern"],"bee_group":{"antennae":"A","wings":"X","pattern":"S","legs":"X"},"action":"harvest","summary":"good-harvest","bonus":1.5800000000000014},{"rt":886.7999999523163,"stimulus":"\n                    <p><b>Action: <em>harvest</em></b></p>\n                    <p>This is the bee that you just saw.</p>\n                    <img src=\"bees-with-color/bee-B1DF.svg\" width=\"200\">\n                    <p><span class=\"greenText\"><b>Successful harvest!</b></span><br>Your pay has increased by $0.02. Your bonus pay is now $0.54.</p>\n            ","response":0,"trial_type":"html-button-response","trial_index":18,"time_elapsed":2182927,"internal_node_id":"0.0-4.0-1.5","subject_id":"5e54f6b65bac434dd4dd05c3","study_id":"6197b3f67c2b5cd3b6d9596a","session_id":"6197bac843f66f8a2cbb79f2","condition":"contingent","relevant_dimensions":["antennae","pattern"],"bee_group":{"antennae":"A","wings":"X","pattern":"S","legs":"X"},"bonus":1.5800000000000014},{"rt":1966.8999999761581,"stimulus":"bees-with-color/bee-B1DM.svg","response":0,"trial_type":"image-button-response","trial_index":19,"time_elapsed":2184895,"internal_node_id":"0.0-4.0-0.6","subject_id":"5e54f6b65bac434dd4dd05c3","study_id":"6197b3f67c2b5cd3b6d9596a","session_id":"6197bac843f66f8a2cbb79f2","condition":"contingent","relevant_dimensions":["antennae","pattern"],"bee_group":{"antennae":"A","wings":"X","pattern":"S","legs":"X"},"action":"harvest","summary":"good-harvest","bonus":1.5800000000000014},{"rt":966.8999999761581,"stimulus":"\n                    <p><b>Action: <em>harvest</em></b></p>\n                    <p>This is the bee that you just saw.</p>\n                    <img src=\"bees-with-color/bee-B1DM.svg\" width=\"200\">\n                    <p><span class=\"greenText\"><b>Successful harvest!</b></span><br>Your pay has increased by $0.02. Your bonus pay is now $0.56.</p>\n            ","response":0,"trial_type":"html-button-response","trial_index":20,"time_elapsed":2185864,"internal_node_id":"0.0-4.0-1.6","subject_id":"5e54f6b65bac434dd4dd05c3","study_id":"6197b3f67c2b5cd3b6d9596a","session_id":"6197bac843f66f8a2cbb79f2","condition":"contingent","relevant_dimensions":["antennae","pattern"],"bee_group":{"antennae":"A","wings":"X","pattern":"S","legs":"X"},"bonus":1.5800000000000014},{"rt":2063,"stimulus":"bees-with-color/bee-A2SM.svg","response":0,"trial_type":"image-button-response","trial_index":21,"time_elapsed":2187927,"internal_node_id":"0.0-4.0-0.7","subject_id":"5e54f6b65bac434dd4dd05c3","study_id":"6197b3f67c2b5cd3b6d9596a","session_id":"6197bac843f66f8a2cbb79f2","condition":"contingent","relevant_dimensions":["antennae","pattern"],"bee_group":{"antennae":"A","wings":"X","pattern":"S","legs":"X"},"action":"harvest","summary":"bad-harvest","bonus":1.5800000000000014},{"rt":11615,"stimulus":"\n                    <p><b>Action: <em>harvest</em></b></p>\n                    <p>This is the bee that you just saw.</p>\n                    <img src=\"bees-with-color/bee-A2SM.svg\" width=\"200\">\n                    <p><span class=\"redText\">Bad choice, the bee was angry.</span><br><b>You have been stung!</b><br>Your pay has been decreased by $0.10. Your bonus pay is now $0.46.</p>\n            ","response":0,"trial_type":"html-button-response","trial_index":22,"time_elapsed":2199544,"internal_node_id":"0.0-4.0-1.7","subject_id":"5e54f6b65bac434dd4dd05c3","study_id":"6197b3f67c2b5cd3b6d9596a","session_id":"6197bac843f66f8a2cbb79f2","condition":"contingent","relevant_dimensions":["antennae","pattern"],"bee_group":{"antennae":"A","wings":"X","pattern":"S","legs":"X"},"bonus":1.5800000000000014},{"rt":5478.200000047684,"stimulus":"bees-with-color/bee-B2SF.svg","response":0,"trial_type":"image-button-response","trial_index":23,"time_elapsed":2205024,"internal_node_id":"0.0-4.0-0.8","subject_id":"5e54f6b65bac434dd4dd05c3","study_id":"6197b3f67c2b5cd3b6d9596a","session_id":"6197bac843f66f8a2cbb79f2","condition":"contingent","relevant_dimensions":["antennae","pattern"],"bee_group":{"antennae":"A","wings":"X","pattern":"S","legs":"X"},"action":"harvest","summary":"good-harvest","bonus":1.5800000000000014},{"rt":1110.6000000238419,"stimulus":"\n                    <p><b>Action: <em>harvest</em></b></p>\n                    <p>This is the bee that you just saw.</p>\n                    <img src=\"bees-with-color/bee-B2SF.svg\" width=\"200\">\n                    <p><span class=\"greenText\"><b>Successful harvest!</b></span><br>Your pay has increased by $0.02. Your bonus pay is now $0.48.</p>\n            ","response":0,"trial_type":"html-button-response","trial_index":24,"time_elapsed":2206135,"internal_node_id":"0.0-4.0-1.8","subject_id":"5e54f6b65bac434dd4dd05c3","study_id":"6197b3f67c2b5cd3b6d9596a","session_id":"6197bac843f66f8a2cbb79f2","condition":"contingent","relevant_dimensions":["antennae","pattern"],"bee_group":{"antennae":"A","wings":"X","pattern":"S","legs":"X"},"bonus":1.5800000000000014},{"rt":2974.8000000715256,"stimulus":"bees-with-color/bee-B2DM.svg","response":0,"trial_type":"image-button-response","trial_index":25,"time_elapsed":2209112,"internal_node_id":"0.0-4.0-0.9","subject_id":"5e54f6b65bac434dd4dd05c3","study_id":"6197b3f67c2b5cd3b6d9596a","session_id":"6197bac843f66f8a2cbb79f2","condition":"contingent","relevant_dimensions":["antennae","pattern"],"bee_group":{"antennae":"A","wings":"X","pattern":"S","legs":"X"},"action":"harvest","summary":"good-harvest","bonus":1.5800000000000014},{"rt":934.7000000476837,"stimulus":"\n                    <p><b>Action: <em>harvest</em></b></p>\n                    <p>This is the bee that you just saw.</p>\n                    <img src=\"bees-with-color/bee-B2DM.svg\" width=\"200\">\n                    <p><span class=\"greenText\"><b>Successful harvest!</b></span><br>Your pay has increased by $0.02. Your bonus pay is now $0.50.</p>\n            ","response":0,"trial_type":"html-button-response","trial_index":26,"time_elapsed":2210048,"internal_node_id":"0.0-4.0-1.9","subject_id":"5e54f6b65bac434dd4dd05c3","study_id":"6197b3f67c2b5cd3b6d9596a","session_id":"6197bac843f66f8a2cbb79f2","condition":"contingent","relevant_dimensions":["antennae","pattern"],"bee_group":{"antennae":"A","wings":"X","pattern":"S","legs":"X"},"bonus":1.5800000000000014},{"rt":606.7000000476837,"stimulus":"bees-with-color/bee-A1DM.svg","response":0,"trial_type":"image-button-response","trial_index":27,"time_elapsed":2210655,"internal_node_id":"0.0-4.0-0.10","subject_id":"5e54f6b65bac434dd4dd05c3","study_id":"6197b3f67c2b5cd3b6d9596a","session_id":"6197bac843f66f8a2cbb79f2","condition":"contingent","relevant_dimensions":["antennae","pattern"],"bee_group":{"antennae":"A","wings":"X","pattern":"S","legs":"X"},"action":"harvest","summary":"good-harvest","bonus":1.5800000000000014},{"rt":1287,"stimulus":"\n                    <p><b>Action: <em>harvest</em></b></p>\n                    <p>This is the bee that you just saw.</p>\n                    <img src=\"bees-with-color/bee-A1DM.svg\" width=\"200\">\n                    <p><span class=\"greenText\"><b>Successful harvest!</b></span><br>Your pay has increased by $0.02. Your bonus pay is now $0.52.</p>\n            ","response":0,"trial_type":"html-button-response","trial_index":28,"time_elapsed":2211944,"internal_node_id":"0.0-4.0-1.10","subject_id":"5e54f6b65bac434dd4dd05c3","study_id":"6197b3f67c2b5cd3b6d9596a","session_id":"6197bac843f66f8a2cbb79f2","condition":"contingent","relevant_dimensions":["antennae","pattern"],"bee_group":{"antennae":"A","wings":"X","pattern":"S","legs":"X"},"bonus":1.5800000000000014},{"rt":1086.8999999761581,"stimulus":"bees-with-color/bee-A2SF.svg","response":0,"trial_type":"image-button-response","trial_index":29,"time_elapsed":2213032,"internal_node_id":"0.0-4.0-0.11","subject_id":"5e54f6b65bac434dd4dd05c3","study_id":"6197b3f67c2b5cd3b6d9596a","session_id":"6197bac843f66f8a2cbb79f2","condition":"contingent","relevant_dimensions":["antennae","pattern"],"bee_group":{"antennae":"A","wings":"X","pattern":"S","legs":"X"},"action":"harvest","summary":"bad-harvest","bonus":1.5800000000000014},{"rt":11174.599999904633,"stimulus":"\n                    <p><b>Action: <em>harvest</em></b></p>\n                    <p>This is the bee that you just saw.</p>\n                    <img src=\"bees-with-color/bee-A2SF.svg\" width=\"200\">\n                    <p><span class=\"redText\">Bad choice, the bee was angry.</span><br><b>You have been stung!</b><br>Your pay has been decreased by $0.10. Your bonus pay is now $0.42.</p>\n            ","response":0,"trial_type":"html-button-response","trial_index":30,"time_elapsed":2224208,"internal_node_id":"0.0-4.0-1.11","subject_id":"5e54f6b65bac434dd4dd05c3","study_id":"6197b3f67c2b5cd3b6d9596a","session_id":"6197bac843f66f8a2cbb79f2","condition":"contingent","relevant_dimensions":["antennae","pattern"],"bee_group":{"antennae":"A","wings":"X","pattern":"S","legs":"X"},"bonus":1.5800000000000014},{"rt":854.2000000476837,"stimulus":"bees-with-color/bee-A2DF.svg","response":0,"trial_type":"image-button-response","trial_index":31,"time_elapsed":2225063,"internal_node_id":"0.0-4.0-0.12","subject_id":"5e54f6b65bac434dd4dd05c3","study_id":"6197b3f67c2b5cd3b6d9596a","session_id":"6197bac843f66f8a2cbb79f2","condition":"contingent","relevant_dimensions":["antennae","pattern"],"bee_group":{"antennae":"A","wings":"X","pattern":"S","legs":"X"},"action":"harvest","summary":"good-harvest","bonus":1.5800000000000014},{"rt":1318.9000000953674,"stimulus":"\n                    <p><b>Action: <em>harvest</em></b></p>\n                    <p>This is the bee that you just saw.</p>\n                    <img src=\"bees-with-color/bee-A2DF.svg\" width=\"200\">\n                    <p><span class=\"greenText\"><b>Successful harvest!</b></span><br>Your pay has increased by $0.02. Your bonus pay is now $0.44.</p>\n            ","response":0,"trial_type":"html-button-response","trial_index":32,"time_elapsed":2226383,"internal_node_id":"0.0-4.0-1.12","subject_id":"5e54f6b65bac434dd4dd05c3","study_id":"6197b3f67c2b5cd3b6d9596a","session_id":"6197bac843f66f8a2cbb79f2","condition":"contingent","relevant_dimensions":["antennae","pattern"],"bee_group":{"antennae":"A","wings":"X","pattern":"S","legs":"X"},"bonus":1.5800000000000014},{"rt":8535,"stimulus":"bees-with-color/bee-A1SM.svg","response":0,"trial_type":"image-button-response","trial_index":33,"time_elapsed":2234919,"internal_node_id":"0.0-4.0-0.13","subject_id":"5e54f6b65bac434dd4dd05c3","study_id":"6197b3f67c2b5cd3b6d9596a","session_id":"6197bac843f66f8a2cbb79f2","condition":"contingent","relevant_dimensions":["antennae","pattern"],"bee_group":{"antennae":"A","wings":"X","pattern":"S","legs":"X"},"action":"harvest","summary":"bad-harvest","bonus":1.5800000000000014},{"rt":6631.200000047684,"stimulus":"\n                    <p><b>Action: <em>harvest</em></b></p>\n                    <p>This is the bee that you just saw.</p>\n                    <img src=\"bees-with-color/bee-A1SM.svg\" width=\"200\">\n                    <p><span class=\"redText\">Bad choice, the bee was angry.</span><br><b>You have been stung!</b><br>Your pay has been decreased by $0.10. Your bonus pay is now $0.34.</p>\n            ","response":0,"trial_type":"html-button-response","trial_index":34,"time_elapsed":2241551,"internal_node_id":"0.0-4.0-1.13","subject_id":"5e54f6b65bac434dd4dd05c3","study_id":"6197b3f67c2b5cd3b6d9596a","session_id":"6197bac843f66f8a2cbb79f2","condition":"contingent","relevant_dimensions":["antennae","pattern"],"bee_group":{"antennae":"A","wings":"X","pattern":"S","legs":"X"},"bonus":1.5800000000000014},{"rt":15214.5,"stimulus":"bees-with-color/bee-B1SM.svg","response":0,"trial_type":"image-button-response","trial_index":35,"time_elapsed":2256767,"internal_node_id":"0.0-4.0-0.14","subject_id":"5e54f6b65bac434dd4dd05c3","study_id":"6197b3f67c2b5cd3b6d9596a","session_id":"6197bac843f66f8a2cbb79f2","condition":"contingent","relevant_dimensions":["antennae","pattern"],"bee_group":{"antennae":"A","wings":"X","pattern":"S","legs":"X"},"action":"harvest","summary":"good-harvest","bonus":1.5800000000000014},{"rt":1023,"stimulus":"\n                    <p><b>Action: <em>harvest</em></b></p>\n                    <p>This is the bee that you just saw.</p>\n                    <img src=\"bees-with-color/bee-B1SM.svg\" width=\"200\">\n                    <p><span class=\"greenText\"><b>Successful harvest!</b></span><br>Your pay has increased by $0.02. Your bonus pay is now $0.36.</p>\n            ","response":0,"trial_type":"html-button-response","trial_index":36,"time_elapsed":2257790,"internal_node_id":"0.0-4.0-1.14","subject_id":"5e54f6b65bac434dd4dd05c3","study_id":"6197b3f67c2b5cd3b6d9596a","session_id":"6197bac843f66f8a2cbb79f2","condition":"contingent","relevant_dimensions":["antennae","pattern"],"bee_group":{"antennae":"A","wings":"X","pattern":"S","legs":"X"},"bonus":1.5800000000000014},{"rt":5583.199999928474,"stimulus":"bees-with-color/bee-A1DF.svg","response":0,"trial_type":"image-button-response","trial_index":37,"time_elapsed":2263375,"internal_node_id":"0.0-4.0-0.15","subject_id":"5e54f6b65bac434dd4dd05c3","study_id":"6197b3f67c2b5cd3b6d9596a","session_id":"6197bac843f66f8a2cbb79f2","condition":"contingent","relevant_dimensions":["antennae","pattern"],"bee_group":{"antennae":"A","wings":"X","pattern":"S","legs":"X"},"action":"harvest","summary":"good-harvest","bonus":1.5800000000000014},{"rt":911,"stimulus":"\n                    <p><b>Action: <em>harvest</em></b></p>\n                    <p>This is the bee that you just saw.</p>\n                    <img src=\"bees-with-color/bee-A1DF.svg\" width=\"200\">\n                    <p><span class=\"greenText\"><b>Successful harvest!</b></span><br>Your pay has increased by $0.02. Your bonus pay is now $0.38.</p>\n            ","response":0,"trial_type":"html-button-response","trial_index":38,"time_elapsed":2264287,"internal_node_id":"0.0-4.0-1.15","subject_id":"5e54f6b65bac434dd4dd05c3","study_id":"6197b3f67c2b5cd3b6d9596a","session_id":"6197bac843f66f8a2cbb79f2","condition":"contingent","relevant_dimensions":["antennae","pattern"],"bee_group":{"antennae":"A","wings":"X","pattern":"S","legs":"X"},"bonus":1.5800000000000014},{"rt":983.3999999761581,"stimulus":"bees-with-color/bee-A2DF.svg","response":0,"trial_type":"image-button-response","trial_index":39,"time_elapsed":2265271,"internal_node_id":"0.0-4.0-0.16","subject_id":"5e54f6b65bac434dd4dd05c3","study_id":"6197b3f67c2b5cd3b6d9596a","session_id":"6197bac843f66f8a2cbb79f2","condition":"contingent","relevant_dimensions":["antennae","pattern"],"bee_group":{"antennae":"A","wings":"X","pattern":"S","legs":"X"},"action":"harvest","summary":"good-harvest","bonus":1.5800000000000014},{"rt":1462.8000000715256,"stimulus":"\n                    <p><b>Action: <em>harvest</em></b></p>\n                    <p>This is the bee that you just saw.</p>\n                    <img src=\"bees-with-color/bee-A2DF.svg\" width=\"200\">\n                    <p><span class=\"greenText\"><b>Successful harvest!</b></span><br>Your pay has increased by $0.02. Your bonus pay is now $0.40.</p>\n            ","response":0,"trial_type":"html-button-response","trial_index":40,"time_elapsed":2266735,"internal_node_id":"0.0-4.0-1.16","subject_id":"5e54f6b65bac434dd4dd05c3","study_id":"6197b3f67c2b5cd3b6d9596a","session_id":"6197bac843f66f8a2cbb79f2","condition":"contingent","relevant_dimensions":["antennae","pattern"],"bee_group":{"antennae":"A","wings":"X","pattern":"S","legs":"X"},"bonus":1.5800000000000014},{"rt":1846.8999999761581,"stimulus":"bees-with-color/bee-A2DM.svg","response":0,"trial_type":"image-button-response","trial_index":41,"time_elapsed":2268583,"internal_node_id":"0.0-4.0-0.17","subject_id":"5e54f6b65bac434dd4dd05c3","study_id":"6197b3f67c2b5cd3b6d9596a","session_id":"6197bac843f66f8a2cbb79f2","condition":"contingent","relevant_dimensions":["antennae","pattern"],"bee_group":{"antennae":"A","wings":"X","pattern":"S","legs":"X"},"action":"harvest","summary":"good-harvest","bonus":1.5800000000000014},{"rt":1006.8999999761581,"stimulus":"\n                    <p><b>Action: <em>harvest</em></b></p>\n                    <p>This is the bee that you just saw.</p>\n                    <img src=\"bees-with-color/bee-A2DM.svg\" width=\"200\">\n                    <p><span class=\"greenText\"><b>Successful harvest!</b></span><br>Your pay has increased by $0.02. Your bonus pay is now $0.42.</p>\n            ","response":0,"trial_type":"html-button-response","trial_index":42,"time_elapsed":2269591,"internal_node_id":"0.0-4.0-1.17","subject_id":"5e54f6b65bac434dd4dd05c3","study_id":"6197b3f67c2b5cd3b6d9596a","session_id":"6197bac843f66f8a2cbb79f2","condition":"contingent","relevant_dimensions":["antennae","pattern"],"bee_group":{"antennae":"A","wings":"X","pattern":"S","legs":"X"},"bonus":1.5800000000000014},{"rt":4575.100000023842,"stimulus":"bees-with-color/bee-A1SF.svg","response":1,"trial_type":"image-button-response","trial_index":43,"time_elapsed":2274167,"internal_node_id":"0.0-4.0-0.18","subject_id":"5e54f6b65bac434dd4dd05c3","study_id":"6197b3f67c2b5cd3b6d9596a","session_id":"6197bac843f66f8a2cbb79f2","condition":"contingent","relevant_dimensions":["antennae","pattern"],"bee_group":{"antennae":"A","wings":"X","pattern":"S","legs":"X"},"action":"avoid","summary":"good-avoid","bonus":1.5800000000000014},{"rt":2119.100000023842,"stimulus":"\n                    <p><b>Action: <em>avoid</em></b></p>\n                    <p>This is the bee that you just saw.</p>\n                    <img src=\"bees-with-color/bee-A1SF.svg\" width=\"200\">\n                    <p><br>Your bonus pay is unchanged, and remains at $0.42.</p>\n            ","response":0,"trial_type":"html-button-response","trial_index":44,"time_elapsed":2276287,"internal_node_id":"0.0-4.0-1.18","subject_id":"5e54f6b65bac434dd4dd05c3","study_id":"6197b3f67c2b5cd3b6d9596a","session_id":"6197bac843f66f8a2cbb79f2","condition":"contingent","relevant_dimensions":["antennae","pattern"],"bee_group":{"antennae":"A","wings":"X","pattern":"S","legs":"X"},"bonus":1.5800000000000014},{"rt":1750.7999999523163,"stimulus":"bees-with-color/bee-B2DF.svg","response":0,"trial_type":"image-button-response","trial_index":45,"time_elapsed":2278039,"internal_node_id":"0.0-4.0-0.19","subject_id":"5e54f6b65bac434dd4dd05c3","study_id":"6197b3f67c2b5cd3b6d9596a","session_id":"6197bac843f66f8a2cbb79f2","condition":"contingent","relevant_dimensions":["antennae","pattern"],"bee_group":{"antennae":"A","wings":"X","pattern":"S","legs":"X"},"action":"harvest","summary":"good-harvest","bonus":1.5800000000000014},{"rt":838.5,"stimulus":"\n                    <p><b>Action: <em>harvest</em></b></p>\n                    <p>This is the bee that you just saw.</p>\n                    <img src=\"bees-with-color/bee-B2DF.svg\" width=\"200\">\n                    <p><span class=\"greenText\"><b>Successful harvest!</b></span><br>Your pay has increased by $0.02. Your bonus pay is now $0.44.</p>\n            ","response":0,"trial_type":"html-button-response","trial_index":46,"time_elapsed":2278879,"internal_node_id":"0.0-4.0-1.19","subject_id":"5e54f6b65bac434dd4dd05c3","study_id":"6197b3f67c2b5cd3b6d9596a","session_id":"6197bac843f66f8a2cbb79f2","condition":"contingent","relevant_dimensions":["antennae","pattern"],"bee_group":{"antennae":"A","wings":"X","pattern":"S","legs":"X"},"bonus":1.5800000000000014},{"rt":7911.099999904633,"stimulus":"bees-with-color/bee-B2SM.svg","response":0,"trial_type":"image-button-response","trial_index":47,"time_elapsed":2286791,"internal_node_id":"0.0-4.0-0.20","subject_id":"5e54f6b65bac434dd4dd05c3","study_id":"6197b3f67c2b5cd3b6d9596a","session_id":"6197bac843f66f8a2cbb79f2","condition":"contingent","relevant_dimensions":["antennae","pattern"],"bee_group":{"antennae":"A","wings":"X","pattern":"S","legs":"X"},"action":"harvest","summary":"good-harvest","bonus":1.5800000000000014},{"rt":1207.2999999523163,"stimulus":"\n                    <p><b>Action: <em>harvest</em></b></p>\n                    <p>This is the bee that you just saw.</p>\n                    <img src=\"bees-with-color/bee-B2SM.svg\" width=\"200\">\n                    <p><span class=\"greenText\"><b>Successful harvest!</b></span><br>Your pay has increased by $0.02. Your bonus pay is now $0.46.</p>\n            ","response":0,"trial_type":"html-button-response","trial_index":48,"time_elapsed":2287999,"internal_node_id":"0.0-4.0-1.20","subject_id":"5e54f6b65bac434dd4dd05c3","study_id":"6197b3f67c2b5cd3b6d9596a","session_id":"6197bac843f66f8a2cbb79f2","condition":"contingent","relevant_dimensions":["antennae","pattern"],"bee_group":{"antennae":"A","wings":"X","pattern":"S","legs":"X"},"bonus":1.5800000000000014},{"rt":5494.700000047684,"stimulus":"bees-with-color/bee-A2SM.svg","response":1,"trial_type":"image-button-response","trial_index":49,"time_elapsed":2293495,"internal_node_id":"0.0-4.0-0.21","subject_id":"5e54f6b65bac434dd4dd05c3","study_id":"6197b3f67c2b5cd3b6d9596a","session_id":"6197bac843f66f8a2cbb79f2","condition":"contingent","relevant_dimensions":["antennae","pattern"],"bee_group":{"antennae":"A","wings":"X","pattern":"S","legs":"X"},"action":"avoid","summary":"good-avoid","bonus":1.5800000000000014},{"rt":951,"stimulus":"\n                    <p><b>Action: <em>avoid</em></b></p>\n                    <p>This is the bee that you just saw.</p>\n                    <img src=\"bees-with-color/bee-A2SM.svg\" width=\"200\">\n                    <p><br>Your bonus pay is unchanged, and remains at $0.46.</p>\n            ","response":0,"trial_type":"html-button-response","trial_index":50,"time_elapsed":2294447,"internal_node_id":"0.0-4.0-1.21","subject_id":"5e54f6b65bac434dd4dd05c3","study_id":"6197b3f67c2b5cd3b6d9596a","session_id":"6197bac843f66f8a2cbb79f2","condition":"contingent","relevant_dimensions":["antennae","pattern"],"bee_group":{"antennae":"A","wings":"X","pattern":"S","legs":"X"},"bonus":1.5800000000000014},{"rt":1263.3000000715256,"stimulus":"bees-with-color/bee-A1DF.svg","response":0,"trial_type":"image-button-response","trial_index":51,"time_elapsed":2295711,"internal_node_id":"0.0-4.0-0.22","subject_id":"5e54f6b65bac434dd4dd05c3","study_id":"6197b3f67c2b5cd3b6d9596a","session_id":"6197bac843f66f8a2cbb79f2","condition":"contingent","relevant_dimensions":["antennae","pattern"],"bee_group":{"antennae":"A","wings":"X","pattern":"S","legs":"X"},"action":"harvest","summary":"good-harvest","bonus":1.5800000000000014},{"rt":774.8999999761581,"stimulus":"\n                    <p><b>Action: <em>harvest</em></b></p>\n                    <p>This is the bee that you just saw.</p>\n                    <img src=\"bees-with-color/bee-A1DF.svg\" width=\"200\">\n                    <p><span class=\"greenText\"><b>Successful harvest!</b></span><br>Your pay has increased by $0.02. Your bonus pay is now $0.48.</p>\n            ","response":0,"trial_type":"html-button-response","trial_index":52,"time_elapsed":2296487,"internal_node_id":"0.0-4.0-1.22","subject_id":"5e54f6b65bac434dd4dd05c3","study_id":"6197b3f67c2b5cd3b6d9596a","session_id":"6197bac843f66f8a2cbb79f2","condition":"contingent","relevant_dimensions":["antennae","pattern"],"bee_group":{"antennae":"A","wings":"X","pattern":"S","legs":"X"},"bonus":1.5800000000000014},{"rt":7775.100000023842,"stimulus":"bees-with-color/bee-B1SF.svg","response":0,"trial_type":"image-button-response","trial_index":53,"time_elapsed":2304263,"internal_node_id":"0.0-4.0-0.23","subject_id":"5e54f6b65bac434dd4dd05c3","study_id":"6197b3f67c2b5cd3b6d9596a","session_id":"6197bac843f66f8a2cbb79f2","condition":"contingent","relevant_dimensions":["antennae","pattern"],"bee_group":{"antennae":"A","wings":"X","pattern":"S","legs":"X"},"action":"harvest","summary":"good-harvest","bonus":1.5800000000000014},{"rt":1030.8999999761581,"stimulus":"\n                    <p><b>Action: <em>harvest</em></b></p>\n                    <p>This is the bee that you just saw.</p>\n                    <img src=\"bees-with-color/bee-B1SF.svg\" width=\"200\">\n                    <p><span class=\"greenText\"><b>Successful harvest!</b></span><br>Your pay has increased by $0.02. Your bonus pay is now $0.50.</p>\n            ","response":0,"trial_type":"html-button-response","trial_index":54,"time_elapsed":2305295,"internal_node_id":"0.0-4.0-1.23","subject_id":"5e54f6b65bac434dd4dd05c3","study_id":"6197b3f67c2b5cd3b6d9596a","session_id":"6197bac843f66f8a2cbb79f2","condition":"contingent","relevant_dimensions":["antennae","pattern"],"bee_group":{"antennae":"A","wings":"X","pattern":"S","legs":"X"},"bonus":1.5800000000000014},{"rt":21606.600000023842,"stimulus":"bees-with-color/bee-A1SM.svg","response":1,"trial_type":"image-button-response","trial_index":55,"time_elapsed":2326903,"internal_node_id":"0.0-4.0-0.24","subject_id":"5e54f6b65bac434dd4dd05c3","study_id":"6197b3f67c2b5cd3b6d9596a","session_id":"6197bac843f66f8a2cbb79f2","condition":"contingent","relevant_dimensions":["antennae","pattern"],"bee_group":{"antennae":"A","wings":"X","pattern":"S","legs":"X"},"action":"avoid","summary":"good-avoid","bonus":1.5800000000000014},{"rt":1206.8999999761581,"stimulus":"\n                    <p><b>Action: <em>avoid</em></b></p>\n                    <p>This is the bee that you just saw.</p>\n                    <img src=\"bees-with-color/bee-A1SM.svg\" width=\"200\">\n                    <p><br>Your bonus pay is unchanged, and remains at $0.50.</p>\n            ","response":0,"trial_type":"html-button-response","trial_index":56,"time_elapsed":2328111,"internal_node_id":"0.0-4.0-1.24","subject_id":"5e54f6b65bac434dd4dd05c3","study_id":"6197b3f67c2b5cd3b6d9596a","session_id":"6197bac843f66f8a2cbb79f2","condition":"contingent","relevant_dimensions":["antennae","pattern"],"bee_group":{"antennae":"A","wings":"X","pattern":"S","legs":"X"},"bonus":1.5800000000000014},{"rt":998.5,"stimulus":"bees-with-color/bee-B2DM.svg","response":0,"trial_type":"image-button-response","trial_index":57,"time_elapsed":2329112,"internal_node_id":"0.0-4.0-0.25","subject_id":"5e54f6b65bac434dd4dd05c3","study_id":"6197b3f67c2b5cd3b6d9596a","session_id":"6197bac843f66f8a2cbb79f2","condition":"contingent","relevant_dimensions":["antennae","pattern"],"bee_group":{"antennae":"A","wings":"X","pattern":"S","legs":"X"},"action":"harvest","summary":"good-harvest","bonus":1.5800000000000014},{"rt":782.8000000715256,"stimulus":"\n                    <p><b>Action: <em>harvest</em></b></p>\n                    <p>This is the bee that you just saw.</p>\n                    <img src=\"bees-with-color/bee-B2DM.svg\" width=\"200\">\n                    <p><span class=\"greenText\"><b>Successful harvest!</b></span><br>Your pay has increased by $0.02. Your bonus pay is now $0.52.</p>\n            ","response":0,"trial_type":"html-button-response","trial_index":58,"time_elapsed":2329896,"internal_node_id":"0.0-4.0-1.25","subject_id":"5e54f6b65bac434dd4dd05c3","study_id":"6197b3f67c2b5cd3b6d9596a","session_id":"6197bac843f66f8a2cbb79f2","condition":"contingent","relevant_dimensions":["antennae","pattern"],"bee_group":{"antennae":"A","wings":"X","pattern":"S","legs":"X"},"bonus":1.5800000000000014},{"rt":1254.7999999523163,"stimulus":"bees-with-color/bee-B1DM.svg","response":0,"trial_type":"image-button-response","trial_index":59,"time_elapsed":2331151,"internal_node_id":"0.0-4.0-0.26","subject_id":"5e54f6b65bac434dd4dd05c3","study_id":"6197b3f67c2b5cd3b6d9596a","session_id":"6197bac843f66f8a2cbb79f2","condition":"contingent","relevant_dimensions":["antennae","pattern"],"bee_group":{"antennae":"A","wings":"X","pattern":"S","legs":"X"},"action":"harvest","summary":"good-harvest","bonus":1.5800000000000014},{"rt":1118.7999999523163,"stimulus":"\n                    <p><b>Action: <em>harvest</em></b></p>\n                    <p>This is the bee that you just saw.</p>\n                    <img src=\"bees-with-color/bee-B1DM.svg\" width=\"200\">\n                    <p><span class=\"greenText\"><b>Successful harvest!</b></span><br>Your pay has increased by $0.02. Your bonus pay is now $0.54.</p>\n            ","response":0,"trial_type":"html-button-response","trial_index":60,"time_elapsed":2332271,"internal_node_id":"0.0-4.0-1.26","subject_id":"5e54f6b65bac434dd4dd05c3","study_id":"6197b3f67c2b5cd3b6d9596a","session_id":"6197bac843f66f8a2cbb79f2","condition":"contingent","relevant_dimensions":["antennae","pattern"],"bee_group":{"antennae":"A","wings":"X","pattern":"S","legs":"X"},"bonus":1.5800000000000014},{"rt":8806.899999976158,"stimulus":"bees-with-color/bee-B1SM.svg","response":0,"trial_type":"image-button-response","trial_index":61,"time_elapsed":2341079,"internal_node_id":"0.0-4.0-0.27","subject_id":"5e54f6b65bac434dd4dd05c3","study_id":"6197b3f67c2b5cd3b6d9596a","session_id":"6197bac843f66f8a2cbb79f2","condition":"contingent","relevant_dimensions":["antennae","pattern"],"bee_group":{"antennae":"A","wings":"X","pattern":"S","legs":"X"},"action":"harvest","summary":"good-harvest","bonus":1.5800000000000014},{"rt":1167.1000000238419,"stimulus":"\n                    <p><b>Action: <em>harvest</em></b></p>\n                    <p>This is the bee that you just saw.</p>\n                    <img src=\"bees-with-color/bee-B1SM.svg\" width=\"200\">\n                    <p><span class=\"greenText\"><b>Successful harvest!</b></span><br>Your pay has increased by $0.02. Your bonus pay is now $0.56.</p>\n            ","response":0,"trial_type":"html-button-response","trial_index":62,"time_elapsed":2342248,"internal_node_id":"0.0-4.0-1.27","subject_id":"5e54f6b65bac434dd4dd05c3","study_id":"6197b3f67c2b5cd3b6d9596a","session_id":"6197bac843f66f8a2cbb79f2","condition":"contingent","relevant_dimensions":["antennae","pattern"],"bee_group":{"antennae":"A","wings":"X","pattern":"S","legs":"X"},"bonus":1.5800000000000014},{"rt":5862.5,"stimulus":"bees-with-color/bee-B2SF.svg","response":0,"trial_type":"image-button-response","trial_index":63,"time_elapsed":2348111,"internal_node_id":"0.0-4.0-0.28","subject_id":"5e54f6b65bac434dd4dd05c3","study_id":"6197b3f67c2b5cd3b6d9596a","session_id":"6197bac843f66f8a2cbb79f2","condition":"contingent","relevant_dimensions":["antennae","pattern"],"bee_group":{"antennae":"A","wings":"X","pattern":"S","legs":"X"},"action":"harvest","summary":"good-harvest","bonus":1.5800000000000014},{"rt":831,"stimulus":"\n                    <p><b>Action: <em>harvest</em></b></p>\n                    <p>This is the bee that you just saw.</p>\n                    <img src=\"bees-with-color/bee-B2SF.svg\" width=\"200\">\n                    <p><span class=\"greenText\"><b>Successful harvest!</b></span><br>Your pay has increased by $0.02. Your bonus pay is now $0.58.</p>\n            ","response":0,"trial_type":"html-button-response","trial_index":64,"time_elapsed":2348943,"internal_node_id":"0.0-4.0-1.28","subject_id":"5e54f6b65bac434dd4dd05c3","study_id":"6197b3f67c2b5cd3b6d9596a","session_id":"6197bac843f66f8a2cbb79f2","condition":"contingent","relevant_dimensions":["antennae","pattern"],"bee_group":{"antennae":"A","wings":"X","pattern":"S","legs":"X"},"bonus":1.5800000000000014},{"rt":1231,"stimulus":"bees-with-color/bee-B1DF.svg","response":0,"trial_type":"image-button-response","trial_index":65,"time_elapsed":2350176,"internal_node_id":"0.0-4.0-0.29","subject_id":"5e54f6b65bac434dd4dd05c3","study_id":"6197b3f67c2b5cd3b6d9596a","session_id":"6197bac843f66f8a2cbb79f2","condition":"contingent","relevant_dimensions":["antennae","pattern"],"bee_group":{"antennae":"A","wings":"X","pattern":"S","legs":"X"},"action":"harvest","summary":"good-harvest","bonus":1.5800000000000014},{"rt":878.6000000238419,"stimulus":"\n                    <p><b>Action: <em>harvest</em></b></p>\n                    <p>This is the bee that you just saw.</p>\n                    <img src=\"bees-with-color/bee-B1DF.svg\" width=\"200\">\n                    <p><span class=\"greenText\"><b>Successful harvest!</b></span><br>Your pay has increased by $0.02. Your bonus pay is now $0.60.</p>\n            ","response":0,"trial_type":"html-button-response","trial_index":66,"time_elapsed":2351055,"internal_node_id":"0.0-4.0-1.29","subject_id":"5e54f6b65bac434dd4dd05c3","study_id":"6197b3f67c2b5cd3b6d9596a","session_id":"6197bac843f66f8a2cbb79f2","condition":"contingent","relevant_dimensions":["antennae","pattern"],"bee_group":{"antennae":"A","wings":"X","pattern":"S","legs":"X"},"bonus":1.5800000000000014},{"rt":871.3000000715256,"stimulus":"bees-with-color/bee-A1DM.svg","response":0,"trial_type":"image-button-response","trial_index":67,"time_elapsed":2351927,"internal_node_id":"0.0-4.0-0.30","subject_id":"5e54f6b65bac434dd4dd05c3","study_id":"6197b3f67c2b5cd3b6d9596a","session_id":"6197bac843f66f8a2cbb79f2","condition":"contingent","relevant_dimensions":["antennae","pattern"],"bee_group":{"antennae":"A","wings":"X","pattern":"S","legs":"X"},"action":"harvest","summary":"good-harvest","bonus":1.5800000000000014},{"rt":710.7999999523163,"stimulus":"\n                    <p><b>Action: <em>harvest</em></b></p>\n                    <p>This is the bee that you just saw.</p>\n                    <img src=\"bees-with-color/bee-A1DM.svg\" width=\"200\">\n                    <p><span class=\"greenText\"><b>Successful harvest!</b></span><br>Your pay has increased by $0.02. Your bonus pay is now $0.62.</p>\n            ","response":0,"trial_type":"html-button-response","trial_index":68,"time_elapsed":2352639,"internal_node_id":"0.0-4.0-1.30","subject_id":"5e54f6b65bac434dd4dd05c3","study_id":"6197b3f67c2b5cd3b6d9596a","session_id":"6197bac843f66f8a2cbb79f2","condition":"contingent","relevant_dimensions":["antennae","pattern"],"bee_group":{"antennae":"A","wings":"X","pattern":"S","legs":"X"},"bonus":1.5800000000000014},{"rt":3551,"stimulus":"bees-with-color/bee-A2SF.svg","response":1,"trial_type":"image-button-response","trial_index":69,"time_elapsed":2356192,"internal_node_id":"0.0-4.0-0.31","subject_id":"5e54f6b65bac434dd4dd05c3","study_id":"6197b3f67c2b5cd3b6d9596a","session_id":"6197bac843f66f8a2cbb79f2","condition":"contingent","relevant_dimensions":["antennae","pattern"],"bee_group":{"antennae":"A","wings":"X","pattern":"S","legs":"X"},"action":"avoid","summary":"good-avoid","bonus":1.5800000000000014},{"rt":725.8999999761581,"stimulus":"\n                    <p><b>Action: <em>avoid</em></b></p>\n                    <p>This is the bee that you just saw.</p>\n                    <img src=\"bees-with-color/bee-A2SF.svg\" width=\"200\">\n                    <p><br>Your bonus pay is unchanged, and remains at $0.62.</p>\n            ","response":0,"trial_type":"html-button-response","trial_index":70,"time_elapsed":2356919,"internal_node_id":"0.0-4.0-1.31","subject_id":"5e54f6b65bac434dd4dd05c3","study_id":"6197b3f67c2b5cd3b6d9596a","session_id":"6197bac843f66f8a2cbb79f2","condition":"contingent","relevant_dimensions":["antennae","pattern"],"bee_group":{"antennae":"A","wings":"X","pattern":"S","legs":"X"},"bonus":1.5800000000000014},{"rt":9655,"stimulus":"bees-with-color/bee-A2SM.svg","response":1,"trial_type":"image-button-response","trial_index":71,"time_elapsed":2366575,"internal_node_id":"0.0-4.0-0.32","subject_id":"5e54f6b65bac434dd4dd05c3","study_id":"6197b3f67c2b5cd3b6d9596a","session_id":"6197bac843f66f8a2cbb79f2","condition":"contingent","relevant_dimensions":["antennae","pattern"],"bee_group":{"antennae":"A","wings":"X","pattern":"S","legs":"X"},"action":"avoid","summary":"good-avoid","bonus":1.5800000000000014},{"rt":630.5,"stimulus":"\n                    <p><b>Action: <em>avoid</em></b></p>\n                    <p>This is the bee that you just saw.</p>\n                    <img src=\"bees-with-color/bee-A2SM.svg\" width=\"200\">\n                    <p><br>Your bonus pay is unchanged, and remains at $0.62.</p>\n            ","response":0,"trial_type":"html-button-response","trial_index":72,"time_elapsed":2367207,"internal_node_id":"0.0-4.0-1.32","subject_id":"5e54f6b65bac434dd4dd05c3","study_id":"6197b3f67c2b5cd3b6d9596a","session_id":"6197bac843f66f8a2cbb79f2","condition":"contingent","relevant_dimensions":["antennae","pattern"],"bee_group":{"antennae":"A","wings":"X","pattern":"S","legs":"X"},"bonus":1.5800000000000014},{"rt":1054.3999999761581,"stimulus":"bees-with-color/bee-B1DM.svg","response":0,"trial_type":"image-button-response","trial_index":73,"time_elapsed":2368262,"internal_node_id":"0.0-4.0-0.33","subject_id":"5e54f6b65bac434dd4dd05c3","study_id":"6197b3f67c2b5cd3b6d9596a","session_id":"6197bac843f66f8a2cbb79f2","condition":"contingent","relevant_dimensions":["antennae","pattern"],"bee_group":{"antennae":"A","wings":"X","pattern":"S","legs":"X"},"action":"harvest","summary":"good-harvest","bonus":1.5800000000000014},{"rt":847.1000000238419,"stimulus":"\n                    <p><b>Action: <em>harvest</em></b></p>\n                    <p>This is the bee that you just saw.</p>\n                    <img src=\"bees-with-color/bee-B1DM.svg\" width=\"200\">\n                    <p><span class=\"greenText\"><b>Successful harvest!</b></span><br>Your pay has increased by $0.02. Your bonus pay is now $0.64.</p>\n            ","response":0,"trial_type":"html-button-response","trial_index":74,"time_elapsed":2369111,"internal_node_id":"0.0-4.0-1.33","subject_id":"5e54f6b65bac434dd4dd05c3","study_id":"6197b3f67c2b5cd3b6d9596a","session_id":"6197bac843f66f8a2cbb79f2","condition":"contingent","relevant_dimensions":["antennae","pattern"],"bee_group":{"antennae":"A","wings":"X","pattern":"S","legs":"X"},"bonus":1.5800000000000014},{"rt":4687.100000023842,"stimulus":"bees-with-color/bee-B2SM.svg","response":0,"trial_type":"image-button-response","trial_index":75,"time_elapsed":2373799,"internal_node_id":"0.0-4.0-0.34","subject_id":"5e54f6b65bac434dd4dd05c3","study_id":"6197b3f67c2b5cd3b6d9596a","session_id":"6197bac843f66f8a2cbb79f2","condition":"contingent","relevant_dimensions":["antennae","pattern"],"bee_group":{"antennae":"A","wings":"X","pattern":"S","legs":"X"},"action":"harvest","summary":"good-harvest","bonus":1.5800000000000014},{"rt":911.2999999523163,"stimulus":"\n                    <p><b>Action: <em>harvest</em></b></p>\n                    <p>This is the bee that you just saw.</p>\n                    <img src=\"bees-with-color/bee-B2SM.svg\" width=\"200\">\n                    <p><span class=\"greenText\"><b>Successful harvest!</b></span><br>Your pay has increased by $0.02. Your bonus pay is now $0.66.</p>\n            ","response":0,"trial_type":"html-button-response","trial_index":76,"time_elapsed":2374711,"internal_node_id":"0.0-4.0-1.34","subject_id":"5e54f6b65bac434dd4dd05c3","study_id":"6197b3f67c2b5cd3b6d9596a","session_id":"6197bac843f66f8a2cbb79f2","condition":"contingent","relevant_dimensions":["antennae","pattern"],"bee_group":{"antennae":"A","wings":"X","pattern":"S","legs":"X"},"bonus":1.5800000000000014},{"rt":1198.7000000476837,"stimulus":"bees-with-color/bee-A1DF.svg","response":0,"trial_type":"image-button-response","trial_index":77,"time_elapsed":2375910,"internal_node_id":"0.0-4.0-0.35","subject_id":"5e54f6b65bac434dd4dd05c3","study_id":"6197b3f67c2b5cd3b6d9596a","session_id":"6197bac843f66f8a2cbb79f2","condition":"contingent","relevant_dimensions":["antennae","pattern"],"bee_group":{"antennae":"A","wings":"X","pattern":"S","legs":"X"},"action":"harvest","summary":"good-harvest","bonus":1.5800000000000014},{"rt":839.2000000476837,"stimulus":"\n                    <p><b>Action: <em>harvest</em></b></p>\n                    <p>This is the bee that you just saw.</p>\n                    <img src=\"bees-with-color/bee-A1DF.svg\" width=\"200\">\n                    <p><span class=\"greenText\"><b>Successful harvest!</b></span><br>Your pay has increased by $0.02. Your bonus pay is now $0.68.</p>\n            ","response":0,"trial_type":"html-button-response","trial_index":78,"time_elapsed":2376751,"internal_node_id":"0.0-4.0-1.35","subject_id":"5e54f6b65bac434dd4dd05c3","study_id":"6197b3f67c2b5cd3b6d9596a","session_id":"6197bac843f66f8a2cbb79f2","condition":"contingent","relevant_dimensions":["antennae","pattern"],"bee_group":{"antennae":"A","wings":"X","pattern":"S","legs":"X"},"bonus":1.5800000000000014},{"rt":4198.899999976158,"stimulus":"bees-with-color/bee-B2SF.svg","response":0,"trial_type":"image-button-response","trial_index":79,"time_elapsed":2380950,"internal_node_id":"0.0-4.0-0.36","subject_id":"5e54f6b65bac434dd4dd05c3","study_id":"6197b3f67c2b5cd3b6d9596a","session_id":"6197bac843f66f8a2cbb79f2","condition":"contingent","relevant_dimensions":["antennae","pattern"],"bee_group":{"antennae":"A","wings":"X","pattern":"S","legs":"X"},"action":"harvest","summary":"good-harvest","bonus":1.5800000000000014},{"rt":791.1999999284744,"stimulus":"\n                    <p><b>Action: <em>harvest</em></b></p>\n                    <p>This is the bee that you just saw.</p>\n                    <img src=\"bees-with-color/bee-B2SF.svg\" width=\"200\">\n                    <p><span class=\"greenText\"><b>Successful harvest!</b></span><br>Your pay has increased by $0.02. Your bonus pay is now $0.70.</p>\n            ","response":0,"trial_type":"html-button-response","trial_index":80,"time_elapsed":2381742,"internal_node_id":"0.0-4.0-1.36","subject_id":"5e54f6b65bac434dd4dd05c3","study_id":"6197b3f67c2b5cd3b6d9596a","session_id":"6197bac843f66f8a2cbb79f2","condition":"contingent","relevant_dimensions":["antennae","pattern"],"bee_group":{"antennae":"A","wings":"X","pattern":"S","legs":"X"},"bonus":1.5800000000000014},{"rt":926.8999999761581,"stimulus":"bees-with-color/bee-A2DF.svg","response":0,"trial_type":"image-button-response","trial_index":81,"time_elapsed":2382670,"internal_node_id":"0.0-4.0-0.37","subject_id":"5e54f6b65bac434dd4dd05c3","study_id":"6197b3f67c2b5cd3b6d9596a","session_id":"6197bac843f66f8a2cbb79f2","condition":"contingent","relevant_dimensions":["antennae","pattern"],"bee_group":{"antennae":"A","wings":"X","pattern":"S","legs":"X"},"action":"harvest","summary":"good-harvest","bonus":1.5800000000000014},{"rt":783.1999999284744,"stimulus":"\n                    <p><b>Action: <em>harvest</em></b></p>\n                    <p>This is the bee that you just saw.</p>\n                    <img src=\"bees-with-color/bee-A2DF.svg\" width=\"200\">\n                    <p><span class=\"greenText\"><b>Successful harvest!</b></span><br>Your pay has increased by $0.02. Your bonus pay is now $0.72.</p>\n            ","response":0,"trial_type":"html-button-response","trial_index":82,"time_elapsed":2383454,"internal_node_id":"0.0-4.0-1.37","subject_id":"5e54f6b65bac434dd4dd05c3","study_id":"6197b3f67c2b5cd3b6d9596a","session_id":"6197bac843f66f8a2cbb79f2","condition":"contingent","relevant_dimensions":["antennae","pattern"],"bee_group":{"antennae":"A","wings":"X","pattern":"S","legs":"X"},"bonus":1.5800000000000014},{"rt":4255.299999952316,"stimulus":"bees-with-color/bee-A2SF.svg","response":1,"trial_type":"image-button-response","trial_index":83,"time_elapsed":2387710,"internal_node_id":"0.0-4.0-0.38","subject_id":"5e54f6b65bac434dd4dd05c3","study_id":"6197b3f67c2b5cd3b6d9596a","session_id":"6197bac843f66f8a2cbb79f2","condition":"contingent","relevant_dimensions":["antennae","pattern"],"bee_group":{"antennae":"A","wings":"X","pattern":"S","legs":"X"},"action":"avoid","summary":"good-avoid","bonus":1.5800000000000014},{"rt":711.0999999046326,"stimulus":"\n                    <p><b>Action: <em>avoid</em></b></p>\n                    <p>This is the bee that you just saw.</p>\n                    <img src=\"bees-with-color/bee-A2SF.svg\" width=\"200\">\n                    <p><br>Your bonus pay is unchanged, and remains at $0.72.</p>\n            ","response":0,"trial_type":"html-button-response","trial_index":84,"time_elapsed":2388422,"internal_node_id":"0.0-4.0-1.38","subject_id":"5e54f6b65bac434dd4dd05c3","study_id":"6197b3f67c2b5cd3b6d9596a","session_id":"6197bac843f66f8a2cbb79f2","condition":"contingent","relevant_dimensions":["antennae","pattern"],"bee_group":{"antennae":"A","wings":"X","pattern":"S","legs":"X"},"bonus":1.5800000000000014},{"rt":911,"stimulus":"bees-with-color/bee-B2DF.svg","response":0,"trial_type":"image-button-response","trial_index":85,"time_elapsed":2389334,"internal_node_id":"0.0-4.0-0.39","subject_id":"5e54f6b65bac434dd4dd05c3","study_id":"6197b3f67c2b5cd3b6d9596a","session_id":"6197bac843f66f8a2cbb79f2","condition":"contingent","relevant_dimensions":["antennae","pattern"],"bee_group":{"antennae":"A","wings":"X","pattern":"S","legs":"X"},"action":"harvest","summary":"good-harvest","bonus":1.5800000000000014},{"rt":823.5,"stimulus":"\n                    <p><b>Action: <em>harvest</em></b></p>\n                    <p>This is the bee that you just saw.</p>\n                    <img src=\"bees-with-color/bee-B2DF.svg\" width=\"200\">\n                    <p><span class=\"greenText\"><b>Successful harvest!</b></span><br>Your pay has increased by $0.02. Your bonus pay is now $0.74.</p>\n            ","response":0,"trial_type":"html-button-response","trial_index":86,"time_elapsed":2390159,"internal_node_id":"0.0-4.0-1.39","subject_id":"5e54f6b65bac434dd4dd05c3","study_id":"6197b3f67c2b5cd3b6d9596a","session_id":"6197bac843f66f8a2cbb79f2","condition":"contingent","relevant_dimensions":["antennae","pattern"],"bee_group":{"antennae":"A","wings":"X","pattern":"S","legs":"X"},"bonus":1.5800000000000014},{"rt":9566.699999928474,"stimulus":"bees-with-color/bee-B1SF.svg","response":0,"trial_type":"image-button-response","trial_index":87,"time_elapsed":2399726,"internal_node_id":"0.0-4.0-0.40","subject_id":"5e54f6b65bac434dd4dd05c3","study_id":"6197b3f67c2b5cd3b6d9596a","session_id":"6197bac843f66f8a2cbb79f2","condition":"contingent","relevant_dimensions":["antennae","pattern"],"bee_group":{"antennae":"A","wings":"X","pattern":"S","legs":"X"},"action":"harvest","summary":"good-harvest","bonus":1.5800000000000014},{"rt":711.1999999284744,"stimulus":"\n                    <p><b>Action: <em>harvest</em></b></p>\n                    <p>This is the bee that you just saw.</p>\n                    <img src=\"bees-with-color/bee-B1SF.svg\" width=\"200\">\n                    <p><span class=\"greenText\"><b>Successful harvest!</b></span><br>Your pay has increased by $0.02. Your bonus pay is now $0.76.</p>\n            ","response":0,"trial_type":"html-button-response","trial_index":88,"time_elapsed":2400438,"internal_node_id":"0.0-4.0-1.40","subject_id":"5e54f6b65bac434dd4dd05c3","study_id":"6197b3f67c2b5cd3b6d9596a","session_id":"6197bac843f66f8a2cbb79f2","condition":"contingent","relevant_dimensions":["antennae","pattern"],"bee_group":{"antennae":"A","wings":"X","pattern":"S","legs":"X"},"bonus":1.5800000000000014},{"rt":607,"stimulus":"bees-with-color/bee-A2DM.svg","response":0,"trial_type":"image-button-response","trial_index":89,"time_elapsed":2401046,"internal_node_id":"0.0-4.0-0.41","subject_id":"5e54f6b65bac434dd4dd05c3","study_id":"6197b3f67c2b5cd3b6d9596a","session_id":"6197bac843f66f8a2cbb79f2","condition":"contingent","relevant_dimensions":["antennae","pattern"],"bee_group":{"antennae":"A","wings":"X","pattern":"S","legs":"X"},"action":"harvest","summary":"good-harvest","bonus":1.5800000000000014},{"rt":583.2999999523163,"stimulus":"\n                    <p><b>Action: <em>harvest</em></b></p>\n                    <p>This is the bee that you just saw.</p>\n                    <img src=\"bees-with-color/bee-A2DM.svg\" width=\"200\">\n                    <p><span class=\"greenText\"><b>Successful harvest!</b></span><br>Your pay has increased by $0.02. Your bonus pay is now $0.78.</p>\n            ","response":0,"trial_type":"html-button-response","trial_index":90,"time_elapsed":2401631,"internal_node_id":"0.0-4.0-1.41","subject_id":"5e54f6b65bac434dd4dd05c3","study_id":"6197b3f67c2b5cd3b6d9596a","session_id":"6197bac843f66f8a2cbb79f2","condition":"contingent","relevant_dimensions":["antennae","pattern"],"bee_group":{"antennae":"A","wings":"X","pattern":"S","legs":"X"},"bonus":1.5800000000000014},{"rt":4606.699999928474,"stimulus":"bees-with-color/bee-A1SF.svg","response":1,"trial_type":"image-button-response","trial_index":91,"time_elapsed":2406238,"internal_node_id":"0.0-4.0-0.42","subject_id":"5e54f6b65bac434dd4dd05c3","study_id":"6197b3f67c2b5cd3b6d9596a","session_id":"6197bac843f66f8a2cbb79f2","condition":"contingent","relevant_dimensions":["antennae","pattern"],"bee_group":{"antennae":"A","wings":"X","pattern":"S","legs":"X"},"action":"avoid","summary":"good-avoid","bonus":1.5800000000000014},{"rt":1719,"stimulus":"\n                    <p><b>Action: <em>avoid</em></b></p>\n                    <p>This is the bee that you just saw.</p>\n                    <img src=\"bees-with-color/bee-A1SF.svg\" width=\"200\">\n                    <p><br>Your bonus pay is unchanged, and remains at $0.78.</p>\n            ","response":0,"trial_type":"html-button-response","trial_index":92,"time_elapsed":2407958,"internal_node_id":"0.0-4.0-1.42","subject_id":"5e54f6b65bac434dd4dd05c3","study_id":"6197b3f67c2b5cd3b6d9596a","session_id":"6197bac843f66f8a2cbb79f2","condition":"contingent","relevant_dimensions":["antennae","pattern"],"bee_group":{"antennae":"A","wings":"X","pattern":"S","legs":"X"},"bonus":1.5800000000000014},{"rt":8406.700000047684,"stimulus":"bees-with-color/bee-A1SM.svg","response":1,"trial_type":"image-button-response","trial_index":93,"time_elapsed":2416366,"internal_node_id":"0.0-4.0-0.43","subject_id":"5e54f6b65bac434dd4dd05c3","study_id":"6197b3f67c2b5cd3b6d9596a","session_id":"6197bac843f66f8a2cbb79f2","condition":"contingent","relevant_dimensions":["antennae","pattern"],"bee_group":{"antennae":"A","wings":"X","pattern":"S","legs":"X"},"action":"avoid","summary":"good-avoid","bonus":1.5800000000000014},{"rt":639.1000000238419,"stimulus":"\n                    <p><b>Action: <em>avoid</em></b></p>\n                    <p>This is the bee that you just saw.</p>\n                    <img src=\"bees-with-color/bee-A1SM.svg\" width=\"200\">\n                    <p><br>Your bonus pay is unchanged, and remains at $0.78.</p>\n            ","response":0,"trial_type":"html-button-response","trial_index":94,"time_elapsed":2417006,"internal_node_id":"0.0-4.0-1.43","subject_id":"5e54f6b65bac434dd4dd05c3","study_id":"6197b3f67c2b5cd3b6d9596a","session_id":"6197bac843f66f8a2cbb79f2","condition":"contingent","relevant_dimensions":["antennae","pattern"],"bee_group":{"antennae":"A","wings":"X","pattern":"S","legs":"X"},"bonus":1.5800000000000014},{"rt":1158.8999999761581,"stimulus":"bees-with-color/bee-A1DM.svg","response":0,"trial_type":"image-button-response","trial_index":95,"time_elapsed":2418166,"internal_node_id":"0.0-4.0-0.44","subject_id":"5e54f6b65bac434dd4dd05c3","study_id":"6197b3f67c2b5cd3b6d9596a","session_id":"6197bac843f66f8a2cbb79f2","condition":"contingent","relevant_dimensions":["antennae","pattern"],"bee_group":{"antennae":"A","wings":"X","pattern":"S","legs":"X"},"action":"harvest","summary":"good-harvest","bonus":1.5800000000000014},{"rt":1047.1999999284744,"stimulus":"\n                    <p><b>Action: <em>harvest</em></b></p>\n                    <p>This is the bee that you just saw.</p>\n                    <img src=\"bees-with-color/bee-A1DM.svg\" width=\"200\">\n                    <p><span class=\"greenText\"><b>Successful harvest!</b></span><br>Your pay has increased by $0.02. Your bonus pay is now $0.80.</p>\n            ","response":0,"trial_type":"html-button-response","trial_index":96,"time_elapsed":2419215,"internal_node_id":"0.0-4.0-1.44","subject_id":"5e54f6b65bac434dd4dd05c3","study_id":"6197b3f67c2b5cd3b6d9596a","session_id":"6197bac843f66f8a2cbb79f2","condition":"contingent","relevant_dimensions":["antennae","pattern"],"bee_group":{"antennae":"A","wings":"X","pattern":"S","legs":"X"},"bonus":1.5800000000000014},{"rt":734.6000000238419,"stimulus":"bees-with-color/bee-B2DM.svg","response":0,"trial_type":"image-button-response","trial_index":97,"time_elapsed":2419950,"internal_node_id":"0.0-4.0-0.45","subject_id":"5e54f6b65bac434dd4dd05c3","study_id":"6197b3f67c2b5cd3b6d9596a","session_id":"6197bac843f66f8a2cbb79f2","condition":"contingent","relevant_dimensions":["antennae","pattern"],"bee_group":{"antennae":"A","wings":"X","pattern":"S","legs":"X"},"action":"harvest","summary":"good-harvest","bonus":1.5800000000000014},{"rt":599.1999999284744,"stimulus":"\n                    <p><b>Action: <em>harvest</em></b></p>\n                    <p>This is the bee that you just saw.</p>\n                    <img src=\"bees-with-color/bee-B2DM.svg\" width=\"200\">\n                    <p><span class=\"greenText\"><b>Successful harvest!</b></span><br>Your pay has increased by $0.02. Your bonus pay is now $0.82.</p>\n            ","response":0,"trial_type":"html-button-response","trial_index":98,"time_elapsed":2420550,"internal_node_id":"0.0-4.0-1.45","subject_id":"5e54f6b65bac434dd4dd05c3","study_id":"6197b3f67c2b5cd3b6d9596a","session_id":"6197bac843f66f8a2cbb79f2","condition":"contingent","relevant_dimensions":["antennae","pattern"],"bee_group":{"antennae":"A","wings":"X","pattern":"S","legs":"X"},"bonus":1.5800000000000014},{"rt":9055.100000023842,"stimulus":"bees-with-color/bee-B1SM.svg","response":0,"trial_type":"image-button-response","trial_index":99,"time_elapsed":2429607,"internal_node_id":"0.0-4.0-0.46","subject_id":"5e54f6b65bac434dd4dd05c3","study_id":"6197b3f67c2b5cd3b6d9596a","session_id":"6197bac843f66f8a2cbb79f2","condition":"contingent","relevant_dimensions":["antennae","pattern"],"bee_group":{"antennae":"A","wings":"X","pattern":"S","legs":"X"},"action":"harvest","summary":"good-harvest","bonus":1.5800000000000014},{"rt":702.8999999761581,"stimulus":"\n                    <p><b>Action: <em>harvest</em></b></p>\n                    <p>This is the bee that you just saw.</p>\n                    <img src=\"bees-with-color/bee-B1SM.svg\" width=\"200\">\n                    <p><span class=\"greenText\"><b>Successful harvest!</b></span><br>Your pay has increased by $0.02. Your bonus pay is now $0.84.</p>\n            ","response":0,"trial_type":"html-button-response","trial_index":100,"time_elapsed":2430311,"internal_node_id":"0.0-4.0-1.46","subject_id":"5e54f6b65bac434dd4dd05c3","study_id":"6197b3f67c2b5cd3b6d9596a","session_id":"6197bac843f66f8a2cbb79f2","condition":"contingent","relevant_dimensions":["antennae","pattern"],"bee_group":{"antennae":"A","wings":"X","pattern":"S","legs":"X"},"bonus":1.5800000000000014},{"rt":966.7999999523163,"stimulus":"bees-with-color/bee-B1DF.svg","response":0,"trial_type":"image-button-response","trial_index":101,"time_elapsed":2431279,"internal_node_id":"0.0-4.0-0.47","subject_id":"5e54f6b65bac434dd4dd05c3","study_id":"6197b3f67c2b5cd3b6d9596a","session_id":"6197bac843f66f8a2cbb79f2","condition":"contingent","relevant_dimensions":["antennae","pattern"],"bee_group":{"antennae":"A","wings":"X","pattern":"S","legs":"X"},"action":"harvest","summary":"good-harvest","bonus":1.5800000000000014},{"rt":574.7999999523163,"stimulus":"\n                    <p><b>Action: <em>harvest</em></b></p>\n                    <p>This is the bee that you just saw.</p>\n                    <img src=\"bees-with-color/bee-B1DF.svg\" width=\"200\">\n                    <p><span class=\"greenText\"><b>Successful harvest!</b></span><br>Your pay has increased by $0.02. Your bonus pay is now $0.86.</p>\n            ","response":0,"trial_type":"html-button-response","trial_index":102,"time_elapsed":2431855,"internal_node_id":"0.0-4.0-1.47","subject_id":"5e54f6b65bac434dd4dd05c3","study_id":"6197b3f67c2b5cd3b6d9596a","session_id":"6197bac843f66f8a2cbb79f2","condition":"contingent","relevant_dimensions":["antennae","pattern"],"bee_group":{"antennae":"A","wings":"X","pattern":"S","legs":"X"},"bonus":1.5800000000000014},{"rt":1975.1000000238419,"stimulus":"bees-with-color/bee-A2DM.svg","response":0,"trial_type":"image-button-response","trial_index":103,"time_elapsed":2433831,"internal_node_id":"0.0-4.0-0.48","subject_id":"5e54f6b65bac434dd4dd05c3","study_id":"6197b3f67c2b5cd3b6d9596a","session_id":"6197bac843f66f8a2cbb79f2","condition":"contingent","relevant_dimensions":["antennae","pattern"],"bee_group":{"antennae":"A","wings":"X","pattern":"S","legs":"X"},"action":"harvest","summary":"good-harvest","bonus":1.5800000000000014},{"rt":966.6999999284744,"stimulus":"\n                    <p><b>Action: <em>harvest</em></b></p>\n                    <p>This is the bee that you just saw.</p>\n                    <img src=\"bees-with-color/bee-A2DM.svg\" width=\"200\">\n                    <p><span class=\"greenText\"><b>Successful harvest!</b></span><br>Your pay has increased by $0.02. Your bonus pay is now $0.88.</p>\n            ","response":0,"trial_type":"html-button-response","trial_index":104,"time_elapsed":2434799,"internal_node_id":"0.0-4.0-1.48","subject_id":"5e54f6b65bac434dd4dd05c3","study_id":"6197b3f67c2b5cd3b6d9596a","session_id":"6197bac843f66f8a2cbb79f2","condition":"contingent","relevant_dimensions":["antennae","pattern"],"bee_group":{"antennae":"A","wings":"X","pattern":"S","legs":"X"},"bonus":1.5800000000000014},{"rt":13846.900000095367,"stimulus":"bees-with-color/bee-A2SF.svg","response":1,"trial_type":"image-button-response","trial_index":105,"time_elapsed":2448647,"internal_node_id":"0.0-4.0-0.49","subject_id":"5e54f6b65bac434dd4dd05c3","study_id":"6197b3f67c2b5cd3b6d9596a","session_id":"6197bac843f66f8a2cbb79f2","condition":"contingent","relevant_dimensions":["antennae","pattern"],"bee_group":{"antennae":"A","wings":"X","pattern":"S","legs":"X"},"action":"avoid","summary":"good-avoid","bonus":1.5800000000000014},{"rt":1239,"stimulus":"\n                    <p><b>Action: <em>avoid</em></b></p>\n                    <p>This is the bee that you just saw.</p>\n                    <img src=\"bees-with-color/bee-A2SF.svg\" width=\"200\">\n                    <p><br>Your bonus pay is unchanged, and remains at $0.88.</p>\n            ","response":0,"trial_type":"html-button-response","trial_index":106,"time_elapsed":2449887,"internal_node_id":"0.0-4.0-1.49","subject_id":"5e54f6b65bac434dd4dd05c3","study_id":"6197b3f67c2b5cd3b6d9596a","session_id":"6197bac843f66f8a2cbb79f2","condition":"contingent","relevant_dimensions":["antennae","pattern"],"bee_group":{"antennae":"A","wings":"X","pattern":"S","legs":"X"},"bonus":1.5800000000000014},{"rt":1487.2999999523163,"stimulus":"bees-with-color/bee-A2DF.svg","response":0,"trial_type":"image-button-response","trial_index":107,"time_elapsed":2451376,"internal_node_id":"0.0-4.0-0.50","subject_id":"5e54f6b65bac434dd4dd05c3","study_id":"6197b3f67c2b5cd3b6d9596a","session_id":"6197bac843f66f8a2cbb79f2","condition":"contingent","relevant_dimensions":["antennae","pattern"],"bee_group":{"antennae":"A","wings":"X","pattern":"S","legs":"X"},"action":"harvest","summary":"good-harvest","bonus":1.5800000000000014},{"rt":558.7000000476837,"stimulus":"\n                    <p><b>Action: <em>harvest</em></b></p>\n                    <p>This is the bee that you just saw.</p>\n                    <img src=\"bees-with-color/bee-A2DF.svg\" width=\"200\">\n                    <p><span class=\"greenText\"><b>Successful harvest!</b></span><br>Your pay has increased by $0.02. Your bonus pay is now $0.90.</p>\n            ","response":0,"trial_type":"html-button-response","trial_index":108,"time_elapsed":2451935,"internal_node_id":"0.0-4.0-1.50","subject_id":"5e54f6b65bac434dd4dd05c3","study_id":"6197b3f67c2b5cd3b6d9596a","session_id":"6197bac843f66f8a2cbb79f2","condition":"contingent","relevant_dimensions":["antennae","pattern"],"bee_group":{"antennae":"A","wings":"X","pattern":"S","legs":"X"},"bonus":1.5800000000000014},{"rt":4774.800000071526,"stimulus":"bees-with-color/bee-B1SF.svg","response":0,"trial_type":"image-button-response","trial_index":109,"time_elapsed":2456711,"internal_node_id":"0.0-4.0-0.51","subject_id":"5e54f6b65bac434dd4dd05c3","study_id":"6197b3f67c2b5cd3b6d9596a","session_id":"6197bac843f66f8a2cbb79f2","condition":"contingent","relevant_dimensions":["antennae","pattern"],"bee_group":{"antennae":"A","wings":"X","pattern":"S","legs":"X"},"action":"harvest","summary":"good-harvest","bonus":1.5800000000000014},{"rt":759.2000000476837,"stimulus":"\n                    <p><b>Action: <em>harvest</em></b></p>\n                    <p>This is the bee that you just saw.</p>\n                    <img src=\"bees-with-color/bee-B1SF.svg\" width=\"200\">\n                    <p><span class=\"greenText\"><b>Successful harvest!</b></span><br>Your pay has increased by $0.02. Your bonus pay is now $0.92.</p>\n            ","response":0,"trial_type":"html-button-response","trial_index":110,"time_elapsed":2457471,"internal_node_id":"0.0-4.0-1.51","subject_id":"5e54f6b65bac434dd4dd05c3","study_id":"6197b3f67c2b5cd3b6d9596a","session_id":"6197bac843f66f8a2cbb79f2","condition":"contingent","relevant_dimensions":["antennae","pattern"],"bee_group":{"antennae":"A","wings":"X","pattern":"S","legs":"X"},"bonus":1.5800000000000014},{"rt":3166.7999999523163,"stimulus":"bees-with-color/bee-A1SF.svg","response":1,"trial_type":"image-button-response","trial_index":111,"time_elapsed":2460639,"internal_node_id":"0.0-4.0-0.52","subject_id":"5e54f6b65bac434dd4dd05c3","study_id":"6197b3f67c2b5cd3b6d9596a","session_id":"6197bac843f66f8a2cbb79f2","condition":"contingent","relevant_dimensions":["antennae","pattern"],"bee_group":{"antennae":"A","wings":"X","pattern":"S","legs":"X"},"action":"avoid","summary":"good-avoid","bonus":1.5800000000000014},{"rt":742.7000000476837,"stimulus":"\n                    <p><b>Action: <em>avoid</em></b></p>\n                    <p>This is the bee that you just saw.</p>\n                    <img src=\"bees-with-color/bee-A1SF.svg\" width=\"200\">\n                    <p><br>Your bonus pay is unchanged, and remains at $0.92.</p>\n            ","response":0,"trial_type":"html-button-response","trial_index":112,"time_elapsed":2461383,"internal_node_id":"0.0-4.0-1.52","subject_id":"5e54f6b65bac434dd4dd05c3","study_id":"6197b3f67c2b5cd3b6d9596a","session_id":"6197bac843f66f8a2cbb79f2","condition":"contingent","relevant_dimensions":["antennae","pattern"],"bee_group":{"antennae":"A","wings":"X","pattern":"S","legs":"X"},"bonus":1.5800000000000014},{"rt":1038.8999999761581,"stimulus":"bees-with-color/bee-B1DF.svg","response":0,"trial_type":"image-button-response","trial_index":113,"time_elapsed":2462423,"internal_node_id":"0.0-4.0-0.53","subject_id":"5e54f6b65bac434dd4dd05c3","study_id":"6197b3f67c2b5cd3b6d9596a","session_id":"6197bac843f66f8a2cbb79f2","condition":"contingent","relevant_dimensions":["antennae","pattern"],"bee_group":{"antennae":"A","wings":"X","pattern":"S","legs":"X"},"action":"harvest","summary":"good-harvest","bonus":1.5800000000000014},{"rt":559.1000000238419,"stimulus":"\n                    <p><b>Action: <em>harvest</em></b></p>\n                    <p>This is the bee that you just saw.</p>\n                    <img src=\"bees-with-color/bee-B1DF.svg\" width=\"200\">\n                    <p><span class=\"greenText\"><b>Successful harvest!</b></span><br>Your pay has increased by $0.02. Your bonus pay is now $0.94.</p>\n            ","response":0,"trial_type":"html-button-response","trial_index":114,"time_elapsed":2462983,"internal_node_id":"0.0-4.0-1.53","subject_id":"5e54f6b65bac434dd4dd05c3","study_id":"6197b3f67c2b5cd3b6d9596a","session_id":"6197bac843f66f8a2cbb79f2","condition":"contingent","relevant_dimensions":["antennae","pattern"],"bee_group":{"antennae":"A","wings":"X","pattern":"S","legs":"X"},"bonus":1.5800000000000014},{"rt":1903.2000000476837,"stimulus":"bees-with-color/bee-B2DM.svg","response":0,"trial_type":"image-button-response","trial_index":115,"time_elapsed":2464887,"internal_node_id":"0.0-4.0-0.54","subject_id":"5e54f6b65bac434dd4dd05c3","study_id":"6197b3f67c2b5cd3b6d9596a","session_id":"6197bac843f66f8a2cbb79f2","condition":"contingent","relevant_dimensions":["antennae","pattern"],"bee_group":{"antennae":"A","wings":"X","pattern":"S","legs":"X"},"action":"harvest","summary":"good-harvest","bonus":1.5800000000000014},{"rt":886.6999999284744,"stimulus":"\n                    <p><b>Action: <em>harvest</em></b></p>\n                    <p>This is the bee that you just saw.</p>\n                    <img src=\"bees-with-color/bee-B2DM.svg\" width=\"200\">\n                    <p><span class=\"greenText\"><b>Successful harvest!</b></span><br>Your pay has increased by $0.02. Your bonus pay is now $0.96.</p>\n            ","response":0,"trial_type":"html-button-response","trial_index":116,"time_elapsed":2465775,"internal_node_id":"0.0-4.0-1.54","subject_id":"5e54f6b65bac434dd4dd05c3","study_id":"6197b3f67c2b5cd3b6d9596a","session_id":"6197bac843f66f8a2cbb79f2","condition":"contingent","relevant_dimensions":["antennae","pattern"],"bee_group":{"antennae":"A","wings":"X","pattern":"S","legs":"X"},"bonus":1.5800000000000014},{"rt":21679.100000023842,"stimulus":"bees-with-color/bee-B2SF.svg","response":0,"trial_type":"image-button-response","trial_index":117,"time_elapsed":2487455,"internal_node_id":"0.0-4.0-0.55","subject_id":"5e54f6b65bac434dd4dd05c3","study_id":"6197b3f67c2b5cd3b6d9596a","session_id":"6197bac843f66f8a2cbb79f2","condition":"contingent","relevant_dimensions":["antennae","pattern"],"bee_group":{"antennae":"A","wings":"X","pattern":"S","legs":"X"},"action":"harvest","summary":"good-harvest","bonus":1.5800000000000014},{"rt":2494.7999999523163,"stimulus":"\n                    <p><b>Action: <em>harvest</em></b></p>\n                    <p>This is the bee that you just saw.</p>\n                    <img src=\"bees-with-color/bee-B2SF.svg\" width=\"200\">\n                    <p><span class=\"greenText\"><b>Successful harvest!</b></span><br>Your pay has increased by $0.02. Your bonus pay is now $0.98.</p>\n            ","response":0,"trial_type":"html-button-response","trial_index":118,"time_elapsed":2489950,"internal_node_id":"0.0-4.0-1.55","subject_id":"5e54f6b65bac434dd4dd05c3","study_id":"6197b3f67c2b5cd3b6d9596a","session_id":"6197bac843f66f8a2cbb79f2","condition":"contingent","relevant_dimensions":["antennae","pattern"],"bee_group":{"antennae":"A","wings":"X","pattern":"S","legs":"X"},"bonus":1.5800000000000014},{"rt":2238.6999999284744,"stimulus":"bees-with-color/bee-B2SM.svg","response":0,"trial_type":"image-button-response","trial_index":119,"time_elapsed":2492190,"internal_node_id":"0.0-4.0-0.56","subject_id":"5e54f6b65bac434dd4dd05c3","study_id":"6197b3f67c2b5cd3b6d9596a","session_id":"6197bac843f66f8a2cbb79f2","condition":"contingent","relevant_dimensions":["antennae","pattern"],"bee_group":{"antennae":"A","wings":"X","pattern":"S","legs":"X"},"action":"harvest","summary":"good-harvest","bonus":1.5800000000000014},{"rt":710.6000000238419,"stimulus":"\n                    <p><b>Action: <em>harvest</em></b></p>\n                    <p>This is the bee that you just saw.</p>\n                    <img src=\"bees-with-color/bee-B2SM.svg\" width=\"200\">\n                    <p><span class=\"greenText\"><b>Successful harvest!</b></span><br>Your pay has increased by $0.02. Your bonus pay is now $1.00.</p>\n            ","response":0,"trial_type":"html-button-response","trial_index":120,"time_elapsed":2492902,"internal_node_id":"0.0-4.0-1.56","subject_id":"5e54f6b65bac434dd4dd05c3","study_id":"6197b3f67c2b5cd3b6d9596a","session_id":"6197bac843f66f8a2cbb79f2","condition":"contingent","relevant_dimensions":["antennae","pattern"],"bee_group":{"antennae":"A","wings":"X","pattern":"S","legs":"X"},"bonus":1.5800000000000014},{"rt":1255.2999999523163,"stimulus":"bees-with-color/bee-B1SM.svg","response":0,"trial_type":"image-button-response","trial_index":121,"time_elapsed":2494158,"internal_node_id":"0.0-4.0-0.57","subject_id":"5e54f6b65bac434dd4dd05c3","study_id":"6197b3f67c2b5cd3b6d9596a","session_id":"6197bac843f66f8a2cbb79f2","condition":"contingent","relevant_dimensions":["antennae","pattern"],"bee_group":{"antennae":"A","wings":"X","pattern":"S","legs":"X"},"action":"harvest","summary":"good-harvest","bonus":1.5800000000000014},{"rt":542.8000000715256,"stimulus":"\n                    <p><b>Action: <em>harvest</em></b></p>\n                    <p>This is the bee that you just saw.</p>\n                    <img src=\"bees-with-color/bee-B1SM.svg\" width=\"200\">\n                    <p><span class=\"greenText\"><b>Successful harvest!</b></span><br>Your pay has increased by $0.02. Your bonus pay is now $1.02.</p>\n            ","response":0,"trial_type":"html-button-response","trial_index":122,"time_elapsed":2494702,"internal_node_id":"0.0-4.0-1.57","subject_id":"5e54f6b65bac434dd4dd05c3","study_id":"6197b3f67c2b5cd3b6d9596a","session_id":"6197bac843f66f8a2cbb79f2","condition":"contingent","relevant_dimensions":["antennae","pattern"],"bee_group":{"antennae":"A","wings":"X","pattern":"S","legs":"X"},"bonus":1.5800000000000014},{"rt":1359.1000000238419,"stimulus":"bees-with-color/bee-A2SM.svg","response":1,"trial_type":"image-button-response","trial_index":123,"time_elapsed":2496062,"internal_node_id":"0.0-4.0-0.58","subject_id":"5e54f6b65bac434dd4dd05c3","study_id":"6197b3f67c2b5cd3b6d9596a","session_id":"6197bac843f66f8a2cbb79f2","condition":"contingent","relevant_dimensions":["antennae","pattern"],"bee_group":{"antennae":"A","wings":"X","pattern":"S","legs":"X"},"action":"avoid","summary":"good-avoid","bonus":1.5800000000000014},{"rt":838.6000000238419,"stimulus":"\n                    <p><b>Action: <em>avoid</em></b></p>\n                    <p>This is the bee that you just saw.</p>\n                    <img src=\"bees-with-color/bee-A2SM.svg\" width=\"200\">\n                    <p><br>Your bonus pay is unchanged, and remains at $1.02.</p>\n            ","response":0,"trial_type":"html-button-response","trial_index":124,"time_elapsed":2496902,"internal_node_id":"0.0-4.0-1.58","subject_id":"5e54f6b65bac434dd4dd05c3","study_id":"6197b3f67c2b5cd3b6d9596a","session_id":"6197bac843f66f8a2cbb79f2","condition":"contingent","relevant_dimensions":["antennae","pattern"],"bee_group":{"antennae":"A","wings":"X","pattern":"S","legs":"X"},"bonus":1.5800000000000014},{"rt":1639.0999999046326,"stimulus":"bees-with-color/bee-A1DM.svg","response":0,"trial_type":"image-button-response","trial_index":125,"time_elapsed":2498542,"internal_node_id":"0.0-4.0-0.59","subject_id":"5e54f6b65bac434dd4dd05c3","study_id":"6197b3f67c2b5cd3b6d9596a","session_id":"6197bac843f66f8a2cbb79f2","condition":"contingent","relevant_dimensions":["antennae","pattern"],"bee_group":{"antennae":"A","wings":"X","pattern":"S","legs":"X"},"action":"harvest","summary":"good-harvest","bonus":1.5800000000000014},{"rt":951.1999999284744,"stimulus":"\n                    <p><b>Action: <em>harvest</em></b></p>\n                    <p>This is the bee that you just saw.</p>\n                    <img src=\"bees-with-color/bee-A1DM.svg\" width=\"200\">\n                    <p><span class=\"greenText\"><b>Successful harvest!</b></span><br>Your pay has increased by $0.02. Your bonus pay is now $1.04.</p>\n            ","response":0,"trial_type":"html-button-response","trial_index":126,"time_elapsed":2499494,"internal_node_id":"0.0-4.0-1.59","subject_id":"5e54f6b65bac434dd4dd05c3","study_id":"6197b3f67c2b5cd3b6d9596a","session_id":"6197bac843f66f8a2cbb79f2","condition":"contingent","relevant_dimensions":["antennae","pattern"],"bee_group":{"antennae":"A","wings":"X","pattern":"S","legs":"X"},"bonus":1.5800000000000014},{"rt":1559.0999999046326,"stimulus":"bees-with-color/bee-B2DF.svg","response":0,"trial_type":"image-button-response","trial_index":127,"time_elapsed":2501054,"internal_node_id":"0.0-4.0-0.60","subject_id":"5e54f6b65bac434dd4dd05c3","study_id":"6197b3f67c2b5cd3b6d9596a","session_id":"6197bac843f66f8a2cbb79f2","condition":"contingent","relevant_dimensions":["antennae","pattern"],"bee_group":{"antennae":"A","wings":"X","pattern":"S","legs":"X"},"action":"harvest","summary":"good-harvest","bonus":1.5800000000000014},{"rt":958.8000000715256,"stimulus":"\n                    <p><b>Action: <em>harvest</em></b></p>\n                    <p>This is the bee that you just saw.</p>\n                    <img src=\"bees-with-color/bee-B2DF.svg\" width=\"200\">\n                    <p><span class=\"greenText\"><b>Successful harvest!</b></span><br>Your pay has increased by $0.02. Your bonus pay is now $1.06.</p>\n            ","response":0,"trial_type":"html-button-response","trial_index":128,"time_elapsed":2502014,"internal_node_id":"0.0-4.0-1.60","subject_id":"5e54f6b65bac434dd4dd05c3","study_id":"6197b3f67c2b5cd3b6d9596a","session_id":"6197bac843f66f8a2cbb79f2","condition":"contingent","relevant_dimensions":["antennae","pattern"],"bee_group":{"antennae":"A","wings":"X","pattern":"S","legs":"X"},"bonus":1.5800000000000014},{"rt":1775,"stimulus":"bees-with-color/bee-A1SM.svg","response":1,"trial_type":"image-button-response","trial_index":129,"time_elapsed":2503790,"internal_node_id":"0.0-4.0-0.61","subject_id":"5e54f6b65bac434dd4dd05c3","study_id":"6197b3f67c2b5cd3b6d9596a","session_id":"6197bac843f66f8a2cbb79f2","condition":"contingent","relevant_dimensions":["antennae","pattern"],"bee_group":{"antennae":"A","wings":"X","pattern":"S","legs":"X"},"action":"avoid","summary":"good-avoid","bonus":1.5800000000000014},{"rt":1134.9000000953674,"stimulus":"\n                    <p><b>Action: <em>avoid</em></b></p>\n                    <p>This is the bee that you just saw.</p>\n                    <img src=\"bees-with-color/bee-A1SM.svg\" width=\"200\">\n                    <p><br>Your bonus pay is unchanged, and remains at $1.06.</p>\n            ","response":0,"trial_type":"html-button-response","trial_index":130,"time_elapsed":2504926,"internal_node_id":"0.0-4.0-1.61","subject_id":"5e54f6b65bac434dd4dd05c3","study_id":"6197b3f67c2b5cd3b6d9596a","session_id":"6197bac843f66f8a2cbb79f2","condition":"contingent","relevant_dimensions":["antennae","pattern"],"bee_group":{"antennae":"A","wings":"X","pattern":"S","legs":"X"},"bonus":1.5800000000000014},{"rt":2015.3000000715256,"stimulus":"bees-with-color/bee-A1DF.svg","response":0,"trial_type":"image-button-response","trial_index":131,"time_elapsed":2506942,"internal_node_id":"0.0-4.0-0.62","subject_id":"5e54f6b65bac434dd4dd05c3","study_id":"6197b3f67c2b5cd3b6d9596a","session_id":"6197bac843f66f8a2cbb79f2","condition":"contingent","relevant_dimensions":["antennae","pattern"],"bee_group":{"antennae":"A","wings":"X","pattern":"S","legs":"X"},"action":"harvest","summary":"good-harvest","bonus":1.5800000000000014},{"rt":1079.1000000238419,"stimulus":"\n                    <p><b>Action: <em>harvest</em></b></p>\n                    <p>This is the bee that you just saw.</p>\n                    <img src=\"bees-with-color/bee-A1DF.svg\" width=\"200\">\n                    <p><span class=\"greenText\"><b>Successful harvest!</b></span><br>Your pay has increased by $0.02. Your bonus pay is now $1.08.</p>\n            ","response":0,"trial_type":"html-button-response","trial_index":132,"time_elapsed":2508022,"internal_node_id":"0.0-4.0-1.62","subject_id":"5e54f6b65bac434dd4dd05c3","study_id":"6197b3f67c2b5cd3b6d9596a","session_id":"6197bac843f66f8a2cbb79f2","condition":"contingent","relevant_dimensions":["antennae","pattern"],"bee_group":{"antennae":"A","wings":"X","pattern":"S","legs":"X"},"bonus":1.5800000000000014},{"rt":2583,"stimulus":"bees-with-color/bee-B1DM.svg","response":0,"trial_type":"image-button-response","trial_index":133,"time_elapsed":2510606,"internal_node_id":"0.0-4.0-0.63","subject_id":"5e54f6b65bac434dd4dd05c3","study_id":"6197b3f67c2b5cd3b6d9596a","session_id":"6197bac843f66f8a2cbb79f2","condition":"contingent","relevant_dimensions":["antennae","pattern"],"bee_group":{"antennae":"A","wings":"X","pattern":"S","legs":"X"},"action":"harvest","summary":"good-harvest","bonus":1.5800000000000014},{"rt":767,"stimulus":"\n                    <p><b>Action: <em>harvest</em></b></p>\n                    <p>This is the bee that you just saw.</p>\n                    <img src=\"bees-with-color/bee-B1DM.svg\" width=\"200\">\n                    <p><span class=\"greenText\"><b>Successful harvest!</b></span><br>Your pay has increased by $0.02. Your bonus pay is now $1.10.</p>\n            ","response":0,"trial_type":"html-button-response","trial_index":134,"time_elapsed":2511374,"internal_node_id":"0.0-4.0-1.63","subject_id":"5e54f6b65bac434dd4dd05c3","study_id":"6197b3f67c2b5cd3b6d9596a","session_id":"6197bac843f66f8a2cbb79f2","condition":"contingent","relevant_dimensions":["antennae","pattern"],"bee_group":{"antennae":"A","wings":"X","pattern":"S","legs":"X"},"bonus":1.5800000000000014},{"rt":6435.899999976158,"stimulus":"You have completed the first part of this experiment.<br><br>You will now begin a shorter second part, in which you will receive no feedback.<br>The same rules regarding bonus pay apply.<br><br>Press any key to begin.","response":" ","trial_type":"html-keyboard-response","trial_index":135,"time_elapsed":2517811,"internal_node_id":"0.0-5.0","subject_id":"5e54f6b65bac434dd4dd05c3","study_id":"6197b3f67c2b5cd3b6d9596a","session_id":"6197bac843f66f8a2cbb79f2","condition":"contingent","relevant_dimensions":["antennae","pattern"],"bee_group":{"antennae":"A","wings":"X","pattern":"S","legs":"X"},"bonus":1.5800000000000014},{"rt":10291.800000071526,"stimulus":"bees-with-color/bee-A1SF.svg","response":1,"trial_type":"image-button-response","trial_index":136,"time_elapsed":2528110,"internal_node_id":"0.0-6.0-0.0","subject_id":"5e54f6b65bac434dd4dd05c3","study_id":"6197b3f67c2b5cd3b6d9596a","session_id":"6197bac843f66f8a2cbb79f2","condition":"contingent","relevant_dimensions":["antennae","pattern"],"bee_group":{"antennae":"A","wings":"X","pattern":"S","legs":"X"},"bonus":1.5800000000000014},{"rt":1422.3999999761581,"stimulus":"bees-with-color/bee-B2DM.svg","response":0,"trial_type":"image-button-response","trial_index":137,"time_elapsed":2529534,"internal_node_id":"0.0-6.0-0.1","subject_id":"5e54f6b65bac434dd4dd05c3","study_id":"6197b3f67c2b5cd3b6d9596a","session_id":"6197bac843f66f8a2cbb79f2","condition":"contingent","relevant_dimensions":["antennae","pattern"],"bee_group":{"antennae":"A","wings":"X","pattern":"S","legs":"X"},"bonus":1.5800000000000014},{"rt":902.3999999761581,"stimulus":"bees-with-color/bee-B1DF.svg","response":0,"trial_type":"image-button-response","trial_index":138,"time_elapsed":2530438,"internal_node_id":"0.0-6.0-0.2","subject_id":"5e54f6b65bac434dd4dd05c3","study_id":"6197b3f67c2b5cd3b6d9596a","session_id":"6197bac843f66f8a2cbb79f2","condition":"contingent","relevant_dimensions":["antennae","pattern"],"bee_group":{"antennae":"A","wings":"X","pattern":"S","legs":"X"},"bonus":1.5800000000000014},{"rt":2510.7999999523163,"stimulus":"bees-with-color/bee-A1DF.svg","response":0,"trial_type":"image-button-response","trial_index":139,"time_elapsed":2532950,"internal_node_id":"0.0-6.0-0.3","subject_id":"5e54f6b65bac434dd4dd05c3","study_id":"6197b3f67c2b5cd3b6d9596a","session_id":"6197bac843f66f8a2cbb79f2","condition":"contingent","relevant_dimensions":["antennae","pattern"],"bee_group":{"antennae":"A","wings":"X","pattern":"S","legs":"X"},"bonus":1.5800000000000014},{"rt":1294.6000000238419,"stimulus":"bees-with-color/bee-A1SM.svg","response":1,"trial_type":"image-button-response","trial_index":140,"time_elapsed":2534246,"internal_node_id":"0.0-6.0-0.4","subject_id":"5e54f6b65bac434dd4dd05c3","study_id":"6197b3f67c2b5cd3b6d9596a","session_id":"6197bac843f66f8a2cbb79f2","condition":"contingent","relevant_dimensions":["antennae","pattern"],"bee_group":{"antennae":"A","wings":"X","pattern":"S","legs":"X"},"bonus":1.5800000000000014},{"rt":1174.4000000953674,"stimulus":"bees-with-color/bee-A2DM.svg","response":0,"trial_type":"image-button-response","trial_index":141,"time_elapsed":2535422,"internal_node_id":"0.0-6.0-0.5","subject_id":"5e54f6b65bac434dd4dd05c3","study_id":"6197b3f67c2b5cd3b6d9596a","session_id":"6197bac843f66f8a2cbb79f2","condition":"contingent","relevant_dimensions":["antennae","pattern"],"bee_group":{"antennae":"A","wings":"X","pattern":"S","legs":"X"},"bonus":1.5800000000000014},{"rt":751,"stimulus":"bees-with-color/bee-B1DM.svg","response":0,"trial_type":"image-button-response","trial_index":142,"time_elapsed":2536174,"internal_node_id":"0.0-6.0-0.6","subject_id":"5e54f6b65bac434dd4dd05c3","study_id":"6197b3f67c2b5cd3b6d9596a","session_id":"6197bac843f66f8a2cbb79f2","condition":"contingent","relevant_dimensions":["antennae","pattern"],"bee_group":{"antennae":"A","wings":"X","pattern":"S","legs":"X"},"bonus":1.5800000000000014},{"rt":1462.6000000238419,"stimulus":"bees-with-color/bee-B1SM.svg","response":0,"trial_type":"image-button-response","trial_index":143,"time_elapsed":2537638,"internal_node_id":"0.0-6.0-0.7","subject_id":"5e54f6b65bac434dd4dd05c3","study_id":"6197b3f67c2b5cd3b6d9596a","session_id":"6197bac843f66f8a2cbb79f2","condition":"contingent","relevant_dimensions":["antennae","pattern"],"bee_group":{"antennae":"A","wings":"X","pattern":"S","legs":"X"},"bonus":1.5800000000000014},{"rt":1086.8000000715256,"stimulus":"bees-with-color/bee-B1SF.svg","response":0,"trial_type":"image-button-response","trial_index":144,"time_elapsed":2538726,"internal_node_id":"0.0-6.0-0.8","subject_id":"5e54f6b65bac434dd4dd05c3","study_id":"6197b3f67c2b5cd3b6d9596a","session_id":"6197bac843f66f8a2cbb79f2","condition":"contingent","relevant_dimensions":["antennae","pattern"],"bee_group":{"antennae":"A","wings":"X","pattern":"S","legs":"X"},"bonus":1.5800000000000014},{"rt":1950.5,"stimulus":"bees-with-color/bee-A2DF.svg","response":0,"trial_type":"image-button-response","trial_index":145,"time_elapsed":2540678,"internal_node_id":"0.0-6.0-0.9","subject_id":"5e54f6b65bac434dd4dd05c3","study_id":"6197b3f67c2b5cd3b6d9596a","session_id":"6197bac843f66f8a2cbb79f2","condition":"contingent","relevant_dimensions":["antennae","pattern"],"bee_group":{"antennae":"A","wings":"X","pattern":"S","legs":"X"},"bonus":1.5800000000000014},{"rt":598.9000000953674,"stimulus":"bees-with-color/bee-B2DF.svg","response":0,"trial_type":"image-button-response","trial_index":146,"time_elapsed":2541278,"internal_node_id":"0.0-6.0-0.10","subject_id":"5e54f6b65bac434dd4dd05c3","study_id":"6197b3f67c2b5cd3b6d9596a","session_id":"6197bac843f66f8a2cbb79f2","condition":"contingent","relevant_dimensions":["antennae","pattern"],"bee_group":{"antennae":"A","wings":"X","pattern":"S","legs":"X"},"bonus":1.5800000000000014},{"rt":1854.7000000476837,"stimulus":"bees-with-color/bee-B2SF.svg","response":0,"trial_type":"image-button-response","trial_index":147,"time_elapsed":2543134,"internal_node_id":"0.0-6.0-0.11","subject_id":"5e54f6b65bac434dd4dd05c3","study_id":"6197b3f67c2b5cd3b6d9596a","session_id":"6197bac843f66f8a2cbb79f2","condition":"contingent","relevant_dimensions":["antennae","pattern"],"bee_group":{"antennae":"A","wings":"X","pattern":"S","legs":"X"},"bonus":1.5800000000000014},{"rt":1486.4000000953674,"stimulus":"bees-with-color/bee-A1DM.svg","response":0,"trial_type":"image-button-response","trial_index":148,"time_elapsed":2544622,"internal_node_id":"0.0-6.0-0.12","subject_id":"5e54f6b65bac434dd4dd05c3","study_id":"6197b3f67c2b5cd3b6d9596a","session_id":"6197bac843f66f8a2cbb79f2","condition":"contingent","relevant_dimensions":["antennae","pattern"],"bee_group":{"antennae":"A","wings":"X","pattern":"S","legs":"X"},"bonus":1.5800000000000014},{"rt":1414.6999999284744,"stimulus":"bees-with-color/bee-B2SM.svg","response":0,"trial_type":"image-button-response","trial_index":149,"time_elapsed":2546038,"internal_node_id":"0.0-6.0-0.13","subject_id":"5e54f6b65bac434dd4dd05c3","study_id":"6197b3f67c2b5cd3b6d9596a","session_id":"6197bac843f66f8a2cbb79f2","condition":"contingent","relevant_dimensions":["antennae","pattern"],"bee_group":{"antennae":"A","wings":"X","pattern":"S","legs":"X"},"bonus":1.5800000000000014},{"rt":902.4000000953674,"stimulus":"bees-with-color/bee-A2SM.svg","response":1,"trial_type":"image-button-response","trial_index":150,"time_elapsed":2546942,"internal_node_id":"0.0-6.0-0.14","subject_id":"5e54f6b65bac434dd4dd05c3","study_id":"6197b3f67c2b5cd3b6d9596a","session_id":"6197bac843f66f8a2cbb79f2","condition":"contingent","relevant_dimensions":["antennae","pattern"],"bee_group":{"antennae":"A","wings":"X","pattern":"S","legs":"X"},"bonus":1.5800000000000014},{"rt":1974.3999999761581,"stimulus":"bees-with-color/bee-A2SF.svg","response":1,"trial_type":"image-button-response","trial_index":151,"time_elapsed":2548918,"internal_node_id":"0.0-6.0-0.15","subject_id":"5e54f6b65bac434dd4dd05c3","study_id":"6197b3f67c2b5cd3b6d9596a","session_id":"6197bac843f66f8a2cbb79f2","condition":"contingent","relevant_dimensions":["antennae","pattern"],"bee_group":{"antennae":"A","wings":"X","pattern":"S","legs":"X"},"bonus":1.5800000000000014},{"rt":1086.8999999761581,"stimulus":"bees-with-color/bee-B1SF.svg","response":0,"trial_type":"image-button-response","trial_index":152,"time_elapsed":2550007,"internal_node_id":"0.0-6.0-0.16","subject_id":"5e54f6b65bac434dd4dd05c3","study_id":"6197b3f67c2b5cd3b6d9596a","session_id":"6197bac843f66f8a2cbb79f2","condition":"contingent","relevant_dimensions":["antennae","pattern"],"bee_group":{"antennae":"A","wings":"X","pattern":"S","legs":"X"},"bonus":1.5800000000000014},{"rt":894.8999999761581,"stimulus":"bees-with-color/bee-B1DM.svg","response":0,"trial_type":"image-button-response","trial_index":153,"time_elapsed":2550903,"internal_node_id":"0.0-6.0-0.17","subject_id":"5e54f6b65bac434dd4dd05c3","study_id":"6197b3f67c2b5cd3b6d9596a","session_id":"6197bac843f66f8a2cbb79f2","condition":"contingent","relevant_dimensions":["antennae","pattern"],"bee_group":{"antennae":"A","wings":"X","pattern":"S","legs":"X"},"bonus":1.5800000000000014},{"rt":694.5,"stimulus":"bees-with-color/bee-B2DF.svg","response":0,"trial_type":"image-button-response","trial_index":154,"time_elapsed":2551599,"internal_node_id":"0.0-6.0-0.18","subject_id":"5e54f6b65bac434dd4dd05c3","study_id":"6197b3f67c2b5cd3b6d9596a","session_id":"6197bac843f66f8a2cbb79f2","condition":"contingent","relevant_dimensions":["antennae","pattern"],"bee_group":{"antennae":"A","wings":"X","pattern":"S","legs":"X"},"bonus":1.5800000000000014},{"rt":1143.1000000238419,"stimulus":"bees-with-color/bee-A1SM.svg","response":1,"trial_type":"image-button-response","trial_index":155,"time_elapsed":2552743,"internal_node_id":"0.0-6.0-0.19","subject_id":"5e54f6b65bac434dd4dd05c3","study_id":"6197b3f67c2b5cd3b6d9596a","session_id":"6197bac843f66f8a2cbb79f2","condition":"contingent","relevant_dimensions":["antennae","pattern"],"bee_group":{"antennae":"A","wings":"X","pattern":"S","legs":"X"},"bonus":1.5800000000000014},{"rt":1710.7999999523163,"stimulus":"bees-with-color/bee-A1DF.svg","response":0,"trial_type":"image-button-response","trial_index":156,"time_elapsed":2554455,"internal_node_id":"0.0-6.0-0.20","subject_id":"5e54f6b65bac434dd4dd05c3","study_id":"6197b3f67c2b5cd3b6d9596a","session_id":"6197bac843f66f8a2cbb79f2","condition":"contingent","relevant_dimensions":["antennae","pattern"],"bee_group":{"antennae":"A","wings":"X","pattern":"S","legs":"X"},"bonus":1.5800000000000014},{"rt":1278.8000000715256,"stimulus":"bees-with-color/bee-B1SM.svg","response":0,"trial_type":"image-button-response","trial_index":157,"time_elapsed":2555735,"internal_node_id":"0.0-6.0-0.21","subject_id":"5e54f6b65bac434dd4dd05c3","study_id":"6197b3f67c2b5cd3b6d9596a","session_id":"6197bac843f66f8a2cbb79f2","condition":"contingent","relevant_dimensions":["antennae","pattern"],"bee_group":{"antennae":"A","wings":"X","pattern":"S","legs":"X"},"bonus":1.5800000000000014},{"rt":1311,"stimulus":"bees-with-color/bee-A2SF.svg","response":1,"trial_type":"image-button-response","trial_index":158,"time_elapsed":2557047,"internal_node_id":"0.0-6.0-0.22","subject_id":"5e54f6b65bac434dd4dd05c3","study_id":"6197b3f67c2b5cd3b6d9596a","session_id":"6197bac843f66f8a2cbb79f2","condition":"contingent","relevant_dimensions":["antennae","pattern"],"bee_group":{"antennae":"A","wings":"X","pattern":"S","legs":"X"},"bonus":1.5800000000000014},{"rt":838.7000000476837,"stimulus":"bees-with-color/bee-B2DM.svg","response":0,"trial_type":"image-button-response","trial_index":159,"time_elapsed":2557887,"internal_node_id":"0.0-6.0-0.23","subject_id":"5e54f6b65bac434dd4dd05c3","study_id":"6197b3f67c2b5cd3b6d9596a","session_id":"6197bac843f66f8a2cbb79f2","condition":"contingent","relevant_dimensions":["antennae","pattern"],"bee_group":{"antennae":"A","wings":"X","pattern":"S","