[{"success":true,"trial_type":"fullscreen","trial_index":0,"time_elapsed":11683,"internal_node_id":"0.0-0.0","subject_id":"5f64b5eed3b0d9015f58920c","study_id":"60edd13110225f80f9f3709b","session_id":"6196c708a6e6e6cf2c135eff","condition":"full-information","relevant_dimensions":["antennae","legs"],"bee_group":{"antennae":"B","wings":"X","pattern":"X","legs":"F"},"bonus":0.20000000000000095},{"success":true,"timeout":false,"failed_images":[],"failed_audio":[],"failed_video":[],"trial_type":"preload","trial_index":1,"time_elapsed":13526,"internal_node_id":"0.0-1.0","subject_id":"5f64b5eed3b0d9015f58920c","study_id":"60edd13110225f80f9f3709b","session_id":"6196c708a6e6e6cf2c135eff","condition":"full-information","relevant_dimensions":["antennae","legs"],"bee_group":{"antennae":"B","wings":"X","pattern":"X","legs":"F"},"bonus":0.20000000000000095},{"rt":1463,"stimulus":"Welcome! Press any key to begin.","response":" ","trial_type":"html-keyboard-response","trial_index":2,"time_elapsed":14990,"internal_node_id":"0.0-2.0","subject_id":"5f64b5eed3b0d9015f58920c","study_id":"60edd13110225f80f9f3709b","session_id":"6196c708a6e6e6cf2c135eff","condition":"full-information","relevant_dimensions":["antennae","legs"],"bee_group":{"antennae":"B","wings":"X","pattern":"X","legs":"F"},"bonus":0.20000000000000095},{"view_history":[{"page_index":0,"viewing_time":3097},{"page_index":1,"viewing_time":14536},{"page_index":2,"viewing_time":8481},{"page_index":3,"viewing_time":6252},{"page_index":4,"viewing_time":9241},{"page_index":5,"viewing_time":19591},{"page_index":6,"viewing_time":11225},{"page_index":7,"viewing_time":5863},{"page_index":8,"viewing_time":3475},{"page_index":9,"viewing_time":3148},{"page_index":10,"viewing_time":1360},{"page_index":11,"viewing_time":8119},{"page_index":12,"viewing_time":7784},{"page_index":13,"viewing_time":1209},{"page_index":14,"viewing_time":1288}],"rt":104669,"trial_type":"instructions","trial_index":3,"time_elapsed":119660,"internal_node_id":"0.0-3.0-0.0","subject_id":"5f64b5eed3b0d9015f58920c","study_id":"60edd13110225f80f9f3709b","session_id":"6196c708a6e6e6cf2c135eff","condition":"full-information","relevant_dimensions":["antennae","legs"],"bee_group":{"antennae":"B","wings":"X","pattern":"X","legs":"F"},"bonus":0.20000000000000095},{"rt":10019,"response":{"Q0":["Two or six legs","Stripes or spots on body","Single or double wings","Antennae or no antennae"]},"question_order":[0],"trial_type":"survey-multi-select","trial_index":4,"time_elapsed":129684,"internal_node_id":"0.0-3.0-1.0","subject_id":"5f64b5eed3b0d9015f58920c","study_id":"60edd13110225f80f9f3709b","session_id":"6196c708a6e6e6cf2c135eff","condition":"full-information","relevant_dimensions":["antennae","legs"],"bee_group":{"antennae":"B","wings":"X","pattern":"X","legs":"F"},"correct":true,"bonus":0.20000000000000095},{"rt":15927,"response":{"Q1":"No.","Q2":"Based on the four features of the bee.","Q3":"You learn if it was friendly or dangerous, but do not alter your bonus."},"question_order":[0,1,2],"trial_type":"survey-multi-choice","trial_index":5,"time_elapsed":145613,"internal_node_id":"0.0-3.0-2.0","subject_id":"5f64b5eed3b0d9015f58920c","study_id":"60edd13110225f80f9f3709b","session_id":"6196c708a6e6e6cf2c135eff","condition":"full-information","relevant_dimensions":["antennae","legs"],"bee_group":{"antennae":"B","wings":"X","pattern":"X","legs":"F"},"correct":true,"bonus":0.20000000000000095},{"rt":1968,"stimulus":"<p>Congrats, you got everything right<br>When you're ready, click the button below to continue to the experiment.</p>","response":0,"trial_type":"html-button-response","trial_index":6,"time_elapsed":147583,"internal_node_id":"0.0-3.0-3.0","subject_id":"5f64b5eed3b0d9015f58920c","study_id":"60edd13110225f80f9f3709b","session_id":"6196c708a6e6e6cf2c135eff","condition":"full-information","relevant_dimensions":["antennae","legs"],"bee_group":{"antennae":"B","wings":"X","pattern":"X","legs":"F"},"bonus":0.20000000000000095},{"rt":2404,"stimulus":"bees-with-color/bee-B2SF.svg","response":0,"trial_type":"image-button-response","trial_index":7,"time_elapsed":149990,"internal_node_id":"0.0-4.0-0.0","subject_id":"5f64b5eed3b0d9015f58920c","study_id":"60edd13110225f80f9f3709b","session_id":"6196c708a6e6e6cf2c135eff","condition":"full-information","relevant_dimensions":["antennae","legs"],"bee_group":{"antennae":"B","wings":"X","pattern":"X","legs":"F"},"action":"harvest","summary":"bad-harvest","bonus":0.20000000000000095},{"rt":7657,"stimulus":"\n                    <p><b>Action: <em>harvest</em></b></p>\n                    <p>This is the bee that you just saw.</p>\n                    <img src=\"bees-with-color/bee-B2SF.svg\" width=\"200\">\n                    <p><span class=\"redText\">Bad choice, the bee was angry.</span><br><b>You have been stung!</b><br>Your pay has been decreased by $0.10. Your bonus pay is now $0.44.</p>\n            ","response":0,"trial_type":"html-button-response","trial_index":8,"time_elapsed":157661,"internal_node_id":"0.0-4.0-1.0","subject_id":"5f64b5eed3b0d9015f58920c","study_id":"60edd13110225f80f9f3709b","session_id":"6196c708a6e6e6cf2c135eff","condition":"full-information","relevant_dimensions":["antennae","legs"],"bee_group":{"antennae":"B","wings":"X","pattern":"X","legs":"F"},"bonus":0.20000000000000095},{"rt":1599,"stimulus":"bees-with-color/bee-A2SF.svg","response":1,"trial_type":"image-button-response","trial_index":9,"time_elapsed":159262,"internal_node_id":"0.0-4.0-0.1","subject_id":"5f64b5eed3b0d9015f58920c","study_id":"60edd13110225f80f9f3709b","session_id":"6196c708a6e6e6cf2c135eff","condition":"full-information","relevant_dimensions":["antennae","legs"],"bee_group":{"antennae":"B","wings":"X","pattern":"X","legs":"F"},"action":"avoid","summary":"bad-avoid","bonus":0.20000000000000095},{"rt":3746,"stimulus":"\n                    <p><b>Action: <em>avoid</em></b></p>\n                    <p>This is the bee that you just saw.</p>\n                    <img src=\"bees-with-color/bee-A2SF.svg\" width=\"200\">\n                    <p><span class=\"redText\">Bad choice,</span> the bee was friendly.<br>Your bonus pay is unchanged, and remains at $0.44.</p>\n            ","response":0,"trial_type":"html-button-response","trial_index":10,"time_elapsed":163008,"internal_node_id":"0.0-4.0-1.1","subject_id":"5f64b5eed3b0d9015f58920c","study_id":"60edd13110225f80f9f3709b","session_id":"6196c708a6e6e6cf2c135eff","condition":"full-information","relevant_dimensions":["antennae","legs"],"bee_group":{"antennae":"B","wings":"X","pattern":"X","legs":"F"},"bonus":0.20000000000000095},{"rt":1092,"stimulus":"bees-with-color/bee-A1DF.svg","response":0,"trial_type":"image-button-response","trial_index":11,"time_elapsed":164101,"internal_node_id":"0.0-4.0-0.2","subject_id":"5f64b5eed3b0d9015f58920c","study_id":"60edd13110225f80f9f3709b","session_id":"6196c708a6e6e6cf2c135eff","condition":"full-information","relevant_dimensions":["antennae","legs"],"bee_group":{"antennae":"B","wings":"X","pattern":"X","legs":"F"},"action":"harvest","summary":"good-harvest","bonus":0.20000000000000095},{"rt":1822,"stimulus":"\n                    <p><b>Action: <em>harvest</em></b></p>\n                    <p>This is the bee that you just saw.</p>\n                    <img src=\"bees-with-color/bee-A1DF.svg\" width=\"200\">\n                    <p><span class=\"greenText\"><b>Successful harvest!</b></span><br>Your pay has increased by $0.02. Your bonus pay is now $0.46.</p>\n            ","response":0,"trial_type":"html-button-response","trial_index":12,"time_elapsed":165924,"internal_node_id":"0.0-4.0-1.2","subject_id":"5f64b5eed3b0d9015f58920c","study_id":"60edd13110225f80f9f3709b","session_id":"6196c708a6e6e6cf2c135eff","condition":"full-information","relevant_dimensions":["antennae","legs"],"bee_group":{"antennae":"B","wings":"X","pattern":"X","legs":"F"},"bonus":0.20000000000000095},{"rt":1130,"stimulus":"bees-with-color/bee-B2SM.svg","response":0,"trial_type":"image-button-response","trial_index":13,"time_elapsed":167054,"internal_node_id":"0.0-4.0-0.3","subject_id":"5f64b5eed3b0d9015f58920c","study_id":"60edd13110225f80f9f3709b","session_id":"6196c708a6e6e6cf2c135eff","condition":"full-information","relevant_dimensions":["antennae","legs"],"bee_group":{"antennae":"B","wings":"X","pattern":"X","legs":"F"},"action":"harvest","summary":"good-harvest","bonus":0.20000000000000095},{"rt":1025,"stimulus":"\n                    <p><b>Action: <em>harvest</em></b></p>\n                    <p>This is the bee that you just saw.</p>\n                    <img src=\"bees-with-color/bee-B2SM.svg\" width=\"200\">\n                    <p><span class=\"greenText\"><b>Successful harvest!</b></span><br>Your pay has increased by $0.02. Your bonus pay is now $0.48.</p>\n            ","response":0,"trial_type":"html-button-response","trial_index":14,"time_elapsed":168083,"internal_node_id":"0.0-4.0-1.3","subject_id":"5f64b5eed3b0d9015f58920c","study_id":"60edd13110225f80f9f3709b","session_id":"6196c708a6e6e6cf2c135eff","condition":"full-information","relevant_dimensions":["antennae","legs"],"bee_group":{"antennae":"B","wings":"X","pattern":"X","legs":"F"},"bonus":0.20000000000000095},{"rt":1186,"stimulus":"bees-with-color/bee-B1DF.svg","response":0,"trial_type":"image-button-response","trial_index":15,"time_elapsed":169271,"internal_node_id":"0.0-4.0-0.4","subject_id":"5f64b5eed3b0d9015f58920c","study_id":"60edd13110225f80f9f3709b","session_id":"6196c708a6e6e6cf2c135eff","condition":"full-information","relevant_dimensions":["antennae","legs"],"bee_group":{"antennae":"B","wings":"X","pattern":"X","legs":"F"},"action":"harvest","summary":"bad-harvest","bonus":0.20000000000000095},{"rt":2294,"stimulus":"\n                    <p><b>Action: <em>harvest</em></b></p>\n                    <p>This is the bee that you just saw.</p>\n                    <img src=\"bees-with-color/bee-B1DF.svg\" width=\"200\">\n                    <p><span class=\"redText\">Bad choice, the bee was angry.</span><br><b>You have been stung!</b><br>Your pay has been decreased by $0.10. Your bonus pay is now $0.38.</p>\n            ","response":0,"trial_type":"html-button-response","trial_index":16,"time_elapsed":171567,"internal_node_id":"0.0-4.0-1.4","subject_id":"5f64b5eed3b0d9015f58920c","study_id":"60edd13110225f80f9f3709b","session_id":"6196c708a6e6e6cf2c135eff","condition":"full-information","relevant_dimensions":["antennae","legs"],"bee_group":{"antennae":"B","wings":"X","pattern":"X","legs":"F"},"bonus":0.20000000000000095},{"rt":1126,"stimulus":"bees-with-color/bee-A2DM.svg","response":0,"trial_type":"image-button-response","trial_index":17,"time_elapsed":172693,"internal_node_id":"0.0-4.0-0.5","subject_id":"5f64b5eed3b0d9015f58920c","study_id":"60edd13110225f80f9f3709b","session_id":"6196c708a6e6e6cf2c135eff","condition":"full-information","relevant_dimensions":["antennae","legs"],"bee_group":{"antennae":"B","wings":"X","pattern":"X","legs":"F"},"action":"harvest","summary":"good-harvest","bonus":0.20000000000000095},{"rt":737,"stimulus":"\n                    <p><b>Action: <em>harvest</em></b></p>\n                    <p>This is the bee that you just saw.</p>\n                    <img src=\"bees-with-color/bee-A2DM.svg\" width=\"200\">\n                    <p><span class=\"greenText\"><b>Successful harvest!</b></span><br>Your pay has increased by $0.02. Your bonus pay is now $0.40.</p>\n            ","response":0,"trial_type":"html-button-response","trial_index":18,"time_elapsed":173431,"internal_node_id":"0.0-4.0-1.5","subject_id":"5f64b5eed3b0d9015f58920c","study_id":"60edd13110225f80f9f3709b","session_id":"6196c708a6e6e6cf2c135eff","condition":"full-information","relevant_dimensions":["antennae","legs"],"bee_group":{"antennae":"B","wings":"X","pattern":"X","legs":"F"},"bonus":0.20000000000000095},{"rt":971,"stimulus":"bees-with-color/bee-A1SF.svg","response":1,"trial_type":"image-button-response","trial_index":19,"time_elapsed":174405,"internal_node_id":"0.0-4.0-0.6","subject_id":"5f64b5eed3b0d9015f58920c","study_id":"60edd13110225f80f9f3709b","session_id":"6196c708a6e6e6cf2c135eff","condition":"full-information","relevant_dimensions":["antennae","legs"],"bee_group":{"antennae":"B","wings":"X","pattern":"X","legs":"F"},"action":"avoid","summary":"bad-avoid","bonus":0.20000000000000095},{"rt":1821,"stimulus":"\n                    <p><b>Action: <em>avoid</em></b></p>\n                    <p>This is the bee that you just saw.</p>\n                    <img src=\"bees-with-color/bee-A1SF.svg\" width=\"200\">\n                    <p><span class=\"redText\">Bad choice,</span> the bee was friendly.<br>Your bonus pay is unchanged, and remains at $0.40.</p>\n            ","response":0,"trial_type":"html-button-response","trial_index":20,"time_elapsed":176228,"internal_node_id":"0.0-4.0-1.6","subject_id":"5f64b5eed3b0d9015f58920c","study_id":"60edd13110225f80f9f3709b","session_id":"6196c708a6e6e6cf2c135eff","condition":"full-information","relevant_dimensions":["antennae","legs"],"bee_group":{"antennae":"B","wings":"X","pattern":"X","legs":"F"},"bonus":0.20000000000000095},{"rt":1679,"stimulus":"bees-with-color/bee-A2DF.svg","response":1,"trial_type":"image-button-response","trial_index":21,"time_elapsed":177908,"internal_node_id":"0.0-4.0-0.7","subject_id":"5f64b5eed3b0d9015f58920c","study_id":"60edd13110225f80f9f3709b","session_id":"6196c708a6e6e6cf2c135eff","condition":"full-information","relevant_dimensions":["antennae","legs"],"bee_group":{"antennae":"B","wings":"X","pattern":"X","legs":"F"},"action":"avoid","summary":"bad-avoid","bonus":0.20000000000000095},{"rt":1187,"stimulus":"\n                    <p><b>Action: <em>avoid</em></b></p>\n                    <p>This is the bee that you just saw.</p>\n                    <img src=\"bees-with-color/bee-A2DF.svg\" width=\"200\">\n                    <p><span class=\"redText\">Bad choice,</span> the bee was friendly.<br>Your bonus pay is unchanged, and remains at $0.40.</p>\n            ","response":0,"trial_type":"html-button-response","trial_index":22,"time_elapsed":179097,"internal_node_id":"0.0-4.0-1.7","subject_id":"5f64b5eed3b0d9015f58920c","study_id":"60edd13110225f80f9f3709b","session_id":"6196c708a6e6e6cf2c135eff","condition":"full-information","relevant_dimensions":["antennae","legs"],"bee_group":{"antennae":"B","wings":"X","pattern":"X","legs":"F"},"bonus":0.20000000000000095},{"rt":1615,"stimulus":"bees-with-color/bee-A1DM.svg","response":0,"trial_type":"image-button-response","trial_index":23,"time_elapsed":180713,"internal_node_id":"0.0-4.0-0.8","subject_id":"5f64b5eed3b0d9015f58920c","study_id":"60edd13110225f80f9f3709b","session_id":"6196c708a6e6e6cf2c135eff","condition":"full-information","relevant_dimensions":["antennae","legs"],"bee_group":{"antennae":"B","wings":"X","pattern":"X","legs":"F"},"action":"harvest","summary":"good-harvest","bonus":0.20000000000000095},{"rt":867,"stimulus":"\n                    <p><b>Action: <em>harvest</em></b></p>\n                    <p>This is the bee that you just saw.</p>\n                    <img src=\"bees-with-color/bee-A1DM.svg\" width=\"200\">\n                    <p><span class=\"greenText\"><b>Successful harvest!</b></span><br>Your pay has increased by $0.02. Your bonus pay is now $0.42.</p>\n            ","response":0,"trial_type":"html-button-response","trial_index":24,"time_elapsed":181582,"internal_node_id":"0.0-4.0-1.8","subject_id":"5f64b5eed3b0d9015f58920c","study_id":"60edd13110225f80f9f3709b","session_id":"6196c708a6e6e6cf2c135eff","condition":"full-information","relevant_dimensions":["antennae","legs"],"bee_group":{"antennae":"B","wings":"X","pattern":"X","legs":"F"},"bonus":0.20000000000000095},{"rt":1836,"stimulus":"bees-with-color/bee-B1DM.svg","response":0,"trial_type":"image-button-response","trial_index":25,"time_elapsed":183419,"internal_node_id":"0.0-4.0-0.9","subject_id":"5f64b5eed3b0d9015f58920c","study_id":"60edd13110225f80f9f3709b","session_id":"6196c708a6e6e6cf2c135eff","condition":"full-information","relevant_dimensions":["antennae","legs"],"bee_group":{"antennae":"B","wings":"X","pattern":"X","legs":"F"},"action":"harvest","summary":"good-harvest","bonus":0.20000000000000095},{"rt":687,"stimulus":"\n                    <p><b>Action: <em>harvest</em></b></p>\n                    <p>This is the bee that you just saw.</p>\n                    <img src=\"bees-with-color/bee-B1DM.svg\" width=\"200\">\n                    <p><span class=\"greenText\"><b>Successful harvest!</b></span><br>Your pay has increased by $0.02. Your bonus pay is now $0.44.</p>\n            ","response":0,"trial_type":"html-button-response","trial_index":26,"time_elapsed":184107,"internal_node_id":"0.0-4.0-1.9","subject_id":"5f64b5eed3b0d9015f58920c","study_id":"60edd13110225f80f9f3709b","session_id":"6196c708a6e6e6cf2c135eff","condition":"full-information","relevant_dimensions":["antennae","legs"],"bee_group":{"antennae":"B","wings":"X","pattern":"X","legs":"F"},"bonus":0.20000000000000095},{"rt":1329,"stimulus":"bees-with-color/bee-B2DF.svg","response":1,"trial_type":"image-button-response","trial_index":27,"time_elapsed":185438,"internal_node_id":"0.0-4.0-0.10","subject_id":"5f64b5eed3b0d9015f58920c","study_id":"60edd13110225f80f9f3709b","session_id":"6196c708a6e6e6cf2c135eff","condition":"full-information","relevant_dimensions":["antennae","legs"],"bee_group":{"antennae":"B","wings":"X","pattern":"X","legs":"F"},"action":"avoid","summary":"good-avoid","bonus":0.20000000000000095},{"rt":24414,"stimulus":"\n                    <p><b>Action: <em>avoid</em></b></p>\n                    <p>This is the bee that you just saw.</p>\n                    <img src=\"bees-with-color/bee-B2DF.svg\" width=\"200\">\n                    <p><span class=\"greenText\">Good choice!</span>  This bee would have stung you.<br>Your bonus pay is unchanged, and remains at $0.44.</p>\n            ","response":0,"trial_type":"html-button-response","trial_index":28,"time_elapsed":209854,"internal_node_id":"0.0-4.0-1.10","subject_id":"5f64b5eed3b0d9015f58920c","study_id":"60edd13110225f80f9f3709b","session_id":"6196c708a6e6e6cf2c135eff","condition":"full-information","relevant_dimensions":["antennae","legs"],"bee_group":{"antennae":"B","wings":"X","pattern":"X","legs":"F"},"bonus":0.20000000000000095},{"rt":1423,"stimulus":"bees-with-color/bee-B2DM.svg","response":1,"trial_type":"image-button-response","trial_index":29,"time_elapsed":211278,"internal_node_id":"0.0-4.0-0.11","subject_id":"5f64b5eed3b0d9015f58920c","study_id":"60edd13110225f80f9f3709b","session_id":"6196c708a6e6e6cf2c135eff","condition":"full-information","relevant_dimensions":["antennae","legs"],"bee_group":{"antennae":"B","wings":"X","pattern":"X","legs":"F"},"action":"avoid","summary":"bad-avoid","bonus":0.20000000000000095},{"rt":1297,"stimulus":"\n                    <p><b>Action: <em>avoid</em></b></p>\n                    <p>This is the bee that you just saw.</p>\n                    <img src=\"bees-with-color/bee-B2DM.svg\" width=\"200\">\n                    <p><span class=\"redText\">Bad choice,</span> the bee was friendly.<br>Your bonus pay is unchanged, and remains at $0.44.</p>\n            ","response":0,"trial_type":"html-button-response","trial_index":30,"time_elapsed":212575,"internal_node_id":"0.0-4.0-1.11","subject_id":"5f64b5eed3b0d9015f58920c","study_id":"60edd13110225f80f9f3709b","session_id":"6196c708a6e6e6cf2c135eff","condition":"full-information","relevant_dimensions":["antennae","legs"],"bee_group":{"antennae":"B","wings":"X","pattern":"X","legs":"F"},"bonus":0.20000000000000095},{"rt":1158,"stimulus":"bees-with-color/bee-B1SM.svg","response":0,"trial_type":"image-button-response","trial_index":31,"time_elapsed":213735,"internal_node_id":"0.0-4.0-0.12","subject_id":"5f64b5eed3b0d9015f58920c","study_id":"60edd13110225f80f9f3709b","session_id":"6196c708a6e6e6cf2c135eff","condition":"full-information","relevant_dimensions":["antennae","legs"],"bee_group":{"antennae":"B","wings":"X","pattern":"X","legs":"F"},"action":"harvest","summary":"good-harvest","bonus":0.20000000000000095},{"rt":726,"stimulus":"\n                    <p><b>Action: <em>harvest</em></b></p>\n                    <p>This is the bee that you just saw.</p>\n                    <img src=\"bees-with-color/bee-B1SM.svg\" width=\"200\">\n                    <p><span class=\"greenText\"><b>Successful harvest!</b></span><br>Your pay has increased by $0.02. Your bonus pay is now $0.46.</p>\n            ","response":0,"trial_type":"html-button-response","trial_index":32,"time_elapsed":214461,"internal_node_id":"0.0-4.0-1.12","subject_id":"5f64b5eed3b0d9015f58920c","study_id":"60edd13110225f80f9f3709b","session_id":"6196c708a6e6e6cf2c135eff","condition":"full-information","relevant_dimensions":["antennae","legs"],"bee_group":{"antennae":"B","wings":"X","pattern":"X","legs":"F"},"bonus":0.20000000000000095},{"rt":1090,"stimulus":"bees-with-color/bee-B1SF.svg","response":1,"trial_type":"image-button-response","trial_index":33,"time_elapsed":215552,"internal_node_id":"0.0-4.0-0.13","subject_id":"5f64b5eed3b0d9015f58920c","study_id":"60edd13110225f80f9f3709b","session_id":"6196c708a6e6e6cf2c135eff","condition":"full-information","relevant_dimensions":["antennae","legs"],"bee_group":{"antennae":"B","wings":"X","pattern":"X","legs":"F"},"action":"avoid","summary":"good-avoid","bonus":0.20000000000000095},{"rt":1214,"stimulus":"\n                    <p><b>Action: <em>avoid</em></b></p>\n                    <p>This is the bee that you just saw.</p>\n                    <img src=\"bees-with-color/bee-B1SF.svg\" width=\"200\">\n                    <p><span class=\"greenText\">Good choice!</span>  This bee would have stung you.<br>Your bonus pay is unchanged, and remains at $0.46.</p>\n            ","response":0,"trial_type":"html-button-response","trial_index":34,"time_elapsed":216768,"internal_node_id":"0.0-4.0-1.13","subject_id":"5f64b5eed3b0d9015f58920c","study_id":"60edd13110225f80f9f3709b","session_id":"6196c708a6e6e6cf2c135eff","condition":"full-information","relevant_dimensions":["antennae","legs"],"bee_group":{"antennae":"B","wings":"X","pattern":"X","legs":"F"},"bonus":0.20000000000000095},{"rt":1250,"stimulus":"bees-with-color/bee-A1SM.svg","response":0,"trial_type":"image-button-response","trial_index":35,"time_elapsed":218018,"internal_node_id":"0.0-4.0-0.14","subject_id":"5f64b5eed3b0d9015f58920c","study_id":"60edd13110225f80f9f3709b","session_id":"6196c708a6e6e6cf2c135eff","condition":"full-information","relevant_dimensions":["antennae","legs"],"bee_group":{"antennae":"B","wings":"X","pattern":"X","legs":"F"},"action":"harvest","summary":"good-harvest","bonus":0.20000000000000095},{"rt":934,"stimulus":"\n                    <p><b>Action: <em>harvest</em></b></p>\n                    <p>This is the bee that you just saw.</p>\n                    <img src=\"bees-with-color/bee-A1SM.svg\" width=\"200\">\n                    <p><span class=\"greenText\"><b>Successful harvest!</b></span><br>Your pay has increased by $0.02. Your bonus pay is now $0.48.</p>\n            ","response":0,"trial_type":"html-button-response","trial_index":36,"time_elapsed":218954,"internal_node_id":"0.0-4.0-1.14","subject_id":"5f64b5eed3b0d9015f58920c","study_id":"60edd13110225f80f9f3709b","session_id":"6196c708a6e6e6cf2c135eff","condition":"full-information","relevant_dimensions":["antennae","legs"],"bee_group":{"antennae":"B","wings":"X","pattern":"X","legs":"F"},"bonus":0.20000000000000095},{"rt":1107,"stimulus":"bees-with-color/bee-A2SM.svg","response":1,"trial_type":"image-button-response","trial_index":37,"time_elapsed":220061,"internal_node_id":"0.0-4.0-0.15","subject_id":"5f64b5eed3b0d9015f58920c","study_id":"60edd13110225f80f9f3709b","session_id":"6196c708a6e6e6cf2c135eff","condition":"full-information","relevant_dimensions":["antennae","legs"],"bee_group":{"antennae":"B","wings":"X","pattern":"X","legs":"F"},"action":"avoid","summary":"bad-avoid","bonus":0.20000000000000095},{"rt":842,"stimulus":"\n                    <p><b>Action: <em>avoid</em></b></p>\n                    <p>This is the bee that you just saw.</p>\n                    <img src=\"bees-with-color/bee-A2SM.svg\" width=\"200\">\n                    <p><span class=\"redText\">Bad choice,</span> the bee was friendly.<br>Your bonus pay is unchanged, and remains at $0.48.</p>\n            ","response":0,"trial_type":"html-button-response","trial_index":38,"time_elapsed":220904,"internal_node_id":"0.0-4.0-1.15","subject_id":"5f64b5eed3b0d9015f58920c","study_id":"60edd13110225f80f9f3709b","session_id":"6196c708a6e6e6cf2c135eff","condition":"full-information","relevant_dimensions":["antennae","legs"],"bee_group":{"antennae":"B","wings":"X","pattern":"X","legs":"F"},"bonus":0.20000000000000095},{"rt":1702,"stimulus":"bees-with-color/bee-B1SF.svg","response":0,"trial_type":"image-button-response","trial_index":39,"time_elapsed":222609,"internal_node_id":"0.0-4.0-0.16","subject_id":"5f64b5eed3b0d9015f58920c","study_id":"60edd13110225f80f9f3709b","session_id":"6196c708a6e6e6cf2c135eff","condition":"full-information","relevant_dimensions":["antennae","legs"],"bee_group":{"antennae":"B","wings":"X","pattern":"X","legs":"F"},"action":"harvest","summary":"bad-harvest","bonus":0.20000000000000095},{"rt":865,"stimulus":"\n                    <p><b>Action: <em>harvest</em></b></p>\n                    <p>This is the bee that you just saw.</p>\n                    <img src=\"bees-with-color/bee-B1SF.svg\" width=\"200\">\n                    <p><span class=\"redText\">Bad choice, the bee was angry.</span><br><b>You have been stung!</b><br>Your pay has been decreased by $0.10. Your bonus pay is now $0.38.</p>\n            ","response":0,"trial_type":"html-button-response","trial_index":40,"time_elapsed":223474,"internal_node_id":"0.0-4.0-1.16","subject_id":"5f64b5eed3b0d9015f58920c","study_id":"60edd13110225f80f9f3709b","session_id":"6196c708a6e6e6cf2c135eff","condition":"full-information","relevant_dimensions":["antennae","legs"],"bee_group":{"antennae":"B","wings":"X","pattern":"X","legs":"F"},"bonus":0.20000000000000095},{"rt":1080,"stimulus":"bees-with-color/bee-B2DM.svg","response":0,"trial_type":"image-button-response","trial_index":41,"time_elapsed":224555,"internal_node_id":"0.0-4.0-0.17","subject_id":"5f64b5eed3b0d9015f58920c","study_id":"60edd13110225f80f9f3709b","session_id":"6196c708a6e6e6cf2c135eff","condition":"full-information","relevant_dimensions":["antennae","legs"],"bee_group":{"antennae":"B","wings":"X","pattern":"X","legs":"F"},"action":"harvest","summary":"good-harvest","bonus":0.20000000000000095},{"rt":1038,"stimulus":"\n                    <p><b>Action: <em>harvest</em></b></p>\n                    <p>This is the bee that you just saw.</p>\n                    <img src=\"bees-with-color/bee-B2DM.svg\" width=\"200\">\n                    <p><span class=\"greenText\"><b>Successful harvest!</b></span><br>Your pay has increased by $0.02. Your bonus pay is now $0.40.</p>\n            ","response":0,"trial_type":"html-button-response","trial_index":42,"time_elapsed":225595,"internal_node_id":"0.0-4.0-1.17","subject_id":"5f64b5eed3b0d9015f58920c","study_id":"60edd13110225f80f9f3709b","session_id":"6196c708a6e6e6cf2c135eff","condition":"full-information","relevant_dimensions":["antennae","legs"],"bee_group":{"antennae":"B","wings":"X","pattern":"X","legs":"F"},"bonus":0.20000000000000095},{"rt":2281,"stimulus":"bees-with-color/bee-B1SM.svg","response":1,"trial_type":"image-button-response","trial_index":43,"time_elapsed":227877,"internal_node_id":"0.0-4.0-0.18","subject_id":"5f64b5eed3b0d9015f58920c","study_id":"60edd13110225f80f9f3709b","session_id":"6196c708a6e6e6cf2c135eff","condition":"full-information","relevant_dimensions":["antennae","legs"],"bee_group":{"antennae":"B","wings":"X","pattern":"X","legs":"F"},"action":"avoid","summary":"bad-avoid","bonus":0.20000000000000095},{"rt":997,"stimulus":"\n                    <p><b>Action: <em>avoid</em></b></p>\n                    <p>This is the bee that you just saw.</p>\n                    <img src=\"bees-with-color/bee-B1SM.svg\" width=\"200\">\n                    <p><span class=\"redText\">Bad choice,</span> the bee was friendly.<br>Your bonus pay is unchanged, and remains at $0.40.</p>\n            ","response":0,"trial_type":"html-button-response","trial_index":44,"time_elapsed":228875,"internal_node_id":"0.0-4.0-1.18","subject_id":"5f64b5eed3b0d9015f58920c","study_id":"60edd13110225f80f9f3709b","session_id":"6196c708a6e6e6cf2c135eff","condition":"full-information","relevant_dimensions":["antennae","legs"],"bee_group":{"antennae":"B","wings":"X","pattern":"X","legs":"F"},"bonus":0.20000000000000095},{"rt":1032,"stimulus":"bees-with-color/bee-A1DF.svg","response":1,"trial_type":"image-button-response","trial_index":45,"time_elapsed":229909,"internal_node_id":"0.0-4.0-0.19","subject_id":"5f64b5eed3b0d9015f58920c","study_id":"60edd13110225f80f9f3709b","session_id":"6196c708a6e6e6cf2c135eff","condition":"full-information","relevant_dimensions":["antennae","legs"],"bee_group":{"antennae":"B","wings":"X","pattern":"X","legs":"F"},"action":"avoid","summary":"bad-avoid","bonus":0.20000000000000095},{"rt":614,"stimulus":"\n                    <p><b>Action: <em>avoid</em></b></p>\n                    <p>This is the bee that you just saw.</p>\n                    <img src=\"bees-with-color/bee-A1DF.svg\" width=\"200\">\n                    <p><span class=\"redText\">Bad choice,</span> the bee was friendly.<br>Your bonus pay is unchanged, and remains at $0.40.</p>\n            ","response":0,"trial_type":"html-button-response","trial_index":46,"time_elapsed":230524,"internal_node_id":"0.0-4.0-1.19","subject_id":"5f64b5eed3b0d9015f58920c","study_id":"60edd13110225f80f9f3709b","session_id":"6196c708a6e6e6cf2c135eff","condition":"full-information","relevant_dimensions":["antennae","legs"],"bee_group":{"antennae":"B","wings":"X","pattern":"X","legs":"F"},"bonus":0.20000000000000095},{"rt":749,"stimulus":"bees-with-color/bee-B2SM.svg","response":0,"trial_type":"image-button-response","trial_index":47,"time_elapsed":231274,"internal_node_id":"0.0-4.0-0.20","subject_id":"5f64b5eed3b0d9015f58920c","study_id":"60edd13110225f80f9f3709b","session_id":"6196c708a6e6e6cf2c135eff","condition":"full-information","relevant_dimensions":["antennae","legs"],"bee_group":{"antennae":"B","wings":"X","pattern":"X","legs":"F"},"action":"harvest","summary":"good-harvest","bonus":0.20000000000000095},{"rt":665,"stimulus":"\n                    <p><b>Action: <em>harvest</em></b></p>\n                    <p>This is the bee that you just saw.</p>\n                    <img src=\"bees-with-color/bee-B2SM.svg\" width=\"200\">\n                    <p><span class=\"greenText\"><b>Successful harvest!</b></span><br>Your pay has increased by $0.02. Your bonus pay is now $0.42.</p>\n            ","response":0,"trial_type":"html-button-response","trial_index":48,"time_elapsed":231941,"internal_node_id":"0.0-4.0-1.20","subject_id":"5f64b5eed3b0d9015f58920c","study_id":"60edd13110225f80f9f3709b","session_id":"6196c708a6e6e6cf2c135eff","condition":"full-information","relevant_dimensions":["antennae","legs"],"bee_group":{"antennae":"B","wings":"X","pattern":"X","legs":"F"},"bonus":0.20000000000000095},{"rt":1420,"stimulus":"bees-with-color/bee-A2DM.svg","response":0,"trial_type":"image-button-response","trial_index":49,"time_elapsed":233362,"internal_node_id":"0.0-4.0-0.21","subject_id":"5f64b5eed3b0d9015f58920c","study_id":"60edd13110225f80f9f3709b","session_id":"6196c708a6e6e6cf2c135eff","condition":"full-information","relevant_dimensions":["antennae","legs"],"bee_group":{"antennae":"B","wings":"X","pattern":"X","legs":"F"},"action":"harvest","summary":"good-harvest","bonus":0.20000000000000095},{"rt":617,"stimulus":"\n                    <p><b>Action: <em>harvest</em></b></p>\n                    <p>This is the bee that you just saw.</p>\n                    <img src=\"bees-with-color/bee-A2DM.svg\" width=\"200\">\n                    <p><span class=\"greenText\"><b>Successful harvest!</b></span><br>Your pay has increased by $0.02. Your bonus pay is now $0.44.</p>\n            ","response":0,"trial_type":"html-button-response","trial_index":50,"time_elapsed":233980,"internal_node_id":"0.0-4.0-1.21","subject_id":"5f64b5eed3b0d9015f58920c","study_id":"60edd13110225f80f9f3709b","session_id":"6196c708a6e6e6cf2c135eff","condition":"full-information","relevant_dimensions":["antennae","legs"],"bee_group":{"antennae":"B","wings":"X","pattern":"X","legs":"F"},"bonus":0.20000000000000095},{"rt":1345,"stimulus":"bees-with-color/bee-B2DF.svg","response":0,"trial_type":"image-button-response","trial_index":51,"time_elapsed":235327,"internal_node_id":"0.0-4.0-0.22","subject_id":"5f64b5eed3b0d9015f58920c","study_id":"60edd13110225f80f9f3709b","session_id":"6196c708a6e6e6cf2c135eff","condition":"full-information","relevant_dimensions":["antennae","legs"],"bee_group":{"antennae":"B","wings":"X","pattern":"X","legs":"F"},"action":"harvest","summary":"bad-harvest","bonus":0.20000000000000095},{"rt":717,"stimulus":"\n                    <p><b>Action: <em>harvest</em></b></p>\n                    <p>This is the bee that you just saw.</p>\n                    <img src=\"bees-with-color/bee-B2DF.svg\" width=\"200\">\n                    <p><span class=\"redText\">Bad choice, the bee was angry.</span><br><b>You have been stung!</b><br>Your pay has been decreased by $0.10. Your bonus pay is now $0.34.</p>\n            ","response":0,"trial_type":"html-button-response","trial_index":52,"time_elapsed":236046,"internal_node_id":"0.0-4.0-1.22","subject_id":"5f64b5eed3b0d9015f58920c","study_id":"60edd13110225f80f9f3709b","session_id":"6196c708a6e6e6cf2c135eff","condition":"full-information","relevant_dimensions":["antennae","legs"],"bee_group":{"antennae":"B","wings":"X","pattern":"X","legs":"F"},"bonus":0.20000000000000095},{"rt":990,"stimulus":"bees-with-color/bee-A1SM.svg","response":0,"trial_type":"image-button-response","trial_index":53,"time_elapsed":237038,"internal_node_id":"0.0-4.0-0.23","subject_id":"5f64b5eed3b0d9015f58920c","study_id":"60edd13110225f80f9f3709b","session_id":"6196c708a6e6e6cf2c135eff","condition":"full-information","relevant_dimensions":["antennae","legs"],"bee_group":{"antennae":"B","wings":"X","pattern":"X","legs":"F"},"action":"harvest","summary":"good-harvest","bonus":0.20000000000000095},{"rt":604,"stimulus":"\n                    <p><b>Action: <em>harvest</em></b></p>\n                    <p>This is the bee that you just saw.</p>\n                    <img src=\"bees-with-color/bee-A1SM.svg\" width=\"200\">\n                    <p><span class=\"greenText\"><b>Successful harvest!</b></span><br>Your pay has increased by $0.02. Your bonus pay is now $0.36.</p>\n            ","response":0,"trial_type":"html-button-response","trial_index":54,"time_elapsed":237643,"internal_node_id":"0.0-4.0-1.23","subject_id":"5f64b5eed3b0d9015f58920c","study_id":"60edd13110225f80f9f3709b","session_id":"6196c708a6e6e6cf2c135eff","condition":"full-information","relevant_dimensions":["antennae","legs"],"bee_group":{"antennae":"B","wings":"X","pattern":"X","legs":"F"},"bonus":0.20000000000000095},{"rt":2108,"stimulus":"bees-with-color/bee-A1SF.svg","response":0,"trial_type":"image-button-response","trial_index":55,"time_elapsed":239751,"internal_node_id":"0.0-4.0-0.24","subject_id":"5f64b5eed3b0d9015f58920c","study_id":"60edd13110225f80f9f3709b","session_id":"6196c708a6e6e6cf2c135eff","condition":"full-information","relevant_dimensions":["antennae","legs"],"bee_group":{"antennae":"B","wings":"X","pattern":"X","legs":"F"},"action":"harvest","summary":"good-harvest","bonus":0.20000000000000095},{"rt":897,"stimulus":"\n                    <p><b>Action: <em>harvest</em></b></p>\n                    <p>This is the bee that you just saw.</p>\n                    <img src=\"bees-with-color/bee-A1SF.svg\" width=\"200\">\n                    <p><span class=\"greenText\"><b>Successful harvest!</b></span><br>Your pay has increased by $0.02. Your bonus pay is now $0.38.</p>\n            ","response":0,"trial_type":"html-button-response","trial_index":56,"time_elapsed":240649,"internal_node_id":"0.0-4.0-1.24","subject_id":"5f64b5eed3b0d9015f58920c","study_id":"60edd13110225f80f9f3709b","session_id":"6196c708a6e6e6cf2c135eff","condition":"full-information","relevant_dimensions":["antennae","legs"],"bee_group":{"antennae":"B","wings":"X","pattern":"X","legs":"F"},"bonus":0.20000000000000095},{"rt":1091,"stimulus":"bees-with-color/bee-B1DF.svg","response":1,"trial_type":"image-button-response","trial_index":57,"time_elapsed":241742,"internal_node_id":"0.0-4.0-0.25","subject_id":"5f64b5eed3b0d9015f58920c","study_id":"60edd13110225f80f9f3709b","session_id":"6196c708a6e6e6cf2c135eff","condition":"full-information","relevant_dimensions":["antennae","legs"],"bee_group":{"antennae":"B","wings":"X","pattern":"X","legs":"F"},"action":"avoid","summary":"good-avoid","bonus":0.20000000000000095},{"rt":1175,"stimulus":"\n                    <p><b>Action: <em>avoid</em></b></p>\n                    <p>This is the bee that you just saw.</p>\n                    <img src=\"bees-with-color/bee-B1DF.svg\" width=\"200\">\n                    <p><span class=\"greenText\">Good choice!</span>  This bee would have stung you.<br>Your bonus pay is unchanged, and remains at $0.38.</p>\n            ","response":0,"trial_type":"html-button-response","trial_index":58,"time_elapsed":242916,"internal_node_id":"0.0-4.0-1.25","subject_id":"5f64b5eed3b0d9015f58920c","study_id":"60edd13110225f80f9f3709b","session_id":"6196c708a6e6e6cf2c135eff","condition":"full-information","relevant_dimensions":["antennae","legs"],"bee_group":{"antennae":"B","wings":"X","pattern":"X","legs":"F"},"bonus":0.20000000000000095},{"rt":1520,"stimulus":"bees-with-color/bee-A2SF.svg","response":1,"trial_type":"image-button-response","trial_index":59,"time_elapsed":244439,"internal_node_id":"0.0-4.0-0.26","subject_id":"5f64b5eed3b0d9015f58920c","study_id":"60edd13110225f80f9f3709b","session_id":"6196c708a6e6e6cf2c135eff","condition":"full-information","relevant_dimensions":["antennae","legs"],"bee_group":{"antennae":"B","wings":"X","pattern":"X","legs":"F"},"action":"avoid","summary":"bad-avoid","bonus":0.20000000000000095},{"rt":916,"stimulus":"\n                    <p><b>Action: <em>avoid</em></b></p>\n                    <p>This is the bee that you just saw.</p>\n                    <img src=\"bees-with-color/bee-A2SF.svg\" width=\"200\">\n                    <p><span class=\"redText\">Bad choice,</span> the bee was friendly.<br>Your bonus pay is unchanged, and remains at $0.38.</p>\n            ","response":0,"trial_type":"html-button-response","trial_index":60,"time_elapsed":245357,"internal_node_id":"0.0-4.0-1.26","subject_id":"5f64b5eed3b0d9015f58920c","study_id":"60edd13110225f80f9f3709b","session_id":"6196c708a6e6e6cf2c135eff","condition":"full-information","relevant_dimensions":["antennae","legs"],"bee_group":{"antennae":"B","wings":"X","pattern":"X","legs":"F"},"bonus":0.20000000000000095},{"rt":953,"stimulus":"bees-with-color/bee-A2SM.svg","response":1,"trial_type":"image-button-response","trial_index":61,"time_elapsed":246310,"internal_node_id":"0.0-4.0-0.27","subject_id":"5f64b5eed3b0d9015f58920c","study_id":"60edd13110225f80f9f3709b","session_id":"6196c708a6e6e6cf2c135eff","condition":"full-information","relevant_dimensions":["antennae","legs"],"bee_group":{"antennae":"B","wings":"X","pattern":"X","legs":"F"},"action":"avoid","summary":"bad-avoid","bonus":0.20000000000000095},{"rt":531,"stimulus":"\n                    <p><b>Action: <em>avoid</em></b></p>\n                    <p>This is the bee that you just saw.</p>\n                    <img src=\"bees-with-color/bee-A2SM.svg\" width=\"200\">\n                    <p><span class=\"redText\">Bad choice,</span> the bee was friendly.<br>Your bonus pay is unchanged, and remains at $0.38.</p>\n            ","response":0,"trial_type":"html-button-response","trial_index":62,"time_elapsed":246842,"internal_node_id":"0.0-4.0-1.27","subject_id":"5f64b5eed3b0d9015f58920c","study_id":"60edd13110225f80f9f3709b","session_id":"6196c708a6e6e6cf2c135eff","condition":"full-information","relevant_dimensions":["antennae","legs"],"bee_group":{"antennae":"B","wings":"X","pattern":"X","legs":"F"},"bonus":0.20000000000000095},{"rt":999,"stimulus":"bees-with-color/bee-A1DM.svg","response":1,"trial_type":"image-button-response","trial_index":63,"time_elapsed":247844,"internal_node_id":"0.0-4.0-0.28","subject_id":"5f64b5eed3b0d9015f58920c","study_id":"60edd13110225f80f9f3709b","session_id":"6196c708a6e6e6cf2c135eff","condition":"full-information","relevant_dimensions":["antennae","legs"],"bee_group":{"antennae":"B","wings":"X","pattern":"X","legs":"F"},"action":"avoid","summary":"bad-avoid","bonus":0.20000000000000095},{"rt":505,"stimulus":"\n                    <p><b>Action: <em>avoid</em></b></p>\n                    <p>This is the bee that you just saw.</p>\n                    <img src=\"bees-with-color/bee-A1DM.svg\" width=\"200\">\n                    <p><span class=\"redText\">Bad choice,</span> the bee was friendly.<br>Your bonus pay is unchanged, and remains at $0.38.</p>\n            ","response":0,"trial_type":"html-button-response","trial_index":64,"time_elapsed":248350,"internal_node_id":"0.0-4.0-1.28","subject_id":"5f64b5eed3b0d9015f58920c","study_id":"60edd13110225f80f9f3709b","session_id":"6196c708a6e6e6cf2c135eff","condition":"full-information","relevant_dimensions":["antennae","legs"],"bee_group":{"antennae":"B","wings":"X","pattern":"X","legs":"F"},"bonus":0.20000000000000095},{"rt":677,"stimulus":"bees-with-color/bee-A2DF.svg","response":0,"trial_type":"image-button-response","trial_index":65,"time_elapsed":249029,"internal_node_id":"0.0-4.0-0.29","subject_id":"5f64b5eed3b0d9015f58920c","study_id":"60edd13110225f80f9f3709b","session_id":"6196c708a6e6e6cf2c135eff","condition":"full-information","relevant_dimensions":["antennae","legs"],"bee_group":{"antennae":"B","wings":"X","pattern":"X","legs":"F"},"action":"harvest","summary":"good-harvest","bonus":0.20000000000000095},{"rt":481,"stimulus":"\n                    <p><b>Action: <em>harvest</em></b></p>\n                    <p>This is the bee that you just saw.</p>\n                    <img src=\"bees-with-color/bee-A2DF.svg\" width=\"200\">\n                    <p><span class=\"greenText\"><b>Successful harvest!</b></span><br>Your pay has increased by $0.02. Your bonus pay is now $0.40.</p>\n            ","response":0,"trial_type":"html-button-response","trial_index":66,"time_elapsed":249512,"internal_node_id":"0.0-4.0-1.29","subject_id":"5f64b5eed3b0d9015f58920c","study_id":"60edd13110225f80f9f3709b","session_id":"6196c708a6e6e6cf2c135eff","condition":"full-information","relevant_dimensions":["antennae","legs"],"bee_group":{"antennae":"B","wings":"X","pattern":"X","legs":"F"},"bonus":0.20000000000000095},{"rt":1265,"stimulus":"bees-with-color/bee-B2SF.svg","response":1,"trial_type":"image-button-response","trial_index":67,"time_elapsed":250779,"internal_node_id":"0.0-4.0-0.30","subject_id":"5f64b5eed3b0d9015f58920c","study_id":"60edd13110225f80f9f3709b","session_id":"6196c708a6e6e6cf2c135eff","condition":"full-information","relevant_dimensions":["antennae","legs"],"bee_group":{"antennae":"B","wings":"X","pattern":"X","legs":"F"},"action":"avoid","summary":"good-avoid","bonus":0.20000000000000095},{"rt":578,"stimulus":"\n                    <p><b>Action: <em>avoid</em></b></p>\n                    <p>This is the bee that you just saw.</p>\n                    <img src=\"bees-with-color/bee-B2SF.svg\" width=\"200\">\n                    <p><span class=\"greenText\">Good choice!</span>  This bee would have stung you.<br>Your bonus pay is unchanged, and remains at $0.40.</p>\n            ","response":0,"trial_type":"html-button-response","trial_index":68,"time_elapsed":251359,"internal_node_id":"0.0-4.0-1.30","subject_id":"5f64b5eed3b0d9015f58920c","study_id":"60edd13110225f80f9f3709b","session_id":"6196c708a6e6e6cf2c135eff","condition":"full-information","relevant_dimensions":["antennae","legs"],"bee_group":{"antennae":"B","wings":"X","pattern":"X","legs":"F"},"bonus":0.20000000000000095},{"rt":2003,"stimulus":"bees-with-color/bee-B1DM.svg","response":1,"trial_type":"image-button-response","trial_index":69,"time_elapsed":253361,"internal_node_id":"0.0-4.0-0.31","subject_id":"5f64b5eed3b0d9015f58920c","study_id":"60edd13110225f80f9f3709b","session_id":"6196c708a6e6e6cf2c135eff","condition":"full-information","relevant_dimensions":["antennae","legs"],"bee_group":{"antennae":"B","wings":"X","pattern":"X","legs":"F"},"action":"avoid","summary":"bad-avoid","bonus":0.20000000000000095},{"rt":598,"stimulus":"\n                    <p><b>Action: <em>avoid</em></b></p>\n                    <p>This is the bee that you just saw.</p>\n                    <img src=\"bees-with-color/bee-B1DM.svg\" width=\"200\">\n                    <p><span class=\"redText\">Bad choice,</span> the bee was friendly.<br>Your bonus pay is unchanged, and remains at $0.40.</p>\n            ","response":0,"trial_type":"html-button-response","trial_index":70,"time_elapsed":253961,"internal_node_id":"0.0-4.0-1.31","subject_id":"5f64b5eed3b0d9015f58920c","study_id":"60edd13110225f80f9f3709b","session_id":"6196c708a6e6e6cf2c135eff","condition":"full-information","relevant_dimensions":["antennae","legs"],"bee_group":{"antennae":"B","wings":"X","pattern":"X","legs":"F"},"bonus":0.20000000000000095},{"rt":638,"stimulus":"bees-with-color/bee-A2SM.svg","response":0,"trial_type":"image-button-response","trial_index":71,"time_elapsed":254600,"internal_node_id":"0.0-4.0-0.32","subject_id":"5f64b5eed3b0d9015f58920c","study_id":"60edd13110225f80f9f3709b","session_id":"6196c708a6e6e6cf2c135eff","condition":"full-information","relevant_dimensions":["antennae","legs"],"bee_group":{"antennae":"B","wings":"X","pattern":"X","legs":"F"},"action":"harvest","summary":"good-harvest","bonus":0.20000000000000095},{"rt":551,"stimulus":"\n                    <p><b>Action: <em>harvest</em></b></p>\n                    <p>This is the bee that you just saw.</p>\n                    <img src=\"bees-with-color/bee-A2SM.svg\" width=\"200\">\n                    <p><span class=\"greenText\"><b>Successful harvest!</b></span><br>Your pay has increased by $0.02. Your bonus pay is now $0.42.</p>\n            ","response":0,"trial_type":"html-button-response","trial_index":72,"time_elapsed":255152,"internal_node_id":"0.0-4.0-1.32","subject_id":"5f64b5eed3b0d9015f58920c","study_id":"60edd13110225f80f9f3709b","session_id":"6196c708a6e6e6cf2c135eff","condition":"full-information","relevant_dimensions":["antennae","legs"],"bee_group":{"antennae":"B","wings":"X","pattern":"X","legs":"F"},"bonus":0.20000000000000095},{"rt":1329,"stimulus":"bees-with-color/bee-A1SF.svg","response":1,"trial_type":"image-button-response","trial_index":73,"time_elapsed":256483,"internal_node_id":"0.0-4.0-0.33","subject_id":"5f64b5eed3b0d9015f58920c","study_id":"60edd13110225f80f9f3709b","session_id":"6196c708a6e6e6cf2c135eff","condition":"full-information","relevant_dimensions":["antennae","legs"],"bee_group":{"antennae":"B","wings":"X","pattern":"X","legs":"F"},"action":"avoid","summary":"bad-avoid","bonus":0.20000000000000095},{"rt":638,"stimulus":"\n                    <p><b>Action: <em>avoid</em></b></p>\n                    <p>This is the bee that you just saw.</p>\n                    <img src=\"bees-with-color/bee-A1SF.svg\" width=\"200\">\n                    <p><span class=\"redText\">Bad choice,</span> the bee was friendly.<br>Your bonus pay is unchanged, and remains at $0.42.</p>\n            ","response":0,"trial_type":"html-button-response","trial_index":74,"time_elapsed":257122,"internal_node_id":"0.0-4.0-1.33","subject_id":"5f64b5eed3b0d9015f58920c","study_id":"60edd13110225f80f9f3709b","session_id":"6196c708a6e6e6cf2c135eff","condition":"full-information","relevant_dimensions":["antennae","legs"],"bee_group":{"antennae":"B","wings":"X","pattern":"X","legs":"F"},"bonus":0.20000000000000095},{"rt":1955,"stimulus":"bees-with-color/bee-B2DF.svg","response":0,"trial_type":"image-button-response","trial_index":75,"time_elapsed":259080,"internal_node_id":"0.0-4.0-0.34","subject_id":"5f64b5eed3b0d9015f58920c","study_id":"60edd13110225f80f9f3709b","session_id":"6196c708a6e6e6cf2c135eff","condition":"full-information","relevant_dimensions":["antennae","legs"],"bee_group":{"antennae":"B","wings":"X","pattern":"X","legs":"F"},"action":"harvest","summary":"bad-harvest","bonus":0.20000000000000095},{"rt":597,"stimulus":"\n                    <p><b>Action: <em>harvest</em></b></p>\n                    <p>This is the bee that you just saw.</p>\n                    <img src=\"bees-with-color/bee-B2DF.svg\" width=\"200\">\n                    <p><span class=\"redText\">Bad choice, the bee was angry.</span><br><b>You have been stung!</b><br>Your pay has been decreased by $0.10. Your bonus pay is now $0.32.</p>\n            ","response":0,"trial_type":"html-button-response","trial_index":76,"time_elapsed":259677,"internal_node_id":"0.0-4.0-1.34","subject_id":"5f64b5eed3b0d9015f58920c","study_id":"60edd13110225f80f9f3709b","session_id":"6196c708a6e6e6cf2c135eff","condition":"full-information","relevant_dimensions":["antennae","legs"],"bee_group":{"antennae":"B","wings":"X","pattern":"X","legs":"F"},"bonus":0.20000000000000095},{"rt":1116,"stimulus":"bees-with-color/bee-A1DF.svg","response":0,"trial_type":"image-button-response","trial_index":77,"time_elapsed":260794,"internal_node_id":"0.0-4.0-0.35","subject_id":"5f64b5eed3b0d9015f58920c","study_id":"60edd13110225f80f9f3709b","session_id":"6196c708a6e6e6cf2c135eff","condition":"full-information","relevant_dimensions":["antennae","legs"],"bee_group":{"antennae":"B","wings":"X","pattern":"X","legs":"F"},"action":"harvest","summary":"good-harvest","bonus":0.20000000000000095},{"rt":744,"stimulus":"\n                    <p><b>Action: <em>harvest</em></b></p>\n                    <p>This is the bee that you just saw.</p>\n                    <img src=\"bees-with-color/bee-A1DF.svg\" width=\"200\">\n                    <p><span class=\"greenText\"><b>Successful harvest!</b></span><br>Your pay has increased by $0.02. Your bonus pay is now $0.34.</p>\n            ","response":0,"trial_type":"html-button-response","trial_index":78,"time_elapsed":261538,"internal_node_id":"0.0-4.0-1.35","subject_id":"5f64b5eed3b0d9015f58920c","study_id":"60edd13110225f80f9f3709b","session_id":"6196c708a6e6e6cf2c135eff","condition":"full-information","relevant_dimensions":["antennae","legs"],"bee_group":{"antennae":"B","wings":"X","pattern":"X","legs":"F"},"bonus":0.20000000000000095},{"rt":1610,"stimulus":"bees-with-color/bee-B1DM.svg","response":0,"trial_type":"image-button-response","trial_index":79,"time_elapsed":263150,"internal_node_id":"0.0-4.0-0.36","subject_id":"5f64b5eed3b0d9015f58920c","study_id":"60edd13110225f80f9f3709b","session_id":"6196c708a6e6e6cf2c135eff","condition":"full-information","relevant_dimensions":["antennae","legs"],"bee_group":{"antennae":"B","wings":"X","pattern":"X","legs":"F"},"action":"harvest","summary":"good-harvest","bonus":0.20000000000000095},{"rt":613,"stimulus":"\n                    <p><b>Action: <em>harvest</em></b></p>\n                    <p>This is the bee that you just saw.</p>\n                    <img src=\"bees-with-color/bee-B1DM.svg\" width=\"200\">\n                    <p><span class=\"greenText\"><b>Successful harvest!</b></span><br>Your pay has increased by $0.02. Your bonus pay is now $0.36.</p>\n            ","response":0,"trial_type":"html-button-response","trial_index":80,"time_elapsed":263766,"internal_node_id":"0.0-4.0-1.36","subject_id":"5f64b5eed3b0d9015f58920c","study_id":"60edd13110225f80f9f3709b","session_id":"6196c708a6e6e6cf2c135eff","condition":"full-information","relevant_dimensions":["antennae","legs"],"bee_group":{"antennae":"B","wings":"X","pattern":"X","legs":"F"},"bonus":0.20000000000000095},{"rt":1019,"stimulus":"bees-with-color/bee-B1SF.svg","response":1,"trial_type":"image-button-response","trial_index":81,"time_elapsed":264787,"internal_node_id":"0.0-4.0-0.37","subject_id":"5f64b5eed3b0d9015f58920c","study_id":"60edd13110225f80f9f3709b","session_id":"6196c708a6e6e6cf2c135eff","condition":"full-information","relevant_dimensions":["antennae","legs"],"bee_group":{"antennae":"B","wings":"X","pattern":"X","legs":"F"},"action":"avoid","summary":"good-avoid","bonus":0.20000000000000095},{"rt":584,"stimulus":"\n                    <p><b>Action: <em>avoid</em></b></p>\n                    <p>This is the bee that you just saw.</p>\n                    <img src=\"bees-with-color/bee-B1SF.svg\" width=\"200\">\n                    <p><span class=\"greenText\">Good choice!</span>  This bee would have stung you.<br>Your bonus pay is unchanged, and remains at $0.36.</p>\n            ","response":0,"trial_type":"html-button-response","trial_index":82,"time_elapsed":265372,"internal_node_id":"0.0-4.0-1.37","subject_id":"5f64b5eed3b0d9015f58920c","study_id":"60edd13110225f80f9f3709b","session_id":"6196c708a6e6e6cf2c135eff","condition":"full-information","relevant_dimensions":["antennae","legs"],"bee_group":{"antennae":"B","wings":"X","pattern":"X","legs":"F"},"bonus":0.20000000000000095},{"rt":967,"stimulus":"bees-with-color/bee-A1DM.svg","response":0,"trial_type":"image-button-response","trial_index":83,"time_elapsed":266340,"internal_node_id":"0.0-4.0-0.38","subject_id":"5f64b5eed3b0d9015f58920c","study_id":"60edd13110225f80f9f3709b","session_id":"6196c708a6e6e6cf2c135eff","condition":"full-information","relevant_dimensions":["antennae","legs"],"bee_group":{"antennae":"B","wings":"X","pattern":"X","legs":"F"},"action":"harvest","summary":"good-harvest","bonus":0.20000000000000095},{"rt":564,"stimulus":"\n                    <p><b>Action: <em>harvest</em></b></p>\n                    <p>This is the bee that you just saw.</p>\n                    <img src=\"bees-with-color/bee-A1DM.svg\" width=\"200\">\n                    <p><span class=\"greenText\"><b>Successful harvest!</b></span><br>Your pay has increased by $0.02. Your bonus pay is now $0.38.</p>\n            ","response":0,"trial_type":"html-button-response","trial_index":84,"time_elapsed":266906,"internal_node_id":"0.0-4.0-1.38","subject_id":"5f64b5eed3b0d9015f58920c","study_id":"60edd13110225f80f9f3709b","session_id":"6196c708a6e6e6cf2c135eff","condition":"full-information","relevant_dimensions":["antennae","legs"],"bee_group":{"antennae":"B","wings":"X","pattern":"X","legs":"F"},"bonus":0.20000000000000095},{"rt":1051,"stimulus":"bees-with-color/bee-A2DM.svg","response":0,"trial_type":"image-button-response","trial_index":85,"time_elapsed":267957,"internal_node_id":"0.0-4.0-0.39","subject_id":"5f64b5eed3b0d9015f58920c","study_id":"60edd13110225f80f9f3709b","session_id":"6196c708a6e6e6cf2c135eff","condition":"full-information","relevant_dimensions":["antennae","legs"],"bee_group":{"antennae":"B","wings":"X","pattern":"X","legs":"F"},"action":"harvest","summary":"good-harvest","bonus":0.20000000000000095},{"rt":504,"stimulus":"\n                    <p><b>Action: <em>harvest</em></b></p>\n                    <p>This is the bee that you just saw.</p>\n                    <img src=\"bees-with-color/bee-A2DM.svg\" width=\"200\">\n                    <p><span class=\"greenText\"><b>Successful harvest!</b></span><br>Your pay has increased by $0.02. Your bonus pay is now $0.40.</p>\n            ","response":0,"trial_type":"html-button-response","trial_index":86,"time_elapsed":268462,"internal_node_id":"0.0-4.0-1.39","subject_id":"5f64b5eed3b0d9015f58920c","study_id":"60edd13110225f80f9f3709b","session_id":"6196c708a6e6e6cf2c135eff","condition":"full-information","relevant_dimensions":["antennae","legs"],"bee_group":{"antennae":"B","wings":"X","pattern":"X","legs":"F"},"bonus":0.20000000000000095},{"rt":1381,"stimulus":"bees-with-color/bee-B1SM.svg","response":1,"trial_type":"image-button-response","trial_index":87,"time_elapsed":269843,"internal_node_id":"0.0-4.0-0.40","subject_id":"5f64b5eed3b0d9015f58920c","study_id":"60edd13110225f80f9f3709b","session_id":"6196c708a6e6e6cf2c135eff","condition":"full-information","relevant_dimensions":["antennae","legs"],"bee_group":{"antennae":"B","wings":"X","pattern":"X","legs":"F"},"action":"avoid","summary":"bad-avoid","bonus":0.20000000000000095},{"rt":648,"stimulus":"\n                    <p><b>Action: <em>avoid</em></b></p>\n                    <p>This is the bee that you just saw.</p>\n                    <img src=\"bees-with-color/bee-B1SM.svg\" width=\"200\">\n                    <p><span class=\"redText\">Bad choice,</span> the bee was friendly.<br>Your bonus pay is unchanged, and remains at $0.40.</p>\n            ","response":0,"trial_type":"html-button-response","trial_index":88,"time_elapsed":270493,"internal_node_id":"0.0-4.0-1.40","subject_id":"5f64b5eed3b0d9015f58920c","study_id":"60edd13110225f80f9f3709b","session_id":"6196c708a6e6e6cf2c135eff","condition":"full-information","relevant_dimensions":["antennae","legs"],"bee_group":{"antennae":"B","wings":"X","pattern":"X","legs":"F"},"bonus":0.20000000000000095},{"rt":976,"stimulus":"bees-with-color/bee-B2SM.svg","response":0,"trial_type":"image-button-response","trial_index":89,"time_elapsed":271469,"internal_node_id":"0.0-4.0-0.41","subject_id":"5f64b5eed3b0d9015f58920c","study_id":"60edd13110225f80f9f3709b","session_id":"6196c708a6e6e6cf2c135eff","condition":"full-information","relevant_dimensions":["antennae","legs"],"bee_group":{"antennae":"B","wings":"X","pattern":"X","legs":"F"},"action":"harvest","summary":"good-harvest","bonus":0.20000000000000095},{"rt":624,"stimulus":"\n                    <p><b>Action: <em>harvest</em></b></p>\n                    <p>This is the bee that you just saw.</p>\n                    <img src=\"bees-with-color/bee-B2SM.svg\" width=\"200\">\n                    <p><span class=\"greenText\"><b>Successful harvest!</b></span><br>Your pay has increased by $0.02. Your bonus pay is now $0.42.</p>\n            ","response":0,"trial_type":"html-button-response","trial_index":90,"time_elapsed":272096,"internal_node_id":"0.0-4.0-1.41","subject_id":"5f64b5eed3b0d9015f58920c","study_id":"60edd13110225f80f9f3709b","session_id":"6196c708a6e6e6cf2c135eff","condition":"full-information","relevant_dimensions":["antennae","legs"],"bee_group":{"antennae":"B","wings":"X","pattern":"X","legs":"F"},"bonus":0.20000000000000095},{"rt":1659,"stimulus":"bees-with-color/bee-A1SM.svg","response":0,"trial_type":"image-button-response","trial_index":91,"time_elapsed":273756,"internal_node_id":"0.0-4.0-0.42","subject_id":"5f64b5eed3b0d9015f58920c","study_id":"60edd13110225f80f9f3709b","session_id":"6196c708a6e6e6cf2c135eff","condition":"full-information","relevant_dimensions":["antennae","legs"],"bee_group":{"antennae":"B","wings":"X","pattern":"X","legs":"F"},"action":"harvest","summary":"good-harvest","bonus":0.20000000000000095},{"rt":930,"stimulus":"\n                    <p><b>Action: <em>harvest</em></b></p>\n                    <p>This is the bee that you just saw.</p>\n                    <img src=\"bees-with-color/bee-A1SM.svg\" width=\"200\">\n                    <p><span class=\"greenText\"><b>Successful harvest!</b></span><br>Your pay has increased by $0.02. Your bonus pay is now $0.44.</p>\n            ","response":0,"trial_type":"html-button-response","trial_index":92,"time_elapsed":274687,"internal_node_id":"0.0-4.0-1.42","subject_id":"5f64b5eed3b0d9015f58920c","study_id":"60edd13110225f80f9f3709b","session_id":"6196c708a6e6e6cf2c135eff","condition":"full-information","relevant_dimensions":["antennae","legs"],"bee_group":{"antennae":"B","wings":"X","pattern":"X","legs":"F"},"bonus":0.20000000000000095},{"rt":1968,"stimulus":"bees-with-color/bee-A2SF.svg","response":1,"trial_type":"image-button-response","trial_index":93,"time_elapsed":276657,"internal_node_id":"0.0-4.0-0.43","subject_id":"5f64b5eed3b0d9015f58920c","study_id":"60edd13110225f80f9f3709b","session_id":"6196c708a6e6e6cf2c135eff","condition":"full-information","relevant_dimensions":["antennae","legs"],"bee_group":{"antennae":"B","wings":"X","pattern":"X","legs":"F"},"action":"avoid","summary":"bad-avoid","bonus":0.20000000000000095},{"rt":672,"stimulus":"\n                    <p><b>Action: <em>avoid</em></b></p>\n                    <p>This is the bee that you just saw.</p>\n                    <img src=\"bees-with-color/bee-A2SF.svg\" width=\"200\">\n                    <p><span class=\"redText\">Bad choice,</span> the bee was friendly.<br>Your bonus pay is unchanged, and remains at $0.44.</p>\n            ","response":0,"trial_type":"html-button-response","trial_index":94,"time_elapsed":277329,"internal_node_id":"0.0-4.0-1.43","subject_id":"5f64b5eed3b0d9015f58920c","study_id":"60edd13110225f80f9f3709b","session_id":"6196c708a6e6e6cf2c135eff","condition":"full-information","relevant_dimensions":["antennae","legs"],"bee_group":{"antennae":"B","wings":"X","pattern":"X","legs":"F"},"bonus":0.20000000000000095},{"rt":876,"stimulus":"bees-with-color/bee-A2DF.svg","response":0,"trial_type":"image-button-response","trial_index":95,"time_elapsed":278206,"internal_node_id":"0.0-4.0-0.44","subject_id":"5f64b5eed3b0d9015f58920c","study_id":"60edd13110225f80f9f3709b","session_id":"6196c708a6e6e6cf2c135eff","condition":"full-information","relevant_dimensions":["antennae","legs"],"bee_group":{"antennae":"B","wings":"X","pattern":"X","legs":"F"},"action":"harvest","summary":"good-harvest","bonus":0.20000000000000095},{"rt":589,"stimulus":"\n                    <p><b>Action: <em>harvest</em></b></p>\n                    <p>This is the bee that you just saw.</p>\n                    <img src=\"bees-with-color/bee-A2DF.svg\" width=\"200\">\n                    <p><span class=\"greenText\"><b>Successful harvest!</b></span><br>Your pay has increased by $0.02. Your bonus pay is now $0.46.</p>\n            ","response":0,"trial_type":"html-button-response","trial_index":96,"time_elapsed":278797,"internal_node_id":"0.0-4.0-1.44","subject_id":"5f64b5eed3b0d9015f58920c","study_id":"60edd13110225f80f9f3709b","session_id":"6196c708a6e6e6cf2c135eff","condition":"full-information","relevant_dimensions":["antennae","legs"],"bee_group":{"antennae":"B","wings":"X","pattern":"X","legs":"F"},"bonus":0.20000000000000095},{"rt":7980,"stimulus":"bees-with-color/bee-B2SF.svg","response":0,"trial_type":"image-button-response","trial_index":97,"time_elapsed":286779,"internal_node_id":"0.0-4.0-0.45","subject_id":"5f64b5eed3b0d9015f58920c","study_id":"60edd13110225f80f9f3709b","session_id":"6196c708a6e6e6cf2c135eff","condition":"full-information","relevant_dimensions":["antennae","legs"],"bee_group":{"antennae":"B","wings":"X","pattern":"X","legs":"F"},"action":"harvest","summary":"bad-harvest","bonus":0.20000000000000095},{"rt":861,"stimulus":"\n                    <p><b>Action: <em>harvest</em></b></p>\n                    <p>This is the bee that you just saw.</p>\n                    <img src=\"bees-with-color/bee-B2SF.svg\" width=\"200\">\n                    <p><span class=\"redText\">Bad choice, the bee was angry.</span><br><b>You have been stung!</b><br>Your pay has been decreased by $0.10. Your bonus pay is now $0.36.</p>\n            ","response":0,"trial_type":"html-button-response","trial_index":98,"time_elapsed":287640,"internal_node_id":"0.0-4.0-1.45","subject_id":"5f64b5eed3b0d9015f58920c","study_id":"60edd13110225f80f9f3709b","session_id":"6196c708a6e6e6cf2c135eff","condition":"full-information","relevant_dimensions":["antennae","legs"],"bee_group":{"antennae":"B","wings":"X","pattern":"X","legs":"F"},"bonus":0.20000000000000095},{"rt":1795,"stimulus":"bees-with-color/bee-B2DM.svg","response":0,"trial_type":"image-button-response","trial_index":99,"time_elapsed":289436,"internal_node_id":"0.0-4.0-0.46","subject_id":"5f64b5eed3b0d9015f58920c","study_id":"60edd13110225f80f9f3709b","session_id":"6196c708a6e6e6cf2c135eff","condition":"full-information","relevant_dimensions":["antennae","legs"],"bee_group":{"antennae":"B","wings":"X","pattern":"X","legs":"F"},"action":"harvest","summary":"good-harvest","bonus":0.20000000000000095},{"rt":854,"stimulus":"\n                    <p><b>Action: <em>harvest</em></b></p>\n                    <p>This is the bee that you just saw.</p>\n                    <img src=\"bees-with-color/bee-B2DM.svg\" width=\"200\">\n                    <p><span class=\"greenText\"><b>Successful harvest!</b></span><br>Your pay has increased by $0.02. Your bonus pay is now $0.38.</p>\n            ","response":0,"trial_type":"html-button-response","trial_index":100,"time_elapsed":290293,"internal_node_id":"0.0-4.0-1.46","subject_id":"5f64b5eed3b0d9015f58920c","study_id":"60edd13110225f80f9f3709b","session_id":"6196c708a6e6e6cf2c135eff","condition":"full-information","relevant_dimensions":["antennae","legs"],"bee_group":{"antennae":"B","wings":"X","pattern":"X","legs":"F"},"bonus":0.20000000000000095},{"rt":1039,"stimulus":"bees-with-color/bee-B1DF.svg","response":1,"trial_type":"image-button-response","trial_index":101,"time_elapsed":291332,"internal_node_id":"0.0-4.0-0.47","subject_id":"5f64b5eed3b0d9015f58920c","study_id":"60edd13110225f80f9f3709b","session_id":"6196c708a6e6e6cf2c135eff","condition":"full-information","relevant_dimensions":["antennae","legs"],"bee_group":{"antennae":"B","wings":"X","pattern":"X","legs":"F"},"action":"avoid","summary":"good-avoid","bonus":0.20000000000000095},{"rt":572,"stimulus":"\n                    <p><b>Action: <em>avoid</em></b></p>\n                    <p>This is the bee that you just saw.</p>\n                    <img src=\"bees-with-color/bee-B1DF.svg\" width=\"200\">\n                    <p><span class=\"greenText\">Good choice!</span>  This bee would have stung you.<br>Your bonus pay is unchanged, and remains at $0.38.</p>\n            ","response":0,"trial_type":"html-button-response","trial_index":102,"time_elapsed":291905,"internal_node_id":"0.0-4.0-1.47","subject_id":"5f64b5eed3b0d9015f58920c","study_id":"60edd13110225f80f9f3709b","session_id":"6196c708a6e6e6cf2c135eff","condition":"full-information","relevant_dimensions":["antennae","legs"],"bee_group":{"antennae":"B","wings":"X","pattern":"X","legs":"F"},"bonus":0.20000000000000095},{"rt":1378,"stimulus":"bees-with-color/bee-B1DF.svg","response":1,"trial_type":"image-button-response","trial_index":103,"time_elapsed":293284,"internal_node_id":"0.0-4.0-0.48","subject_id":"5f64b5eed3b0d9015f58920c","study_id":"60edd13110225f80f9f3709b","session_id":"6196c708a6e6e6cf2c135eff","condition":"full-information","relevant_dimensions":["antennae","legs"],"bee_group":{"antennae":"B","wings":"X","pattern":"X","legs":"F"},"action":"avoid","summary":"good-avoid","bonus":0.20000000000000095},{"rt":553,"stimulus":"\n                    <p><b>Action: <em>avoid</em></b></p>\n                    <p>This is the bee that you just saw.</p>\n                    <img src=\"bees-with-color/bee-B1DF.svg\" width=\"200\">\n                    <p><span class=\"greenText\">Good choice!</span>  This bee would have stung you.<br>Your bonus pay is unchanged, and remains at $0.38.</p>\n            ","response":0,"trial_type":"html-button-response","trial_index":104,"time_elapsed":293839,"internal_node_id":"0.0-4.0-1.48","subject_id":"5f64b5eed3b0d9015f58920c","study_id":"60edd13110225f80f9f3709b","session_id":"6196c708a6e6e6cf2c135eff","condition":"full-information","relevant_dimensions":["antennae","legs"],"bee_group":{"antennae":"B","wings":"X","pattern":"X","legs":"F"},"bonus":0.20000000000000095},{"rt":1105,"stimulus":"bees-with-color/bee-A2SM.svg","response":0,"trial_type":"image-button-response","trial_index":105,"time_elapsed":294947,"internal_node_id":"0.0-4.0-0.49","subject_id":"5f64b5eed3b0d9015f58920c","study_id":"60edd13110225f80f9f3709b","session_id":"6196c708a6e6e6cf2c135eff","condition":"full-information","relevant_dimensions":["antennae","legs"],"bee_group":{"antennae":"B","wings":"X","pattern":"X","legs":"F"},"action":"harvest","summary":"good-harvest","bonus":0.20000000000000095},{"rt":620,"stimulus":"\n                    <p><b>Action: <em>harvest</em></b></p>\n                    <p>This is the bee that you just saw.</p>\n                    <img src=\"bees-with-color/bee-A2SM.svg\" width=\"200\">\n                    <p><span class=\"greenText\"><b>Successful harvest!</b></span><br>Your pay has increased by $0.02. Your bonus pay is now $0.40.</p>\n            ","response":0,"trial_type":"html-button-response","trial_index":106,"time_elapsed":295569,"internal_node_id":"0.0-4.0-1.49","subject_id":"5f64b5eed3b0d9015f58920c","study_id":"60edd13110225f80f9f3709b","session_id":"6196c708a6e6e6cf2c135eff","condition":"full-information","relevant_dimensions":["antennae","legs"],"bee_group":{"antennae":"B","wings":"X","pattern":"X","legs":"F"},"bonus":0.20000000000000095},{"rt":1167,"stimulus":"bees-with-color/bee-B2DM.svg","response":0,"trial_type":"image-button-response","trial_index":107,"time_elapsed":296735,"internal_node_id":"0.0-4.0-0.50","subject_id":"5f64b5eed3b0d9015f58920c","study_id":"60edd13110225f80f9f3709b","session_id":"6196c708a6e6e6cf2c135eff","condition":"full-information","relevant_dimensions":["antennae","legs"],"bee_group":{"antennae":"B","wings":"X","pattern":"X","legs":"F"},"action":"harvest","summary":"good-harvest","bonus":0.20000000000000095},{"rt":852,"stimulus":"\n                    <p><b>Action: <em>harvest</em></b></p>\n                    <p>This is the bee that you just saw.</p>\n                    <img src=\"bees-with-color/bee-B2DM.svg\" width=\"200\">\n                    <p><span class=\"greenText\"><b>Successful harvest!</b></span><br>Your pay has increased by $0.02. Your bonus pay is now $0.42.</p>\n            ","response":0,"trial_type":"html-button-response","trial_index":108,"time_elapsed":297590,"internal_node_id":"0.0-4.0-1.50","subject_id":"5f64b5eed3b0d9015f58920c","study_id":"60edd13110225f80f9f3709b","session_id":"6196c708a6e6e6cf2c135eff","condition":"full-information","relevant_dimensions":["antennae","legs"],"bee_group":{"antennae":"B","wings":"X","pattern":"X","legs":"F"},"bonus":0.20000000000000095},{"rt":1236,"stimulus":"bees-with-color/bee-A1DF.svg","response":1,"trial_type":"image-button-response","trial_index":109,"time_elapsed":298828,"internal_node_id":"0.0-4.0-0.51","subject_id":"5f64b5eed3b0d9015f58920c","study_id":"60edd13110225f80f9f3709b","session_id":"6196c708a6e6e6cf2c135eff","condition":"full-information","relevant_dimensions":["antennae","legs"],"bee_group":{"antennae":"B","wings":"X","pattern":"X","legs":"F"},"action":"avoid","summary":"bad-avoid","bonus":0.20000000000000095},{"rt":549,"stimulus":"\n                    <p><b>Action: <em>avoid</em></b></p>\n                    <p>This is the bee that you just saw.</p>\n                    <img src=\"bees-with-color/bee-A1DF.svg\" width=\"200\">\n                    <p><span class=\"redText\">Bad choice,</span> the bee was friendly.<br>Your bonus pay is unchanged, and remains at $0.42.</p>\n            ","response":0,"trial_type":"html-button-response","trial_index":110,"time_elapsed":299377,"internal_node_id":"0.0-4.0-1.51","subject_id":"5f64b5eed3b0d9015f58920c","study_id":"60edd13110225f80f9f3709b","session_id":"6196c708a6e6e6cf2c135eff","condition":"full-information","relevant_dimensions":["antennae","legs"],"bee_group":{"antennae":"B","wings":"X","pattern":"X","legs":"F"},"bonus":0.20000000000000095},{"rt":716,"stimulus":"bees-with-color/bee-A2SF.svg","response":0,"trial_type":"image-button-response","trial_index":111,"time_elapsed":300093,"internal_node_id":"0.0-4.0-0.52","subject_id":"5f64b5eed3b0d9015f58920c","study_id":"60edd13110225f80f9f3709b","session_id":"6196c708a6e6e6cf2c135eff","condition":"full-information","relevant_dimensions":["antennae","legs"],"bee_group":{"antennae":"B","wings":"X","pattern":"X","legs":"F"},"action":"harvest","summary":"good-harvest","bonus":0.20000000000000095},{"rt":581,"stimulus":"\n                    <p><b>Action: <em>harvest</em></b></p>\n                    <p>This is the bee that you just saw.</p>\n                    <img src=\"bees-with-color/bee-A2SF.svg\" width=\"200\">\n                    <p><span class=\"greenText\"><b>Successful harvest!</b></span><br>Your pay has increased by $0.02. Your bonus pay is now $0.44.</p>\n            ","response":0,"trial_type":"html-button-response","trial_index":112,"time_elapsed":300675,"internal_node_id":"0.0-4.0-1.52","subject_id":"5f64b5eed3b0d9015f58920c","study_id":"60edd13110225f80f9f3709b","session_id":"6196c708a6e6e6cf2c135eff","condition":"full-information","relevant_dimensions":["antennae","legs"],"bee_group":{"antennae":"B","wings":"X","pattern":"X","legs":"F"},"bonus":0.20000000000000095},{"rt":781,"stimulus":"bees-with-color/bee-A2DM.svg","response":0,"trial_type":"image-button-response","trial_index":113,"time_elapsed":301458,"internal_node_id":"0.0-4.0-0.53","subject_id":"5f64b5eed3b0d9015f58920c","study_id":"60edd13110225f80f9f3709b","session_id":"6196c708a6e6e6cf2c135eff","condition":"full-information","relevant_dimensions":["antennae","legs"],"bee_group":{"antennae":"B","wings":"X","pattern":"X","legs":"F"},"action":"harvest","summary":"good-harvest","bonus":0.20000000000000095},{"rt":691,"stimulus":"\n                    <p><b>Action: <em>harvest</em></b></p>\n                    <p>This is the bee that you just saw.</p>\n                    <img src=\"bees-with-color/bee-A2DM.svg\" width=\"200\">\n                    <p><span class=\"greenText\"><b>Successful harvest!</b></span><br>Your pay has increased by $0.02. Your bonus pay is now $0.46.</p>\n            ","response":0,"trial_type":"html-button-response","trial_index":114,"time_elapsed":302150,"internal_node_id":"0.0-4.0-1.53","subject_id":"5f64b5eed3b0d9015f58920c","study_id":"60edd13110225f80f9f3709b","session_id":"6196c708a6e6e6cf2c135eff","condition":"full-information","relevant_dimensions":["antennae","legs"],"bee_group":{"antennae":"B","wings":"X","pattern":"X","legs":"F"},"bonus":0.20000000000000095},{"rt":1512,"stimulus":"bees-with-color/bee-B2SM.svg","response":0,"trial_type":"image-button-response","trial_index":115,"time_elapsed":303664,"internal_node_id":"0.0-4.0-0.54","subject_id":"5f64b5eed3b0d9015f58920c","study_id":"60edd13110225f80f9f3709b","session_id":"6196c708a6e6e6cf2c135eff","condition":"full-information","relevant_dimensions":["antennae","legs"],"bee_group":{"antennae":"B","wings":"X","pattern":"X","legs":"F"},"action":"harvest","summary":"good-harvest","bonus":0.20000000000000095},{"rt":557,"stimulus":"\n                    <p><b>Action: <em>harvest</em></b></p>\n                    <p>This is the bee that you just saw.</p>\n                    <img src=\"bees-with-color/bee-B2SM.svg\" width=\"200\">\n                    <p><span class=\"greenText\"><b>Successful harvest!</b></span><br>Your pay has increased by $0.02. Your bonus pay is now $0.48.</p>\n            ","response":0,"trial_type":"html-button-response","trial_index":116,"time_elapsed":304222,"internal_node_id":"0.0-4.0-1.54","subject_id":"5f64b5eed3b0d9015f58920c","study_id":"60edd13110225f80f9f3709b","session_id":"6196c708a6e6e6cf2c135eff","condition":"full-information","relevant_dimensions":["antennae","legs"],"bee_group":{"antennae":"B","wings":"X","pattern":"X","legs":"F"},"bonus":0.20000000000000095},{"rt":949,"stimulus":"bees-with-color/bee-B1SF.svg","response":1,"trial_type":"image-button-response","trial_index":117,"time_elapsed":305172,"internal_node_id":"0.0-4.0-0.55","subject_id":"5f64b5eed3b0d9015f58920c","study_id":"60edd13110225f80f9f3709b","session_id":"6196c708a6e6e6cf2c135eff","condition":"full-information","relevant_dimensions":["antennae","legs"],"bee_group":{"antennae":"B","wings":"X","pattern":"X","legs":"F"},"action":"avoid","summary":"good-avoid","bonus":0.20000000000000095},{"rt":611,"stimulus":"\n                    <p><b>Action: <em>avoid</em></b></p>\n                    <p>This is the bee that you just saw.</p>\n                    <img src=\"bees-with-color/bee-B1SF.svg\" width=\"200\">\n                    <p><span class=\"greenText\">Good choice!</span>  This bee would have stung you.<br>Your bonus pay is unchanged, and remains at $0.48.</p>\n            ","response":0,"trial_type":"html-button-response","trial_index":118,"time_elapsed":305784,"internal_node_id":"0.0-4.0-1.55","subject_id":"5f64b5eed3b0d9015f58920c","study_id":"60edd13110225f80f9f3709b","session_id":"6196c708a6e6e6cf2c135eff","condition":"full-information","relevant_dimensions":["antennae","legs"],"bee_group":{"antennae":"B","wings":"X","pattern":"X","legs":"F"},"bonus":0.20000000000000095},{"rt":999,"stimulus":"bees-with-color/bee-B1SM.svg","response":1,"trial_type":"image-button-response","trial_index":119,"time_elapsed":306783,"internal_node_id":"0.0-4.0-0.56","subject_id":"5f64b5eed3b0d9015f58920c","study_id":"60edd13110225f80f9f3709b","session_id":"6196c708a6e6e6cf2c135eff","condition":"full-information","relevant_dimensions":["antennae","legs"],"bee_group":{"antennae":"B","wings":"X","pattern":"X","legs":"F"},"action":"avoid","summary":"bad-avoid","bonus":0.20000000000000095},{"rt":496,"stimulus":"\n                    <p><b>Action: <em>avoid</em></b></p>\n                    <p>This is the bee that you just saw.</p>\n                    <img src=\"bees-with-color/bee-B1SM.svg\" width=\"200\">\n                    <p><span class=\"redText\">Bad choice,</span> the bee was friendly.<br>Your bonus pay is unchanged, and remains at $0.48.</p>\n            ","response":0,"trial_type":"html-button-response","trial_index":120,"time_elapsed":307281,"internal_node_id":"0.0-4.0-1.56","subject_id":"5f64b5eed3b0d9015f58920c","study_id":"60edd13110225f80f9f3709b","session_id":"6196c708a6e6e6cf2c135eff","condition":"full-information","relevant_dimensions":["antennae","legs"],"bee_group":{"antennae":"B","wings":"X","pattern":"X","legs":"F"},"bonus":0.20000000000000095},{"rt":510,"stimulus":"bees-with-color/bee-A1DM.svg","response":0,"trial_type":"image-button-response","trial_index":121,"time_elapsed":307793,"internal_node_id":"0.0-4.0-0.57","subject_id":"5f64b5eed3b0d9015f58920c","study_id":"60edd13110225f80f9f3709b","session_id":"6196c708a6e6e6cf2c135eff","condition":"full-information","relevant_dimensions":["antennae","legs"],"bee_group":{"antennae":"B","wings":"X","pattern":"X","legs":"F"},"action":"harvest","summary":"good-harvest","bonus":0.20000000000000095},{"rt":532,"stimulus":"\n                    <p><b>Action: <em>harvest</em></b></p>\n                    <p>This is the bee that you just saw.</p>\n                    <img src=\"bees-with-color/bee-A1DM.svg\" width=\"200\">\n                    <p><span class=\"greenText\"><b>Successful harvest!</b></span><br>Your pay has increased by $0.02. Your bonus pay is now $0.50.</p>\n            ","response":0,"trial_type":"html-button-response","trial_index":122,"time_elapsed":308326,"internal_node_id":"0.0-4.0-1.57","subject_id":"5f64b5eed3b0d9015f58920c","study_id":"60edd13110225f80f9f3709b","session_id":"6196c708a6e6e6cf2c135eff","condition":"full-information","relevant_dimensions":["antennae","legs"],"bee_group":{"antennae":"B","wings":"X","pattern":"X","legs":"F"},"bonus":0.20000000000000095},{"rt":2249,"stimulus":"bees-with-color/bee-A2DF.svg","response":1,"trial_type":"image-button-response","trial_index":123,"time_elapsed":310577,"internal_node_id":"0.0-4.0-0.58","subject_id":"5f64b5eed3b0d9015f58920c","study_id":"60edd13110225f80f9f3709b","session_id":"6196c708a6e6e6cf2c135eff","condition":"full-information","relevant_dimensions":["antennae","legs"],"bee_group":{"antennae":"B","wings":"X","pattern":"X","legs":"F"},"action":"avoid","summary":"bad-avoid","bonus":0.20000000000000095},{"rt":571,"stimulus":"\n                    <p><b>Action: <em>avoid</em></b></p>\n                    <p>This is the bee that you just saw.</p>\n                    <img src=\"bees-with-color/bee-A2DF.svg\" width=\"200\">\n                    <p><span class=\"redText\">Bad choice,</span> the bee was friendly.<br>Your bonus pay is unchanged, and remains at $0.50.</p>\n            ","response":0,"trial_type":"html-button-response","trial_index":124,"time_elapsed":311149,"internal_node_id":"0.0-4.0-1.58","subject_id":"5f64b5eed3b0d9015f58920c","study_id":"60edd13110225f80f9f3709b","session_id":"6196c708a6e6e6cf2c135eff","condition":"full-information","relevant_dimensions":["antennae","legs"],"bee_group":{"antennae":"B","wings":"X","pattern":"X","legs":"F"},"bonus":0.20000000000000095},{"rt":778,"stimulus":"bees-with-color/bee-B1DM.svg","response":1,"trial_type":"image-button-response","trial_index":125,"time_elapsed":311928,"internal_node_id":"0.0-4.0-0.59","subject_id":"5f64b5eed3b0d9015f58920c","study_id":"60edd13110225f80f9f3709b","session_id":"6196c708a6e6e6cf2c135eff","condition":"full-information","relevant_dimensions":["antennae","legs"],"bee_group":{"antennae":"B","wings":"X","pattern":"X","legs":"F"},"action":"avoid","summary":"bad-avoid","bonus":0.20000000000000095},{"rt":529,"stimulus":"\n                    <p><b>Action: <em>avoid</em></b></p>\n                    <p>This is the bee that you just saw.</p>\n                    <img src=\"bees-with-color/bee-B1DM.svg\" width=\"200\">\n                    <p><span class=\"redText\">Bad choice,</span> the bee was friendly.<br>Your bonus pay is unchanged, and remains at $0.50.</p>\n            ","response":0,"trial_type":"html-button-response","trial_index":126,"time_elapsed":312458,"internal_node_id":"0.0-4.0-1.59","subject_id":"5f64b5eed3b0d9015f58920c","study_id":"60edd13110225f80f9f3709b","session_id":"6196c708a6e6e6cf2c135eff","condition":"full-information","relevant_dimensions":["antennae","legs"],"bee_group":{"antennae":"B","wings":"X","pattern":"X","legs":"F"},"bonus":0.20000000000000095},{"rt":493,"stimulus":"bees-with-color/bee-A1SM.svg","response":0,"trial_type":"image-button-response","trial_index":127,"time_elapsed":312951,"internal_node_id":"0.0-4.0-0.60","subject_id":"5f64b5eed3b0d9015f58920c","study_id":"60edd13110225f80f9f3709b","session_id":"6196c708a6e6e6cf2c135eff","condition":"full-information","relevant_dimensions":["antennae","legs"],"bee_group":{"antennae":"B","wings":"X","pattern":"X","legs":"F"},"action":"harvest","summary":"good-harvest","bonus":0.20000000000000095},{"rt":562,"stimulus":"\n                    <p><b>Action: <em>harvest</em></b></p>\n                    <p>This is the bee that you just saw.</p>\n                    <img src=\"bees-with-color/bee-A1SM.svg\" width=\"200\">\n                    <p><span class=\"greenText\"><b>Successful harvest!</b></span><br>Your pay has increased by $0.02. Your bonus pay is now $0.52.</p>\n            ","response":0,"trial_type":"html-button-response","trial_index":128,"time_elapsed":313515,"internal_node_id":"0.0-4.0-1.60","subject_id":"5f64b5eed3b0d9015f58920c","study_id":"60edd13110225f80f9f3709b","session_id":"6196c708a6e6e6cf2c135eff","condition":"full-information","relevant_dimensions":["antennae","legs"],"bee_group":{"antennae":"B","wings":"X","pattern":"X","legs":"F"},"bonus":0.20000000000000095},{"rt":863,"stimulus":"bees-with-color/bee-B2SF.svg","response":1,"trial_type":"image-button-response","trial_index":129,"time_elapsed":314377,"internal_node_id":"0.0-4.0-0.61","subject_id":"5f64b5eed3b0d9015f58920c","study_id":"60edd13110225f80f9f3709b","session_id":"6196c708a6e6e6cf2c135eff","condition":"full-information","relevant_dimensions":["antennae","legs"],"bee_group":{"antennae":"B","wings":"X","pattern":"X","legs":"F"},"action":"avoid","summary":"good-avoid","bonus":0.20000000000000095},{"rt":626,"stimulus":"\n                    <p><b>Action: <em>avoid</em></b></p>\n                    <p>This is the bee that you just saw.</p>\n                    <img src=\"bees-with-color/bee-B2SF.svg\" width=\"200\">\n                    <p><span class=\"greenText\">Good choice!</span>  This bee would have stung you.<br>Your bonus pay is unchanged, and remains at $0.52.</p>\n            ","response":0,"trial_type":"html-button-response","trial_index":130,"time_elapsed":315004,"internal_node_id":"0.0-4.0-1.61","subject_id":"5f64b5eed3b0d9015f58920c","study_id":"60edd13110225f80f9f3709b","session_id":"6196c708a6e6e6cf2c135eff","condition":"full-information","relevant_dimensions":["antennae","legs"],"bee_group":{"antennae":"B","wings":"X","pattern":"X","legs":"F"},"bonus":0.20000000000000095},{"rt":1023,"stimulus":"bees-with-color/bee-B2DF.svg","response":0,"trial_type":"image-button-response","trial_index":131,"time_elapsed":316028,"internal_node_id":"0.0-4.0-0.62","subject_id":"5f64b5eed3b0d9015f58920c","study_id":"60edd13110225f80f9f3709b","session_id":"6196c708a6e6e6cf2c135eff","condition":"full-information","relevant_dimensions":["antennae","legs"],"bee_group":{"antennae":"B","wings":"X","pattern":"X","legs":"F"},"action":"harvest","summary":"bad-harvest","bonus":0.20000000000000095},{"rt":1258,"stimulus":"\n                    <p><b>Action: <em>harvest</em></b></p>\n                    <p>This is the bee that you just saw.</p>\n                    <img src=\"bees-with-color/bee-B2DF.svg\" width=\"200\">\n                    <p><span class=\"redText\">Bad choice, the bee was angry.</span><br><b>You have been stung!</b><br>Your pay has been decreased by $0.10. Your bonus pay is now $0.42.</p>\n            ","response":0,"trial_type":"html-button-response","trial_index":132,"time_elapsed":317288,"internal_node_id":"0.0-4.0-1.62","subject_id":"5f64b5eed3b0d9015f58920c","study_id":"60edd13110225f80f9f3709b","session_id":"6196c708a6e6e6cf2c135eff","condition":"full-information","relevant_dimensions":["antennae","legs"],"bee_group":{"antennae":"B","wings":"X","pattern":"X","legs":"F"},"bonus":0.20000000000000095},{"rt":806,"stimulus":"bees-with-color/bee-A1SF.svg","response":0,"trial_type":"image-button-response","trial_index":133,"time_elapsed":318093,"internal_node_id":"0.0-4.0-0.63","subject_id":"5f64b5eed3b0d9015f58920c","study_id":"60edd13110225f80f9f3709b","session_id":"6196c708a6e6e6cf2c135eff","condition":"full-information","relevant_dimensions":["antennae","legs"],"bee_group":{"antennae":"B","wings":"X","pattern":"X","legs":"F"},"action":"harvest","summary":"good-harvest","bonus":0.20000000000000095},{"rt":559,"stimulus":"\n                    <p><b>Action: <em>harvest</em></b></p>\n                    <p>This is the bee that you just saw.</p>\n                    <img src=\"bees-with-color/bee-A1SF.svg\" width=\"200\">\n                    <p><span class=\"greenText\"><b>Successful harvest!</b></span><br>Your pay has increased by $0.02. Your bonus pay is now $0.44.</p>\n            ","response":0,"trial_type":"html-button-response","trial_index":134,"time_elapsed":318653,"internal_node_id":"0.0-4.0-1.63","subject_id":"5f64b5eed3b0d9015f58920c","study_id":"60edd13110225f80f9f3709b","session_id":"6196c708a6e6e6cf2c135eff","condition":"full-information","relevant_dimensions":["antennae","legs"],"bee_group":{"antennae":"B","wings":"X","pattern":"X","legs":"F"},"bonus":0.20000000000000095},{"rt":2545,"stimulus":"You have completed the first part of this experiment.<br><br>You will now begin a shorter second part, in which you will receive no feedback.<br>The same rules regarding bonus pay apply.<br><br>Press any key to begin.","response":" ","trial_type":"html-keyboard-response","trial_index":135,"time_elapsed":321199,"internal_node_id":"0.0-5.0","subject_id":"5f64b5eed3b0d9015f58920c","study_id":"60edd13110225f80f9f3709b","session_id":"6196c708a6e6e6cf2c135eff","condition":"full-information","relevant_dimensions":["antennae","legs"],"bee_group":{"antennae":"B","wings":"X","pattern":"X","legs":"F"},"bonus":0.20000000000000095},{"rt":1811,"stimulus":"bees-with-color/bee-A1DM.svg","response":1,"trial_type":"image-button-response","trial_index":136,"time_elapsed":323012,"internal_node_id":"0.0-6.0-0.0","subject_id":"5f64b5eed3b0d9015f58920c","study_id":"60edd13110225f80f9f3709b","session_id":"6196c708a6e6e6cf2c135eff","condition":"full-information","relevant_dimensions":["antennae","legs"],"bee_group":{"antennae":"B","wings":"X","pattern":"X","legs":"F"},"bonus":0.20000000000000095},{"rt":2838,"stimulus":"bees-with-color/bee-A2SF.svg","response":1,"trial_type":"image-button-response","trial_index":137,"time_elapsed":325851,"internal_node_id":"0.0-6.0-0.1","subject_id":"5f64b5eed3b0d9015f58920c","study_id":"60edd13110225f80f9f3709b","session_id":"6196c708a6e6e6cf2c135eff","condition":"full-information","relevant_dimensions":["antennae","legs"],"bee_group":{"antennae":"B","wings":"X","pattern":"X","legs":"F"},"bonus":0.20000000000000095},{"rt":1326,"stimulus":"bees-with-color/bee-A1SM.svg","response":0,"trial_type":"image-button-response","trial_index":138,"time_elapsed":327178,"internal_node_id":"0.0-6.0-0.2","subject_id":"5f64b5eed3b0d9015f58920c","study_id":"60edd13110225f80f9f3709b","session_id":"6196c708a6e6e6cf2c135eff","condition":"full-information","relevant_dimensions":["antennae","legs"],"bee_group":{"antennae":"B","wings":"X","pattern":"X","legs":"F"},"bonus":0.20000000000000095},{"rt":1938,"stimulus":"bees-with-color/bee-B1SM.svg","response":0,"trial_type":"image-button-response","trial_index":139,"time_elapsed":329117,"internal_node_id":"0.0-6.0-0.3","subject_id":"5f64b5eed3b0d9015f58920c","study_id":"60edd13110225f80f9f3709b","session_id":"6196c708a6e6e6cf2c135eff","condition":"full-information","relevant_dimensions":["antennae","legs"],"bee_group":{"antennae":"B","wings":"X","pattern":"X","legs":"F"},"bonus":0.20000000000000095},{"rt":827,"stimulus":"bees-with-color/bee-A1SF.svg","response":1,"trial_type":"image-button-response","trial_index":140,"time_elapsed":329945,"internal_node_id":"0.0-6.0-0.4","subject_id":"5f64b5eed3b0d9015f58920c","study_id":"60edd13110225f80f9f3709b","session_id":"6196c708a6e6e6cf2c135eff","condition":"full-information","relevant_dimensions":["antennae","legs"],"bee_group":{"antennae":"B","wings":"X","pattern":"X","legs":"F"},"bonus":0.20000000000000095},{"rt":537,"stimulus":"bees-with-color/bee-B1SF.svg","response":1,"trial_type":"image-button-response","trial_index":141,"time_elapsed":330484,"internal_node_id":"0.0-6.0-0.5","subject_id":"5f64b5eed3b0d9015f58920c","study_id":"60edd13110225f80f9f3709b","session_id":"6196c708a6e6e6cf2c135eff","condition":"full-information","relevant_dimensions":["antennae","legs"],"bee_group":{"antennae":"B","wings":"X","pattern":"X","legs":"F"},"bonus":0.20000000000000095},{"rt":535,"stimulus":"bees-with-color/bee-B2SF.svg","response":0,"trial_type":"image-button-response","trial_index":142,"time_elapsed":331020,"internal_node_id":"0.0-6.0-0.6","subject_id":"5f64b5eed3b0d9015f58920c","study_id":"60edd13110225f80f9f3709b","session_id":"6196c708a6e6e6cf2c135eff","condition":"full-information","relevant_dimensions":["antennae","legs"],"bee_group":{"antennae":"B","wings":"X","pattern":"X","legs":"F"},"bonus":0.20000000000000095},{"rt":305,"stimulus":"bees-with-color/bee-A1DF.svg","response":0,"trial_type":"image-button-response","trial_index":143,"time_elapsed":331327,"internal_node_id":"0.0-6.0-0.7","subject_id":"5f64b5eed3b0d9015f58920c","study_id":"60edd13110225f80f9f3709b","session_id":"6196c708a6e6e6cf2c135eff","condition":"full-information","relevant_dimensions":["antennae","legs"],"bee_group":{"antennae":"B","wings":"X","pattern":"X","legs":"F"},"bonus":0.20000000000000095},{"rt":542,"stimulus":"bees-with-color/bee-A2DM.svg","response":0,"trial_type":"image-button-response","trial_index":144,"time_elapsed":331869,"internal_node_id":"0.0-6.0-0.8","subject_id":"5f64b5eed3b0d9015f58920c","study_id":"60edd13110225f80f9f3709b","session_id":"6196c708a6e6e6cf2c135eff","condition":"full-information","relevant_dimensions":["antennae","legs"],"bee_group":{"antennae":"B","wings":"X","pattern":"X","legs":"F"},"bonus":0.20000000000000095},{"rt":598,"stimulus":"bees-with-color/bee-B1DM.svg","response":1,"trial_type":"image-button-response","trial_index":145,"time_elapsed":332469,"internal_node_id":"0.0-6.0-0.9","subject_id":"5f64b5eed3b0d9015f58920c","study_id":"60edd13110225f80f9f3709b","session_id":"6196c708a6e6e6cf2c135eff","condition":"full-information","relevant_dimensions":["antennae","legs"],"bee_group":{"antennae":"B","wings":"X","pattern":"X","legs":"F"},"bonus":0.20000000000000095},{"rt":786,"stimulus":"bees-with-color/bee-B1DF.svg","response":1,"trial_type":"image-button-response","trial_index":146,"time_elapsed":333256,"internal_node_id":"0.0-6.0-0.10","subject_id":"5f64b5eed3b0d9015f58920c","study_id":"60edd13110225f80f9f3709b","session_id":"6196c708a6e6e6cf2c135eff","condition":"full-information","relevant_dimensions":["antennae","legs"],"bee_group":{"antennae":"B","wings":"X","pattern":"X","legs":"F"},"bonus":0.20000000000000095},{"rt":343,"stimulus":"bees-with-color/bee-B2DM.svg","response":0,"trial_type":"image-button-response","trial_index":147,"time_elapsed":333601,"internal_node_id":"0.0-6.0-0.11","subject_id":"5f64b5eed3b0d9015f58920c","study_id":"60edd13110225f80f9f3709b","session_id":"6196c708a6e6e6cf2c135eff","condition":"full-information","relevant_dimensions":["antennae","legs"],"bee_group":{"antennae":"B","wings":"X","pattern":"X","legs":"F"},"bonus":0.20000000000000095},{"rt":436,"stimulus":"bees-with-color/bee-A2DF.svg","response":1,"trial_type":"image-button-response","trial_index":148,"time_elapsed":334038,"internal_node_id":"0.0-6.0-0.12","subject_id":"5f64b5eed3b0d9015f58920c","study_id":"60edd13110225f80f9f3709b","session_id":"6196c708a6e6e6cf2c135eff","condition":"full-information","relevant_dimensions":["antennae","legs"],"bee_group":{"antennae":"B","wings":"X","pattern":"X","legs":"F"},"bonus":0.20000000000000095},{"rt":954,"stimulus":"bees-with-color/bee-B2SM.svg","response":0,"trial_type":"image-button-response","trial_index":149,"time_elapsed":334993,"internal_node_id":"0.0-6.0-0.13","subject_id":"5f64b5eed3b0d9015f58920c","study_id":"60edd13110225f80f9f3709b","session_id":"6196c708a6e6e6cf2c135eff","condition":"full-information","relevant_dimensions":["antennae","legs"],"bee_group":{"antennae":"B","wings":"X","pattern":"X","legs":"F"},"bonus":0.20000000000000095},{"rt":377,"stimulus":"bees-with-color/bee-B2DF.svg","response":0,"trial_type":"image-button-response","trial_index":150,"time_elapsed":335372,"internal_node_id":"0.0-6.0-0.14","subject_id":"5f64b5eed3b0d9015f58920c","study_id":"60edd13110225f80f9f3709b","session_id":"6196c708a6e6e6cf2c135eff","condition":"full-information","relevant_dimensions":["antennae","legs"],"bee_group":{"antennae":"B","wings":"X","pattern":"X","legs":"F"},"bonus":0.20000000000000095},{"rt":648,"stimulus":"bees-with-color/bee-A2SM.svg","response":1,"trial_type":"image-button-response","trial_index":151,"time_elapsed":336021,"internal_node_id":"0.0-6.0-0.15","subject_id":"5f64b5eed3b0d9015f58920c","study_id":"60edd13110225f80f9f3709b","session_id":"6196c708a6e6e6cf2c135eff","condition":"full-information","relevant_dimensions":["antennae","legs"],"bee_group":{"antennae":"B","wings":"X","pattern":"X","legs":"F"},"bonus":0.20000000000000095},{"rt":715,"stimulus":"bees-with-color/bee-B2DF.svg","response":0,"trial_type":"image-button-response","trial_index":152,"time_elapsed":336737,"internal_node_id":"0.0-6.0-0.16","subject_id":"5f64b5eed3b0d9015f58920c","study_id":"60edd13110225f80f9f3709b","session_id":"6196c708a6e6e6cf2c135eff","condition":"full-information","relevant_dimensions":["antennae","legs"],"bee_group":{"antennae":"B","wings":"X","pattern":"X","legs":"F"},"bonus":0.20000000000000095},{"rt":422,"stimulus":"bees-with-color/bee-B2DM.svg","response":0,"trial_type":"image-button-response","trial_index":153,"time_elapsed":337159,"internal_node_id":"0.0-6.0-0.17","subject_id":"5f64b5eed3b0d9015f58920c","study_id":"60edd13110225f80f9f3709b","session_id":"6196c708a6e6e6cf2c135eff","condition":"full-information","relevant_dimensions":["antennae","legs"],"bee_group":{"antennae":"B","wings":"X","pattern":"X","legs":"F"},"bonus":0.20000000000000095},{"rt":602,"stimulus":"bees-with-color/bee-A2DF.svg","response":1,"trial_type":"image-button-response","trial_index":154,"time_elapsed":337763,"internal_node_id":"0.0-6.0-0.18","subject_id":"5f64b5eed3b0d9015f58920c","study_id":"60edd13110225f80f9f3709b","session_id":"6196c708a6e6e6cf2c135eff","condition":"full-information","relevant_dimensions":["antennae","legs"],"bee_group":{"antennae":"B","wings":"X","pattern":"X","legs":"F"},"bonus":0.20000000000000095},{"rt":832,"stimulus":"bees-with-color/bee-B1SM.svg","response":1,"trial_type":"image-button-response","trial_index":155,"time_elapsed":338597,"internal_node_id":"0.0-6.0-0.19","subject_id":"5f64b5eed3b0d9015f58920c","study_id":"60edd13110225f80f9f3709b","session_id":"6196c708a6e6e6cf2c135eff","condition":"full-information","relevant_dimensions":["antennae","legs"],"bee_group":{"antennae":"B","wings":"X","pattern":"X","legs":"F"},"bonus":0.20000000000000095},{"rt":544,"stimulus":"bees-with-color/bee-A2SF.svg","response":0,"trial_type":"image-button-response","trial_index":156,"time_elapsed":339142,"internal_node_id":"0.0-6.0-0.20","subject_id":"5f64b5eed3b0d9015f58920c","study_id":"60edd13110225f80f9f3709b","session_id":"6196c708a6e6e6cf2c135eff","condition":"full-information","relevant_dimensions":["antennae","legs"],"bee_group":{"antennae":"B","wings":"X","pattern":"X","legs":"F"},"bonus":0.20000000000000095},{"rt":335,"stimulus":"bees-with-color/bee-A2SM.svg","response":0,"trial_type":"image-button-response","trial_index":157,"time_elapsed":339477,"internal_node_id":"0.0-6.0-0.21","subject_id":"5f64b5eed3b0d9015f58920c","study_id":"60edd13110225f80f9f3709b","session_id":"6196c708a6e6e6cf2c135eff","condition":"full-information","relevant_dimensions":["antennae","legs"],"bee_group":{"antennae":"B","wings":"X","pattern":"X","legs":"F"},"bonus":0.20000000000000095},{"rt":501,"stimulus":"bees-with-color/bee-B1DF.svg","response":1,"trial_type":"image-button-response","trial_index":158,"time_elapsed":339980,"internal_node_id":"0.0-6.0-0.22","subject_id":"5f64b5eed3b0d9015f58920c","study_id":"60edd13110225f80f9f3709b","session_id":"6196c708a6e6e6cf2c135eff","condition":"full-information","relevant_dimensions":["antennae","legs"],"bee_group":{"antennae":"B","wings":"X","pattern":"X","legs":"F"},"bonus":0.20000000000000095},{"rt":774,"stimulus":"bees-with-color/bee-B2SM.svg","response":1,"trial_type":"image-button-response","trial_index":159,"time_elapsed":340756,"internal_node_id":"0.0-6.0-0.23","subject_id":"5f64b5eed3b0d9015f58920c","study_id":"60edd13110225f80f9f3709b","session_id":"6196c708a6e6e6cf2c135eff","condition":"full-information","relevant_dimensions":["antennae","legs"],"bee_group":{"antennae":"B","wings":"X","pattern":"X","legs":"F"},"bonus":0.20000000000000095},{"rt":469,"stimulus":"bees-with-color/bee-A1SF.svg","response":0,"trial_type":"image-button-response","trial_index":160,"time_elapsed":341227,"internal_node_id":"0.0-6.0-0.24","subject_id":"5f64b5eed3b0d9015f58920c","study_id":"60edd13110225f80f9f3709b","session_id":"6196c708a6e6e6cf2c135eff","condition":"full-information","relevant_dimensions":["antennae","legs"],"bee_group":{"antennae":"B","wings":"X","pattern":"X","legs":"F"},"bonus":0.20000000000000095},{"rt":257,"stimulus":"bees-with-color/bee-B2SF.svg","response":0,"trial_type":"image-button-response","trial_index":161,"time_elapsed":341483,"internal_node_id":"0.0-6.0-0.25","subject_id