[{"success":true,"trial_type":"fullscreen","trial_index":0,"time_elapsed":7797,"internal_node_id":"0.0-0.0","subject_id":"60fd27170ce1fa66aa2da363","study_id":"6197b3f67c2b5cd3b6d9596a","session_id":"6197b9f06ba06947ebb979c6","condition":"full-information","relevant_dimensions":["antennae","pattern"],"bee_group":{"antennae":"B","wings":"X","pattern":"D","legs":"X"},"bonus":0.7000000000000013},{"success":true,"timeout":false,"failed_images":[],"failed_audio":[],"failed_video":[],"trial_type":"preload","trial_index":1,"time_elapsed":9590,"internal_node_id":"0.0-1.0","subject_id":"60fd27170ce1fa66aa2da363","study_id":"6197b3f67c2b5cd3b6d9596a","session_id":"6197b9f06ba06947ebb979c6","condition":"full-information","relevant_dimensions":["antennae","pattern"],"bee_group":{"antennae":"B","wings":"X","pattern":"D","legs":"X"},"bonus":0.7000000000000013},{"rt":1220.5999999046326,"stimulus":"Welcome! Press any key to begin.","response":"n","trial_type":"html-keyboard-response","trial_index":2,"time_elapsed":10812,"internal_node_id":"0.0-2.0","subject_id":"60fd27170ce1fa66aa2da363","study_id":"6197b3f67c2b5cd3b6d9596a","session_id":"6197b9f06ba06947ebb979c6","condition":"full-information","relevant_dimensions":["antennae","pattern"],"bee_group":{"antennae":"B","wings":"X","pattern":"D","legs":"X"},"bonus":0.7000000000000013},{"view_history":[{"page_index":0,"viewing_time":4142.299999952316},{"page_index":1,"viewing_time":9330.600000023842},{"page_index":2,"viewing_time":6462},{"page_index":3,"viewing_time":12676.700000047684},{"page_index":4,"viewing_time":5621.899999976158},{"page_index":5,"viewing_time":5387.399999976158},{"page_index":6,"viewing_time":8999.100000023842},{"page_index":7,"viewing_time":4915.399999976158},{"page_index":8,"viewing_time":5379.100000023842},{"page_index":9,"viewing_time":3966.600000023842},{"page_index":10,"viewing_time":4167.399999976158},{"page_index":11,"viewing_time":6235.399999976158},{"page_index":12,"viewing_time":10237.800000071526},{"page_index":13,"viewing_time":1179.2999999523163},{"page_index":14,"viewing_time":1231.7000000476837}],"rt":89933,"trial_type":"instructions","trial_index":3,"time_elapsed":100748,"internal_node_id":"0.0-3.0-0.0","subject_id":"60fd27170ce1fa66aa2da363","study_id":"6197b3f67c2b5cd3b6d9596a","session_id":"6197b9f06ba06947ebb979c6","condition":"full-information","relevant_dimensions":["antennae","pattern"],"bee_group":{"antennae":"B","wings":"X","pattern":"D","legs":"X"},"bonus":0.7000000000000013},{"rt":9410.600000023842,"response":{"Q0":["Two or six legs","Stripes or spots on body","Single or double wings","Antennae or no antennae"]},"question_order":[0],"trial_type":"survey-multi-select","trial_index":4,"time_elapsed":110163,"internal_node_id":"0.0-3.0-1.0","subject_id":"60fd27170ce1fa66aa2da363","study_id":"6197b3f67c2b5cd3b6d9596a","session_id":"6197b9f06ba06947ebb979c6","condition":"full-information","relevant_dimensions":["antennae","pattern"],"bee_group":{"antennae":"B","wings":"X","pattern":"D","legs":"X"},"correct":true,"bonus":0.7000000000000013},{"rt":15844.700000047684,"response":{"Q1":"No.","Q2":"Based on the four features of the bee.","Q3":"You learn if it was friendly or dangerous, but do not alter your bonus."},"question_order":[0,1,2],"trial_type":"survey-multi-choice","trial_index":5,"time_elapsed":126011,"internal_node_id":"0.0-3.0-2.0","subject_id":"60fd27170ce1fa66aa2da363","study_id":"6197b3f67c2b5cd3b6d9596a","session_id":"6197b9f06ba06947ebb979c6","condition":"full-information","relevant_dimensions":["antennae","pattern"],"bee_group":{"antennae":"B","wings":"X","pattern":"D","legs":"X"},"correct":true,"bonus":0.7000000000000013},{"rt":2828.7999999523163,"stimulus":"<p>Congrats, you got everything right<br>When you're ready, click the button below to continue to the experiment.</p>","response":0,"trial_type":"html-button-response","trial_index":6,"time_elapsed":128842,"internal_node_id":"0.0-3.0-3.0","subject_id":"60fd27170ce1fa66aa2da363","study_id":"6197b3f67c2b5cd3b6d9596a","session_id":"6197b9f06ba06947ebb979c6","condition":"full-information","relevant_dimensions":["antennae","pattern"],"bee_group":{"antennae":"B","wings":"X","pattern":"D","legs":"X"},"bonus":0.7000000000000013},{"rt":4314.699999928474,"stimulus":"bees-with-color/bee-B1DM.svg","response":0,"trial_type":"image-button-response","trial_index":7,"time_elapsed":133159,"internal_node_id":"0.0-4.0-0.0","subject_id":"60fd27170ce1fa66aa2da363","study_id":"6197b3f67c2b5cd3b6d9596a","session_id":"6197b9f06ba06947ebb979c6","condition":"full-information","relevant_dimensions":["antennae","pattern"],"bee_group":{"antennae":"B","wings":"X","pattern":"D","legs":"X"},"action":"harvest","summary":"bad-harvest","bonus":0.7000000000000013},{"rt":13706.099999904633,"stimulus":"\n                    <p><b>Action: <em>harvest</em></b></p>\n                    <p>This is the bee that you just saw.</p>\n                    <img src=\"bees-with-color/bee-B1DM.svg\" width=\"200\">\n                    <p><span class=\"redText\">Bad choice, the bee was angry.</span><br><b>You have been stung!</b><br>Your pay has been decreased by $0.10. Your bonus pay is now $0.44.</p>\n            ","response":0,"trial_type":"html-button-response","trial_index":8,"time_elapsed":146874,"internal_node_id":"0.0-4.0-1.0","subject_id":"60fd27170ce1fa66aa2da363","study_id":"6197b3f67c2b5cd3b6d9596a","session_id":"6197b9f06ba06947ebb979c6","condition":"full-information","relevant_dimensions":["antennae","pattern"],"bee_group":{"antennae":"B","wings":"X","pattern":"D","legs":"X"},"bonus":0.7000000000000013},{"rt":2109.600000023842,"stimulus":"bees-with-color/bee-A2SM.svg","response":0,"trial_type":"image-button-response","trial_index":9,"time_elapsed":148986,"internal_node_id":"0.0-4.0-0.1","subject_id":"60fd27170ce1fa66aa2da363","study_id":"6197b3f67c2b5cd3b6d9596a","session_id":"6197b9f06ba06947ebb979c6","condition":"full-information","relevant_dimensions":["antennae","pattern"],"bee_group":{"antennae":"B","wings":"X","pattern":"D","legs":"X"},"action":"harvest","summary":"good-harvest","bonus":0.7000000000000013},{"rt":12826.399999976158,"stimulus":"\n                    <p><b>Action: <em>harvest</em></b></p>\n                    <p>This is the bee that you just saw.</p>\n                    <img src=\"bees-with-color/bee-A2SM.svg\" width=\"200\">\n                    <p><span class=\"greenText\"><b>Successful harvest!</b></span><br>Your pay has increased by $0.02. Your bonus pay is now $0.46.</p>\n            ","response":0,"trial_type":"html-button-response","trial_index":10,"time_elapsed":161815,"internal_node_id":"0.0-4.0-1.1","subject_id":"60fd27170ce1fa66aa2da363","study_id":"6197b3f67c2b5cd3b6d9596a","session_id":"6197b9f06ba06947ebb979c6","condition":"full-information","relevant_dimensions":["antennae","pattern"],"bee_group":{"antennae":"B","wings":"X","pattern":"D","legs":"X"},"bonus":0.7000000000000013},{"rt":3220.5,"stimulus":"bees-with-color/bee-A1SF.svg","response":0,"trial_type":"image-button-response","trial_index":11,"time_elapsed":165038,"internal_node_id":"0.0-4.0-0.2","subject_id":"60fd27170ce1fa66aa2da363","study_id":"6197b3f67c2b5cd3b6d9596a","session_id":"6197b9f06ba06947ebb979c6","condition":"full-information","relevant_dimensions":["antennae","pattern"],"bee_group":{"antennae":"B","wings":"X","pattern":"D","legs":"X"},"action":"harvest","summary":"good-harvest","bonus":0.7000000000000013},{"rt":4654.099999904633,"stimulus":"\n                    <p><b>Action: <em>harvest</em></b></p>\n                    <p>This is the bee that you just saw.</p>\n                    <img src=\"bees-with-color/bee-A1SF.svg\" width=\"200\">\n                    <p><span class=\"greenText\"><b>Successful harvest!</b></span><br>Your pay has increased by $0.02. Your bonus pay is now $0.48.</p>\n            ","response":0,"trial_type":"html-button-response","trial_index":12,"time_elapsed":169694,"internal_node_id":"0.0-4.0-1.2","subject_id":"60fd27170ce1fa66aa2da363","study_id":"6197b3f67c2b5cd3b6d9596a","session_id":"6197b9f06ba06947ebb979c6","condition":"full-information","relevant_dimensions":["antennae","pattern"],"bee_group":{"antennae":"B","wings":"X","pattern":"D","legs":"X"},"bonus":0.7000000000000013},{"rt":3160,"stimulus":"bees-with-color/bee-A2DM.svg","response":0,"trial_type":"image-button-response","trial_index":13,"time_elapsed":172857,"internal_node_id":"0.0-4.0-0.3","subject_id":"60fd27170ce1fa66aa2da363","study_id":"6197b3f67c2b5cd3b6d9596a","session_id":"6197b9f06ba06947ebb979c6","condition":"full-information","relevant_dimensions":["antennae","pattern"],"bee_group":{"antennae":"B","wings":"X","pattern":"D","legs":"X"},"action":"harvest","summary":"good-harvest","bonus":0.7000000000000013},{"rt":3075.2000000476837,"stimulus":"\n                    <p><b>Action: <em>harvest</em></b></p>\n                    <p>This is the bee that you just saw.</p>\n                    <img src=\"bees-with-color/bee-A2DM.svg\" width=\"200\">\n                    <p><span class=\"greenText\"><b>Successful harvest!</b></span><br>Your pay has increased by $0.02. Your bonus pay is now $0.50.</p>\n            ","response":0,"trial_type":"html-button-response","trial_index":14,"time_elapsed":175934,"internal_node_id":"0.0-4.0-1.3","subject_id":"60fd27170ce1fa66aa2da363","study_id":"6197b3f67c2b5cd3b6d9596a","session_id":"6197b9f06ba06947ebb979c6","condition":"full-information","relevant_dimensions":["antennae","pattern"],"bee_group":{"antennae":"B","wings":"X","pattern":"D","legs":"X"},"bonus":0.7000000000000013},{"rt":1915.6999999284744,"stimulus":"bees-with-color/bee-B2DM.svg","response":0,"trial_type":"image-button-response","trial_index":15,"time_elapsed":177853,"internal_node_id":"0.0-4.0-0.4","subject_id":"60fd27170ce1fa66aa2da363","study_id":"6197b3f67c2b5cd3b6d9596a","session_id":"6197b9f06ba06947ebb979c6","condition":"full-information","relevant_dimensions":["antennae","pattern"],"bee_group":{"antennae":"B","wings":"X","pattern":"D","legs":"X"},"action":"harvest","summary":"bad-harvest","bonus":0.7000000000000013},{"rt":2873,"stimulus":"\n                    <p><b>Action: <em>harvest</em></b></p>\n                    <p>This is the bee that you just saw.</p>\n                    <img src=\"bees-with-color/bee-B2DM.svg\" width=\"200\">\n                    <p><span class=\"redText\">Bad choice, the bee was angry.</span><br><b>You have been stung!</b><br>Your pay has been decreased by $0.10. Your bonus pay is now $0.40.</p>\n            ","response":0,"trial_type":"html-button-response","trial_index":16,"time_elapsed":180728,"internal_node_id":"0.0-4.0-1.4","subject_id":"60fd27170ce1fa66aa2da363","study_id":"6197b3f67c2b5cd3b6d9596a","session_id":"6197b9f06ba06947ebb979c6","condition":"full-information","relevant_dimensions":["antennae","pattern"],"bee_group":{"antennae":"B","wings":"X","pattern":"D","legs":"X"},"bonus":0.7000000000000013},{"rt":3143.8000000715256,"stimulus":"bees-with-color/bee-A1DF.svg","response":0,"trial_type":"image-button-response","trial_index":17,"time_elapsed":183874,"internal_node_id":"0.0-4.0-0.5","subject_id":"60fd27170ce1fa66aa2da363","study_id":"6197b3f67c2b5cd3b6d9596a","session_id":"6197b9f06ba06947ebb979c6","condition":"full-information","relevant_dimensions":["antennae","pattern"],"bee_group":{"antennae":"B","wings":"X","pattern":"D","legs":"X"},"action":"harvest","summary":"good-harvest","bonus":0.7000000000000013},{"rt":1855.3999999761581,"stimulus":"\n                    <p><b>Action: <em>harvest</em></b></p>\n                    <p>This is the bee that you just saw.</p>\n                    <img src=\"bees-with-color/bee-A1DF.svg\" width=\"200\">\n                    <p><span class=\"greenText\"><b>Successful harvest!</b></span><br>Your pay has increased by $0.02. Your bonus pay is now $0.42.</p>\n            ","response":0,"trial_type":"html-button-response","trial_index":18,"time_elapsed":185732,"internal_node_id":"0.0-4.0-1.5","subject_id":"60fd27170ce1fa66aa2da363","study_id":"6197b3f67c2b5cd3b6d9596a","session_id":"6197b9f06ba06947ebb979c6","condition":"full-information","relevant_dimensions":["antennae","pattern"],"bee_group":{"antennae":"B","wings":"X","pattern":"D","legs":"X"},"bonus":0.7000000000000013},{"rt":2400.3000000715256,"stimulus":"bees-with-color/bee-A2DF.svg","response":0,"trial_type":"image-button-response","trial_index":19,"time_elapsed":188135,"internal_node_id":"0.0-4.0-0.6","subject_id":"60fd27170ce1fa66aa2da363","study_id":"6197b3f67c2b5cd3b6d9596a","session_id":"6197b9f06ba06947ebb979c6","condition":"full-information","relevant_dimensions":["antennae","pattern"],"bee_group":{"antennae":"B","wings":"X","pattern":"D","legs":"X"},"action":"harvest","summary":"good-harvest","bonus":0.7000000000000013},{"rt":1079.8999999761581,"stimulus":"\n                    <p><b>Action: <em>harvest</em></b></p>\n                    <p>This is the bee that you just saw.</p>\n                    <img src=\"bees-with-color/bee-A2DF.svg\" width=\"200\">\n                    <p><span class=\"greenText\"><b>Successful harvest!</b></span><br>Your pay has increased by $0.02. Your bonus pay is now $0.44.</p>\n            ","response":0,"trial_type":"html-button-response","trial_index":20,"time_elapsed":189217,"internal_node_id":"0.0-4.0-1.6","subject_id":"60fd27170ce1fa66aa2da363","study_id":"6197b3f67c2b5cd3b6d9596a","session_id":"6197b9f06ba06947ebb979c6","condition":"full-information","relevant_dimensions":["antennae","pattern"],"bee_group":{"antennae":"B","wings":"X","pattern":"D","legs":"X"},"bonus":0.7000000000000013},{"rt":3099.2000000476837,"stimulus":"bees-with-color/bee-A1DM.svg","response":0,"trial_type":"image-button-response","trial_index":21,"time_elapsed":192319,"internal_node_id":"0.0-4.0-0.7","subject_id":"60fd27170ce1fa66aa2da363","study_id":"6197b3f67c2b5cd3b6d9596a","session_id":"6197b9f06ba06947ebb979c6","condition":"full-information","relevant_dimensions":["antennae","pattern"],"bee_group":{"antennae":"B","wings":"X","pattern":"D","legs":"X"},"action":"harvest","summary":"good-harvest","bonus":0.7000000000000013},{"rt":850.1000000238419,"stimulus":"\n                    <p><b>Action: <em>harvest</em></b></p>\n                    <p>This is the bee that you just saw.</p>\n                    <img src=\"bees-with-color/bee-A1DM.svg\" width=\"200\">\n                    <p><span class=\"greenText\"><b>Successful harvest!</b></span><br>Your pay has increased by $0.02. Your bonus pay is now $0.46.</p>\n            ","response":0,"trial_type":"html-button-response","trial_index":22,"time_elapsed":193171,"internal_node_id":"0.0-4.0-1.7","subject_id":"60fd27170ce1fa66aa2da363","study_id":"6197b3f67c2b5cd3b6d9596a","session_id":"6197b9f06ba06947ebb979c6","condition":"full-information","relevant_dimensions":["antennae","pattern"],"bee_group":{"antennae":"B","wings":"X","pattern":"D","legs":"X"},"bonus":0.7000000000000013},{"rt":991,"stimulus":"bees-with-color/bee-B2SM.svg","response":1,"trial_type":"image-button-response","trial_index":23,"time_elapsed":194164,"internal_node_id":"0.0-4.0-0.8","subject_id":"60fd27170ce1fa66aa2da363","study_id":"6197b3f67c2b5cd3b6d9596a","session_id":"6197b9f06ba06947ebb979c6","condition":"full-information","relevant_dimensions":["antennae","pattern"],"bee_group":{"antennae":"B","wings":"X","pattern":"D","legs":"X"},"action":"avoid","summary":"bad-avoid","bonus":0.7000000000000013},{"rt":2493.9000000953674,"stimulus":"\n                    <p><b>Action: <em>avoid</em></b></p>\n                    <p>This is the bee that you just saw.</p>\n                    <img src=\"bees-with-color/bee-B2SM.svg\" width=\"200\">\n                    <p><span class=\"redText\">Bad choice,</span> the bee was friendly.<br>Your bonus pay is unchanged, and remains at $0.46.</p>\n            ","response":0,"trial_type":"html-button-response","trial_index":24,"time_elapsed":196660,"internal_node_id":"0.0-4.0-1.8","subject_id":"60fd27170ce1fa66aa2da363","study_id":"6197b3f67c2b5cd3b6d9596a","session_id":"6197b9f06ba06947ebb979c6","condition":"full-information","relevant_dimensions":["antennae","pattern"],"bee_group":{"antennae":"B","wings":"X","pattern":"D","legs":"X"},"bonus":0.7000000000000013},{"rt":1561,"stimulus":"bees-with-color/bee-B1SM.svg","response":1,"trial_type":"image-button-response","trial_index":25,"time_elapsed":198223,"internal_node_id":"0.0-4.0-0.9","subject_id":"60fd27170ce1fa66aa2da363","study_id":"6197b3f67c2b5cd3b6d9596a","session_id":"6197b9f06ba06947ebb979c6","condition":"full-information","relevant_dimensions":["antennae","pattern"],"bee_group":{"antennae":"B","wings":"X","pattern":"D","legs":"X"},"action":"avoid","summary":"bad-avoid","bonus":0.7000000000000013},{"rt":1443.8999999761581,"stimulus":"\n                    <p><b>Action: <em>avoid</em></b></p>\n                    <p>This is the bee that you just saw.</p>\n                    <img src=\"bees-with-color/bee-B1SM.svg\" width=\"200\">\n                    <p><span class=\"redText\">Bad choice,</span> the bee was friendly.<br>Your bonus pay is unchanged, and remains at $0.46.</p>\n            ","response":0,"trial_type":"html-button-response","trial_index":26,"time_elapsed":199669,"internal_node_id":"0.0-4.0-1.9","subject_id":"60fd27170ce1fa66aa2da363","study_id":"6197b3f67c2b5cd3b6d9596a","session_id":"6197b9f06ba06947ebb979c6","condition":"full-information","relevant_dimensions":["antennae","pattern"],"bee_group":{"antennae":"B","wings":"X","pattern":"D","legs":"X"},"bonus":0.7000000000000013},{"rt":1104.7999999523163,"stimulus":"bees-with-color/bee-A2SF.svg","response":0,"trial_type":"image-button-response","trial_index":27,"time_elapsed":200775,"internal_node_id":"0.0-4.0-0.10","subject_id":"60fd27170ce1fa66aa2da363","study_id":"6197b3f67c2b5cd3b6d9596a","session_id":"6197b9f06ba06947ebb979c6","condition":"full-information","relevant_dimensions":["antennae","pattern"],"bee_group":{"antennae":"B","wings":"X","pattern":"D","legs":"X"},"action":"harvest","summary":"good-harvest","bonus":0.7000000000000013},{"rt":1056.1000000238419,"stimulus":"\n                    <p><b>Action: <em>harvest</em></b></p>\n                    <p>This is the bee that you just saw.</p>\n                    <img src=\"bees-with-color/bee-A2SF.svg\" width=\"200\">\n                    <p><span class=\"greenText\"><b>Successful harvest!</b></span><br>Your pay has increased by $0.02. Your bonus pay is now $0.48.</p>\n            ","response":0,"trial_type":"html-button-response","trial_index":28,"time_elapsed":201833,"internal_node_id":"0.0-4.0-1.10","subject_id":"60fd27170ce1fa66aa2da363","study_id":"6197b3f67c2b5cd3b6d9596a","session_id":"6197b9f06ba06947ebb979c6","condition":"full-information","relevant_dimensions":["antennae","pattern"],"bee_group":{"antennae":"B","wings":"X","pattern":"D","legs":"X"},"bonus":0.7000000000000013},{"rt":3445.2999999523163,"stimulus":"bees-with-color/bee-B2SF.svg","response":0,"trial_type":"image-button-response","trial_index":29,"time_elapsed":205281,"internal_node_id":"0.0-4.0-0.11","subject_id":"60fd27170ce1fa66aa2da363","study_id":"6197b3f67c2b5cd3b6d9596a","session_id":"6197b9f06ba06947ebb979c6","condition":"full-information","relevant_dimensions":["antennae","pattern"],"bee_group":{"antennae":"B","wings":"X","pattern":"D","legs":"X"},"action":"harvest","summary":"good-harvest","bonus":0.7000000000000013},{"rt":1078.6000000238419,"stimulus":"\n                    <p><b>Action: <em>harvest</em></b></p>\n                    <p>This is the bee that you just saw.</p>\n                    <img src=\"bees-with-color/bee-B2SF.svg\" width=\"200\">\n                    <p><span class=\"greenText\"><b>Successful harvest!</b></span><br>Your pay has increased by $0.02. Your bonus pay is now $0.50.</p>\n            ","response":0,"trial_type":"html-button-response","trial_index":30,"time_elapsed":206361,"internal_node_id":"0.0-4.0-1.11","subject_id":"60fd27170ce1fa66aa2da363","study_id":"6197b3f67c2b5cd3b6d9596a","session_id":"6197b9f06ba06947ebb979c6","condition":"full-information","relevant_dimensions":["antennae","pattern"],"bee_group":{"antennae":"B","wings":"X","pattern":"D","legs":"X"},"bonus":0.7000000000000013},{"rt":2098.399999976158,"stimulus":"bees-with-color/bee-B1SF.svg","response":1,"trial_type":"image-button-response","trial_index":31,"time_elapsed":208461,"internal_node_id":"0.0-4.0-0.12","subject_id":"60fd27170ce1fa66aa2da363","study_id":"6197b3f67c2b5cd3b6d9596a","session_id":"6197b9f06ba06947ebb979c6","condition":"full-information","relevant_dimensions":["antennae","pattern"],"bee_group":{"antennae":"B","wings":"X","pattern":"D","legs":"X"},"action":"avoid","summary":"bad-avoid","bonus":0.7000000000000013},{"rt":1168.3000000715256,"stimulus":"\n                    <p><b>Action: <em>avoid</em></b></p>\n                    <p>This is the bee that you just saw.</p>\n                    <img src=\"bees-with-color/bee-B1SF.svg\" width=\"200\">\n                    <p><span class=\"redText\">Bad choice,</span> the bee was friendly.<br>Your bonus pay is unchanged, and remains at $0.50.</p>\n            ","response":0,"trial_type":"html-button-response","trial_index":32,"time_elapsed":209632,"internal_node_id":"0.0-4.0-1.12","subject_id":"60fd27170ce1fa66aa2da363","study_id":"6197b3f67c2b5cd3b6d9596a","session_id":"6197b9f06ba06947ebb979c6","condition":"full-information","relevant_dimensions":["antennae","pattern"],"bee_group":{"antennae":"B","wings":"X","pattern":"D","legs":"X"},"bonus":0.7000000000000013},{"rt":1338.7999999523163,"stimulus":"bees-with-color/bee-A1SM.svg","response":0,"trial_type":"image-button-response","trial_index":33,"time_elapsed":210973,"internal_node_id":"0.0-4.0-0.13","subject_id":"60fd27170ce1fa66aa2da363","study_id":"6197b3f67c2b5cd3b6d9596a","session_id":"6197b9f06ba06947ebb979c6","condition":"full-information","relevant_dimensions":["antennae","pattern"],"bee_group":{"antennae":"B","wings":"X","pattern":"D","legs":"X"},"action":"harvest","summary":"good-harvest","bonus":0.7000000000000013},{"rt":1080.3999999761581,"stimulus":"\n                    <p><b>Action: <em>harvest</em></b></p>\n                    <p>This is the bee that you just saw.</p>\n                    <img src=\"bees-with-color/bee-A1SM.svg\" width=\"200\">\n                    <p><span class=\"greenText\"><b>Successful harvest!</b></span><br>Your pay has increased by $0.02. Your bonus pay is now $0.52.</p>\n            ","response":0,"trial_type":"html-button-response","trial_index":34,"time_elapsed":212055,"internal_node_id":"0.0-4.0-1.13","subject_id":"60fd27170ce1fa66aa2da363","study_id":"6197b3f67c2b5cd3b6d9596a","session_id":"6197b9f06ba06947ebb979c6","condition":"full-information","relevant_dimensions":["antennae","pattern"],"bee_group":{"antennae":"B","wings":"X","pattern":"D","legs":"X"},"bonus":0.7000000000000013},{"rt":2069.5999999046326,"stimulus":"bees-with-color/bee-B2DF.svg","response":0,"trial_type":"image-button-response","trial_index":35,"time_elapsed":214127,"internal_node_id":"0.0-4.0-0.14","subject_id":"60fd27170ce1fa66aa2da363","study_id":"6197b3f67c2b5cd3b6d9596a","session_id":"6197b9f06ba06947ebb979c6","condition":"full-information","relevant_dimensions":["antennae","pattern"],"bee_group":{"antennae":"B","wings":"X","pattern":"D","legs":"X"},"action":"harvest","summary":"bad-harvest","bonus":0.7000000000000013},{"rt":2024.8999999761581,"stimulus":"\n                    <p><b>Action: <em>harvest</em></b></p>\n                    <p>This is the bee that you just saw.</p>\n                    <img src=\"bees-with-color/bee-B2DF.svg\" width=\"200\">\n                    <p><span class=\"redText\">Bad choice, the bee was angry.</span><br><b>You have been stung!</b><br>Your pay has been decreased by $0.10. Your bonus pay is now $0.42.</p>\n            ","response":0,"trial_type":"html-button-response","trial_index":36,"time_elapsed":216154,"internal_node_id":"0.0-4.0-1.14","subject_id":"60fd27170ce1fa66aa2da363","study_id":"6197b3f67c2b5cd3b6d9596a","session_id":"6197b9f06ba06947ebb979c6","condition":"full-information","relevant_dimensions":["antennae","pattern"],"bee_group":{"antennae":"B","wings":"X","pattern":"D","legs":"X"},"bonus":0.7000000000000013},{"rt":1577,"stimulus":"bees-with-color/bee-B1DF.svg","response":0,"trial_type":"image-button-response","trial_index":37,"time_elapsed":217734,"internal_node_id":"0.0-4.0-0.15","subject_id":"60fd27170ce1fa66aa2da363","study_id":"6197b3f67c2b5cd3b6d9596a","session_id":"6197b9f06ba06947ebb979c6","condition":"full-information","relevant_dimensions":["antennae","pattern"],"bee_group":{"antennae":"B","wings":"X","pattern":"D","legs":"X"},"action":"harvest","summary":"bad-harvest","bonus":0.7000000000000013},{"rt":1451.1000000238419,"stimulus":"\n                    <p><b>Action: <em>harvest</em></b></p>\n                    <p>This is the bee that you just saw.</p>\n                    <img src=\"bees-with-color/bee-B1DF.svg\" width=\"200\">\n                    <p><span class=\"redText\">Bad choice, the bee was angry.</span><br><b>You have been stung!</b><br>Your pay has been decreased by $0.10. Your bonus pay is now $0.32.</p>\n            ","response":0,"trial_type":"html-button-response","trial_index":38,"time_elapsed":219187,"internal_node_id":"0.0-4.0-1.15","subject_id":"60fd27170ce1fa66aa2da363","study_id":"6197b3f67c2b5cd3b6d9596a","session_id":"6197b9f06ba06947ebb979c6","condition":"full-information","relevant_dimensions":["antennae","pattern"],"bee_group":{"antennae":"B","wings":"X","pattern":"D","legs":"X"},"bonus":0.7000000000000013},{"rt":725.8999999761581,"stimulus":"bees-with-color/bee-A1SM.svg","response":0,"trial_type":"image-button-response","trial_index":39,"time_elapsed":219914,"internal_node_id":"0.0-4.0-0.16","subject_id":"60fd27170ce1fa66aa2da363","study_id":"6197b3f67c2b5cd3b6d9596a","session_id":"6197b9f06ba06947ebb979c6","condition":"full-information","relevant_dimensions":["antennae","pattern"],"bee_group":{"antennae":"B","wings":"X","pattern":"D","legs":"X"},"action":"harvest","summary":"good-harvest","bonus":0.7000000000000013},{"rt":2215.2000000476837,"stimulus":"\n                    <p><b>Action: <em>harvest</em></b></p>\n                    <p>This is the bee that you just saw.</p>\n                    <img src=\"bees-with-color/bee-A1SM.svg\" width=\"200\">\n                    <p><span class=\"greenText\"><b>Successful harvest!</b></span><br>Your pay has increased by $0.02. Your bonus pay is now $0.34.</p>\n            ","response":0,"trial_type":"html-button-response","trial_index":40,"time_elapsed":222131,"internal_node_id":"0.0-4.0-1.16","subject_id":"60fd27170ce1fa66aa2da363","study_id":"6197b3f67c2b5cd3b6d9596a","session_id":"6197b9f06ba06947ebb979c6","condition":"full-information","relevant_dimensions":["antennae","pattern"],"bee_group":{"antennae":"B","wings":"X","pattern":"D","legs":"X"},"bonus":0.7000000000000013},{"rt":1443.6000000238419,"stimulus":"bees-with-color/bee-B1SF.svg","response":1,"trial_type":"image-button-response","trial_index":41,"time_elapsed":223577,"internal_node_id":"0.0-4.0-0.17","subject_id":"60fd27170ce1fa66aa2da363","study_id":"6197b3f67c2b5cd3b6d9596a","session_id":"6197b9f06ba06947ebb979c6","condition":"full-information","relevant_dimensions":["antennae","pattern"],"bee_group":{"antennae":"B","wings":"X","pattern":"D","legs":"X"},"action":"avoid","summary":"bad-avoid","bonus":0.7000000000000013},{"rt":894,"stimulus":"\n                    <p><b>Action: <em>avoid</em></b></p>\n                    <p>This is the bee that you just saw.</p>\n                    <img src=\"bees-with-color/bee-B1SF.svg\" width=\"200\">\n                    <p><span class=\"redText\">Bad choice,</span> the bee was friendly.<br>Your bonus pay is unchanged, and remains at $0.34.</p>\n            ","response":0,"trial_type":"html-button-response","trial_index":42,"time_elapsed":224474,"internal_node_id":"0.0-4.0-1.17","subject_id":"60fd27170ce1fa66aa2da363","study_id":"6197b3f67c2b5cd3b6d9596a","session_id":"6197b9f06ba06947ebb979c6","condition":"full-information","relevant_dimensions":["antennae","pattern"],"bee_group":{"antennae":"B","wings":"X","pattern":"D","legs":"X"},"bonus":0.7000000000000013},{"rt":1751.2999999523163,"stimulus":"bees-with-color/bee-A2DF.svg","response":0,"trial_type":"image-button-response","trial_index":43,"time_elapsed":226227,"internal_node_id":"0.0-4.0-0.18","subject_id":"60fd27170ce1fa66aa2da363","study_id":"6197b3f67c2b5cd3b6d9596a","session_id":"6197b9f06ba06947ebb979c6","condition":"full-information","relevant_dimensions":["antennae","pattern"],"bee_group":{"antennae":"B","wings":"X","pattern":"D","legs":"X"},"action":"harvest","summary":"good-harvest","bonus":0.7000000000000013},{"rt":950.6000000238419,"stimulus":"\n                    <p><b>Action: <em>harvest</em></b></p>\n                    <p>This is the bee that you just saw.</p>\n                    <img src=\"bees-with-color/bee-A2DF.svg\" width=\"200\">\n                    <p><span class=\"greenText\"><b>Successful harvest!</b></span><br>Your pay has increased by $0.02. Your bonus pay is now $0.36.</p>\n            ","response":0,"trial_type":"html-button-response","trial_index":44,"time_elapsed":227180,"internal_node_id":"0.0-4.0-1.18","subject_id":"60fd27170ce1fa66aa2da363","study_id":"6197b3f67c2b5cd3b6d9596a","session_id":"6197b9f06ba06947ebb979c6","condition":"full-information","relevant_dimensions":["antennae","pattern"],"bee_group":{"antennae":"B","wings":"X","pattern":"D","legs":"X"},"bonus":0.7000000000000013},{"rt":1229.3000000715256,"stimulus":"bees-with-color/bee-B1DF.svg","response":1,"trial_type":"image-button-response","trial_index":45,"time_elapsed":228411,"internal_node_id":"0.0-4.0-0.19","subject_id":"60fd27170ce1fa66aa2da363","study_id":"6197b3f67c2b5cd3b6d9596a","session_id":"6197b9f06ba06947ebb979c6","condition":"full-information","relevant_dimensions":["antennae","pattern"],"bee_group":{"antennae":"B","wings":"X","pattern":"D","legs":"X"},"action":"avoid","summary":"good-avoid","bonus":0.7000000000000013},{"rt":1589.4000000953674,"stimulus":"\n                    <p><b>Action: <em>avoid</em></b></p>\n                    <p>This is the bee that you just saw.</p>\n                    <img src=\"bees-with-color/bee-B1DF.svg\" width=\"200\">\n                    <p><span class=\"greenText\">Good choice!</span>  This bee would have stung you.<br>Your bonus pay is unchanged, and remains at $0.36.</p>\n            ","response":0,"trial_type":"html-button-response","trial_index":46,"time_elapsed":230003,"internal_node_id":"0.0-4.0-1.19","subject_id":"60fd27170ce1fa66aa2da363","study_id":"6197b3f67c2b5cd3b6d9596a","session_id":"6197b9f06ba06947ebb979c6","condition":"full-information","relevant_dimensions":["antennae","pattern"],"bee_group":{"antennae":"B","wings":"X","pattern":"D","legs":"X"},"bonus":0.7000000000000013},{"rt":886.3999999761581,"stimulus":"bees-with-color/bee-B2SF.svg","response":0,"trial_type":"image-button-response","trial_index":47,"time_elapsed":230891,"internal_node_id":"0.0-4.0-0.20","subject_id":"60fd27170ce1fa66aa2da363","study_id":"6197b3f67c2b5cd3b6d9596a","session_id":"6197b9f06ba06947ebb979c6","condition":"full-information","relevant_dimensions":["antennae","pattern"],"bee_group":{"antennae":"B","wings":"X","pattern":"D","legs":"X"},"action":"harvest","summary":"good-harvest","bonus":0.7000000000000013},{"rt":894.1000000238419,"stimulus":"\n                    <p><b>Action: <em>harvest</em></b></p>\n                    <p>This is the bee that you just saw.</p>\n                    <img src=\"bees-with-color/bee-B2SF.svg\" width=\"200\">\n                    <p><span class=\"greenText\"><b>Successful harvest!</b></span><br>Your pay has increased by $0.02. Your bonus pay is now $0.38.</p>\n            ","response":0,"trial_type":"html-button-response","trial_index":48,"time_elapsed":231788,"internal_node_id":"0.0-4.0-1.20","subject_id":"60fd27170ce1fa66aa2da363","study_id":"6197b3f67c2b5cd3b6d9596a","session_id":"6197b9f06ba06947ebb979c6","condition":"full-information","relevant_dimensions":["antennae","pattern"],"bee_group":{"antennae":"B","wings":"X","pattern":"D","legs":"X"},"bonus":0.7000000000000013},{"rt":1492.7000000476837,"stimulus":"bees-with-color/bee-B1DM.svg","response":1,"trial_type":"image-button-response","trial_index":49,"time_elapsed":233282,"internal_node_id":"0.0-4.0-0.21","subject_id":"60fd27170ce1fa66aa2da363","study_id":"6197b3f67c2b5cd3b6d9596a","session_id":"6197b9f06ba06947ebb979c6","condition":"full-information","relevant_dimensions":["antennae","pattern"],"bee_group":{"antennae":"B","wings":"X","pattern":"D","legs":"X"},"action":"avoid","summary":"good-avoid","bonus":0.7000000000000013},{"rt":1145,"stimulus":"\n                    <p><b>Action: <em>avoid</em></b></p>\n                    <p>This is the bee that you just saw.</p>\n                    <img src=\"bees-with-color/bee-B1DM.svg\" width=\"200\">\n                    <p><span class=\"greenText\">Good choice!</span>  This bee would have stung you.<br>Your bonus pay is unchanged, and remains at $0.38.</p>\n            ","response":0,"trial_type":"html-button-response","trial_index":50,"time_elapsed":234429,"internal_node_id":"0.0-4.0-1.21","subject_id":"60fd27170ce1fa66aa2da363","study_id":"6197b3f67c2b5cd3b6d9596a","session_id":"6197b9f06ba06947ebb979c6","condition":"full-information","relevant_dimensions":["antennae","pattern"],"bee_group":{"antennae":"B","wings":"X","pattern":"D","legs":"X"},"bonus":0.7000000000000013},{"rt":1015.1000000238419,"stimulus":"bees-with-color/bee-A2SM.svg","response":0,"trial_type":"image-button-response","trial_index":51,"time_elapsed":235446,"internal_node_id":"0.0-4.0-0.22","subject_id":"60fd27170ce1fa66aa2da363","study_id":"6197b3f67c2b5cd3b6d9596a","session_id":"6197b9f06ba06947ebb979c6","condition":"full-information","relevant_dimensions":["antennae","pattern"],"bee_group":{"antennae":"B","wings":"X","pattern":"D","legs":"X"},"action":"harvest","summary":"good-harvest","bonus":0.7000000000000013},{"rt":1893.2000000476837,"stimulus":"\n                    <p><b>Action: <em>harvest</em></b></p>\n                    <p>This is the bee that you just saw.</p>\n                    <img src=\"bees-with-color/bee-A2SM.svg\" width=\"200\">\n                    <p><span class=\"greenText\"><b>Successful harvest!</b></span><br>Your pay has increased by $0.02. Your bonus pay is now $0.40.</p>\n            ","response":0,"trial_type":"html-button-response","trial_index":52,"time_elapsed":237341,"internal_node_id":"0.0-4.0-1.22","subject_id":"60fd27170ce1fa66aa2da363","study_id":"6197b3f67c2b5cd3b6d9596a","session_id":"6197b9f06ba06947ebb979c6","condition":"full-information","relevant_dimensions":["antennae","pattern"],"bee_group":{"antennae":"B","wings":"X","pattern":"D","legs":"X"},"bonus":0.7000000000000013},{"rt":1282.8999999761581,"stimulus":"bees-with-color/bee-A2SF.svg","response":0,"trial_type":"image-button-response","trial_index":53,"time_elapsed":238625,"internal_node_id":"0.0-4.0-0.23","subject_id":"60fd27170ce1fa66aa2da363","study_id":"6197b3f67c2b5cd3b6d9596a","session_id":"6197b9f06ba06947ebb979c6","condition":"full-information","relevant_dimensions":["antennae","pattern"],"bee_group":{"antennae":"B","wings":"X","pattern":"D","legs":"X"},"action":"harvest","summary":"good-harvest","bonus":0.7000000000000013},{"rt":1233.8000000715256,"stimulus":"\n                    <p><b>Action: <em>harvest</em></b></p>\n                    <p>This is the bee that you just saw.</p>\n                    <img src=\"bees-with-color/bee-A2SF.svg\" width=\"200\">\n                    <p><span class=\"greenText\"><b>Successful harvest!</b></span><br>Your pay has increased by $0.02. Your bonus pay is now $0.42.</p>\n            ","response":0,"trial_type":"html-button-response","trial_index":54,"time_elapsed":239861,"internal_node_id":"0.0-4.0-1.23","subject_id":"60fd27170ce1fa66aa2da363","study_id":"6197b3f67c2b5cd3b6d9596a","session_id":"6197b9f06ba06947ebb979c6","condition":"full-information","relevant_dimensions":["antennae","pattern"],"bee_group":{"antennae":"B","wings":"X","pattern":"D","legs":"X"},"bonus":0.7000000000000013},{"rt":2178.899999976158,"stimulus":"bees-with-color/bee-A2DM.svg","response":0,"trial_type":"image-button-response","trial_index":55,"time_elapsed":242041,"internal_node_id":"0.0-4.0-0.24","subject_id":"60fd27170ce1fa66aa2da363","study_id":"6197b3f67c2b5cd3b6d9596a","session_id":"6197b9f06ba06947ebb979c6","condition":"full-information","relevant_dimensions":["antennae","pattern"],"bee_group":{"antennae":"B","wings":"X","pattern":"D","legs":"X"},"action":"harvest","summary":"good-harvest","bonus":0.7000000000000013},{"rt":919.1000000238419,"stimulus":"\n                    <p><b>Action: <em>harvest</em></b></p>\n                    <p>This is the bee that you just saw.</p>\n                    <img src=\"bees-with-color/bee-A2DM.svg\" width=\"200\">\n                    <p><span class=\"greenText\"><b>Successful harvest!</b></span><br>Your pay has increased by $0.02. Your bonus pay is now $0.44.</p>\n            ","response":0,"trial_type":"html-button-response","trial_index":56,"time_elapsed":242962,"internal_node_id":"0.0-4.0-1.24","subject_id":"60fd27170ce1fa66aa2da363","study_id":"6197b3f67c2b5cd3b6d9596a","session_id":"6197b9f06ba06947ebb979c6","condition":"full-information","relevant_dimensions":["antennae","pattern"],"bee_group":{"antennae":"B","wings":"X","pattern":"D","legs":"X"},"bonus":0.7000000000000013},{"rt":1977.2000000476837,"stimulus":"bees-with-color/bee-B2DM.svg","response":0,"trial_type":"image-button-response","trial_index":57,"time_elapsed":244942,"internal_node_id":"0.0-4.0-0.25","subject_id":"60fd27170ce1fa66aa2da363","study_id":"6197b3f67c2b5cd3b6d9596a","session_id":"6197b9f06ba06947ebb979c6","condition":"full-information","relevant_dimensions":["antennae","pattern"],"bee_group":{"antennae":"B","wings":"X","pattern":"D","legs":"X"},"action":"harvest","summary":"bad-harvest","bonus":0.7000000000000013},{"rt":1452.5,"stimulus":"\n                    <p><b>Action: <em>harvest</em></b></p>\n                    <p>This is the bee that you just saw.</p>\n                    <img src=\"bees-with-color/bee-B2DM.svg\" width=\"200\">\n                    <p><span class=\"redText\">Bad choice, the bee was angry.</span><br><b>You have been stung!</b><br>Your pay has been decreased by $0.10. Your bonus pay is now $0.34.</p>\n            ","response":0,"trial_type":"html-button-response","trial_index":58,"time_elapsed":246397,"internal_node_id":"0.0-4.0-1.25","subject_id":"60fd27170ce1fa66aa2da363","study_id":"6197b3f67c2b5cd3b6d9596a","session_id":"6197b9f06ba06947ebb979c6","condition":"full-information","relevant_dimensions":["antennae","pattern"],"bee_group":{"antennae":"B","wings":"X","pattern":"D","legs":"X"},"bonus":0.7000000000000013},{"rt":1508,"stimulus":"bees-with-color/bee-B2DF.svg","response":1,"trial_type":"image-button-response","trial_index":59,"time_elapsed":247906,"internal_node_id":"0.0-4.0-0.26","subject_id":"60fd27170ce1fa66aa2da363","study_id":"6197b3f67c2b5cd3b6d9596a","session_id":"6197b9f06ba06947ebb979c6","condition":"full-information","relevant_dimensions":["antennae","pattern"],"bee_group":{"antennae":"B","wings":"X","pattern":"D","legs":"X"},"action":"avoid","summary":"good-avoid","bonus":0.7000000000000013},{"rt":1071.5,"stimulus":"\n                    <p><b>Action: <em>avoid</em></b></p>\n                    <p>This is the bee that you just saw.</p>\n                    <img src=\"bees-with-color/bee-B2DF.svg\" width=\"200\">\n                    <p><span class=\"greenText\">Good choice!</span>  This bee would have stung you.<br>Your bonus pay is unchanged, and remains at $0.34.</p>\n            ","response":0,"trial_type":"html-button-response","trial_index":60,"time_elapsed":248980,"internal_node_id":"0.0-4.0-1.26","subject_id":"60fd27170ce1fa66aa2da363","study_id":"6197b3f67c2b5cd3b6d9596a","session_id":"6197b9f06ba06947ebb979c6","condition":"full-information","relevant_dimensions":["antennae","pattern"],"bee_group":{"antennae":"B","wings":"X","pattern":"D","legs":"X"},"bonus":0.7000000000000013},{"rt":903,"stimulus":"bees-with-color/bee-B2SM.svg","response":0,"trial_type":"image-button-response","trial_index":61,"time_elapsed":249885,"internal_node_id":"0.0-4.0-0.27","subject_id":"60fd27170ce1fa66aa2da363","study_id":"6197b3f67c2b5cd3b6d9596a","session_id":"6197b9f06ba06947ebb979c6","condition":"full-information","relevant_dimensions":["antennae","pattern"],"bee_group":{"antennae":"B","wings":"X","pattern":"D","legs":"X"},"action":"harvest","summary":"good-harvest","bonus":0.7000000000000013},{"rt":870.3000000715256,"stimulus":"\n                    <p><b>Action: <em>harvest</em></b></p>\n                    <p>This is the bee that you just saw.</p>\n                    <img src=\"bees-with-color/bee-B2SM.svg\" width=\"200\">\n                    <p><span class=\"greenText\"><b>Successful harvest!</b></span><br>Your pay has increased by $0.02. Your bonus pay is now $0.36.</p>\n            ","response":0,"trial_type":"html-button-response","trial_index":62,"time_elapsed":250757,"internal_node_id":"0.0-4.0-1.27","subject_id":"60fd27170ce1fa66aa2da363","study_id":"6197b3f67c2b5cd3b6d9596a","session_id":"6197b9f06ba06947ebb979c6","condition":"full-information","relevant_dimensions":["antennae","pattern"],"bee_group":{"antennae":"B","wings":"X","pattern":"D","legs":"X"},"bonus":0.7000000000000013},{"rt":1282.5,"stimulus":"bees-with-color/bee-A1SF.svg","response":0,"trial_type":"image-button-response","trial_index":63,"time_elapsed":252042,"internal_node_id":"0.0-4.0-0.28","subject_id":"60fd27170ce1fa66aa2da363","study_id":"6197b3f67c2b5cd3b6d9596a","session_id":"6197b9f06ba06947ebb979c6","condition":"full-information","relevant_dimensions":["antennae","pattern"],"bee_group":{"antennae":"B","wings":"X","pattern":"D","legs":"X"},"action":"harvest","summary":"good-harvest","bonus":0.7000000000000013},{"rt":822,"stimulus":"\n                    <p><b>Action: <em>harvest</em></b></p>\n                    <p>This is the bee that you just saw.</p>\n                    <img src=\"bees-with-color/bee-A1SF.svg\" width=\"200\">\n                    <p><span class=\"greenText\"><b>Successful harvest!</b></span><br>Your pay has increased by $0.02. Your bonus pay is now $0.38.</p>\n            ","response":0,"trial_type":"html-button-response","trial_index":64,"time_elapsed":252866,"internal_node_id":"0.0-4.0-1.28","subject_id":"60fd27170ce1fa66aa2da363","study_id":"6197b3f67c2b5cd3b6d9596a","session_id":"6197b9f06ba06947ebb979c6","condition":"full-information","relevant_dimensions":["antennae","pattern"],"bee_group":{"antennae":"B","wings":"X","pattern":"D","legs":"X"},"bonus":0.7000000000000013},{"rt":1144.7999999523163,"stimulus":"bees-with-color/bee-A1DF.svg","response":0,"trial_type":"image-button-response","trial_index":65,"time_elapsed":254013,"internal_node_id":"0.0-4.0-0.29","subject_id":"60fd27170ce1fa66aa2da363","study_id":"6197b3f67c2b5cd3b6d9596a","session_id":"6197b9f06ba06947ebb979c6","condition":"full-information","relevant_dimensions":["antennae","pattern"],"bee_group":{"antennae":"B","wings":"X","pattern":"D","legs":"X"},"action":"harvest","summary":"good-harvest","bonus":0.7000000000000013},{"rt":838,"stimulus":"\n                    <p><b>Action: <em>harvest</em></b></p>\n                    <p>This is the bee that you just saw.</p>\n                    <img src=\"bees-with-color/bee-A1DF.svg\" width=\"200\">\n                    <p><span class=\"greenText\"><b>Successful harvest!</b></span><br>Your pay has increased by $0.02. Your bonus pay is now $0.40.</p>\n            ","response":0,"trial_type":"html-button-response","trial_index":66,"time_elapsed":254853,"internal_node_id":"0.0-4.0-1.29","subject_id":"60fd27170ce1fa66aa2da363","study_id":"6197b3f67c2b5cd3b6d9596a","session_id":"6197b9f06ba06947ebb979c6","condition":"full-information","relevant_dimensions":["antennae","pattern"],"bee_group":{"antennae":"B","wings":"X","pattern":"D","legs":"X"},"bonus":0.7000000000000013},{"rt":1233.8000000715256,"stimulus":"bees-with-color/bee-A1DM.svg","response":0,"trial_type":"image-button-response","trial_index":67,"time_elapsed":256089,"internal_node_id":"0.0-4.0-0.30","subject_id":"60fd27170ce1fa66aa2da363","study_id":"6197b3f67c2b5cd3b6d9596a","session_id":"6197b9f06ba06947ebb979c6","condition":"full-information","relevant_dimensions":["antennae","pattern"],"bee_group":{"antennae":"B","wings":"X","pattern":"D","legs":"X"},"action":"harvest","summary":"good-harvest","bonus":0.7000000000000013},{"rt":942.8000000715256,"stimulus":"\n                    <p><b>Action: <em>harvest</em></b></p>\n                    <p>This is the bee that you just saw.</p>\n                    <img src=\"bees-with-color/bee-A1DM.svg\" width=\"200\">\n                    <p><span class=\"greenText\"><b>Successful harvest!</b></span><br>Your pay has increased by $0.02. Your bonus pay is now $0.42.</p>\n            ","response":0,"trial_type":"html-button-response","trial_index":68,"time_elapsed":257033,"internal_node_id":"0.0-4.0-1.30","subject_id":"60fd27170ce1fa66aa2da363","study_id":"6197b3f67c2b5cd3b6d9596a","session_id":"6197b9f06ba06947ebb979c6","condition":"full-information","relevant_dimensions":["antennae","pattern"],"bee_group":{"antennae":"B","wings":"X","pattern":"D","legs":"X"},"bonus":0.7000000000000013},{"rt":1234,"stimulus":"bees-with-color/bee-B1SM.svg","response":1,"trial_type":"image-button-response","trial_index":69,"time_elapsed":258270,"internal_node_id":"0.0-4.0-0.31","subject_id":"60fd27170ce1fa66aa2da363","study_id":"6197b3f67c2b5cd3b6d9596a","session_id":"6197b9f06ba06947ebb979c6","condition":"full-information","relevant_dimensions":["antennae","pattern"],"bee_group":{"antennae":"B","wings":"X","pattern":"D","legs":"X"},"action":"avoid","summary":"bad-avoid","bonus":0.7000000000000013},{"rt":886,"stimulus":"\n                    <p><b>Action: <em>avoid</em></b></p>\n                    <p>This is the bee that you just saw.</p>\n                    <img src=\"bees-with-color/bee-B1SM.svg\" width=\"200\">\n                    <p><span class=\"redText\">Bad choice,</span> the bee was friendly.<br>Your bonus pay is unchanged, and remains at $0.42.</p>\n            ","response":0,"trial_type":"html-button-response","trial_index":70,"time_elapsed":259158,"internal_node_id":"0.0-4.0-1.31","subject_id":"60fd27170ce1fa66aa2da363","study_id":"6197b3f67c2b5cd3b6d9596a","session_id":"6197b9f06ba06947ebb979c6","condition":"full-information","relevant_dimensions":["antennae","pattern"],"bee_group":{"antennae":"B","wings":"X","pattern":"D","legs":"X"},"bonus":0.7000000000000013},{"rt":1161.2000000476837,"stimulus":"bees-with-color/bee-A1DF.svg","response":0,"trial_type":"image-button-response","trial_index":71,"time_elapsed":260321,"internal_node_id":"0.0-4.0-0.32","subject_id":"60fd27170ce1fa66aa2da363","study_id":"6197b3f67c2b5cd3b6d9596a","session_id":"6197b9f06ba06947ebb979c6","condition":"full-information","relevant_dimensions":["antennae","pattern"],"bee_group":{"antennae":"B","wings":"X","pattern":"D","legs":"X"},"action":"harvest","summary":"good-harvest","bonus":0.7000000000000013},{"rt":740.2000000476837,"stimulus":"\n                    <p><b>Action: <em>harvest</em></b></p>\n                    <p>This is the bee that you just saw.</p>\n                    <img src=\"bees-with-color/bee-A1DF.svg\" width=\"200\">\n                    <p><span class=\"greenText\"><b>Successful harvest!</b></span><br>Your pay has increased by $0.02. Your bonus pay is now $0.44.</p>\n            ","response":0,"trial_type":"html-button-response","trial_index":72,"time_elapsed":261063,"internal_node_id":"0.0-4.0-1.32","subject_id":"60fd27170ce1fa66aa2da363","study_id":"6197b3f67c2b5cd3b6d9596a","session_id":"6197b9f06ba06947ebb979c6","condition":"full-information","relevant_dimensions":["antennae","pattern"],"bee_group":{"antennae":"B","wings":"X","pattern":"D","legs":"X"},"bonus":0.7000000000000013},{"rt":1016.8999999761581,"stimulus":"bees-with-color/bee-A2DF.svg","response":0,"trial_type":"image-button-response","trial_index":73,"time_elapsed":262082,"internal_node_id":"0.0-4.0-0.33","subject_id":"60fd27170ce1fa66aa2da363","study_id":"6197b3f67c2b5cd3b6d9596a","session_id":"6197b9f06ba06947ebb979c6","condition":"full-information","relevant_dimensions":["antennae","pattern"],"bee_group":{"antennae":"B","wings":"X","pattern":"D","legs":"X"},"action":"harvest","summary":"good-harvest","bonus":0.7000000000000013},{"rt":805.3000000715256,"stimulus":"\n                    <p><b>Action: <em>harvest</em></b></p>\n                    <p>This is the bee that you just saw.</p>\n                    <img src=\"bees-with-color/bee-A2DF.svg\" width=\"200\">\n                    <p><span class=\"greenText\"><b>Successful harvest!</b></span><br>Your pay has increased by $0.02. Your bonus pay is now $0.46.</p>\n            ","response":0,"trial_type":"html-button-response","trial_index":74,"time_elapsed":262890,"internal_node_id":"0.0-4.0-1.33","subject_id":"60fd27170ce1fa66aa2da363","study_id":"6197b3f67c2b5cd3b6d9596a","session_id":"6197b9f06ba06947ebb979c6","condition":"full-information","relevant_dimensions":["antennae","pattern"],"bee_group":{"antennae":"B","wings":"X","pattern":"D","legs":"X"},"bonus":0.7000000000000013},{"rt":1347.1999999284744,"stimulus":"bees-with-color/bee-A1SF.svg","response":0,"trial_type":"image-button-response","trial_index":75,"time_elapsed":264239,"internal_node_id":"0.0-4.0-0.34","subject_id":"60fd27170ce1fa66aa2da363","study_id":"6197b3f67c2b5cd3b6d9596a","session_id":"6197b9f06ba06947ebb979c6","condition":"full-information","relevant_dimensions":["antennae","pattern"],"bee_group":{"antennae":"B","wings":"X","pattern":"D","legs":"X"},"action":"harvest","summary":"good-harvest","bonus":0.7000000000000013},{"rt":885.7000000476837,"stimulus":"\n                    <p><b>Action: <em>harvest</em></b></p>\n                    <p>This is the bee that you just saw.</p>\n                    <img src=\"bees-with-color/bee-A1SF.svg\" width=\"200\">\n                    <p><span class=\"greenText\"><b>Successful harvest!</b></span><br>Your pay has increased by $0.02. Your bonus pay is now $0.48.</p>\n            ","response":0,"trial_type":"html-button-response","trial_index":76,"time_elapsed":265127,"internal_node_id":"0.0-4.0-1.34","subject_id":"60fd27170ce1fa66aa2da363","study_id":"6197b3f67c2b5cd3b6d9596a","session_id":"6197b9f06ba06947ebb979c6","condition":"full-information","relevant_dimensions":["antennae","pattern"],"bee_group":{"antennae":"B","wings":"X","pattern":"D","legs":"X"},"bonus":0.7000000000000013},{"rt":1149.7000000476837,"stimulus":"bees-with-color/bee-A2DM.svg","response":0,"trial_type":"image-button-response","trial_index":77,"time_elapsed":266279,"internal_node_id":"0.0-4.0-0.35","subject_id":"60fd27170ce1fa66aa2da363","study_id":"6197b3f67c2b5cd3b6d9596a","session_id":"6197b9f06ba06947ebb979c6","condition":"full-information","relevant_dimensions":["antennae","pattern"],"bee_group":{"antennae":"B","wings":"X","pattern":"D","legs":"X"},"action":"harvest","summary":"good-harvest","bonus":0.7000000000000013},{"rt":813.1000000238419,"stimulus":"\n                    <p><b>Action: <em>harvest</em></b></p>\n                    <p>This is the bee that you just saw.</p>\n                    <img src=\"bees-with-color/bee-A2DM.svg\" width=\"200\">\n                    <p><span class=\"greenText\"><b>Successful harvest!</b></span><br>Your pay has increased by $0.02. Your bonus pay is now $0.50.</p>\n            ","response":0,"trial_type":"html-button-response","trial_index":78,"time_elapsed":267095,"internal_node_id":"0.0-4.0-1.35","subject_id":"60fd27170ce1fa66aa2da363","study_id":"6197b3f67c2b5cd3b6d9596a","session_id":"6197b9f06ba06947ebb979c6","condition":"full-information","relevant_dimensions":["antennae","pattern"],"bee_group":{"antennae":"B","wings":"X","pattern":"D","legs":"X"},"bonus":0.7000000000000013},{"rt":1015.9000000953674,"stimulus":"bees-with-color/bee-A1SM.svg","response":0,"trial_type":"image-button-response","trial_index":79,"time_elapsed":268112,"internal_node_id":"0.0-4.0-0.36","subject_id":"60fd27170ce1fa66aa2da363","study_id":"6197b3f67c2b5cd3b6d9596a","session_id":"6197b9f06ba06947ebb979c6","condition":"full-information","relevant_dimensions":["antennae","pattern"],"bee_group":{"antennae":"B","wings":"X","pattern":"D","legs":"X"},"action":"harvest","summary":"good-harvest","bonus":0.7000000000000013},{"rt":894.8999999761581,"stimulus":"\n                    <p><b>Action: <em>harvest</em></b></p>\n                    <p>This is the bee that you just saw.</p>\n                    <img src=\"bees-with-color/bee-A1SM.svg\" width=\"200\">\n                    <p><span class=\"greenText\"><b>Successful harvest!</b></span><br>Your pay has increased by $0.02. Your bonus pay is now $0.52.</p>\n            ","response":0,"trial_type":"html-button-response","trial_index":80,"time_elapsed":269009,"internal_node_id":"0.0-4.0-1.36","subject_id":"60fd27170ce1fa66aa2da363","study_id":"6197b3f67c2b5cd3b6d9596a","session_id":"6197b9f06ba06947ebb979c6","condition":"full-information","relevant_dimensions":["antennae","pattern"],"bee_group":{"antennae":"B","wings":"X","pattern":"D","legs":"X"},"bonus":0.7000000000000013},{"rt":891.6000000238419,"stimulus":"bees-with-color/bee-B1DM.svg","response":1,"trial_type":"image-button-response","trial_index":81,"time_elapsed":269902,"internal_node_id":"0.0-4.0-0.37","subject_id":"60fd27170ce1fa66aa2da363","study_id":"6197b3f67c2b5cd3b6d9596a","session_id":"6197b9f06ba06947ebb979c6","condition":"full-information","relevant_dimensions":["antennae","pattern"],"bee_group":{"antennae":"B","wings":"X","pattern":"D","legs":"X"},"action":"avoid","summary":"good-avoid","bonus":0.7000000000000013},{"rt":951.2999999523163,"stimulus":"\n                    <p><b>Action: <em>avoid</em></b></p>\n                    <p>This is the bee that you just saw.</p>\n                    <img src=\"bees-with-color/bee-B1DM.svg\" width=\"200\">\n                    <p><span class=\"greenText\">Good choice!</span>  This bee would have stung you.<br>Your bonus pay is unchanged, and remains at $0.52.</p>\n            ","response":0,"trial_type":"html-button-response","trial_index":82,"time_elapsed":270855,"internal_node_id":"0.0-4.0-1.37","subject_id":"60fd27170ce1fa66aa2da363","study_id":"6197b3f67c2b5cd3b6d9596a","session_id":"6197b9f06ba06947ebb979c6","condition":"full-information","relevant_dimensions":["antennae","pattern"],"bee_group":{"antennae":"B","wings":"X","pattern":"D","legs":"X"},"bonus":0.7000000000000013},{"rt":1217.6999999284744,"stimulus":"bees-with-color/bee-A2SM.svg","response":0,"trial_type":"image-button-response","trial_index":83,"time_elapsed":272074,"internal_node_id":"0.0-4.0-0.38","subject_id":"60fd27170ce1fa66aa2da363","study_id":"6197b3f67c2b5cd3b6d9596a","session_id":"6197b9f06ba06947ebb979c6","condition":"full-information","relevant_dimensions":["antennae","pattern"],"bee_group":{"antennae":"B","wings":"X","pattern":"D","legs":"X"},"action":"harvest","summary":"good-harvest","bonus":0.7000000000000013},{"rt":886.1000000238419,"stimulus":"\n                    <p><b>Action: <em>harvest</em></b></p>\n                    <p>This is the bee that you just saw.</p>\n                    <img src=\"bees-with-color/bee-A2SM.svg\" width=\"200\">\n                    <p><span class=\"greenText\"><b>Successful harvest!</b></span><br>Your pay has increased by $0.02. Your bonus pay is now $0.54.</p>\n            ","response":0,"trial_type":"html-button-response","trial_index":84,"time_elapsed":272962,"internal_node_id":"0.0-4.0-1.38","subject_id":"60fd27170ce1fa66aa2da363","study_id":"6197b3f67c2b5cd3b6d9596a","session_id":"6197b9f06ba06947ebb979c6","condition":"full-information","relevant_dimensions":["antennae","pattern"],"bee_group":{"antennae":"B","wings":"X","pattern":"D","legs":"X"},"bonus":0.7000000000000013},{"rt":936.1999999284744,"stimulus":"bees-with-color/bee-B2DF.svg","response":1,"trial_type":"image-button-response","trial_index":85,"time_elapsed":273900,"internal_node_id":"0.0-4.0-0.39","subject_id":"60fd27170ce1fa66aa2da363","study_id":"6197b3f67c2b5cd3b6d9596a","session_id":"6197b9f06ba06947ebb979c6","condition":"full-information","relevant_dimensions":["antennae","pattern"],"bee_group":{"antennae":"B","wings":"X","pattern":"D","legs":"X"},"action":"avoid","summary":"good-avoid","bonus":0.7000000000000013},{"rt":879,"stimulus":"\n                    <p><b>Action: <em>avoid</em></b></p>\n                    <p>This is the bee that you just saw.</p>\n                    <img src=\"bees-with-color/bee-B2DF.svg\" width=\"200\">\n                    <p><span class=\"greenText\">Good choice!</span>  This bee would have stung you.<br>Your bonus pay is unchanged, and remains at $0.54.</p>\n            ","response":0,"trial_type":"html-button-response","trial_index":86,"time_elapsed":274780,"internal_node_id":"0.0-4.0-1.39","subject_id":"60fd27170ce1fa66aa2da363","study_id":"6197b3f67c2b5cd3b6d9596a","session_id":"6197b9f06ba06947ebb979c6","condition":"full-information","relevant_dimensions":["antennae","pattern"],"bee_group":{"antennae":"B","wings":"X","pattern":"D","legs":"X"},"bonus":0.7000000000000013},{"rt":1321.5,"stimulus":"bees-with-color/bee-B1SM.svg","response":0,"trial_type":"image-button-response","trial_index":87,"time_elapsed":276104,"internal_node_id":"0.0-4.0-0.40","subject_id":"60fd27170ce1fa66aa2da363","study_id":"6197b3f67c2b5cd3b6d9596a","session_id":"6197b9f06ba06947ebb979c6","condition":"full-information","relevant_dimensions":["antennae","pattern"],"bee_group":{"antennae":"B","wings":"X","pattern":"D","legs":"X"},"action":"harvest","summary":"good-harvest","bonus":0.7000000000000013},{"rt":670.2999999523163,"stimulus":"\n                    <p><b>Action: <em>harvest</em></b></p>\n                    <p>This is the bee that you just saw.</p>\n                    <img src=\"bees-with-color/bee-B1SM.svg\" width=\"200\">\n                    <p><span class=\"greenText\"><b>Successful harvest!</b></span><br>Your pay has increased by $0.02. Your bonus pay is now $0.56.</p>\n            ","response":0,"trial_type":"html-button-response","trial_index":88,"time_elapsed":276776,"internal_node_id":"0.0-4.0-1.40","subject_id":"60fd27170ce1fa66aa2da363","study_id":"6197b3f67c2b5cd3b6d9596a","session_id":"6197b9f06ba06947ebb979c6","condition":"full-information","relevant_dimensions":["antennae","pattern"],"bee_group":{"antennae":"B","wings":"X","pattern":"D","legs":"X"},"bonus":0.7000000000000013},{"rt":1056.2000000476837,"stimulus":"bees-with-color/bee-B2DM.svg","response":0,"trial_type":"image-button-response","trial_index":89,"time_elapsed":277833,"internal_node_id":"0.0-4.0-0.41","subject_id":"60fd27170ce1fa66aa2da363","study_id":"6197b3f67c2b5cd3b6d9596a","session_id":"6197b9f06ba06947ebb979c6","condition":"full-information","relevant_dimensions":["antennae","pattern"],"bee_group":{"antennae":"B","wings":"X","pattern":"D","legs":"X"},"action":"harvest","summary":"bad-harvest","bonus":0.7000000000000013},{"rt":2837.399999976158,"stimulus":"\n                    <p><b>Action: <em>harvest</em></b></p>\n                    <p>This is the bee that you just saw.</p>\n                    <img src=\"bees-with-color/bee-B2DM.svg\" width=\"200\">\n                    <p><span class=\"redText\">Bad choice, the bee was angry.</span><br><b>You have been stung!</b><br>Your pay has been decreased by $0.10. Your bonus pay is now $0.46.</p>\n            ","response":0,"trial_type":"html-button-response","trial_index":90,"time_elapsed":280673,"internal_node_id":"0.0-4.0-1.41","subject_id":"60fd27170ce1fa66aa2da363","study_id":"6197b3f67c2b5cd3b6d9596a","session_id":"6197b9f06ba06947ebb979c6","condition":"full-information","relevant_dimensions":["antennae","pattern"],"bee_group":{"antennae":"B","wings":"X","pattern":"D","legs":"X"},"bonus":0.7000000000000013},{"rt":1096.6000000238419,"stimulus":"bees-with-color/bee-B1SF.svg","response":1,"trial_type":"image-button-response","trial_index":91,"time_elapsed":281772,"internal_node_id":"0.0-4.0-0.42","subject_id":"60fd27170ce1fa66aa2da363","study_id":"6197b3f67c2b5cd3b6d9596a","session_id":"6197b9f06ba06947ebb979c6","condition":"full-information","relevant_dimensions":["antennae","pattern"],"bee_group":{"antennae":"B","wings":"X","pattern":"D","legs":"X"},"action":"avoid","summary":"bad-avoid","bonus":0.7000000000000013},{"rt":757.5,"stimulus":"\n                    <p><b>Action: <em>avoid</em></b></p>\n                    <p>This is the bee that you just saw.</p>\n                    <img src=\"bees-with-color/bee-B1SF.svg\" width=\"200\">\n                    <p><span class=\"redText\">Bad choice,</span> the bee was friendly.<br>Your bonus pay is unchanged, and remains at $0.46.</p>\n            ","response":0,"trial_type":"html-button-response","trial_index":92,"time_elapsed":282531,"internal_node_id":"0.0-4.0-1.42","subject_id":"60fd27170ce1fa66aa2da363","study_id":"6197b3f67c2b5cd3b6d9596a","session_id":"6197b9f06ba06947ebb979c6","condition":"full-information","relevant_dimensions":["antennae","pattern"],"bee_group":{"antennae":"B","wings":"X","pattern":"D","legs":"X"},"bonus":0.7000000000000013},{"rt":967.9000000953674,"stimulus":"bees-with-color/bee-B2SM.svg","response":0,"trial_type":"image-button-response","trial_index":93,"time_elapsed":283500,"internal_node_id":"0.0-4.0-0.43","subject_id":"60fd27170ce1fa66aa2da363","study_id":"6197b3f67c2b5cd3b6d9596a","session_id":"6197b9f06ba06947ebb979c6","condition":"full-information","relevant_dimensions":["antennae","pattern"],"bee_group":{"antennae":"B","wings":"X","pattern":"D","legs":"X"},"action":"harvest","summary":"good-harvest","bonus":0.7000000000000013},{"rt":664.2999999523163,"stimulus":"\n                    <p><b>Action: <em>harvest</em></b></p>\n                    <p>This is the bee that you just saw.</p>\n                    <img src=\"bees-with-color/bee-B2SM.svg\" width=\"200\">\n                    <p><span class=\"greenText\"><b>Successful harvest!</b></span><br>Your pay has increased by $0.02. Your bonus pay is now $0.48.</p>\n            ","response":0,"trial_type":"html-button-response","trial_index":94,"time_elapsed":284166,"internal_node_id":"0.0-4.0-1.43","subject_id":"60fd27170ce1fa66aa2da363","study_id":"6197b3f67c2b5cd3b6d9596a","session_id":"6197b9f06ba06947ebb979c6","condition":"full-information","relevant_dimensions":["antennae","pattern"],"bee_group":{"antennae":"B","wings":"X","pattern":"D","legs":"X"},"bonus":0.7000000000000013},{"rt":975.5,"stimulus":"bees-with-color/bee-B1DF.svg","response":1,"trial_type":"image-button-response","trial_index":95,"time_elapsed":285144,"internal_node_id":"0.0-4.0-0.44","subject_id":"60fd27170ce1fa66aa2da363","study_id":"6197b3f67c2b5cd3b6d9596a","session_id":"6197b9f06ba06947ebb979c6","condition":"full-information","relevant_dimensions":["antennae","pattern"],"bee_group":{"antennae":"B","wings":"X","pattern":"D","legs":"X"},"action":"avoid","summary":"good-avoid","bonus":0.7000000000000013},{"rt":740.8000000715256,"stimulus":"\n                    <p><b>Action: <em>avoid</em></b></p>\n                    <p>This is the bee that you just saw.</p>\n                    <img src=\"bees-with-color/bee-B1DF.svg\" width=\"200\">\n                    <p><span class=\"greenText\">Good choice!</span>  This bee would have stung you.<br>Your bonus pay is unchanged, and remains at $0.48.</p>\n            ","response":0,"trial_type":"html-button-response","trial_index":96,"time_elapsed":285887,"internal_node_id":"0.0-4.0-1.44","subject_id":"60fd27170ce1fa66aa2da363","study_id":"6197b3f67c2b5cd3b6d9596a","session_id":"6197b9f06ba06947ebb979c6","condition":"full-information","relevant_dimensions":["antennae","pattern"],"bee_group":{"antennae":"B","wings":"X","pattern":"D","legs":"X"},"bonus":0.7000000000000013},{"rt":911.2000000476837,"stimulus":"bees-with-color/bee-A2SF.svg","response":0,"trial_type":"image-button-response","trial_index":97,"time_elapsed":286800,"internal_node_id":"0.0-4.0-0.45","subject_id":"60fd27170ce1fa66aa2da363","study_id":"6197b3f67c2b5cd3b6d9596a","session_id":"6197b9f06ba06947ebb979c6","condition":"full-information","relevant_dimensions":["antennae","pattern"],"bee_group":{"antennae":"B","wings":"X","pattern":"D","legs":"X"},"action":"harvest","summary":"good-harvest","bonus":0.7000000000000013},{"rt":757.1999999284744,"stimulus":"\n                    <p><b>Action: <em>harvest</em></b></p>\n                    <p>This is the bee that you just saw.</p>\n                    <img src=\"bees-with-color/bee-A2SF.svg\" width=\"200\">\n                    <p><span class=\"greenText\"><b>Successful harvest!</b></span><br>Your pay has increased by $0.02. Your bonus pay is now $0.50.</p>\n            ","response":0,"trial_type":"html-button-response","trial_index":98,"time_elapsed":287559,"internal_node_id":"0.0-4.0-1.45","subject_id":"60fd27170ce1fa66aa2da363","study_id":"6197b3f67c2b5cd3b6d9596a","session_id":"6197b9f06ba06947ebb979c6","condition":"full-information","relevant_dimensions":["antennae","pattern"],"bee_group":{"antennae":"B","wings":"X","pattern":"D","legs":"X"},"bonus":0.7000000000000013},{"rt":1143.6000000238419,"stimulus":"bees-with-color/bee-B2SF.svg","response":1,"trial_type":"image-button-response","trial_index":99,"time_elapsed":288706,"internal_node_id":"0.0-4.0-0.46","subject_id":"60fd27170ce1fa66aa2da363","study_id":"6197b3f67c2b5cd3b6d9596a","session_id":"6197b9f06ba06947ebb979c6","condition":"full-information","relevant_dimensions":["antennae","pattern"],"bee_group":{"antennae":"B","wings":"X","pattern":"D","legs":"X"},"action":"avoid","summary":"bad-avoid","bonus":0.7000000000000013},{"rt":790.1000000238419,"stimulus":"\n                    <p><b>Action: <em>avoid</em></b></p>\n                    <p>This is the bee that you just saw.</p>\n                    <img src=\"bees-with-color/bee-B2SF.svg\" width=\"200\">\n                    <p><span class=\"redText\">Bad choice,</span> the bee was friendly.<br>Your bonus pay is unchanged, and remains at $0.50.</p>\n            ","response":0,"trial_type":"html-button-response","trial_index":100,"time_elapsed":289498,"internal_node_id":"0.0-4.0-1.46","subject_id":"60fd27170ce1fa66aa2da363","study_id":"6197b3f67c2b5cd3b6d9596a","session_id":"6197b9f06ba06947ebb979c6","condition":"full-information","relevant_dimensions":["antennae","pattern"],"bee_group":{"antennae":"B","wings":"X","pattern":"D","legs":"X"},"bonus":0.7000000000000013},{"rt":822.5,"stimulus":"bees-with-color/bee-A1DM.svg","response":0,"trial_type":"image-button-response","trial_index":101,"time_elapsed":290322,"internal_node_id":"0.0-4.0-0.47","subject_id":"60fd27170ce1fa66aa2da363","study_id":"6197b3f67c2b5cd3b6d9596a","session_id":"6197b9f06ba06947ebb979c6","condition":"full-information","relevant_dimensions":["antennae","pattern"],"bee_group":{"antennae":"B","wings":"X","pattern":"D","legs":"X"},"action":"harvest","summary":"good-harvest","bonus":0.7000000000000013},{"rt":660.6999999284744,"stimulus":"\n                    <p><b>Action: <em>harvest</em></b></p>\n                    <p>This is the bee that you just saw.</p>\n                    <img src=\"bees-with-color/bee-A1DM.svg\" width=\"200\">\n                    <p><span class=\"greenText\"><b>Successful harvest!</b></span><br>Your pay has increased by $0.02. Your bonus pay is now $0.52.</p>\n            ","response":0,"trial_type":"html-button-response","trial_index":102,"time_elapsed":290984,"internal_node_id":"0.0-4.0-1.47","subject_id":"60fd27170ce1fa66aa2da363","study_id":"6197b3f67c2b5cd3b6d9596a","session_id":"6197b9f06ba06947ebb979c6","condition":"full-information","relevant_dimensions":["antennae","pattern"],"bee_group":{"antennae":"B","wings":"X","pattern":"D","legs":"X"},"bonus":0.7000000000000013},{"rt":935.2999999523163,"stimulus":"bees-with-color/bee-A2SF.svg","response":0,"trial_type":"image-button-response","trial_index":103,"time_elapsed":291922,"internal_node_id":"0.0-4.0-0.48","subject_id":"60fd27170ce1fa66aa2da363","study_id":"6197b3f67c2b5cd3b6d9596a","session_id":"6197b9f06ba06947ebb979c6","condition":"full-information","relevant_dimensions":["antennae","pattern"],"bee_group":{"antennae":"B","wings":"X","pattern":"D","legs":"X"},"action":"harvest","summary":"good-harvest","bonus":0.7000000000000013},{"rt":611.7999999523163,"stimulus":"\n                    <p><b>Action: <em>harvest</em></b></p>\n                    <p>This is the bee that you just saw.</p>\n                    <img src=\"bees-with-color/bee-A2SF.svg\" width=\"200\">\n                    <p><span class=\"greenText\"><b>Successful harvest!</b></span><br>Your pay has increased by $0.02. Your bonus pay is now $0.54.</p>\n            ","response":0,"trial_type":"html-button-response","trial_index":104,"time_elapsed":292535,"internal_node_id":"0.0-4.0-1.48","subject_id":"60fd27170ce1fa66aa2da363","study_id":"6197b3f67c2b5cd3b6d9596a","session_id":"6197b9f06ba06947ebb979c6","condition":"full-information","relevant_dimensions":["antennae","pattern"],"bee_group":{"antennae":"B","wings":"X","pattern":"D","legs":"X"},"bonus":0.7000000000000013},{"rt":1120.3999999761581,"stimulus":"bees-with-color/bee-A1DF.svg","response":0,"trial_type":"image-button-response","trial_index":105,"time_elapsed":293658,"internal_node_id":"0.0-4.0-0.49","subject_id":"60fd27170ce1fa66aa2da363","study_id":"6197b3f67c2b5cd3b6d9596a","session_id":"6197b9f06ba06947ebb979c6","condition":"full-information","relevant_dimensions":["antennae","pattern"],"bee_group":{"antennae":"B","wings":"X","pattern":"D","legs":"X"},"action":"harvest","summary":"good-harvest","bonus":0.7000000000000013},{"rt":571.6999999284744,"stimulus":"\n                    <p><b>Action: <em>harvest</em></b></p>\n                    <p>This is the bee that you just saw.</p>\n                    <img src=\"bees-with-color/bee-A1DF.svg\" width=\"200\">\n                    <p><span class=\"greenText\"><b>Successful harvest!</b></span><br>Your pay has increased by $0.02. Your bonus pay is now $0.56.</p>\n            ","response":0,"trial_type":"html-button-response","trial_index":106,"time_elapsed":294231,"internal_node_id":"0.0-4.0-1.49","subject_id":"60fd27170ce1fa66aa2da363","study_id":"6197b3f67c2b5cd3b6d9596a","session_id":"6197b9f06ba06947ebb979c6","condition":"full-information","relevant_dimensions":["antennae","pattern"],"bee_group":{"antennae":"B","wings":"X","pattern":"D","legs":"X"},"bonus":0.7000000000000013},{"rt":958.5,"stimulus":"bees-with-color/bee-A1SF.svg","response":0,"trial_type":"image-button-response","trial_index":107,"time_elapsed":295192,"internal_node_id":"0.0-4.0-0.50","subject_id":"60fd27170ce1fa66aa2da363","study_id":"6197b3f67c2b5cd3b6d9596a","session_id":"6197b9f06ba06947ebb979c6","condition":"full-information","relevant_dimensions":["antennae","pattern"],"bee_group":{"antennae":"B","wings":"X","pattern":"D","legs":"X"},"action":"harvest","summary":"good-harvest","bonus":0.7000000000000013},{"rt":677.2999999523163,"stimulus":"\n                    <p><b>Action: <em>harvest</em></b></p>\n                    <p>This is the bee that you just saw.</p>\n                    <img src=\"bees-with-color/bee-A1SF.svg\" width=\"200\">\n                    <p><span class=\"greenText\"><b>Successful harvest!</b></span><br>Your pay has increased by $0.02. Your bonus pay is now $0.58.</p>\n            ","response":0,"trial_type":"html-button-response","trial_index":108,"time_elapsed":295871,"internal_node_id":"0.0-4.0-1.50","subject_id":"60fd27170ce1fa66aa2da363","study_id":"6197b3f67c2b5cd3b6d9596a","session_id":"6197b9f06ba06947ebb979c6","condition":"full-information","relevant_dimensions":["antennae","pattern"],"bee_group":{"antennae":"B","wings":"X","pattern":"D","legs":"X"},"bonus":0.7000000000000013},{"rt":1270.6000000238419,"stimulus":"bees-with-color/bee-A1DM.svg","response":0,"trial_type":"image-button-response","trial_index":109,"time_elapsed":297144,"internal_node_id":"0.0-4.0-0.51","subject_id":"60fd27170ce1fa66aa2da363","study_id":"6197b3f67c2b5cd3b6d9596a","session_id":"6197b9f06ba06947ebb979c6","condition":"full-information","relevant_dimensions":["antennae","pattern"],"bee_group":{"antennae":"B","wings":"X","pattern":"D","legs":"X"},"action":"harvest","summary":"good-harvest","bonus":0.7000000000000013},{"rt":651.9000000953674,"stimulus":"\n                    <p><b>Action: <em>harvest</em></b></p>\n                    <p>This is the bee that you just saw.</p>\n                    <img src=\"bees-with-color/bee-A1DM.svg\" width=\"200\">\n                    <p><span class=\"greenText\"><b>Successful harvest!</b></span><br>Your pay has increased by $0.02. Your bonus pay is now $0.60.</p>\n            ","response":0,"trial_type":"html-button-response","trial_index":110,"time_elapsed":297798,"internal_node_id":"0.0-4.0-1.51","subject_id":"60fd27170ce1fa66aa2da363","study_id":"6197b3f67c2b5cd3b6d9596a","session_id":"6197b9f06ba06947ebb979c6","condition":"full-information","relevant_dimensions":["antennae","pattern"],"bee_group":{"antennae":"B","wings":"X","pattern":"D","legs":"X"},"bonus":0.7000000000000013},{"rt":2792.7999999523163,"stimulus":"bees-with-color/bee-B2DM.svg","response":1,"trial_type":"image-button-response","trial_index":111,"time_elapsed":300592,"internal_node_id":"0.0-4.0-0.52","subject_id":"60fd27170ce1fa66aa2da363","study_id":"6197b3f67c2b5cd3b6d9596a","session_id":"6197b9f06ba06947ebb979c6","condition":"full-information","relevant_dimensions":["antennae","pattern"],"bee_group":{"antennae":"B","wings":"X","pattern":"D","legs":"X"},"action":"avoid","summary":"good-avoid","bonus":0.7000000000000013},{"rt":773.7999999523163,"stimulus":"\n                    <p><b>Action: <em>avoid</em></b></p>\n                    <p>This is the bee that you just saw.</p>\n                    <img src=\"bees-with-color/bee-B2DM.svg\" width=\"200\">\n                    <p><span class=\"greenText\">Good choice!</span>  This bee would have stung you.<br>Your bonus pay is unchanged, and remains at $0.60.</p>\n            ","response":0,"trial_type":"html-button-response","trial_index":112,"time_elapsed":301368,"internal_node_id":"0.0-4.0-1.52","subject_id":"60fd27170ce1fa66aa2da363","study_id":"6197b3f67c2b5cd3b6d9596a","session_id":"6197b9f06ba06947ebb979c6","condition":"full-information","relevant_dimensions":["antennae","pattern"],"bee_group":{"antennae":"B","wings":"X","pattern":"D","legs":"X"},"bonus":0.7000000000000013},{"rt":1476.3999999761581,"stimulus":"bees-with-color/bee-B1DM.svg","response":1,"trial_type":"image-button-response","trial_index":113,"time_elapsed":302846,"internal_node_id":"0.0-4.0-0.53","subject_id":"60fd27170ce1fa66aa2da363","study_id":"6197b3f67c2b5cd3b6d9596a","session_id":"6197b9f06ba06947ebb979c6","condition":"full-information","relevant_dimensions":["antennae","pattern"],"bee_group":{"antennae":"B","wings":"X","pattern":"D","legs":"X"},"action":"avoid","summary":"good-avoid","bonus":0.7000000000000013},{"rt":854.3999999761581,"stimulus":"\n                    <p><b>Action: <em>avoid</em></b></p>\n                    <p>This is the bee that you just saw.</p>\n                    <img src=\"bees-with-color/bee-B1DM.svg\" width=\"200\">\n                    <p><span class=\"greenText\">Good choice!</span>  This bee would have stung you.<br>Your bonus pay is unchanged, and remains at $0.60.</p>\n            ","response":0,"trial_type":"html-button-response","trial_index":114,"time_elapsed":303702,"internal_node_id":"0.0-4.0-1.53","subject_id":"60fd27170ce1fa66aa2da363","study_id":"6197b3f67c2b5cd3b6d9596a","session_id":"6197b9f06ba06947ebb979c6","condition":"full-information","relevant_dimensions":["antennae","pattern"],"bee_group":{"antennae":"B","wings":"X","pattern":"D","legs":"X"},"bonus":0.7000000000000013},{"rt":1347.7000000476837,"stimulus":"bees-with-color/bee-A2DM.svg","response":0,"trial_type":"image-button-response","trial_index":115,"time_elapsed":305052,"internal_node_id":"0.0-4.0-0.54","subject_id":"60fd27170ce1fa66aa2da363","study_id":"6197b3f67c2b5cd3b6d9596a","session_id":"6197b9f06ba06947ebb979c6","condition":"full-information","relevant_dimensions":["antennae","pattern"],"bee_group":{"antennae":"B","wings":"X","pattern":"D","legs":"X"},"action":"harvest","summary":"good-harvest","bonus":0.7000000000000013},{"rt":620,"stimulus":"\n                    <p><b>Action: <em>harvest</em></b></p>\n                    <p>This is the bee that you just saw.</p>\n                    <img src=\"bees-with-color/bee-A2DM.svg\" width=\"200\">\n                    <p><span class=\"greenText\"><b>Successful harvest!</b></span><br>Your pay has increased by $0.02. Your bonus pay is now $0.62.</p>\n            ","response":0,"trial_type":"html-button-response","trial_index":116,"time_elapsed":305674,"internal_node_id":"0.0-4.0-1.54","subject_id":"60fd27170ce1fa66aa2da363","study_id":"6197b3f67c2b5cd3b6d9596a","session_id":"6197b9f06ba06947ebb979c6","condition":"full-information","relevant_dimensions":["antennae","pattern"],"bee_group":{"antennae":"B","wings":"X","pattern":"D","legs":"X"},"bonus":0.7000000000000013},{"rt":975.6999999284744,"stimulus":"bees-with-color/bee-B1SF.svg","response":0,"trial_type":"image-button-response","trial_index":117,"time_elapsed":306651,"internal_node_id":"0.0-4.0-0.55","subject_id":"60fd27170ce1fa66aa2da363","study_id":"6197b3f67c2b5cd3b6d9596a","session_id":"6197b9f06ba06947ebb979c6","condition":"full-information","relevant_dimensions":["antennae","pattern"],"bee_group":{"antennae":"B","wings":"X","pattern":"D","legs":"X"},"action":"harvest","summary":"good-harvest","bonus":0.7000000000000013},{"rt":1500.3999999761581,"stimulus":"\n                    <p><b>Action: <em>harvest</em></b></p>\n                    <p>This is the bee that you just saw.</p>\n                    <img src=\"bees-with-color/bee-B1SF.svg\" width=\"200\">\n                    <p><span class=\"greenText\"><b>Successful harvest!</b></span><br>Your pay has increased by $0.02. Your bonus pay is now $0.64.</p>\n            ","response":0,"trial_type":"html-button-response","trial_index":118,"time_elapsed":308153,"internal_node_id":"0.0-4.0-1.55","subject_id":"60fd27170ce1fa66aa2da363","study_id":"6197b3f67c2b5cd3b6d9596a","session_id":"6197b9f06ba06947ebb979c6","condition":"full-information","relevant_dimensions":["antennae","pattern"],"bee_group":{"antennae":"B","wings":"X","pattern":"D","legs":"X"},"bonus":0.7000000000000013},{"rt":1564.8999999761581,"stimulus":"bees-with-color/bee-B2SF.svg","response":1,"trial_type":"image-button-response","trial_index":119,"time_elapsed":309720,"internal_node_id":"0.0-4.0-0.56","subject_id":"60fd27170ce1fa66aa2da363","study_id":"6197b3f67c2b5cd3b6d9596a","session_id":"6197b9f06ba06947ebb979c6","condition":"full-information","relevant_dimensions":["antennae","pattern"],"bee_group":{"antennae":"B","wings":"X","pattern":"D","legs":"X"},"action":"avoid","summary":"bad-avoid","bonus":0.7000000000000013},{"rt":789.8000000715256,"stimulus":"\n                    <p><b>Action: <em>avoid</em></b></p>\n                    <p>This is the bee that you just saw.</p>\n                    <img src=\"bees-with-color/bee-B2SF.svg\" width=\"200\">\n                    <p><span class=\"redText\">Bad choice,</span> the bee was friendly.<br>Your bonus pay is unchanged, and remains at $0.64.</p>\n            ","response":0,"trial_type":"html-button-response","trial_index":120,"time_elapsed":310512,"internal_node_id":"0.0-4.0-1.56","subject_id":"60fd27170ce1fa66aa2da363","study_id":"6197b3f67c2b5cd3b6d9596a","session_id":"6197b9f06ba06947ebb979c6","condition":"full-information","relevant_dimensions":["antennae","pattern"],"bee_group":{"antennae":"B","wings":"X","pattern":"D","legs":"X"},"bonus":0.7000000000000013},{"rt":1443.2000000476837,"stimulus":"bees-with-color/bee-B2SM.svg","response":0,"trial_type":"image-button-response","trial_index":121,"time_elapsed":311957,"internal_node_id":"0.0-4.0-0.57","subject_id":"60fd27170ce1fa66aa2da363","study_id":"6197b3f67c2b5cd3b6d9596a","session_id":"6197b9f06ba06947ebb979c6","condition":"full-information","relevant_dimensions":["antennae","pattern"],"bee_group":{"antennae":"B","wings":"X","pattern":"D","legs":"X"},"action":"harvest","summary":"good-harvest","bonus":0.7000000000000013},{"rt":637.3999999761581,"stimulus":"\n                    <p><b>Action: <em>harvest</em></b></p>\n                    <p>This is the bee that you just saw.</p>\n                    <img src=\"bees-with-color/bee-B2SM.svg\" width=\"200\">\n                    <p><span class=\"greenText\"><b>Successful harvest!</b></span><br>Your pay has increased by $0.02. Your bonus pay is now $0.66.</p>\n            ","response":0,"trial_type":"html-button-response","trial_index":122,"time_elapsed":312596,"internal_node_id":"0.0-4.0-1.57","subject_id":"60fd27170ce1fa66aa2da363","study_id":"6197b3f67c2b5cd3b6d9596a","session_id":"6197b9f06ba06947ebb979c6","condition":"full-information","relevant_dimensions":["antennae","pattern"],"bee_group":{"antennae":"B","wings":"X","pattern":"D","legs":"X"},"bonus":0.7000000000000013},{"rt":1129,"stimulus":"bees-with-color/bee-B1SM.svg","response":1,"trial_type":"image-button-response","trial_index":123,"time_elapsed":313727,"internal_node_id":"0.0-4.0-0.58","subject_id":"60fd27170ce1fa66aa2da363","study_id":"6197b3f67c2b5cd3b6d9596a","session_id":"6197b9f06ba06947ebb979c6","condition":"full-information","relevant_dimensions":["antennae","pattern"],"bee_group":{"antennae":"B","wings":"X","pattern":"D","legs":"X"},"action":"avoid","summary":"bad-avoid","bonus":0.7000000000000013},{"rt":724.9000000953674,"stimulus":"\n                    <p><b>Action: <em>avoid</em></b></p>\n                    <p>This is the bee that you just saw.</p>\n                    <img src=\"bees-with-color/bee-B1SM.svg\" width=\"200\">\n                    <p><span class=\"redText\">Bad choice,</span> the bee was friendly.<br>Your bonus pay is unchanged, and remains at $0.66.</p>\n            ","response":0,"trial_type":"html-button-response","trial_index":124,"time_elapsed":314454,"internal_node_id":"0.0-4.0-1.58","subject_id":"60fd27170ce1fa66aa2da363","study_id":"6197b3f67c2b5cd3b6d9596a","session_id":"6197b9f06ba06947ebb979c6","condition":"full-information","relevant_dimensions":["antennae","pattern"],"bee_group":{"antennae":"B","wings":"X","pattern":"D","legs":"X"},"bonus":0.7000000000000013},{"rt":1323.5,"stimulus":"bees-with-color/bee-A2SM.svg","response":0,"trial_type":"image-button-response","trial_index":125,"time_elapsed":315779,"internal_node_id":"0.0-4.0-0.59","subject_id":"60fd27170ce1fa66aa2da363","study_id":"6197b3f67c2b5cd3b6d9596a","session_id":"6197b9f06ba06947ebb979c6","condition":"full-information","relevant_dimensions":["antennae","pattern"],"bee_group":{"antennae":"B","wings":"X","pattern":"D","legs":"X"},"action":"harvest","summary":"good-harvest","bonus":0.7000000000000013},{"rt":934.7999999523163,"stimulus":"\n                    <p><b>Action: <em>harvest</em></b></p>\n                    <p>This is the bee that you just saw.</p>\n                    <img src=\"bees-with-color/bee-A2SM.svg\" width=\"200\">\n                    <p><span class=\"greenText\"><b>Successful harvest!</b></span><br>Your pay has increased by $0.02. Your bonus pay is now $0.68.</p>\n            ","response":0,"trial_type":"html-button-response","trial_index":126,"time_elapsed":316716,"internal_node_id":"0.0-4.0-1.59","subject_id":"60fd27170ce1fa66aa2da363","study_id":"6197b3f67c2b5cd3b6d9596a","session_id":"6197b9f06ba06947ebb979c6","condition":"full-information","relevant_dimensions":["antennae","pattern"],"bee_group":{"antennae":"B","wings":"X","pattern":"D","legs":"X"},"bonus":0.7000000000000013},{"rt":757.8000000715256,"stimulus":"bees-with-color/bee-A1SM.svg","response":0,"trial_type":"image-button-response","trial_index":127,"time_elapsed":317476,"internal_node_id":"0.0-4.0-0.60","subject_id":"60fd27170ce1fa66aa2da363","study_id":"6197b3f67c2b5cd3b6d9596a","session_id":"6197b9f06ba06947ebb979c6","condition":"full-information","relevant_dimensions":["antennae","pattern"],"bee_group":{"antennae":"B","wings":"X","pattern":"D","legs":"X"},"action":"harvest","summary":"good-harvest","bonus":0.7000000000000013},{"rt":747.5,"stimulus":"\n                    <p><b>Action: <em>harvest</em></b></p>\n                    <p>This is the bee that you just saw.</p>\n                    <img src=\"bees-with-color/bee-A1SM.svg\" width=\"200\">\n                    <p><span class=\"greenText\"><b>Successful harvest!</b></span><br>Your pay has increased by $0.02. Your bonus pay is now $0.70.</p>\n            ","response":0,"trial_type":"html-button-response","trial_index":128,"time_elapsed":318225,"internal_node_id":"0.0-4.0-1.60","subject_id":"60fd27170ce1fa66aa2da363","study_id":"6197b3f67c2b5cd3b6d9596a","session_id":"6197b9f06ba06947ebb979c6","condition":"full-information","relevant_dimensions":["antennae","pattern"],"bee_group":{"antennae":"B","wings":"X","pattern":"D","legs":"X"},"bonus":0.7000000000000013},{"rt":1000.2999999523163,"stimulus":"bees-with-color/bee-B2DF.svg","response":1,"trial_type":"image-button-response","trial_index":129,"time_elapsed":319228,"internal_node_id":"0.0-4.0-0.61","subject_id":"60fd27170ce1fa66aa2da363","study_id":"6197b3f67c2b5cd3b6d9596a","session_id":"6197b9f06ba06947ebb979c6","condition":"full-information","relevant_dimensions":["antennae","pattern"],"bee_group":{"antennae":"B","wings":"X","pattern":"D","legs":"X"},"action":"avoid","summary":"good-avoid","bonus":0.7000000000000013},{"rt":741,"stimulus":"\n                    <p><b>Action: <em>avoid</em></b></p>\n                    <p>This is the bee that you just saw.</p>\n                    <img src=\"bees-with-color/bee-B2DF.svg\" width=\"200\">\n                    <p><span class=\"greenText\">Good choice!</span>  This bee would have stung you.<br>Your bonus pay is unchanged, and remains at $0.70.</p>\n            ","response":0,"trial_type":"html-button-response","trial_index":130,"time_elapsed":319971,"internal_node_id":"0.0-4.0-1.61","subject_id":"60fd27170ce1fa66aa2da363","study_id":"6197b3f67c2b5cd3b6d9596a","session_id":"6197b9f06ba06947ebb979c6","condition":"full-information","relevant_dimensions":["antennae","pattern"],"bee_group":{"antennae":"B","wings":"X","pattern":"D","legs":"X"},"bonus":0.7000000000000013},{"rt":902.8999999761581,"stimulus":"bees-with-color/bee-B1DF.svg","response":1,"trial_type":"image-button-response","trial_index":131,"time_elapsed":320876,"internal_node_id":"0.0-4.0-0.62","subject_id":"60fd27170ce1fa66aa2da363","study_id":"6197b3f67c2b5cd3b6d9596a","session_id":"6197b9f06ba06947ebb979c6","condition":"full-information","relevant_dimensions":["antennae","pattern"],"bee_group":{"antennae":"B","wings":"X","pattern":"D","legs":"X"},"action":"avoid","summary":"good-avoid","bonus":0.7000000000000013},{"rt":741.3000000715256,"stimulus":"\n                    <p><b>Action: <em>avoid</em></b></p>\n                    <p>This is the bee that you just saw.</p>\n                    <img src=\"bees-with-color/bee-B1DF.svg\" width=\"200\">\n                    <p><span class=\"greenText\">Good choice!</span>  This bee would have stung you.<br>Your bonus pay is unchanged, and remains at $0.70.</p>\n            ","response":0,"trial_type":"html-button-response","trial_index":132,"time_elapsed":321619,"internal_node_id":"0.0-4.0-1.62","subject_id":"60fd27170ce1fa66aa2da363","study_id":"6197b3f67c2b5cd3b6d9596a","session_id":"6197b9f06ba06947ebb979c6","condition":"full-information","relevant_dimensions":["antennae","pattern"],"bee_group":{"antennae":"B","wings":"X","pattern":"D","legs":"X"},"bonus":0.7000000000000013},{"rt":838.1000000238419,"stimulus":"bees-with-color/bee-A2DF.svg","response":0,"trial_type":"image-button-response","trial_index":133,"time_elapsed":322459,"internal_node_id":"0.0-4.0-0.63","subject_id":"60fd27170ce1fa66aa2da363","study_id":"6197b3f67c2b5cd3b6d9596a","session_id":"6197b9f06ba06947ebb979c6","condition":"full-information","relevant_dimensions":["antennae","pattern"],"bee_group":{"antennae":"B","wings":"X","pattern":"D","legs":"X"},"action":"harvest","summary":"good-harvest","bonus":0.7000000000000013},{"rt":700.6999999284744,"stimulus":"\n                    <p><b>Action: <em>harvest</em></b></p>\n                    <p>This is the bee that you just saw.</p>\n                    <img src=\"bees-with-color/bee-A2DF.svg\" width=\"200\">\n                    <p><span class=\"greenText\"><b>Successful harvest!</b></span><br>Your pay has increased by $0.02. Your bonus pay is now $0.72.</p>\n            ","response":0,"trial_type":"html-button-response","trial_index":134,"time_elapsed":323161,"internal_node_id":"0.0-4.0-1.63","subject_id":"60fd27170ce1fa66aa2da363","study_id":"6197b3f67c2b5cd3b6d9596a","session_id":"6197b9f06ba06947ebb979c6","condition":"full-information","relevant_dimensions":["antennae","pattern"],"bee_group":{"antennae":"B","wings":"X","pattern":"D","legs":"X"},"bonus":0.7000000000000013},{"rt":5728,"stimulus":"You have completed the first part of this experiment.<br><br>You will now begin a shorter second part, in which you will receive no feedback.<br>The same rules regarding bonus pay apply.<br><br>Press any key to begin.","response":" ","trial_type":"html-keyboard-response","trial_index":135,"time_elapsed":328892,"internal_node_id":"0.0-5.0","subject_id":"60fd27170ce1fa66aa2da363","study_id":"6197b3f67c2b5cd3b6d9596a","session_id":"6197b9f06ba06947ebb979c6","condition":"full-information","relevant_dimensions":["antennae","pattern"],"bee_group":{"antennae":"B","wings":"X","pattern":"D","legs":"X"},"bonus":0.7000000000000013},{"rt":1555.7999999523163,"stimulus":"bees-with-color/bee-A2SF.svg","response":0,"trial_type":"image-button-response","trial_index":136,"time_elapsed":330456,"internal_node_id":"0.0-6.0-0.0","subject_id":"60fd27170ce1fa66aa2da363","study_id":"6197b3f67c2b5cd3b6d9596a","session_id":"6197b9f06ba06947ebb979c6","condition":"full-information","relevant_dimensions":["antennae","pattern"],"bee_group":{"antennae":"B","wings":"X","pattern":"D","legs":"X"},"bonus":0.7000000000000013},{"rt":1257.2999999523163,"stimulus":"bees-with-color/bee-A1SM.svg","response":0,"trial_type":"image-button-response","trial_index":137,"time_elapsed":331716,"internal_node_id":"0.0-6.0-0.1","subject_id":"60fd27170ce1fa66aa2da363","study_id":"6197b3f67c2b5cd3b6d9596a","session_id":"6197b9f06ba06947ebb979c6","condition":"full-information","relevant_dimensions":["antennae","pattern"],"bee_group":{"antennae":"B","wings":"X","pattern":"D","legs":"X"},"bonus":0.7000000000000013},{"rt":2670.2000000476837,"stimulus":"bees-with-color/bee-B2SF.svg","response":1,"trial_type":"image-button-response","trial_index":138,"time_elapsed":334389,"internal_node_id":"0.0-6.0-0.2","subject_id":"60fd27170ce1fa66aa2da363","study_id":"6197b3f67c2b5cd3b6d9596a","session_id":"6197b9f06ba06947ebb979c6","condition":"full-information","relevant_dimensions":["antennae","pattern"],"bee_group":{"antennae":"B","wings":"X","pattern":"D","legs":"X"},"bonus":0.7000000000000013},{"rt":974.5999999046326,"stimulus":"bees-with-color/bee-A1DM.svg","response":0,"trial_type":"image-button-response","trial_index":139,"time_elapsed":335367,"internal_node_id":"0.0-6.0-0.3","subject_id":"60fd27170ce1fa66aa2da363","study_id":"6197b3f67c2b5cd3b6d9596a","session_id":"6197b9f06ba06947ebb979c6","condition":"full-information","relevant_dimensions":["antennae","pattern"],"bee_group":{"antennae":"B","wings":"X","pattern":"D","legs":"X"},"bonus":0.7000000000000013},{"rt":1297.2999999523163,"stimulus":"bees-with-color/bee-A2DF.svg","response":0,"trial_type":"image-button-response","trial_index":140,"time_elapsed":336667,"internal_node_id":"0.0-6.0-0.4","subject_id":"60fd27170ce1fa66aa2da363","study_id":"6197b3f67c2b5cd3b6d9596a","session_id":"6197b9f06ba06947ebb979c6","condition":"full-information","relevant_dimensions":["antennae","pattern"],"bee_group":{"antennae":"B","wings":"X","pattern":"D","legs":"X"},"bonus":0.7000000000000013},{"rt":1083.6000000238419,"stimulus":"bees-with-color/bee-A1SF.svg","response":0,"trial_type":"image-button-response","trial_index":141,"time_elapsed":337754,"internal_node_id":"0.0-6.0-0.5","subject_id":"60fd27170ce1fa66aa2da363","study_id":"6197b3f67c2b5cd3b6d9596a","session_id":"6197b9f06ba06947ebb979c6","condition":"full-information","relevant_dimensions":["antennae","pattern"],"bee_group":{"antennae":"B","wings":"X","pattern":"D","legs":"X"},"bonus":0.7000000000000013},{"rt":2274,"stimulus":"bees-with-color/bee-B1DM.svg","response":1,"trial_type":"image-button-response","trial_index":142,"time_elapsed":340031,"internal_node_id":"0.0-6.0-0.6","subject_id":"60fd27170ce1fa66aa2da363","study_id":"6197b3f67c2b5cd3b6d9596a","session_id":"6197b9f06ba06947ebb979c6","condition":"full-information","relevant_dimensions":["antennae","pattern"],"bee_group":{"antennae":"B","wings":"X","pattern":"D","legs":"X"},"bonus":0.7000000000000013},{"rt":927,"stimulus":"bees-with-color/bee-B2DF.svg","response":0,"trial_type":"image-button-response","trial_index":143,"time_elapsed":340961,"internal_node_id":"0.0-6.0-0.7","subject_id":"60fd27170ce1fa66aa2da363","study_id":"6197b3f67c2b5cd3b6d9596a","session_id":"6197b9f06ba06947ebb979c6","condition":"full-information","relevant_dimensions":["antennae","pattern"],"bee_group":{"antennae":"B","wings":"X","pattern":"D","legs":"X"},"bonus":0.7000000000000013},{"rt":1459.2000000476837,"stimulus":"bees-with-color/bee-B1DF.svg","response":1,"trial_type":"image-button-response","trial_index":144,"time_elapsed":342422,"internal_node_id":"0.0-6.0-0.8","subject_id":"60fd27170ce1fa66aa2da363","study_id":"6197b3f67c2b5cd3b6d9596a","session_id":"6197b9f06ba06947ebb979c6","condition":"full-information","relevant_dimensions":["antennae","pattern"],"bee_group":{"antennae":"B","wings":"X","pattern":"D","legs":"X"},"bonus":0.7000000000000013},{"rt":1249.6000000238419,"stimulus":"bees-with-color/bee-A1DF.svg","response":0,"trial_type":"image-button-response","trial_index":145,"time_elapsed":343674,"internal_node_id":"0.0-6.0-0.9","subject_id":"60fd27170ce1fa66aa2da363","study_id":"6197b3f67c2b5cd3b6d9596a","session_id":"6197b9f06ba06947ebb979c6","condition":"full-information","relevant_dimensions":["antennae","pattern"],"bee_group":{"antennae":"B","wings":"X","pattern":"D","legs":"X"},"bonus":0.7000000000000013},{"rt":813.3999999761581,"stimulus":"bees-with-color/bee-A2SM.svg","response":0,"trial_type":"image-button-response","trial_index":146,"time_elapsed":344490,"internal_node_id":"0.0-6.0-0.10","subject_id":"60fd27170ce1fa66aa2da363","study_id":"6197b3f67c2b5cd3b6d9596a","session_id":"6197b9f06ba06947ebb979c6","condition":"full-information","relevant_dimensions":["antennae","pattern"],"bee_group":{"antennae":"B","wings":"X","pattern":"D","legs":"X"},"bonus":0.7000000000000013},{"rt":1354.8000000715256,"stimulus":"bees-with-color/bee-B2DM.svg","response":0,"trial_type":"image-button-response","trial_index":147,"time_elapsed":345847,"internal_node_id":"0.0-6.0-0.11","subject_id":"60fd27170ce1fa66aa2da363","study_id":"6197b3f67c2b5cd3b6d9596a","session_id":"6197b9f06ba06947ebb979c6","condition":"full-information","relevant_dimensions":["antennae","pattern"],"bee_group":{"antennae":"B","wings":"X","pattern":"D","legs":"X"},"bonus":0.7000000000000013},{"rt":1346.7000000476837,"stimulus":"bees-with-color/bee-B1SF.svg","response":1,"trial_type":"image-button-response","trial_index":148,"time_elapsed":347196,"internal_node_id":"0.0-6.0-0.12","subject_id":"60fd27170ce1fa66aa2da363","study_id":"6197b3f67c2b5cd3b6d9596a","session_id":"6197b9f06ba06947ebb979c6","condition":"full-information","relevant_dimensions":["antennae","pattern"],"bee_group":{"antennae":"B","wings":"X","pattern":"D","legs":"X"},"bonus":0.7000000000000013},{"rt":805.8999999761581,"stimulus":"bees-with-color/bee-A2DM.svg","response":0,"trial_type":"image-button-response","trial_index":149,"time_elapsed":348004,"internal_node_id":"0.0-6.0-0.13","subject_id":"60fd27170ce1fa66aa2da363","study_id":"6197b3f67c2b5cd3b6d9596a","session_id":"6197b9f06ba06947ebb979c6","condition":"full-information","relevant_dimensions":["antennae","pattern"],"bee_group":{"antennae":"B","wings":"X","pattern":"D","legs":"X"},"bonus":0.7000000000000013},{"rt":1159.6000000238419,"stimulus":"bees-with-color/bee-B2SM.svg","response":1,"trial_type":"image-button-response","trial_index":150,"time_elapsed":349167,"internal_node_id":"0.0-6.0-0.14","subject_id":"60fd27170ce1fa66aa2da363","study_id":"6197b3f67c2b5cd3b6d9596a","session_id":"6197b9f06ba06947ebb979c6","condition":"full-information","relevant_dimensions":["antennae","pattern"],"bee_group":{"antennae":"B","wings":"X","pattern":"D","legs":"X"},"bonus":0.7000000000000013},{"rt":942.7000000476837,"stimulus":"bees-with-color/bee-B1SM.svg","response":1,"trial_type":"image-button-response","trial_index":151,"time_elapsed":350112,"internal_node_id":"0.0-6.0-0.15","subject_id":"60fd27170ce1fa66aa2da363","study_id":"6197b3f67c2b5cd3b6d9596a","session_id":"6197b9f06ba06947ebb979c6","condition":"full-information","relevant_dimensions":["antennae","pattern"],"bee_group":{"antennae":"B","wings":"X","pattern":"D","legs":"X"},"bonus":0.7000000000000013},{"rt":716.8999999761581,"stimulus":"bees-with-color/bee-A2SF.svg","response":0,"trial_type":"image-button-response","trial_index":152,"time_elapsed":350831,"internal_node_id":"0.0-6.0-0.16","subject_id":"60fd27170ce1fa66aa2da363","study_id":"6197b3f67c2b5cd3b6d9596a","session_id":"6197b9f06ba06947ebb979c6","condition":"full-information","relevant_dimensions":["antennae","pattern"],"bee_group":{"antennae":"B","wings":"X","pattern":"D","legs":"X"},"bonus":0.7000000000000013},{"rt":563.6000000238419,"stimulus":"bees-with-color/bee-A1SF.svg","response":0,"trial_type":"image-button-response","trial_index":153,"time_elapsed":351396,"internal_node_id":"0.0-6.0-0.17","subject_id":"60fd27170ce1fa66aa2da363","study_id":"6197b3f67c2b5cd3b6d9596a","session_id":"6197b9f06ba06947ebb979c6","condition":"full-information","relevant_dimensions":["antennae","pattern"],"bee_group":{"antennae":"B","wings":"X","pattern":"D","legs":"X"},"bonus":0.7000000000000013},{"rt":506.39999997615814,"stimulus":"bees-with-color/bee-A2DF.svg","response":0,"trial_type":"image-button-response","trial_index":154,"time_elapsed":351905,"internal_node_id":"0.0-6.0-0.18","subject_id":"60fd27170ce1fa66aa2da363","study_id":"6197b3f67c2b5cd3b6d9596a","session_id":"6197b9f06ba06947ebb979c6","condition":"full-information","relevant_dimensions":["antennae","pattern"],"bee_group":{"antennae":"B","wings":"X","pattern":"D","legs":"X"},"bonus":0.7000000000000013},{"rt":1944.5,"stimulus":"bees-with-color/bee-B1DF.svg","response":1,"trial_type":"image-button-response","trial_index":155,"time_elapsed":353852,"internal_node_id":"0.0-6.0-0.19","subject_id":"60fd27170ce1fa66aa2da363","study_id":"6197b3f67c2b5cd3b6d9596a","session_id":"6197b9f06ba06947ebb979c6","condition":"full-information","relevant_dimensions":["antennae","pattern"],"bee_group":{"antennae":"B","wings":"X","pattern":"D","legs":"X"},"bonus":0.7000000000000013},{"rt":1653.6000000238419,"stimulus":"bees-with-color/bee-B2DM.svg","response":0,"trial_type":"image-button-response","trial_index":156,"time_elapsed":355507,"internal_node_id":"0.0-6.0-0.20","s