[{"success":true,"trial_type":"fullscreen","trial_index":0,"time_elapsed":5386,"internal_node_id":"0.0-0.0","subject_id":"60d1224bb86fedf1819ef67b","study_id":"6197b3f67c2b5cd3b6d9596a","session_id":"619be78945ca1948e7ad8bf9","condition":"full-information","relevant_dimensions":["antennae","legs"],"bee_group":{"antennae":"A","wings":"X","pattern":"X","legs":"M"},"bonus":0.04},{"success":true,"timeout":false,"failed_images":[],"failed_audio":[],"failed_video":[],"trial_type":"preload","trial_index":1,"time_elapsed":7723,"internal_node_id":"0.0-1.0","subject_id":"60d1224bb86fedf1819ef67b","study_id":"6197b3f67c2b5cd3b6d9596a","session_id":"619be78945ca1948e7ad8bf9","condition":"full-information","relevant_dimensions":["antennae","legs"],"bee_group":{"antennae":"A","wings":"X","pattern":"X","legs":"M"},"bonus":0.04},{"rt":3864.300000011921,"stimulus":"Welcome! Press any key to begin.","response":"h","trial_type":"html-keyboard-response","trial_index":2,"time_elapsed":11590,"internal_node_id":"0.0-2.0","subject_id":"60d1224bb86fedf1819ef67b","study_id":"6197b3f67c2b5cd3b6d9596a","session_id":"619be78945ca1948e7ad8bf9","condition":"full-information","relevant_dimensions":["antennae","legs"],"bee_group":{"antennae":"A","wings":"X","pattern":"X","legs":"M"},"bonus":0.04},{"view_history":[{"page_index":0,"viewing_time":4183.699999988079},{"page_index":1,"viewing_time":10287.300000011921},{"page_index":2,"viewing_time":9196.300000011921},{"page_index":3,"viewing_time":10973.699999988079},{"page_index":4,"viewing_time":4526.599999964237},{"page_index":5,"viewing_time":9080},{"page_index":6,"viewing_time":8624.800000011921},{"page_index":7,"viewing_time":4274.300000011921},{"page_index":8,"viewing_time":3733.800000011921},{"page_index":9,"viewing_time":1843.300000011921},{"page_index":10,"viewing_time":2320.399999976158},{"page_index":11,"viewing_time":5336.399999976158},{"page_index":12,"viewing_time":9825.700000047684},{"page_index":13,"viewing_time":1306.0999999642372},{"page_index":14,"viewing_time":2471.900000035763}],"rt":87985.5,"trial_type":"instructions","trial_index":3,"time_elapsed":99578,"internal_node_id":"0.0-3.0-0.0","subject_id":"60d1224bb86fedf1819ef67b","study_id":"6197b3f67c2b5cd3b6d9596a","session_id":"619be78945ca1948e7ad8bf9","condition":"full-information","relevant_dimensions":["antennae","legs"],"bee_group":{"antennae":"A","wings":"X","pattern":"X","legs":"M"},"bonus":0.04},{"rt":12761,"response":{"Q0":["Two or six legs","Stripes or spots on body","Single or double wings","Antennae or no antennae"]},"question_order":[0],"trial_type":"survey-multi-select","trial_index":4,"time_elapsed":112354,"internal_node_id":"0.0-3.0-1.0","subject_id":"60d1224bb86fedf1819ef67b","study_id":"6197b3f67c2b5cd3b6d9596a","session_id":"619be78945ca1948e7ad8bf9","condition":"full-information","relevant_dimensions":["antennae","legs"],"bee_group":{"antennae":"A","wings":"X","pattern":"X","legs":"M"},"correct":true,"bonus":0.04},{"rt":18350,"response":{"Q1":"No.","Q2":"Based on the four features of the bee.","Q3":"You learn if it was friendly or dangerous, but do not alter your bonus."},"question_order":[0,1,2],"trial_type":"survey-multi-choice","trial_index":5,"time_elapsed":130711,"internal_node_id":"0.0-3.0-2.0","subject_id":"60d1224bb86fedf1819ef67b","study_id":"6197b3f67c2b5cd3b6d9596a","session_id":"619be78945ca1948e7ad8bf9","condition":"full-information","relevant_dimensions":["antennae","legs"],"bee_group":{"antennae":"A","wings":"X","pattern":"X","legs":"M"},"correct":true,"bonus":0.04},{"rt":2675,"stimulus":"<p>Congrats, you got everything right<br>When you're ready, click the button below to continue to the experiment.</p>","response":0,"trial_type":"html-button-response","trial_index":6,"time_elapsed":133389,"internal_node_id":"0.0-3.0-3.0","subject_id":"60d1224bb86fedf1819ef67b","study_id":"6197b3f67c2b5cd3b6d9596a","session_id":"619be78945ca1948e7ad8bf9","condition":"full-information","relevant_dimensions":["antennae","legs"],"bee_group":{"antennae":"A","wings":"X","pattern":"X","legs":"M"},"bonus":0.04},{"rt":5768.199999988079,"stimulus":"bees-with-color/bee-A2DF.svg","response":0,"trial_type":"image-button-response","trial_index":7,"time_elapsed":139161,"internal_node_id":"0.0-4.0-0.0","subject_id":"60d1224bb86fedf1819ef67b","study_id":"6197b3f67c2b5cd3b6d9596a","session_id":"619be78945ca1948e7ad8bf9","condition":"full-information","relevant_dimensions":["antennae","legs"],"bee_group":{"antennae":"A","wings":"X","pattern":"X","legs":"M"},"action":"harvest","summary":"good-harvest","bonus":0.04},{"rt":4457.900000035763,"stimulus":"\n                    <p><b>Action: <em>harvest</em></b></p>\n                    <p>This is the bee that you just saw.</p>\n                    <img src=\"bees-with-color/bee-A2DF.svg\" width=\"200\">\n                    <p><span class=\"greenText\"><b>Successful harvest!</b></span><br>Your pay has increased by $0.02. Your bonus pay is now $0.56.</p>\n            ","response":0,"trial_type":"html-button-response","trial_index":8,"time_elapsed":143622,"internal_node_id":"0.0-4.0-1.0","subject_id":"60d1224bb86fedf1819ef67b","study_id":"6197b3f67c2b5cd3b6d9596a","session_id":"619be78945ca1948e7ad8bf9","condition":"full-information","relevant_dimensions":["antennae","legs"],"bee_group":{"antennae":"A","wings":"X","pattern":"X","legs":"M"},"bonus":0.04},{"rt":1537.300000011921,"stimulus":"bees-with-color/bee-A1DF.svg","response":0,"trial_type":"image-button-response","trial_index":9,"time_elapsed":145163,"internal_node_id":"0.0-4.0-0.1","subject_id":"60d1224bb86fedf1819ef67b","study_id":"6197b3f67c2b5cd3b6d9596a","session_id":"619be78945ca1948e7ad8bf9","condition":"full-information","relevant_dimensions":["antennae","legs"],"bee_group":{"antennae":"A","wings":"X","pattern":"X","legs":"M"},"action":"harvest","summary":"good-harvest","bonus":0.04},{"rt":1071.5,"stimulus":"\n                    <p><b>Action: <em>harvest</em></b></p>\n                    <p>This is the bee that you just saw.</p>\n                    <img src=\"bees-with-color/bee-A1DF.svg\" width=\"200\">\n                    <p><span class=\"greenText\"><b>Successful harvest!</b></span><br>Your pay has increased by $0.02. Your bonus pay is now $0.58.</p>\n            ","response":0,"trial_type":"html-button-response","trial_index":10,"time_elapsed":146239,"internal_node_id":"0.0-4.0-1.1","subject_id":"60d1224bb86fedf1819ef67b","study_id":"6197b3f67c2b5cd3b6d9596a","session_id":"619be78945ca1948e7ad8bf9","condition":"full-information","relevant_dimensions":["antennae","legs"],"bee_group":{"antennae":"A","wings":"X","pattern":"X","legs":"M"},"bonus":0.04},{"rt":4418.300000011921,"stimulus":"bees-with-color/bee-B2SF.svg","response":0,"trial_type":"image-button-response","trial_index":11,"time_elapsed":150659,"internal_node_id":"0.0-4.0-0.2","subject_id":"60d1224bb86fedf1819ef67b","study_id":"6197b3f67c2b5cd3b6d9596a","session_id":"619be78945ca1948e7ad8bf9","condition":"full-information","relevant_dimensions":["antennae","legs"],"bee_group":{"antennae":"A","wings":"X","pattern":"X","legs":"M"},"action":"harvest","summary":"good-harvest","bonus":0.04},{"rt":4237.200000047684,"stimulus":"\n                    <p><b>Action: <em>harvest</em></b></p>\n                    <p>This is the bee that you just saw.</p>\n                    <img src=\"bees-with-color/bee-B2SF.svg\" width=\"200\">\n                    <p><span class=\"greenText\"><b>Successful harvest!</b></span><br>Your pay has increased by $0.02. Your bonus pay is now $0.60.</p>\n            ","response":0,"trial_type":"html-button-response","trial_index":12,"time_elapsed":154899,"internal_node_id":"0.0-4.0-1.2","subject_id":"60d1224bb86fedf1819ef67b","study_id":"6197b3f67c2b5cd3b6d9596a","session_id":"619be78945ca1948e7ad8bf9","condition":"full-information","relevant_dimensions":["antennae","legs"],"bee_group":{"antennae":"A","wings":"X","pattern":"X","legs":"M"},"bonus":0.04},{"rt":3092.399999976158,"stimulus":"bees-with-color/bee-B1DM.svg","response":0,"trial_type":"image-button-response","trial_index":13,"time_elapsed":157994,"internal_node_id":"0.0-4.0-0.3","subject_id":"60d1224bb86fedf1819ef67b","study_id":"6197b3f67c2b5cd3b6d9596a","session_id":"619be78945ca1948e7ad8bf9","condition":"full-information","relevant_dimensions":["antennae","legs"],"bee_group":{"antennae":"A","wings":"X","pattern":"X","legs":"M"},"action":"harvest","summary":"good-harvest","bonus":0.04},{"rt":3705.899999976158,"stimulus":"\n                    <p><b>Action: <em>harvest</em></b></p>\n                    <p>This is the bee that you just saw.</p>\n                    <img src=\"bees-with-color/bee-B1DM.svg\" width=\"200\">\n                    <p><span class=\"greenText\"><b>Successful harvest!</b></span><br>Your pay has increased by $0.02. Your bonus pay is now $0.62.</p>\n            ","response":0,"trial_type":"html-button-response","trial_index":14,"time_elapsed":161702,"internal_node_id":"0.0-4.0-1.3","subject_id":"60d1224bb86fedf1819ef67b","study_id":"6197b3f67c2b5cd3b6d9596a","session_id":"619be78945ca1948e7ad8bf9","condition":"full-information","relevant_dimensions":["antennae","legs"],"bee_group":{"antennae":"A","wings":"X","pattern":"X","legs":"M"},"bonus":0.04},{"rt":1356.5999999642372,"stimulus":"bees-with-color/bee-B2DF.svg","response":0,"trial_type":"image-button-response","trial_index":15,"time_elapsed":163061,"internal_node_id":"0.0-4.0-0.4","subject_id":"60d1224bb86fedf1819ef67b","study_id":"6197b3f67c2b5cd3b6d9596a","session_id":"619be78945ca1948e7ad8bf9","condition":"full-information","relevant_dimensions":["antennae","legs"],"bee_group":{"antennae":"A","wings":"X","pattern":"X","legs":"M"},"action":"harvest","summary":"good-harvest","bonus":0.04},{"rt":836.3000000119209,"stimulus":"\n                    <p><b>Action: <em>harvest</em></b></p>\n                    <p>This is the bee that you just saw.</p>\n                    <img src=\"bees-with-color/bee-B2DF.svg\" width=\"200\">\n                    <p><span class=\"greenText\"><b>Successful harvest!</b></span><br>Your pay has increased by $0.02. Your bonus pay is now $0.64.</p>\n            ","response":0,"trial_type":"html-button-response","trial_index":16,"time_elapsed":163900,"internal_node_id":"0.0-4.0-1.4","subject_id":"60d1224bb86fedf1819ef67b","study_id":"6197b3f67c2b5cd3b6d9596a","session_id":"619be78945ca1948e7ad8bf9","condition":"full-information","relevant_dimensions":["antennae","legs"],"bee_group":{"antennae":"A","wings":"X","pattern":"X","legs":"M"},"bonus":0.04},{"rt":3174.800000011921,"stimulus":"bees-with-color/bee-A1SM.svg","response":0,"trial_type":"image-button-response","trial_index":17,"time_elapsed":167077,"internal_node_id":"0.0-4.0-0.5","subject_id":"60d1224bb86fedf1819ef67b","study_id":"6197b3f67c2b5cd3b6d9596a","session_id":"619be78945ca1948e7ad8bf9","condition":"full-information","relevant_dimensions":["antennae","legs"],"bee_group":{"antennae":"A","wings":"X","pattern":"X","legs":"M"},"action":"harvest","summary":"bad-harvest","bonus":0.04},{"rt":1338,"stimulus":"\n                    <p><b>Action: <em>harvest</em></b></p>\n                    <p>This is the bee that you just saw.</p>\n                    <img src=\"bees-with-color/bee-A1SM.svg\" width=\"200\">\n                    <p><span class=\"redText\">Bad choice, the bee was angry.</span><br><b>You have been stung!</b><br>Your pay has been decreased by $0.10. Your bonus pay is now $0.54.</p>\n            ","response":0,"trial_type":"html-button-response","trial_index":18,"time_elapsed":168418,"internal_node_id":"0.0-4.0-1.5","subject_id":"60d1224bb86fedf1819ef67b","study_id":"6197b3f67c2b5cd3b6d9596a","session_id":"619be78945ca1948e7ad8bf9","condition":"full-information","relevant_dimensions":["antennae","legs"],"bee_group":{"antennae":"A","wings":"X","pattern":"X","legs":"M"},"bonus":0.04},{"rt":1212.5,"stimulus":"bees-with-color/bee-A2SF.svg","response":0,"trial_type":"image-button-response","trial_index":19,"time_elapsed":169633,"internal_node_id":"0.0-4.0-0.6","subject_id":"60d1224bb86fedf1819ef67b","study_id":"6197b3f67c2b5cd3b6d9596a","session_id":"619be78945ca1948e7ad8bf9","condition":"full-information","relevant_dimensions":["antennae","legs"],"bee_group":{"antennae":"A","wings":"X","pattern":"X","legs":"M"},"action":"harvest","summary":"good-harvest","bonus":0.04},{"rt":872.7000000476837,"stimulus":"\n                    <p><b>Action: <em>harvest</em></b></p>\n                    <p>This is the bee that you just saw.</p>\n                    <img src=\"bees-with-color/bee-A2SF.svg\" width=\"200\">\n                    <p><span class=\"greenText\"><b>Successful harvest!</b></span><br>Your pay has increased by $0.02. Your bonus pay is now $0.56.</p>\n            ","response":0,"trial_type":"html-button-response","trial_index":20,"time_elapsed":170508,"internal_node_id":"0.0-4.0-1.6","subject_id":"60d1224bb86fedf1819ef67b","study_id":"6197b3f67c2b5cd3b6d9596a","session_id":"619be78945ca1948e7ad8bf9","condition":"full-information","relevant_dimensions":["antennae","legs"],"bee_group":{"antennae":"A","wings":"X","pattern":"X","legs":"M"},"bonus":0.04},{"rt":999.8999999761581,"stimulus":"bees-with-color/bee-A1DM.svg","response":0,"trial_type":"image-button-response","trial_index":21,"time_elapsed":171511,"internal_node_id":"0.0-4.0-0.7","subject_id":"60d1224bb86fedf1819ef67b","study_id":"6197b3f67c2b5cd3b6d9596a","session_id":"619be78945ca1948e7ad8bf9","condition":"full-information","relevant_dimensions":["antennae","legs"],"bee_group":{"antennae":"A","wings":"X","pattern":"X","legs":"M"},"action":"harvest","summary":"bad-harvest","bonus":0.04},{"rt":2131.100000023842,"stimulus":"\n                    <p><b>Action: <em>harvest</em></b></p>\n                    <p>This is the bee that you just saw.</p>\n                    <img src=\"bees-with-color/bee-A1DM.svg\" width=\"200\">\n                    <p><span class=\"redText\">Bad choice, the bee was angry.</span><br><b>You have been stung!</b><br>Your pay has been decreased by $0.10. Your bonus pay is now $0.46.</p>\n            ","response":0,"trial_type":"html-button-response","trial_index":22,"time_elapsed":173644,"internal_node_id":"0.0-4.0-1.7","subject_id":"60d1224bb86fedf1819ef67b","study_id":"6197b3f67c2b5cd3b6d9596a","session_id":"619be78945ca1948e7ad8bf9","condition":"full-information","relevant_dimensions":["antennae","legs"],"bee_group":{"antennae":"A","wings":"X","pattern":"X","legs":"M"},"bonus":0.04},{"rt":1097.5999999642372,"stimulus":"bees-with-color/bee-B2DM.svg","response":0,"trial_type":"image-button-response","trial_index":23,"time_elapsed":174744,"internal_node_id":"0.0-4.0-0.8","subject_id":"60d1224bb86fedf1819ef67b","study_id":"6197b3f67c2b5cd3b6d9596a","session_id":"619be78945ca1948e7ad8bf9","condition":"full-information","relevant_dimensions":["antennae","legs"],"bee_group":{"antennae":"A","wings":"X","pattern":"X","legs":"M"},"action":"harvest","summary":"good-harvest","bonus":0.04},{"rt":649.5,"stimulus":"\n                    <p><b>Action: <em>harvest</em></b></p>\n                    <p>This is the bee that you just saw.</p>\n                    <img src=\"bees-with-color/bee-B2DM.svg\" width=\"200\">\n                    <p><span class=\"greenText\"><b>Successful harvest!</b></span><br>Your pay has increased by $0.02. Your bonus pay is now $0.48.</p>\n            ","response":0,"trial_type":"html-button-response","trial_index":24,"time_elapsed":175396,"internal_node_id":"0.0-4.0-1.8","subject_id":"60d1224bb86fedf1819ef67b","study_id":"6197b3f67c2b5cd3b6d9596a","session_id":"619be78945ca1948e7ad8bf9","condition":"full-information","relevant_dimensions":["antennae","legs"],"bee_group":{"antennae":"A","wings":"X","pattern":"X","legs":"M"},"bonus":0.04},{"rt":1127.8999999761581,"stimulus":"bees-with-color/bee-A2DM.svg","response":0,"trial_type":"image-button-response","trial_index":25,"time_elapsed":176526,"internal_node_id":"0.0-4.0-0.9","subject_id":"60d1224bb86fedf1819ef67b","study_id":"6197b3f67c2b5cd3b6d9596a","session_id":"619be78945ca1948e7ad8bf9","condition":"full-information","relevant_dimensions":["antennae","legs"],"bee_group":{"antennae":"A","wings":"X","pattern":"X","legs":"M"},"action":"harvest","summary":"bad-harvest","bonus":0.04},{"rt":1030.6000000238419,"stimulus":"\n                    <p><b>Action: <em>harvest</em></b></p>\n                    <p>This is the bee that you just saw.</p>\n                    <img src=\"bees-with-color/bee-A2DM.svg\" width=\"200\">\n                    <p><span class=\"redText\">Bad choice, the bee was angry.</span><br><b>You have been stung!</b><br>Your pay has been decreased by $0.10. Your bonus pay is now $0.38.</p>\n            ","response":0,"trial_type":"html-button-response","trial_index":26,"time_elapsed":177560,"internal_node_id":"0.0-4.0-1.9","subject_id":"60d1224bb86fedf1819ef67b","study_id":"6197b3f67c2b5cd3b6d9596a","session_id":"619be78945ca1948e7ad8bf9","condition":"full-information","relevant_dimensions":["antennae","legs"],"bee_group":{"antennae":"A","wings":"X","pattern":"X","legs":"M"},"bonus":0.04},{"rt":2852,"stimulus":"bees-with-color/bee-B2SM.svg","response":0,"trial_type":"image-button-response","trial_index":27,"time_elapsed":180414,"internal_node_id":"0.0-4.0-0.10","subject_id":"60d1224bb86fedf1819ef67b","study_id":"6197b3f67c2b5cd3b6d9596a","session_id":"619be78945ca1948e7ad8bf9","condition":"full-information","relevant_dimensions":["antennae","legs"],"bee_group":{"antennae":"A","wings":"X","pattern":"X","legs":"M"},"action":"harvest","summary":"good-harvest","bonus":0.04},{"rt":685.2000000476837,"stimulus":"\n                    <p><b>Action: <em>harvest</em></b></p>\n                    <p>This is the bee that you just saw.</p>\n                    <img src=\"bees-with-color/bee-B2SM.svg\" width=\"200\">\n                    <p><span class=\"greenText\"><b>Successful harvest!</b></span><br>Your pay has increased by $0.02. Your bonus pay is now $0.40.</p>\n            ","response":0,"trial_type":"html-button-response","trial_index":28,"time_elapsed":181101,"internal_node_id":"0.0-4.0-1.10","subject_id":"60d1224bb86fedf1819ef67b","study_id":"6197b3f67c2b5cd3b6d9596a","session_id":"619be78945ca1948e7ad8bf9","condition":"full-information","relevant_dimensions":["antennae","legs"],"bee_group":{"antennae":"A","wings":"X","pattern":"X","legs":"M"},"bonus":0.04},{"rt":1701.9000000357628,"stimulus":"bees-with-color/bee-B1SM.svg","response":1,"trial_type":"image-button-response","trial_index":29,"time_elapsed":182806,"internal_node_id":"0.0-4.0-0.11","subject_id":"60d1224bb86fedf1819ef67b","study_id":"6197b3f67c2b5cd3b6d9596a","session_id":"619be78945ca1948e7ad8bf9","condition":"full-information","relevant_dimensions":["antennae","legs"],"bee_group":{"antennae":"A","wings":"X","pattern":"X","legs":"M"},"action":"avoid","summary":"bad-avoid","bonus":0.04},{"rt":1891.199999988079,"stimulus":"\n                    <p><b>Action: <em>avoid</em></b></p>\n                    <p>This is the bee that you just saw.</p>\n                    <img src=\"bees-with-color/bee-B1SM.svg\" width=\"200\">\n                    <p><span class=\"redText\">Bad choice,</span> the bee was friendly.<br>Your bonus pay is unchanged, and remains at $0.40.</p>\n            ","response":0,"trial_type":"html-button-response","trial_index":30,"time_elapsed":184700,"internal_node_id":"0.0-4.0-1.11","subject_id":"60d1224bb86fedf1819ef67b","study_id":"6197b3f67c2b5cd3b6d9596a","session_id":"619be78945ca1948e7ad8bf9","condition":"full-information","relevant_dimensions":["antennae","legs"],"bee_group":{"antennae":"A","wings":"X","pattern":"X","legs":"M"},"bonus":0.04},{"rt":1236,"stimulus":"bees-with-color/bee-A1SF.svg","response":1,"trial_type":"image-button-response","trial_index":31,"time_elapsed":185938,"internal_node_id":"0.0-4.0-0.12","subject_id":"60d1224bb86fedf1819ef67b","study_id":"6197b3f67c2b5cd3b6d9596a","session_id":"619be78945ca1948e7ad8bf9","condition":"full-information","relevant_dimensions":["antennae","legs"],"bee_group":{"antennae":"A","wings":"X","pattern":"X","legs":"M"},"action":"avoid","summary":"bad-avoid","bonus":0.04},{"rt":687.0999999642372,"stimulus":"\n                    <p><b>Action: <em>avoid</em></b></p>\n                    <p>This is the bee that you just saw.</p>\n                    <img src=\"bees-with-color/bee-A1SF.svg\" width=\"200\">\n                    <p><span class=\"redText\">Bad choice,</span> the bee was friendly.<br>Your bonus pay is unchanged, and remains at $0.40.</p>\n            ","response":0,"trial_type":"html-button-response","trial_index":32,"time_elapsed":186628,"internal_node_id":"0.0-4.0-1.12","subject_id":"60d1224bb86fedf1819ef67b","study_id":"6197b3f67c2b5cd3b6d9596a","session_id":"619be78945ca1948e7ad8bf9","condition":"full-information","relevant_dimensions":["antennae","legs"],"bee_group":{"antennae":"A","wings":"X","pattern":"X","legs":"M"},"bonus":0.04},{"rt":3305.099999964237,"stimulus":"bees-with-color/bee-B1DF.svg","response":0,"trial_type":"image-button-response","trial_index":33,"time_elapsed":189935,"internal_node_id":"0.0-4.0-0.13","subject_id":"60d1224bb86fedf1819ef67b","study_id":"6197b3f67c2b5cd3b6d9596a","session_id":"619be78945ca1948e7ad8bf9","condition":"full-information","relevant_dimensions":["antennae","legs"],"bee_group":{"antennae":"A","wings":"X","pattern":"X","legs":"M"},"action":"harvest","summary":"good-harvest","bonus":0.04},{"rt":662.6999999880791,"stimulus":"\n                    <p><b>Action: <em>harvest</em></b></p>\n                    <p>This is the bee that you just saw.</p>\n                    <img src=\"bees-with-color/bee-B1DF.svg\" width=\"200\">\n                    <p><span class=\"greenText\"><b>Successful harvest!</b></span><br>Your pay has increased by $0.02. Your bonus pay is now $0.42.</p>\n            ","response":0,"trial_type":"html-button-response","trial_index":34,"time_elapsed":190601,"internal_node_id":"0.0-4.0-1.13","subject_id":"60d1224bb86fedf1819ef67b","study_id":"6197b3f67c2b5cd3b6d9596a","session_id":"619be78945ca1948e7ad8bf9","condition":"full-information","relevant_dimensions":["antennae","legs"],"bee_group":{"antennae":"A","wings":"X","pattern":"X","legs":"M"},"bonus":0.04},{"rt":1416.8999999761581,"stimulus":"bees-with-color/bee-B1SF.svg","response":1,"trial_type":"image-button-response","trial_index":35,"time_elapsed":192021,"internal_node_id":"0.0-4.0-0.14","subject_id":"60d1224bb86fedf1819ef67b","study_id":"6197b3f67c2b5cd3b6d9596a","session_id":"619be78945ca1948e7ad8bf9","condition":"full-information","relevant_dimensions":["antennae","legs"],"bee_group":{"antennae":"A","wings":"X","pattern":"X","legs":"M"},"action":"avoid","summary":"bad-avoid","bonus":0.04},{"rt":782.5,"stimulus":"\n                    <p><b>Action: <em>avoid</em></b></p>\n                    <p>This is the bee that you just saw.</p>\n                    <img src=\"bees-with-color/bee-B1SF.svg\" width=\"200\">\n                    <p><span class=\"redText\">Bad choice,</span> the bee was friendly.<br>Your bonus pay is unchanged, and remains at $0.42.</p>\n            ","response":0,"trial_type":"html-button-response","trial_index":36,"time_elapsed":192807,"internal_node_id":"0.0-4.0-1.14","subject_id":"60d1224bb86fedf1819ef67b","study_id":"6197b3f67c2b5cd3b6d9596a","session_id":"619be78945ca1948e7ad8bf9","condition":"full-information","relevant_dimensions":["antennae","legs"],"bee_group":{"antennae":"A","wings":"X","pattern":"X","legs":"M"},"bonus":0.04},{"rt":1058.3999999761581,"stimulus":"bees-with-color/bee-A2SM.svg","response":1,"trial_type":"image-button-response","trial_index":37,"time_elapsed":193867,"internal_node_id":"0.0-4.0-0.15","subject_id":"60d1224bb86fedf1819ef67b","study_id":"6197b3f67c2b5cd3b6d9596a","session_id":"619be78945ca1948e7ad8bf9","condition":"full-information","relevant_dimensions":["antennae","legs"],"bee_group":{"antennae":"A","wings":"X","pattern":"X","legs":"M"},"action":"avoid","summary":"good-avoid","bonus":0.04},{"rt":681.2999999523163,"stimulus":"\n                    <p><b>Action: <em>avoid</em></b></p>\n                    <p>This is the bee that you just saw.</p>\n                    <img src=\"bees-with-color/bee-A2SM.svg\" width=\"200\">\n                    <p><span class=\"greenText\">Good choice!</span>  This bee would have stung you.<br>Your bonus pay is unchanged, and remains at $0.42.</p>\n            ","response":0,"trial_type":"html-button-response","trial_index":38,"time_elapsed":194551,"internal_node_id":"0.0-4.0-1.15","subject_id":"60d1224bb86fedf1819ef67b","study_id":"6197b3f67c2b5cd3b6d9596a","session_id":"619be78945ca1948e7ad8bf9","condition":"full-information","relevant_dimensions":["antennae","legs"],"bee_group":{"antennae":"A","wings":"X","pattern":"X","legs":"M"},"bonus":0.04},{"rt":1768.5,"stimulus":"bees-with-color/bee-A1DM.svg","response":1,"trial_type":"image-button-response","trial_index":39,"time_elapsed":196322,"internal_node_id":"0.0-4.0-0.16","subject_id":"60d1224bb86fedf1819ef67b","study_id":"6197b3f67c2b5cd3b6d9596a","session_id":"619be78945ca1948e7ad8bf9","condition":"full-information","relevant_dimensions":["antennae","legs"],"bee_group":{"antennae":"A","wings":"X","pattern":"X","legs":"M"},"action":"avoid","summary":"good-avoid","bonus":0.04},{"rt":647.8999999761581,"stimulus":"\n                    <p><b>Action: <em>avoid</em></b></p>\n                    <p>This is the bee that you just saw.</p>\n                    <img src=\"bees-with-color/bee-A1DM.svg\" width=\"200\">\n                    <p><span class=\"greenText\">Good choice!</span>  This bee would have stung you.<br>Your bonus pay is unchanged, and remains at $0.42.</p>\n            ","response":0,"trial_type":"html-button-response","trial_index":40,"time_elapsed":196972,"internal_node_id":"0.0-4.0-1.16","subject_id":"60d1224bb86fedf1819ef67b","study_id":"6197b3f67c2b5cd3b6d9596a","session_id":"619be78945ca1948e7ad8bf9","condition":"full-information","relevant_dimensions":["antennae","legs"],"bee_group":{"antennae":"A","wings":"X","pattern":"X","legs":"M"},"bonus":0.04},{"rt":1157.800000011921,"stimulus":"bees-with-color/bee-B2DM.svg","response":0,"trial_type":"image-button-response","trial_index":41,"time_elapsed":198131,"internal_node_id":"0.0-4.0-0.17","subject_id":"60d1224bb86fedf1819ef67b","study_id":"6197b3f67c2b5cd3b6d9596a","session_id":"619be78945ca1948e7ad8bf9","condition":"full-information","relevant_dimensions":["antennae","legs"],"bee_group":{"antennae":"A","wings":"X","pattern":"X","legs":"M"},"action":"harvest","summary":"good-harvest","bonus":0.04},{"rt":508.5,"stimulus":"\n                    <p><b>Action: <em>harvest</em></b></p>\n                    <p>This is the bee that you just saw.</p>\n                    <img src=\"bees-with-color/bee-B2DM.svg\" width=\"200\">\n                    <p><span class=\"greenText\"><b>Successful harvest!</b></span><br>Your pay has increased by $0.02. Your bonus pay is now $0.44.</p>\n            ","response":0,"trial_type":"html-button-response","trial_index":42,"time_elapsed":198642,"internal_node_id":"0.0-4.0-1.17","subject_id":"60d1224bb86fedf1819ef67b","study_id":"6197b3f67c2b5cd3b6d9596a","session_id":"619be78945ca1948e7ad8bf9","condition":"full-information","relevant_dimensions":["antennae","legs"],"bee_group":{"antennae":"A","wings":"X","pattern":"X","legs":"M"},"bonus":0.04},{"rt":1657.9000000357628,"stimulus":"bees-with-color/bee-B2SF.svg","response":1,"trial_type":"image-button-response","trial_index":43,"time_elapsed":200302,"internal_node_id":"0.0-4.0-0.18","subject_id":"60d1224bb86fedf1819ef67b","study_id":"6197b3f67c2b5cd3b6d9596a","session_id":"619be78945ca1948e7ad8bf9","condition":"full-information","relevant_dimensions":["antennae","legs"],"bee_group":{"antennae":"A","wings":"X","pattern":"X","legs":"M"},"action":"avoid","summary":"bad-avoid","bonus":0.04},{"rt":668.8999999761581,"stimulus":"\n                    <p><b>Action: <em>avoid</em></b></p>\n                    <p>This is the bee that you just saw.</p>\n                    <img src=\"bees-with-color/bee-B2SF.svg\" width=\"200\">\n                    <p><span class=\"redText\">Bad choice,</span> the bee was friendly.<br>Your bonus pay is unchanged, and remains at $0.44.</p>\n            ","response":0,"trial_type":"html-button-response","trial_index":44,"time_elapsed":200973,"internal_node_id":"0.0-4.0-1.18","subject_id":"60d1224bb86fedf1819ef67b","study_id":"6197b3f67c2b5cd3b6d9596a","session_id":"619be78945ca1948e7ad8bf9","condition":"full-information","relevant_dimensions":["antennae","legs"],"bee_group":{"antennae":"A","wings":"X","pattern":"X","legs":"M"},"bonus":0.04},{"rt":2131.2999999523163,"stimulus":"bees-with-color/bee-B2DF.svg","response":1,"trial_type":"image-button-response","trial_index":45,"time_elapsed":203106,"internal_node_id":"0.0-4.0-0.19","subject_id":"60d1224bb86fedf1819ef67b","study_id":"6197b3f67c2b5cd3b6d9596a","session_id":"619be78945ca1948e7ad8bf9","condition":"full-information","relevant_dimensions":["antennae","legs"],"bee_group":{"antennae":"A","wings":"X","pattern":"X","legs":"M"},"action":"avoid","summary":"bad-avoid","bonus":0.04},{"rt":598.8999999761581,"stimulus":"\n                    <p><b>Action: <em>avoid</em></b></p>\n                    <p>This is the bee that you just saw.</p>\n                    <img src=\"bees-with-color/bee-B2DF.svg\" width=\"200\">\n                    <p><span class=\"redText\">Bad choice,</span> the bee was friendly.<br>Your bonus pay is unchanged, and remains at $0.44.</p>\n            ","response":0,"trial_type":"html-button-response","trial_index":46,"time_elapsed":203707,"internal_node_id":"0.0-4.0-1.19","subject_id":"60d1224bb86fedf1819ef67b","study_id":"6197b3f67c2b5cd3b6d9596a","session_id":"619be78945ca1948e7ad8bf9","condition":"full-information","relevant_dimensions":["antennae","legs"],"bee_group":{"antennae":"A","wings":"X","pattern":"X","legs":"M"},"bonus":0.04},{"rt":2084.5,"stimulus":"bees-with-color/bee-B1SM.svg","response":1,"trial_type":"image-button-response","trial_index":47,"time_elapsed":205796,"internal_node_id":"0.0-4.0-0.20","subject_id":"60d1224bb86fedf1819ef67b","study_id":"6197b3f67c2b5cd3b6d9596a","session_id":"619be78945ca1948e7ad8bf9","condition":"full-information","relevant_dimensions":["antennae","legs"],"bee_group":{"antennae":"A","wings":"X","pattern":"X","legs":"M"},"action":"avoid","summary":"bad-avoid","bonus":0.04},{"rt":588.8999999761581,"stimulus":"\n                    <p><b>Action: <em>avoid</em></b></p>\n                    <p>This is the bee that you just saw.</p>\n                    <img src=\"bees-with-color/bee-B1SM.svg\" width=\"200\">\n                    <p><span class=\"redText\">Bad choice,</span> the bee was friendly.<br>Your bonus pay is unchanged, and remains at $0.44.</p>\n            ","response":0,"trial_type":"html-button-response","trial_index":48,"time_elapsed":206392,"internal_node_id":"0.0-4.0-1.20","subject_id":"60d1224bb86fedf1819ef67b","study_id":"6197b3f67c2b5cd3b6d9596a","session_id":"619be78945ca1948e7ad8bf9","condition":"full-information","relevant_dimensions":["antennae","legs"],"bee_group":{"antennae":"A","wings":"X","pattern":"X","legs":"M"},"bonus":0.04},{"rt":2126,"stimulus":"bees-with-color/bee-B2SM.svg","response":1,"trial_type":"image-button-response","trial_index":49,"time_elapsed":208521,"internal_node_id":"0.0-4.0-0.21","subject_id":"60d1224bb86fedf1819ef67b","study_id":"6197b3f67c2b5cd3b6d9596a","session_id":"619be78945ca1948e7ad8bf9","condition":"full-information","relevant_dimensions":["antennae","legs"],"bee_group":{"antennae":"A","wings":"X","pattern":"X","legs":"M"},"action":"avoid","summary":"bad-avoid","bonus":0.04},{"rt":605.1999999880791,"stimulus":"\n                    <p><b>Action: <em>avoid</em></b></p>\n                    <p>This is the bee that you just saw.</p>\n                    <img src=\"bees-with-color/bee-B2SM.svg\" width=\"200\">\n                    <p><span class=\"redText\">Bad choice,</span> the bee was friendly.<br>Your bonus pay is unchanged, and remains at $0.44.</p>\n            ","response":0,"trial_type":"html-button-response","trial_index":50,"time_elapsed":209128,"internal_node_id":"0.0-4.0-1.21","subject_id":"60d1224bb86fedf1819ef67b","study_id":"6197b3f67c2b5cd3b6d9596a","session_id":"619be78945ca1948e7ad8bf9","condition":"full-information","relevant_dimensions":["antennae","legs"],"bee_group":{"antennae":"A","wings":"X","pattern":"X","legs":"M"},"bonus":0.04},{"rt":1119.199999988079,"stimulus":"bees-with-color/bee-A2DM.svg","response":1,"trial_type":"image-button-response","trial_index":51,"time_elapsed":210249,"internal_node_id":"0.0-4.0-0.22","subject_id":"60d1224bb86fedf1819ef67b","study_id":"6197b3f67c2b5cd3b6d9596a","session_id":"619be78945ca1948e7ad8bf9","condition":"full-information","relevant_dimensions":["antennae","legs"],"bee_group":{"antennae":"A","wings":"X","pattern":"X","legs":"M"},"action":"avoid","summary":"good-avoid","bonus":0.04},{"rt":543.3999999761581,"stimulus":"\n                    <p><b>Action: <em>avoid</em></b></p>\n                    <p>This is the bee that you just saw.</p>\n                    <img src=\"bees-with-color/bee-A2DM.svg\" width=\"200\">\n                    <p><span class=\"greenText\">Good choice!</span>  This bee would have stung you.<br>Your bonus pay is unchanged, and remains at $0.44.</p>\n            ","response":0,"trial_type":"html-button-response","trial_index":52,"time_elapsed":210795,"internal_node_id":"0.0-4.0-1.22","subject_id":"60d1224bb86fedf1819ef67b","study_id":"6197b3f67c2b5cd3b6d9596a","session_id":"619be78945ca1948e7ad8bf9","condition":"full-information","relevant_dimensions":["antennae","legs"],"bee_group":{"antennae":"A","wings":"X","pattern":"X","legs":"M"},"bonus":0.04},{"rt":1205.800000011921,"stimulus":"bees-with-color/bee-A2DF.svg","response":1,"trial_type":"image-button-response","trial_index":53,"time_elapsed":212003,"internal_node_id":"0.0-4.0-0.23","subject_id":"60d1224bb86fedf1819ef67b","study_id":"6197b3f67c2b5cd3b6d9596a","session_id":"619be78945ca1948e7ad8bf9","condition":"full-information","relevant_dimensions":["antennae","legs"],"bee_group":{"antennae":"A","wings":"X","pattern":"X","legs":"M"},"action":"avoid","summary":"bad-avoid","bonus":0.04},{"rt":562.6000000238419,"stimulus":"\n                    <p><b>Action: <em>avoid</em></b></p>\n                    <p>This is the bee that you just saw.</p>\n                    <img src=\"bees-with-color/bee-A2DF.svg\" width=\"200\">\n                    <p><span class=\"redText\">Bad choice,</span> the bee was friendly.<br>Your bonus pay is unchanged, and remains at $0.44.</p>\n            ","response":0,"trial_type":"html-button-response","trial_index":54,"time_elapsed":212567,"internal_node_id":"0.0-4.0-1.23","subject_id":"60d1224bb86fedf1819ef67b","study_id":"6197b3f67c2b5cd3b6d9596a","session_id":"619be78945ca1948e7ad8bf9","condition":"full-information","relevant_dimensions":["antennae","legs"],"bee_group":{"antennae":"A","wings":"X","pattern":"X","legs":"M"},"bonus":0.04},{"rt":942.5999999642372,"stimulus":"bees-with-color/bee-A1SM.svg","response":0,"trial_type":"image-button-response","trial_index":55,"time_elapsed":213511,"internal_node_id":"0.0-4.0-0.24","subject_id":"60d1224bb86fedf1819ef67b","study_id":"6197b3f67c2b5cd3b6d9596a","session_id":"619be78945ca1948e7ad8bf9","condition":"full-information","relevant_dimensions":["antennae","legs"],"bee_group":{"antennae":"A","wings":"X","pattern":"X","legs":"M"},"action":"harvest","summary":"bad-harvest","bonus":0.04},{"rt":776.6999999880791,"stimulus":"\n                    <p><b>Action: <em>harvest</em></b></p>\n                    <p>This is the bee that you just saw.</p>\n                    <img src=\"bees-with-color/bee-A1SM.svg\" width=\"200\">\n                    <p><span class=\"redText\">Bad choice, the bee was angry.</span><br><b>You have been stung!</b><br>Your pay has been decreased by $0.10. Your bonus pay is now $0.34.</p>\n            ","response":0,"trial_type":"html-button-response","trial_index":56,"time_elapsed":214290,"internal_node_id":"0.0-4.0-1.24","subject_id":"60d1224bb86fedf1819ef67b","study_id":"6197b3f67c2b5cd3b6d9596a","session_id":"619be78945ca1948e7ad8bf9","condition":"full-information","relevant_dimensions":["antennae","legs"],"bee_group":{"antennae":"A","wings":"X","pattern":"X","legs":"M"},"bonus":0.04},{"rt":783.0999999642372,"stimulus":"bees-with-color/bee-B1DF.svg","response":0,"trial_type":"image-button-response","trial_index":57,"time_elapsed":215075,"internal_node_id":"0.0-4.0-0.25","subject_id":"60d1224bb86fedf1819ef67b","study_id":"6197b3f67c2b5cd3b6d9596a","session_id":"619be78945ca1948e7ad8bf9","condition":"full-information","relevant_dimensions":["antennae","legs"],"bee_group":{"antennae":"A","wings":"X","pattern":"X","legs":"M"},"action":"harvest","summary":"good-harvest","bonus":0.04},{"rt":545.3999999761581,"stimulus":"\n                    <p><b>Action: <em>harvest</em></b></p>\n                    <p>This is the bee that you just saw.</p>\n                    <img src=\"bees-with-color/bee-B1DF.svg\" width=\"200\">\n                    <p><span class=\"greenText\"><b>Successful harvest!</b></span><br>Your pay has increased by $0.02. Your bonus pay is now $0.36.</p>\n            ","response":0,"trial_type":"html-button-response","trial_index":58,"time_elapsed":215623,"internal_node_id":"0.0-4.0-1.25","subject_id":"60d1224bb86fedf1819ef67b","study_id":"6197b3f67c2b5cd3b6d9596a","session_id":"619be78945ca1948e7ad8bf9","condition":"full-information","relevant_dimensions":["antennae","legs"],"bee_group":{"antennae":"A","wings":"X","pattern":"X","legs":"M"},"bonus":0.04},{"rt":840.6999999880791,"stimulus":"bees-with-color/bee-A2SF.svg","response":0,"trial_type":"image-button-response","trial_index":59,"time_elapsed":216466,"internal_node_id":"0.0-4.0-0.26","subject_id":"60d1224bb86fedf1819ef67b","study_id":"6197b3f67c2b5cd3b6d9596a","session_id":"619be78945ca1948e7ad8bf9","condition":"full-information","relevant_dimensions":["antennae","legs"],"bee_group":{"antennae":"A","wings":"X","pattern":"X","legs":"M"},"action":"harvest","summary":"good-harvest","bonus":0.04},{"rt":475.5,"stimulus":"\n                    <p><b>Action: <em>harvest</em></b></p>\n                    <p>This is the bee that you just saw.</p>\n                    <img src=\"bees-with-color/bee-A2SF.svg\" width=\"200\">\n                    <p><span class=\"greenText\"><b>Successful harvest!</b></span><br>Your pay has increased by $0.02. Your bonus pay is now $0.38.</p>\n            ","response":0,"trial_type":"html-button-response","trial_index":60,"time_elapsed":216944,"internal_node_id":"0.0-4.0-1.26","subject_id":"60d1224bb86fedf1819ef67b","study_id":"6197b3f67c2b5cd3b6d9596a","session_id":"619be78945ca1948e7ad8bf9","condition":"full-information","relevant_dimensions":["antennae","legs"],"bee_group":{"antennae":"A","wings":"X","pattern":"X","legs":"M"},"bonus":0.04},{"rt":819.3000000119209,"stimulus":"bees-with-color/bee-B1DM.svg","response":0,"trial_type":"image-button-response","trial_index":61,"time_elapsed":217765,"internal_node_id":"0.0-4.0-0.27","subject_id":"60d1224bb86fedf1819ef67b","study_id":"6197b3f67c2b5cd3b6d9596a","session_id":"619be78945ca1948e7ad8bf9","condition":"full-information","relevant_dimensions":["antennae","legs"],"bee_group":{"antennae":"A","wings":"X","pattern":"X","legs":"M"},"action":"harvest","summary":"good-harvest","bonus":0.04},{"rt":465.60000002384186,"stimulus":"\n                    <p><b>Action: <em>harvest</em></b></p>\n                    <p>This is the bee that you just saw.</p>\n                    <img src=\"bees-with-color/bee-B1DM.svg\" width=\"200\">\n                    <p><span class=\"greenText\"><b>Successful harvest!</b></span><br>Your pay has increased by $0.02. Your bonus pay is now $0.40.</p>\n            ","response":0,"trial_type":"html-button-response","trial_index":62,"time_elapsed":218233,"internal_node_id":"0.0-4.0-1.27","subject_id":"60d1224bb86fedf1819ef67b","study_id":"6197b3f67c2b5cd3b6d9596a","session_id":"619be78945ca1948e7ad8bf9","condition":"full-information","relevant_dimensions":["antennae","legs"],"bee_group":{"antennae":"A","wings":"X","pattern":"X","legs":"M"},"bonus":0.04},{"rt":690.3000000119209,"stimulus":"bees-with-color/bee-A1DF.svg","response":0,"trial_type":"image-button-response","trial_index":63,"time_elapsed":218925,"internal_node_id":"0.0-4.0-0.28","subject_id":"60d1224bb86fedf1819ef67b","study_id":"6197b3f67c2b5cd3b6d9596a","session_id":"619be78945ca1948e7ad8bf9","condition":"full-information","relevant_dimensions":["antennae","legs"],"bee_group":{"antennae":"A","wings":"X","pattern":"X","legs":"M"},"action":"harvest","summary":"good-harvest","bonus":0.04},{"rt":955,"stimulus":"\n                    <p><b>Action: <em>harvest</em></b></p>\n                    <p>This is the bee that you just saw.</p>\n                    <img src=\"bees-with-color/bee-A1DF.svg\" width=\"200\">\n                    <p><span class=\"greenText\"><b>Successful harvest!</b></span><br>Your pay has increased by $0.02. Your bonus pay is now $0.42.</p>\n            ","response":0,"trial_type":"html-button-response","trial_index":64,"time_elapsed":219882,"internal_node_id":"0.0-4.0-1.28","subject_id":"60d1224bb86fedf1819ef67b","study_id":"6197b3f67c2b5cd3b6d9596a","session_id":"619be78945ca1948e7ad8bf9","condition":"full-information","relevant_dimensions":["antennae","legs"],"bee_group":{"antennae":"A","wings":"X","pattern":"X","legs":"M"},"bonus":0.04},{"rt":1149.1000000238419,"stimulus":"bees-with-color/bee-A2SM.svg","response":0,"trial_type":"image-button-response","trial_index":65,"time_elapsed":221033,"internal_node_id":"0.0-4.0-0.29","subject_id":"60d1224bb86fedf1819ef67b","study_id":"6197b3f67c2b5cd3b6d9596a","session_id":"619be78945ca1948e7ad8bf9","condition":"full-information","relevant_dimensions":["antennae","legs"],"bee_group":{"antennae":"A","wings":"X","pattern":"X","legs":"M"},"action":"harvest","summary":"bad-harvest","bonus":0.04},{"rt":929.0999999642372,"stimulus":"\n                    <p><b>Action: <em>harvest</em></b></p>\n                    <p>This is the bee that you just saw.</p>\n                    <img src=\"bees-with-color/bee-A2SM.svg\" width=\"200\">\n                    <p><span class=\"redText\">Bad choice, the bee was angry.</span><br><b>You have been stung!</b><br>Your pay has been decreased by $0.10. Your bonus pay is now $0.32.</p>\n            ","response":0,"trial_type":"html-button-response","trial_index":66,"time_elapsed":221965,"internal_node_id":"0.0-4.0-1.29","subject_id":"60d1224bb86fedf1819ef67b","study_id":"6197b3f67c2b5cd3b6d9596a","session_id":"619be78945ca1948e7ad8bf9","condition":"full-information","relevant_dimensions":["antennae","legs"],"bee_group":{"antennae":"A","wings":"X","pattern":"X","legs":"M"},"bonus":0.04},{"rt":824.8000000119209,"stimulus":"bees-with-color/bee-B1SF.svg","response":0,"trial_type":"image-button-response","trial_index":67,"time_elapsed":222792,"internal_node_id":"0.0-4.0-0.30","subject_id":"60d1224bb86fedf1819ef67b","study_id":"6197b3f67c2b5cd3b6d9596a","session_id":"619be78945ca1948e7ad8bf9","condition":"full-information","relevant_dimensions":["antennae","legs"],"bee_group":{"antennae":"A","wings":"X","pattern":"X","legs":"M"},"action":"harvest","summary":"good-harvest","bonus":0.04},{"rt":471.5999999642372,"stimulus":"\n                    <p><b>Action: <em>harvest</em></b></p>\n                    <p>This is the bee that you just saw.</p>\n                    <img src=\"bees-with-color/bee-B1SF.svg\" width=\"200\">\n                    <p><span class=\"greenText\"><b>Successful harvest!</b></span><br>Your pay has increased by $0.02. Your bonus pay is now $0.34.</p>\n            ","response":0,"trial_type":"html-button-response","trial_index":68,"time_elapsed":223266,"internal_node_id":"0.0-4.0-1.30","subject_id":"60d1224bb86fedf1819ef67b","study_id":"6197b3f67c2b5cd3b6d9596a","session_id":"619be78945ca1948e7ad8bf9","condition":"full-information","relevant_dimensions":["antennae","legs"],"bee_group":{"antennae":"A","wings":"X","pattern":"X","legs":"M"},"bonus":0.04},{"rt":628,"stimulus":"bees-with-color/bee-A1SF.svg","response":0,"trial_type":"image-button-response","trial_index":69,"time_elapsed":223897,"internal_node_id":"0.0-4.0-0.31","subject_id":"60d1224bb86fedf1819ef67b","study_id":"6197b3f67c2b5cd3b6d9596a","session_id":"619be78945ca1948e7ad8bf9","condition":"full-information","relevant_dimensions":["antennae","legs"],"bee_group":{"antennae":"A","wings":"X","pattern":"X","legs":"M"},"action":"harvest","summary":"good-harvest","bonus":0.04},{"rt":507.7999999523163,"stimulus":"\n                    <p><b>Action: <em>harvest</em></b></p>\n                    <p>This is the bee that you just saw.</p>\n                    <img src=\"bees-with-color/bee-A1SF.svg\" width=\"200\">\n                    <p><span class=\"greenText\"><b>Successful harvest!</b></span><br>Your pay has increased by $0.02. Your bonus pay is now $0.36.</p>\n            ","response":0,"trial_type":"html-button-response","trial_index":70,"time_elapsed":224407,"internal_node_id":"0.0-4.0-1.31","subject_id":"60d1224bb86fedf1819ef67b","study_id":"6197b3f67c2b5cd3b6d9596a","session_id":"619be78945ca1948e7ad8bf9","condition":"full-information","relevant_dimensions":["antennae","legs"],"bee_group":{"antennae":"A","wings":"X","pattern":"X","legs":"M"},"bonus":0.04},{"rt":509.39999997615814,"stimulus":"bees-with-color/bee-A2SF.svg","response":0,"trial_type":"image-button-response","trial_index":71,"time_elapsed":224919,"internal_node_id":"0.0-4.0-0.32","subject_id":"60d1224bb86fedf1819ef67b","study_id":"6197b3f67c2b5cd3b6d9596a","session_id":"619be78945ca1948e7ad8bf9","condition":"full-information","relevant_dimensions":["antennae","legs"],"bee_group":{"antennae":"A","wings":"X","pattern":"X","legs":"M"},"action":"harvest","summary":"good-harvest","bonus":0.04},{"rt":516.9000000357628,"stimulus":"\n                    <p><b>Action: <em>harvest</em></b></p>\n                    <p>This is the bee that you just saw.</p>\n                    <img src=\"bees-with-color/bee-A2SF.svg\" width=\"200\">\n                    <p><span class=\"greenText\"><b>Successful harvest!</b></span><br>Your pay has increased by $0.02. Your bonus pay is now $0.38.</p>\n            ","response":0,"trial_type":"html-button-response","trial_index":72,"time_elapsed":225439,"internal_node_id":"0.0-4.0-1.32","subject_id":"60d1224bb86fedf1819ef67b","study_id":"6197b3f67c2b5cd3b6d9596a","session_id":"619be78945ca1948e7ad8bf9","condition":"full-information","relevant_dimensions":["antennae","legs"],"bee_group":{"antennae":"A","wings":"X","pattern":"X","legs":"M"},"bonus":0.04},{"rt":513.3000000119209,"stimulus":"bees-with-color/bee-A2DM.svg","response":0,"trial_type":"image-button-response","trial_index":73,"time_elapsed":225955,"internal_node_id":"0.0-4.0-0.33","subject_id":"60d1224bb86fedf1819ef67b","study_id":"6197b3f67c2b5cd3b6d9596a","session_id":"619be78945ca1948e7ad8bf9","condition":"full-information","relevant_dimensions":["antennae","legs"],"bee_group":{"antennae":"A","wings":"X","pattern":"X","legs":"M"},"action":"harvest","summary":"bad-harvest","bonus":0.04},{"rt":556.8999999761581,"stimulus":"\n                    <p><b>Action: <em>harvest</em></b></p>\n                    <p>This is the bee that you just saw.</p>\n                    <img src=\"bees-with-color/bee-A2DM.svg\" width=\"200\">\n                    <p><span class=\"redText\">Bad choice, the bee was angry.</span><br><b>You have been stung!</b><br>Your pay has been decreased by $0.10. Your bonus pay is now $0.28.</p>\n            ","response":0,"trial_type":"html-button-response","trial_index":74,"time_elapsed":226514,"internal_node_id":"0.0-4.0-1.33","subject_id":"60d1224bb86fedf1819ef67b","study_id":"6197b3f67c2b5cd3b6d9596a","session_id":"619be78945ca1948e7ad8bf9","condition":"full-information","relevant_dimensions":["antennae","legs"],"bee_group":{"antennae":"A","wings":"X","pattern":"X","legs":"M"},"bonus":0.04},{"rt":483,"stimulus":"bees-with-color/bee-A1SF.svg","response":0,"trial_type":"image-button-response","trial_index":75,"time_elapsed":226999,"internal_node_id":"0.0-4.0-0.34","subject_id":"60d1224bb86fedf1819ef67b","study_id":"6197b3f67c2b5cd3b6d9596a","session_id":"619be78945ca1948e7ad8bf9","condition":"full-information","relevant_dimensions":["antennae","legs"],"bee_group":{"antennae":"A","wings":"X","pattern":"X","legs":"M"},"action":"harvest","summary":"good-harvest","bonus":0.04},{"rt":501.30000001192093,"stimulus":"\n                    <p><b>Action: <em>harvest</em></b></p>\n                    <p>This is the bee that you just saw.</p>\n                    <img src=\"bees-with-color/bee-A1SF.svg\" width=\"200\">\n                    <p><span class=\"greenText\"><b>Successful harvest!</b></span><br>Your pay has increased by $0.02. Your bonus pay is now $0.30.</p>\n            ","response":0,"trial_type":"html-button-response","trial_index":76,"time_elapsed":227502,"internal_node_id":"0.0-4.0-1.34","subject_id":"60d1224bb86fedf1819ef67b","study_id":"6197b3f67c2b5cd3b6d9596a","session_id":"619be78945ca1948e7ad8bf9","condition":"full-information","relevant_dimensions":["antennae","legs"],"bee_group":{"antennae":"A","wings":"X","pattern":"X","legs":"M"},"bonus":0.04},{"rt":581.1000000238419,"stimulus":"bees-with-color/bee-B1SF.svg","response":0,"trial_type":"image-button-response","trial_index":77,"time_elapsed":228085,"internal_node_id":"0.0-4.0-0.35","subject_id":"60d1224bb86fedf1819ef67b","study_id":"6197b3f67c2b5cd3b6d9596a","session_id":"619be78945ca1948e7ad8bf9","condition":"full-information","relevant_dimensions":["antennae","legs"],"bee_group":{"antennae":"A","wings":"X","pattern":"X","legs":"M"},"action":"harvest","summary":"good-harvest","bonus":0.04},{"rt":615.3999999761581,"stimulus":"\n                    <p><b>Action: <em>harvest</em></b></p>\n                    <p>This is the bee that you just saw.</p>\n                    <img src=\"bees-with-color/bee-B1SF.svg\" width=\"200\">\n                    <p><span class=\"greenText\"><b>Successful harvest!</b></span><br>Your pay has increased by $0.02. Your bonus pay is now $0.32.</p>\n            ","response":0,"trial_type":"html-button-response","trial_index":78,"time_elapsed":228703,"internal_node_id":"0.0-4.0-1.35","subject_id":"60d1224bb86fedf1819ef67b","study_id":"6197b3f67c2b5cd3b6d9596a","session_id":"619be78945ca1948e7ad8bf9","condition":"full-information","relevant_dimensions":["antennae","legs"],"bee_group":{"antennae":"A","wings":"X","pattern":"X","legs":"M"},"bonus":0.04},{"rt":723.3999999761581,"stimulus":"bees-with-color/bee-B1DF.svg","response":1,"trial_type":"image-button-response","trial_index":79,"time_elapsed":229429,"internal_node_id":"0.0-4.0-0.36","subject_id":"60d1224bb86fedf1819ef67b","study_id":"6197b3f67c2b5cd3b6d9596a","session_id":"619be78945ca1948e7ad8bf9","condition":"full-information","relevant_dimensions":["antennae","legs"],"bee_group":{"antennae":"A","wings":"X","pattern":"X","legs":"M"},"action":"avoid","summary":"bad-avoid","bonus":0.04},{"rt":441.39999997615814,"stimulus":"\n                    <p><b>Action: <em>avoid</em></b></p>\n                    <p>This is the bee that you just saw.</p>\n                    <img src=\"bees-with-color/bee-B1DF.svg\" width=\"200\">\n                    <p><span class=\"redText\">Bad choice,</span> the bee was friendly.<br>Your bonus pay is unchanged, and remains at $0.32.</p>\n            ","response":0,"trial_type":"html-button-response","trial_index":80,"time_elapsed":229872,"internal_node_id":"0.0-4.0-1.36","subject_id":"60d1224bb86fedf1819ef67b","study_id":"6197b3f67c2b5cd3b6d9596a","session_id":"619be78945ca1948e7ad8bf9","condition":"full-information","relevant_dimensions":["antennae","legs"],"bee_group":{"antennae":"A","wings":"X","pattern":"X","legs":"M"},"bonus":0.04},{"rt":505.80000001192093,"stimulus":"bees-with-color/bee-A1SM.svg","response":1,"trial_type":"image-button-response","trial_index":81,"time_elapsed":230380,"internal_node_id":"0.0-4.0-0.37","subject_id":"60d1224bb86fedf1819ef67b","study_id":"6197b3f67c2b5cd3b6d9596a","session_id":"619be78945ca1948e7ad8bf9","condition":"full-information","relevant_dimensions":["antennae","legs"],"bee_group":{"antennae":"A","wings":"X","pattern":"X","legs":"M"},"action":"avoid","summary":"good-avoid","bonus":0.04},{"rt":491.5,"stimulus":"\n                    <p><b>Action: <em>avoid</em></b></p>\n                    <p>This is the bee that you just saw.</p>\n                    <img src=\"bees-with-color/bee-A1SM.svg\" width=\"200\">\n                    <p><span class=\"greenText\">Good choice!</span>  This bee would have stung you.<br>Your bonus pay is unchanged, and remains at $0.32.</p>\n            ","response":0,"trial_type":"html-button-response","trial_index":82,"time_elapsed":230874,"internal_node_id":"0.0-4.0-1.37","subject_id":"60d1224bb86fedf1819ef67b","study_id":"6197b3f67c2b5cd3b6d9596a","session_id":"619be78945ca1948e7ad8bf9","condition":"full-information","relevant_dimensions":["antennae","legs"],"bee_group":{"antennae":"A","wings":"X","pattern":"X","legs":"M"},"bonus":0.04},{"rt":532.8999999761581,"stimulus":"bees-with-color/bee-B2SM.svg","response":1,"trial_type":"image-button-response","trial_index":83,"time_elapsed":231410,"internal_node_id":"0.0-4.0-0.38","subject_id":"60d1224bb86fedf1819ef67b","study_id":"6197b3f67c2b5cd3b6d9596a","session_id":"619be78945ca1948e7ad8bf9","condition":"full-information","relevant_dimensions":["antennae","legs"],"bee_group":{"antennae":"A","wings":"X","pattern":"X","legs":"M"},"action":"avoid","summary":"bad-avoid","bonus":0.04},{"rt":501.0999999642372,"stimulus":"\n                    <p><b>Action: <em>avoid</em></b></p>\n                    <p>This is the bee that you just saw.</p>\n                    <img src=\"bees-with-color/bee-B2SM.svg\" width=\"200\">\n                    <p><span class=\"redText\">Bad choice,</span> the bee was friendly.<br>Your bonus pay is unchanged, and remains at $0.32.</p>\n            ","response":0,"trial_type":"html-button-response","trial_index":84,"time_elapsed":231914,"internal_node_id":"0.0-4.0-1.38","subject_id":"60d1224bb86fedf1819ef67b","study_id":"6197b3f67c2b5cd3b6d9596a","session_id":"619be78945ca1948e7ad8bf9","condition":"full-information","relevant_dimensions":["antennae","legs"],"bee_group":{"antennae":"A","wings":"X","pattern":"X","legs":"M"},"bonus":0.04},{"rt":474.60000002384186,"stimulus":"bees-with-color/bee-B2DM.svg","response":0,"trial_type":"image-button-response","trial_index":85,"time_elapsed":232391,"internal_node_id":"0.0-4.0-0.39","subject_id":"60d1224bb86fedf1819ef67b","study_id":"6197b3f67c2b5cd3b6d9596a","session_id":"619be78945ca1948e7ad8bf9","condition":"full-information","relevant_dimensions":["antennae","legs"],"bee_group":{"antennae":"A","wings":"X","pattern":"X","legs":"M"},"action":"harvest","summary":"good-harvest","bonus":0.04},{"rt":434,"stimulus":"\n                    <p><b>Action: <em>harvest</em></b></p>\n                    <p>This is the bee that you just saw.</p>\n                    <img src=\"bees-with-color/bee-B2DM.svg\" width=\"200\">\n                    <p><span class=\"greenText\"><b>Successful harvest!</b></span><br>Your pay has increased by $0.02. Your bonus pay is now $0.34.</p>\n            ","response":0,"trial_type":"html-button-response","trial_index":86,"time_elapsed":232828,"internal_node_id":"0.0-4.0-1.39","subject_id":"60d1224bb86fedf1819ef67b","study_id":"6197b3f67c2b5cd3b6d9596a","session_id":"619be78945ca1948e7ad8bf9","condition":"full-information","relevant_dimensions":["antennae","legs"],"bee_group":{"antennae":"A","wings":"X","pattern":"X","legs":"M"},"bonus":0.04},{"rt":484.89999997615814,"stimulus":"bees-with-color/bee-B1SM.svg","response":0,"trial_type":"image-button-response","trial_index":87,"time_elapsed":233315,"internal_node_id":"0.0-4.0-0.40","subject_id":"60d1224bb86fedf1819ef67b","study_id":"6197b3f67c2b5cd3b6d9596a","session_id":"619be78945ca1948e7ad8bf9","condition":"full-information","relevant_dimensions":["antennae","legs"],"bee_group":{"antennae":"A","wings":"X","pattern":"X","legs":"M"},"action":"harvest","summary":"good-harvest","bonus":0.04},{"rt":471.19999998807907,"stimulus":"\n                    <p><b>Action: <em>harvest</em></b></p>\n                    <p>This is the bee that you just saw.</p>\n                    <img src=\"bees-with-color/bee-B1SM.svg\" width=\"200\">\n                    <p><span class=\"greenText\"><b>Successful harvest!</b></span><br>Your pay has increased by $0.02. Your bonus pay is now $0.36.</p>\n            ","response":0,"trial_type":"html-button-response","trial_index":88,"time_elapsed":233788,"internal_node_id":"0.0-4.0-1.40","subject_id":"60d1224bb86fedf1819ef67b","study_id":"6197b3f67c2b5cd3b6d9596a","session_id":"619be78945ca1948e7ad8bf9","condition":"full-information","relevant_dimensions":["antennae","legs"],"bee_group":{"antennae":"A","wings":"X","pattern":"X","legs":"M"},"bonus":0.04},{"rt":461.0999999642372,"stimulus":"bees-with-color/bee-A1DF.svg","response":0,"trial_type":"image-button-response","trial_index":89,"time_elapsed":234252,"internal_node_id":"0.0-4.0-0.41","subject_id":"60d1224bb86fedf1819ef67b","study_id":"6197b3f67c2b5cd3b6d9596a","session_id":"619be78945ca1948e7ad8bf9","condition":"full-information","relevant_dimensions":["antennae","legs"],"bee_group":{"antennae":"A","wings":"X","pattern":"X","legs":"M"},"action":"harvest","summary":"good-harvest","bonus":0.04},{"rt":487.0999999642372,"stimulus":"\n                    <p><b>Action: <em>harvest</em></b></p>\n                    <p>This is the bee that you just saw.</p>\n                    <img src=\"bees-with-color/bee-A1DF.svg\" width=\"200\">\n                    <p><span class=\"greenText\"><b>Successful harvest!</b></span><br>Your pay has increased by $0.02. Your bonus pay is now $0.38.</p>\n            ","response":0,"trial_type":"html-button-response","trial_index":90,"time_elapsed":234741,"internal_node_id":"0.0-4.0-1.41","subject_id":"60d1224bb86fedf1819ef67b","study_id":"6197b3f67c2b5cd3b6d9596a","session_id":"619be78945ca1948e7ad8bf9","condition":"full-information","relevant_dimensions":["antennae","legs"],"bee_group":{"antennae":"A","wings":"X","pattern":"X","legs":"M"},"bonus":0.04},{"rt":479.10000002384186,"stimulus":"bees-with-color/bee-B2SF.svg","response":0,"trial_type":"image-button-response","trial_index":91,"time_elapsed":235222,"internal_node_id":"0.0-4.0-0.42","subject_id":"60d1224bb86fedf1819ef67b","study_id":"6197b3f67c2b5cd3b6d9596a","session_id":"619be78945ca1948e7ad8bf9","condition":"full-information","relevant_dimensions":["antennae","legs"],"bee_group":{"antennae":"A","wings":"X","pattern":"X","legs":"M"},"action":"harvest","summary":"good-harvest","bonus":0.04},{"rt":503.80000001192093,"stimulus":"\n                    <p><b>Action: <em>harvest</em></b></p>\n                    <p>This is the bee that you just saw.</p>\n                    <img src=\"bees-with-color/bee-B2SF.svg\" width=\"200\">\n                    <p><span class=\"greenText\"><b>Successful harvest!</b></span><br>Your pay has increased by $0.02. Your bonus pay is now $0.40.</p>\n            ","response":0,"trial_type":"html-button-response","trial_index":92,"time_elapsed":235728,"internal_node_id":"0.0-4.0-1.42","subject_id":"60d1224bb86fedf1819ef67b","study_id":"6197b3f67c2b5cd3b6d9596a","session_id":"619be78945ca1948e7ad8bf9","condition":"full-information","relevant_dimensions":["antennae","legs"],"bee_group":{"antennae":"A","wings":"X","pattern":"X","legs":"M"},"bonus":0.04},{"rt":433.19999998807907,"stimulus":"bees-with-color/bee-B1DM.svg","response":0,"trial_type":"image-button-response","trial_index":93,"time_elapsed":236163,"internal_node_id":"0.0-4.0-0.43","subject_id":"60d1224bb86fedf1819ef67b","study_id":"6197b3f67c2b5cd3b6d9596a","session_id":"619be78945ca1948e7ad8bf9","condition":"full-information","relevant_dimensions":["antennae","legs"],"bee_group":{"antennae":"A","wings":"X","pattern":"X","legs":"M"},"action":"harvest","summary":"good-harvest","bonus":0.04},{"rt":503.39999997615814,"stimulus":"\n                    <p><b>Action: <em>harvest</em></b></p>\n                    <p>This is the bee that you just saw.</p>\n                    <img src=\"bees-with-color/bee-B1DM.svg\" width=\"200\">\n                    <p><span class=\"greenText\"><b>Successful harvest!</b></span><br>Your pay has increased by $0.02. Your bonus pay is now $0.42.</p>\n            ","response":0,"trial_type":"html-button-response","trial_index":94,"time_elapsed":236668,"internal_node_id":"0.0-4.0-1.43","subject_id":"60d1224bb86fedf1819ef67b","study_id":"6197b3f67c2b5cd3b6d9596a","session_id":"619be78945ca1948e7ad8bf9","condition":"full-information","relevant_dimensions":["antennae","legs"],"bee_group":{"antennae":"A","wings":"X","pattern":"X","legs":"M"},"bonus":0.04},{"rt":481.30000001192093,"stimulus":"bees-with-color/bee-A2SM.svg","response":0,"trial_type":"image-button-response","trial_index":95,"time_elapsed":237152,"internal_node_id":"0.0-4.0-0.44","subject_id":"60d1224bb86fedf1819ef67b","study_id":"6197b3f67c2b5cd3b6d9596a","session_id":"619be78945ca1948e7ad8bf9","condition":"full-information","relevant_dimensions":["antennae","legs"],"bee_group":{"antennae":"A","wings":"X","pattern":"X","legs":"M"},"action":"harvest","summary":"bad-harvest","bonus":0.04},{"rt":574.5,"stimulus":"\n                    <p><b>Action: <em>harvest</em></b></p>\n                    <p>This is the bee that you just saw.</p>\n                    <img src=\"bees-with-color/bee-A2SM.svg\" width=\"200\">\n                    <p><span class=\"redText\">Bad choice, the bee was angry.</span><br><b>You have been stung!</b><br>Your pay has been decreased by $0.10. Your bonus pay is now $0.32.</p>\n            ","response":0,"trial_type":"html-button-response","trial_index":96,"time_elapsed":237729,"internal_node_id":"0.0-4.0-1.44","subject_id":"60d1224bb86fedf1819ef67b","study_id":"6197b3f67c2b5cd3b6d9596a","session_id":"619be78945ca1948e7ad8bf9","condition":"full-information","relevant_dimensions":["antennae","legs"],"bee_group":{"antennae":"A","wings":"X","pattern":"X","legs":"M"},"bonus":0.04},{"rt":503.69999998807907,"stimulus":"bees-with-color/bee-B2DF.svg","response":0,"trial_type":"image-button-response","trial_index":97,"time_elapsed":238235,"internal_node_id":"0.0-4.0-0.45","subject_id":"60d1224bb86fedf1819ef67b","study_id":"6197b3f67c2b5cd3b6d9596a","session_id":"619be78945ca1948e7ad8bf9","condition":"full-information","relevant_dimensions":["antennae","legs"],"bee_group":{"antennae":"A","wings":"X","pattern":"X","legs":"M"},"action":"harvest","summary":"good-harvest","bonus":0.04},{"rt":497.19999998807907,"stimulus":"\n                    <p><b>Action: <em>harvest</em></b></p>\n                    <p>This is the bee that you just saw.</p>\n                    <img src=\"bees-with-color/bee-B2DF.svg\" width=\"200\">\n                    <p><span class=\"greenText\"><b>Successful harvest!</b></span><br>Your pay has increased by $0.02. Your bonus pay is now $0.34.</p>\n            ","response":0,"trial_type":"html-button-response","trial_index":98,"time_elapsed":238734,"internal_node_id":"0.0-4.0-1.45","subject_id":"60d1224bb86fedf1819ef67b","study_id":"6197b3f67c2b5cd3b6d9596a","session_id":"619be78945ca1948e7ad8bf9","condition":"full-information","relevant_dimensions":["antennae","legs"],"bee_group":{"antennae":"A","wings":"X","pattern":"X","legs":"M"},"bonus":0.04},{"rt":487.60000002384186,"stimulus":"bees-with-color/bee-A1DM.svg","response":0,"trial_type":"image-button-response","trial_index":99,"time_elapsed":239226,"internal_node_id":"0.0-4.0-0.46","subject_id":"60d1224bb86fedf1819ef67b","study_id":"6197b3f67c2b5cd3b6d9596a","session_id":"619be78945ca1948e7ad8bf9","condition":"full-information","relevant_dimensions":["antennae","legs"],"bee_group":{"antennae":"A","wings":"X","pattern":"X","legs":"M"},"action":"harvest","summary":"bad-harvest","bonus":0.04},{"rt":545.1999999880791,"stimulus":"\n                    <p><b>Action: <em>harvest</em></b></p>\n                    <p>This is the bee that you just saw.</p>\n                    <img src=\"bees-with-color/bee-A1DM.svg\" width=\"200\">\n                    <p><span class=\"redText\">Bad choice, the bee was angry.</span><br><b>You have been stung!</b><br>Your pay has been decreased by $0.10. Your bonus pay is now $0.24.</p>\n            ","response":0,"trial_type":"html-button-response","trial_index":100,"time_elapsed":239774,"internal_node_id":"0.0-4.0-1.46","subject_id":"60d1224bb86fedf1819ef67b","study_id":"6197b3f67c2b5cd3b6d9596a","session_id":"619be78945ca1948e7ad8bf9","condition":"full-information","relevant_dimensions":["antennae","legs"],"bee_group":{"antennae":"A","wings":"X","pattern":"X","legs":"M"},"bonus":0.04},{"rt":477.5,"stimulus":"bees-with-color/bee-A2DF.svg","response":0,"trial_type":"image-button-response","trial_index":101,"time_elapsed":240253,"internal_node_id":"0.0-4.0-0.47","subject_id":"60d1224bb86fedf1819ef67b","study_id":"6197b3f67c2b5cd3b6d9596a","session_id":"619be78945ca1948e7ad8bf9","condition":"full-information","relevant_dimensions":["antennae","legs"],"bee_group":{"antennae":"A","wings":"X","pattern":"X","legs":"M"},"action":"harvest","summary":"good-harvest","bonus":0.04},{"rt":510.60000002384186,"stimulus":"\n                    <p><b>Action: <em>harvest</em></b></p>\n                    <p>This is the bee that you just saw.</p>\n                    <img src=\"bees-with-color/bee-A2DF.svg\" width=\"200\">\n                    <p><span class=\"greenText\"><b>Successful harvest!</b></span><br>Your pay has increased by $0.02. Your bonus pay is now $0.26.</p>\n            ","response":0,"trial_type":"html-button-response","trial_index":102,"time_elapsed":240766,"internal_node_id":"0.0-4.0-1.47","subject_id":"60d1224bb86fedf1819ef67b","study_id":"6197b3f67c2b5cd3b6d9596a","session_id":"619be78945ca1948e7ad8bf9","condition":"full-information","relevant_dimensions":["antennae","legs"],"bee_group":{"antennae":"A","wings":"X","pattern":"X","legs":"M"},"bonus":0.04},{"rt":518.5999999642372,"stimulus":"bees-with-color/bee-A2DM.svg","response":0,"trial_type":"image-button-response","trial_index":103,"time_elapsed":241287,"internal_node_id":"0.0-4.0-0.48","subject_id":"60d1224bb86fedf1819ef67b","study_id":"6197b3f67c2b5cd3b6d9596a","session_id":"619be78945ca1948e7ad8bf9","condition":"full-information","relevant_dimensions":["antennae","legs"],"bee_group":{"antennae":"A","wings":"X","pattern":"X","legs":"M"},"action":"harvest","summary":"bad-harvest","bonus":0.04},{"rt":587,"stimulus":"\n                    <p><b>Action: <em>harvest</em></b></p>\n                    <p>This is the bee that you just saw.</p>\n                    <img src=\"bees-with-color/bee-A2DM.svg\" width=\"200\">\n                    <p><span class=\"redText\">Bad choice, the bee was angry.</span><br><b>You have been stung!</b><br>Your pay has been decreased by $0.10. Your bonus pay is now $0.16.</p>\n            ","response":0,"trial_type":"html-button-response","trial_index":104,"time_elapsed":241877,"internal_node_id":"0.0-4.0-1.48","subject_id":"60d1224bb86fedf1819ef67b","study_id":"6197b3f67c2b5cd3b6d9596a","session_id":"619be78945ca1948e7ad8bf9","condition":"full-information","relevant_dimensions":["antennae","legs"],"bee_group":{"antennae":"A","wings":"X","pattern":"X","legs":"M"},"bonus":0.04},{"rt":460.5,"stimulus":"bees-with-color/bee-A1SF.svg","response":0,"trial_type":"image-button-response","trial_index":105,"time_elapsed":242340,"internal_node_id":"0.0-4.0-0.49","subject_id":"60d1224bb86fedf1819ef67b","study_id":"6197b3f67c2b5cd3b6d9596a","session_id":"619be78945ca1948e7ad8bf9","condition":"full-information","relevant_dimensions":["antennae","legs"],"bee_group":{"antennae":"A","wings":"X","pattern":"X","legs":"M"},"action":"harvest","summary":"good-harvest","bonus":0.04},{"rt":531.3999999761581,"stimulus":"\n                    <p><b>Action: <em>harvest</em></b></p>\n                    <p>This is the bee that you just saw.</p>\n                    <img src=\"bees-with-color/bee-A1SF.svg\" width=\"200\">\n                    <p><span class=\"greenText\"><b>Successful harvest!</b></span><br>Your pay has increased by $0.02. Your bonus pay is now $0.18.</p>\n            ","response":0,"trial_type":"html-button-response","trial_index":106,"time_elapsed":242873,"internal_node_id":"0.0-4.0-1.49","subject_id":"60d1224bb86fedf1819ef67b","study_id":"6197b3f67c2b5cd3b6d9596a","session_id":"619be78945ca1948e7ad8bf9","condition":"full-information","relevant_dimensions":["antennae","legs"],"bee_group":{"antennae":"A","wings":"X","pattern":"X","legs":"M"},"bonus":0.04},{"rt":539.6999999880791,"stimulus":"bees-with-color/bee-A1SM.svg","response":0,"trial_type":"image-button-response","trial_index":107,"time_elapsed":243415,"internal_node_id":"0.0-4.0-0.50","subject_id":"60d1224bb86fedf1819ef67b","study_id":"6197b3f67c2b5cd3b6d9596a","session_id":"619be78945ca1948e7ad8bf9","condition":"full-information","relevant_dimensions":["antennae","legs"],"bee_group":{"antennae":"A","wings":"X","pattern":"X","legs":"M"},"action":"harvest","summary":"bad-harvest","bonus":0.04},{"rt":549.1000000238419,"stimulus":"\n                    <p><b>Action: <em>harvest</em></b></p>\n                    <p>This is the bee that you just saw.</p>\n                    <img src=\"bees-with-color/bee-A1SM.svg\" width=\"200\">\n                    <p><span class=\"redText\">Bad choice, the bee was angry.</span><br><b>You have been stung!</b><br>Your pay has been decreased by $0.10. Your bonus pay is now $0.08.</p>\n            ","response":0,"trial_type":"html-button-response","trial_index":108,"time_elapsed":243967,"internal_node_id":"0.0-4.0-1.50","subject_id":"60d1224bb86fedf1819ef67b","study_id":"6197b3f67c2b5cd3b6d9596a","session_id":"619be78945ca1948e7ad8bf9","condition":"full-information","relevant_dimensions":["antennae","legs"],"bee_group":{"antennae":"A","wings":"X","pattern":"X","legs":"M"},"bonus":0.04},{"rt":449.39999997615814,"stimulus":"bees-with-color/bee-B2DM.svg","response":0,"trial_type":"image-button-response","trial_index":109,"time_elapsed":244418,"internal_node_id":"0.0-4.0-0.51","subject_id":"60d1224bb86fedf1819ef67b","study_id":"6197b3f67c2b5cd3b6d9596a","session_id":"619be78945ca1948e7ad8bf9","condition":"full-information","relevant_dimensions":["antennae","legs"],"bee_group":{"antennae":"A","wings":"X","pattern":"X","legs":"M"},"action":"harvest","summary":"good-harvest","bonus":0.04},{"rt":526.5,"stimulus":"\n                    <p><b>Action: <em>harvest</em></b></p>\n                    <p>This is the bee that you just saw.</p>\n                    <img src=\"bees-with-color/bee-B2DM.svg\" width=\"200\">\n                    <p><span class=\"greenText\"><b>Successful harvest!</b></span><br>Your pay has increased by $0.02. Your bonus pay is now $0.10.</p>\n            ","response":0,"trial_type":"html-button-response","trial_index":110,"time_elapsed":244946,"internal_node_id":"0.0-4.0-1.51","subject_id":"60d1224bb86fedf1819ef67b","study_id":"6197b3f67c2b5cd3b6d9596a","session_id":"619be78945ca1948e7ad8bf9","condition":"full-information","relevant_dimensions":["antennae","legs"],"bee_group":{"antennae":"A","wings":"X","pattern":"X","legs":"M"},"bonus":0.04},{"rt":729.1999999880791,"stimulus":"bees-with-color/bee-B2DF.svg","response":0,"trial_type":"image-button-response","trial_index":111,"time_elapsed":245678,"internal_node_id":"0.0-4.0-0.52","subject_id":"60d1224bb86fedf1819ef67b","study_id":"6197b3f67c2b5cd3b6d9596a","session_id":"619be78945ca1948e7ad8bf9","condition":"full-information","relevant_dimensions":["antennae","legs"],"bee_group":{"antennae":"A","wings":"X","pattern":"X","legs":"M"},"action":"harvest","summary":"good-harvest","bonus":0.04},{"rt":467.69999998807907,"stimulus":"\n                    <p><b>Action: <em>harvest</em></b></p>\n                    <p>This is the bee that you just saw.</p>\n                    <img src=\"bees-with-color/bee-B2DF.svg\" width=\"200\">\n                    <p><span class=\"greenText\"><b>Successful harvest!</b></span><br>Your pay has increased by $0.02. Your bonus pay is now $0.12.</p>\n            ","response":0,"trial_type":"html-button-response","trial_index":112,"time_elapsed":246148,"internal_node_id":"0.0-4.0-1.52","subject_id":"60d1224bb86fedf1819ef67b","study_id":"6197b3f67c2b5cd3b6d9596a","session_id":"619be78945ca1948e7ad8bf9","condition":"full-information","relevant_dimensions":["antennae","legs"],"bee_group":{"antennae":"A","wings":"X","pattern":"X","legs":"M"},"bonus":0.04},{"rt":1434.5999999642372,"stimulus":"bees-with-color/bee-B1SF.svg","response":0,"trial_type":"image-button-response","trial_index":113,"time_elapsed":247585,"internal_node_id":"0.0-4.0-0.53","subject_id":"60d1224bb86fedf1819ef67b","study_id":"6197b3f67c2b5cd3b6d9596a","session_id":"619be78945ca1948e7ad8bf9","condition":"full-information","relevant_dimensions":["antennae","legs"],"bee_group":{"antennae":"A","wings":"X","pattern":"X","legs":"M"},"action":"harvest","summary":"good-harvest","bonus":0.04},{"rt":533.5,"stimulus":"\n                    <p><b>Action: <em>harvest</em></b></p>\n                    <p>This is the bee that you just saw.</p>\n                    <img src=\"bees-with-color/bee-B1SF.svg\" width=\"200\">\n                    <p><span class=\"greenText\"><b>Successful harvest!</b></span><br>Your pay has increased by $0.02. Your bonus pay is now $0.14.</p>\n            ","response":0,"trial_type":"html-button-response","trial_index":114,"time_elapsed":248121,"internal_node_id":"0.0-4.0-1.53","subject_id":"60d1224bb86fedf1819ef67b","study_id":"6197b3f67c2b5cd3b6d9596a","session_id":"619be78945ca1948e7ad8bf9","condition":"full-information","relevant_dimensions":["antennae","legs"],"bee_group":{"antennae":"A","wings":"X","pattern":"X","legs":"M"},"bonus":0.04},{"rt":456.5,"stimulus":"bees-with-color/bee-A2DF.svg","response":0,"trial_type":"image-button-response","trial_index":115,"time_elapsed":248579,"internal_node_id":"0.0-4.0-0.54","subject_id":"60d1224bb86fedf1819ef67b","study_id":"6197b3f67c2b5cd3b6d9596a","session_id":"619be78945ca1948e7ad8bf9","condition":"full-information","relevant_dimensions":["antennae","legs"],"bee_group":{"antennae":"A","wings":"X","pattern":"X","legs":"M"},"action":"harvest","summary":"good-harvest","bonus":0.04},{"rt":553.4000000357628,"stimulus":"\n                    <p><b>Action: <em>harvest</em></b></p>\n                    <p>This is the bee that you just saw.</p>\n                    <img src=\"bees-with-color/bee-A2DF.svg\" width=\"200\">\n                    <p><span class=\"greenText\"><b>Successful harvest!</b></span><br>Your pay has increased by $0.02. Your bonus pay is now $0.16.</p>\n            ","response":0,"trial_type":"html-button-response","trial_index":116,"time_elapsed":249135,"internal_node_id":"0.0-4.0-1.54","subject_id":"60d1224bb86fedf1819ef67b","study_id":"6197b3f67c2b5cd3b6d9596a","session_id":"619be78945ca1948e7ad8bf9","condition":"full-information","relevant_dimensions":["antennae","legs"],"bee_group":{"antennae":"A","wings":"X","pattern":"X","legs":"M"},"bonus":0.04},{"rt":453.89999997615814,"stimulus":"bees-with-color/bee-B1DF.svg","response":0,"trial_type":"image-button-response","trial_index":117,"time_elapsed":249590,"internal_node_id":"0.0-4.0-0.55","subject_id":"60d1224bb86fedf1819ef67b","study_id":"6197b3f67c2b5cd3b6d9596a","session_id":"619be78945ca1948e7ad8bf9","condition":"full-information","relevant_dimensions":["antennae","legs"],"bee_group":{"antennae":"A","wings":"X","pattern":"X","legs":"M"},"action":"harvest","summary":"good-harvest","bonus":0.04},{"rt":476.5,"stimulus":"\n                    <p><b>Action: <em>harvest</em></b></p>\n                    <p>This is the bee that you just saw.</p>\n                    <img src=\"bees-with-color/bee-B1DF.svg\" width=\"200\">\n                    <p><span class=\"greenText\"><b>Successful harvest!</b></span><br>Your pay has increased by $0.02. Your bonus pay is now $0.18.</p>\n            ","response":0,"trial_type":"html-button-response","trial_index":118,"time_elapsed":250069,"internal_node_id":"0.0-4.0-1.55","subject_id":"60d1224bb86fedf1819ef67b","study_id":"6197b3f67c2b5cd3b6d9596a","session_id":"619be78945ca1948e7ad8bf9","condition":"full-information","relevant_dimensions":["antennae","legs"],"bee_group":{"antennae":"A","wings":"X","pattern":"X","legs":"M"},"bonus":0.04},{"rt":438.80000001192093,"stimulus":"bees-with-color/bee-B2SF.svg","response":0,"trial_type":"image-button-response","trial_index":119,"time_elapsed":250510,"internal_node_id":"0.0-4.0-0.56","subject_id":"60d1224bb86fedf1819ef67b","study_id":"6197b3f67c2b5cd3b6d9596a","session_id":"619be78945ca1948e7ad8bf9","condition":"full-information","relevant_dimensions":["antennae","legs"],"bee_group":{"antennae":"A","wings":"X","pattern":"X","legs":"M"},"action":"harvest","summary":"good-harvest","bonus":0.04},{"rt":509.2999999523163,"stimulus":"\n                    <p><b>Action: <em>harvest</em></b></p>\n                    <p>This is the bee that you just saw.</p>\n                    <img src=\"bees-with-color/bee-B2SF.svg\" width=\"200\">\n                    <p><span class=\"greenText\"><b>Successful harvest!</b></span><br>Your pay has increased by $0.02. Your bonus pay is now $0.20.</p>\n            ","response":0,"trial_type":"html-button-response","trial_index":120,"time_elapsed":251022,"internal_node_id":"0.0-4.0-1.56","subject_id":"60d1224bb86fedf1819ef67b","study_id":"6197b3f67c2b5cd3b6d9596a","session_id":"619be78945ca1948e7ad8bf9","condition":"full-information","relevant_dimensions":["antennae","legs"],"bee_group":{"antennae":"A","wings":"X","pattern":"X","legs":"M"},"bonus":0.04},{"rt":488.5999999642372,"stimulus":"bees-with-color/bee-A1DM.svg","response":0,"trial_type":"image-button-response","trial_index":121,"time_elapsed":251515,"internal_node_id":"0.0-4.0-0.57","subject_id":"60d1224bb86fedf1819ef67b","study_id":"6197b3f67c2b5cd3b6d9596a","session_id":"619be78945ca1948e7ad8bf9","condition":"full-information","relevant_dimensions":["antennae","legs"],"bee_group":{"antennae":"A","wings":"X","pattern":"X","legs":"M"},"action":"harvest","summary":"bad-harvest","bonus":0.04},{"rt":563.5,"stimulus":"\n                    <p><b>Action: <em>harvest</em></b></p>\n                    <p>This is the bee that you just saw.</p>\n                    <img src=\"bees-with-color/bee-A1DM.svg\" width=\"200\">\n                    <p><span class=\"redText\">Bad choice, the bee was angry.</span><br><b>You have been stung!</b><br>Your pay has been decreased by $0.10. Your bonus pay is now $0.10.</p>\n            ","response":0,"trial_type":"html-button-response","trial_index":122,"time_elapsed":252081,"internal_node_id":"0.0-4.0-1.57","subject_id":"60d1224bb86fedf1819ef67b","study_id":"6197b3f67c2b5cd3b6d9596a","session_id":"619be78945ca1948e7ad8bf9","condition":"full-information","relevant_dimensions":["antennae","legs"],"bee_group":{"antennae":"A","wings":"X","pattern":"X","legs":"M"},"bonus":0.04},{"rt":560.6999999880791,"stimulus":"bees-with-color/bee-B2SM.svg","response":0,"trial_type":"image-button-response","trial_index":123,"time_elapsed":252644,"internal_node_id":"0.0-4.0-0.58","subject_id":"60d1224bb86fedf1819ef67b","study_id":"6197b3f67c2b5cd3b6d9596a","session_id":"619be78945ca1948e7ad8bf9","condition":"full-information","relevant_dimensions":["antennae","legs"],"bee_group":{"antennae":"A","wings":"X","pattern":"X","legs":"M"},"action":"harvest","summary":"good-harvest","bonus":0.04},{"rt":484.89999997615814,"stimulus":"\n                    <p><b>Action: <em>harvest</em></b></p>\n                    <p>This is the bee that you just saw.</p>\n                    <img src=\"bees-with-color/bee-B2SM.svg\" width=\"200\">\n                    <p><span class=\"greenText\"><b>Successful harvest!</b></span><br>Your pay has increased by $0.02. Your bonus pay is now $0.12.</p>\n            ","response":0,"trial_type":"html-button-response","trial_index":124,"time_elapsed":253130,"internal_node_id":"0.0-4.0-1.58","subject_id":"60d1224bb86fedf1819ef67b","study_id":"6197b3f67c2b5cd3b6d9596a","session_id":"619be78945ca1948e7ad8bf9","condition":"full-information","relevant_dimensions":["antennae","legs"],"bee_group":{"antennae":"A","wings":"X","pattern":"X","legs":"M"},"bonus":0.04},{"rt":506.19999998807907,"stimulus":"bees-with-color/bee-B1SM.svg","response":0,"trial_type":"image-button-response","trial_index":125,"time_elapsed":253638,"internal_node_id":"0.0-4.0-0.59","subject_id":"60d1224bb86fedf1819ef67b","study_id":"6197b3f67c2b5cd3b6d9596a","session_id":"619be78945ca1948e7ad8bf9","condition":"full-information","relevant_dimensions":["antennae","legs"],"bee_group":{"antennae":"A","wings":"X","pattern":"X","legs":"M"},"action":"harvest","summary":"good-harvest","bonus":0.04},{"rt":460.30000001192093,"stimulus":"\n                    <p><b>Action: <em>harvest</em></b></p>\n                    <p>This is the bee that you just saw.</p>\n                    <img src=\"bees-with-color/bee-B1SM.svg\" width=\"200\">\n                    <p><span class=\"greenText\"><b>Successful harvest!</b></span><br>Your pay has increased by $0.02. Your bonus pay is now $0.14.</p>\n            ","response":0,"trial_type":"html-button-response","trial_index":126,"time_elapsed":254101,"internal_node_id":"0.0-4.0-1.59","subject_id":"60d1224bb86fedf1819ef67b","study_id":"6197b3f67c2b5cd3b6d9596a","session_id":"619be78945ca1948e7ad8bf9","condition":"full-information","relevant_dimensions":["antennae","legs"],"bee_group":{"antennae":"A","wings":"X","pattern":"X","legs":"M"},"bonus":0.04},{"rt":594.5999999642372,"stimulus":"bees-with-color/bee-B1DM.svg","response":0,"trial_type":"image-button-response","trial_index":127,"time_elapsed":254697,"internal_node_id":"0.0-4.0-0.60","subject_id":"60d1224bb86fedf1819ef67b","study_id":"6197b3f67c2b5cd3b6d9596a","session_id":"619be78945ca1948e7ad8bf9","condition":"full-information","relevant_dimensions":["antennae","legs"],"bee_group":{"antennae":"A","wings":"X","pattern":"X","legs":"M"},"action":"harvest","summary":"good-harvest","bonus":0.04},{"rt":501.19999998807907,"stimulus":"\n                    <p><b>Action: <em>harvest</em></b></p>\n                    <p>This is the bee that you just saw.</p>\n                    <img src=\"bees-with-color/bee-B1DM.svg\" width=\"200\">\n                    <p><span class=\"greenText\"><b>Successful harvest!</b></span><br>Your pay has increased by $0.02. Your bonus pay is now $0.16.</p>\n            ","response":0,"trial_type":"html-button-response","trial_index":128,"time_elapsed":255201,"internal_node_id":"0.0-4.0-1.60","subject_id":"60d1224bb86fedf1819ef67b","study_id":"6197b3f67c2b5cd3b6d9596a","session_id":"619be78945ca1948e7ad8bf9","condition":"full-information","relevant_dimensions":["antennae","legs"],"bee_group":{"antennae":"A","wings":"X","pattern":"X","legs":"M"},"bonus":0.04},{"rt":472.5,"stimulus":"bees-with-color/bee-A2SF.svg","response":0,"trial_type":"image-button-response","trial_index":129,"time_elapsed":255675,"internal_node_id":"0.0-4.0-0.61","subject_id":"60d1224bb86fedf1819ef67b","study_id":"6197b3f67c2b5cd3b6d9596a","session_id":"619be78945ca1948e7ad8bf9","condition":"full-information","relevant_dimensions":["antennae","legs"],"bee_group":{"antennae":"A","wings":"X","pattern":"X","legs":"M"},"action":"harvest","summary":"good-harvest","bonus":0.04},{"rt":499.10000002384186,"stimulus":"\n                    <p><b>Action: <em>harvest</em></b></p>\n                    <p>This is the bee that you just saw.</p>\n                    <img src=\"bees-with-color/bee-A2SF.svg\" width=\"200\">\n                    <p><span class=\"greenText\"><b>Successful harvest!</b></span><br>Your pay has increased by $0.02. Your bonus pay is now $0.18.</p>\n            ","response":0,"trial_type":"html-button-response","trial_index":130,"time_elapsed":256177,"internal_node_id":"0.0-4.0-1.61","subject_id":"60d1224bb86fedf1819ef67b","study_id":"6197b3f67c2b5cd3b6d9596a","session_id":"619be78945ca1948e7ad8bf9","condition":"full-information","relevant_dimensions":["antennae","legs"],"bee_group":{"antennae":"A","wings":"X","pattern":"X","legs":"M"},"bonus":0.04},{"rt":568.3000000119209,"stimulus":"bees-with-color/bee-A2SM.svg","response":0,"trial_type":"image-button-response","trial_index":131,"time_elapsed":256746,"internal_node_id":"0.0-4.0-0.62","subject_id":"60d1224bb86fedf1819ef67b","study_id":"6197b3f67c2b5cd3b6d9596a","session_id":"619be78945ca1948e7ad8bf9","condition":"full-information","relevant_dimensions":["antennae","legs"],"bee_group":{"antennae":"A","wings":"X","pattern":"X","legs":"M"},"action":"harvest","summary":"bad-harvest","bonus":0.04},{"rt":828,"stimulus":"\n                    <p><b>Action: <em>harvest</em></b></p>\n                    <p>This is the bee that you just saw.</p>\n                    <img src=\"bees-with-color/bee-A2SM.svg\" width=\"200\">\n                    <p><span class=\"redText\">Bad choice, the bee was angry.</span><br><b>You have been stung!</b><br>Your pay has been decreased by $0.10. Your bonus pay is now $0.08.</p>\n            ","response":0,"trial_type":"html-button-response","trial_index":132,"time_elapsed":257577,"internal_node_id":"0.0-4.0-1.62","subject_id":"60d1224bb86fedf1819ef67b","study_id":"6197b3f67c2b5cd3b6d9596a","session_id":"619be78945ca1948e7ad8bf9","condition":"full-information","relevant_dimensions":["antennae","legs"],"bee_group":{"antennae":"A","wings":"X","pattern":"X","legs":"M"},"bonus":0.04},{"rt":492,"stimulus":"bees-with-color/bee-A1DF.svg","response":0,"trial_type":"image-button-response","trial_index":133,"time_elapsed":258071,"internal_node_id":"0.0-4.0-0.63","subject_id":"60d1224bb86fedf1819ef67b","study_id":"6197b3f67c2b5cd3b6d9596a","session_id":"619be78945ca1948e7ad8bf9","condition":"full-information","relevant_dimensions":["antennae","legs"],"bee_group":{"antennae":"A","wings":"X","pattern":"X","legs":"M"},"action":"harvest","summary":"good-harvest","bonus":0.04},{"rt":497.2999999523163,"stimulus":"\n                    <p><b>Action: <em>harvest</em></b></p>\n                    <p>This is the bee that you just saw.</p>\n                    <img src=\"bees-with-color/bee-A1DF.svg\" width=\"200\">\n                    <p><span class=\"greenText\"><b>Successful harvest!</b></span><br>Your pay has increased by $0.02. Your bonus pay is now $0.10.</p>\n            ","response":0,"trial_type":"html-button-response","trial_index":134,"time_elapsed":258571,"internal_node_id":"0.0-4.0-1.63","subject_id":"60d1224bb86fedf1819ef67b","study_id":"6197b3f67c2b5cd3b6d9596a","session_id":"619be78945ca1948e7ad8bf9","condition":"full-information","relevant_dimensions":["antennae","legs"],"bee_group":{"antennae":"A","wings":"X","pattern":"X","legs":"M"},"bonus":0.04},{"rt":8245.899999976158,"stimulus":"You have completed the first part of this experiment.<br><br>You will now begin a shorter second part, in which you will receive no feedback.<br>The same rules regarding bonus pay apply.<br><br>Press any key to begin.","response":"j","trial_type":"html-keyboard-response","trial_index":135,"time_elapsed":266818,"internal_node_id":"0.0-5.0","subject_id":"60d1224bb86fedf1819ef67b","study_id":"6197b3f67c2b5cd3b6d9596a","session_id":"619be78945ca1948e7ad8bf9","condition":"full-information","relevant_dimensions":["antennae","legs"],"bee_group":{"antennae":"A","wings":"X","pattern":"X","legs":"M"},"bonus":0.04},{"rt":6795,"stimulus":"bees-with-color/bee-A1DM.svg","response":0,"trial_type":"image-button-response","trial_index":136,"time_elapsed":273622,"internal_node_id":"0.0-6.0-0.0","subject_id":"60d1224bb86fedf1819ef67b","study_id":"6197b3f67c2b5cd3b6d9596a","session_id":"619be78945ca1948e7ad8bf9","condition":"full-information","relevant_dimensions":["antennae","legs"],"bee_group":{"antennae":"A","wings":"X","pattern":"X","legs":"M"},"bonus":0.04},{"rt":1932.5,"stimulus":"bees-with-color/bee-A2SM.svg","response":0,"trial_type":"image-button-response","trial_index":137,"time_elapsed":275558,"internal_node_id":"0.0-6.0-0.1","subject_id":"60d1224bb86fedf1819ef67b","study_id":"6197b3f67c2b5cd3b6d9596a","session_id":"619be78945ca1948e7ad8bf9","condition":"full-information","relevant_dimensions":["antennae","legs"],"bee_group":{"antennae":"A","wings":"X","pattern":"X","legs":"M"},"bonus":0.04},{"rt":194.4000000357628,"stimulus":"bees-with-color/bee-A1SF.svg","response":0,"trial_type":"image-button-response","trial_index":138,"time_elapsed":275756,"internal_node_id":"0.0-6.0-0.2","subject_id":"60d1224bb86fedf1819ef67b","study_id":"6197b3f67c2b5cd3b6d9596a","session_id":"619be78945ca1948e7ad8bf9","condition":"full-information","relevant_dimensions":["antennae","legs"],"bee_group":{"antennae":"A","wings":"X","pattern":"X","legs":"M"},"bonus":0.04},{"rt":162.60000002384186,"stimulus":"bees-with-color/bee-B2DM.svg","response":0,"trial_type":"image-button-response","trial_index":139,"time_elapsed":275922,"internal_node_id":"0.0-6.0-0.3","subject_id":"60d1224bb86fedf1819ef67b","study_id":"6197b3f67c2b5cd3b6d9596a","session_id":"619be78945ca1948e7ad8bf9","condition":"full-information","relevant_dimensions":["antennae","legs"],"bee_group":{"antennae":"A","wings":"X","pattern":"X","legs":"M"},"bonus":0.04},{"rt":166.19999998807907,"stimulus":"bees-with-color/bee-B2SM.svg","response":0,"trial_type":"image-button-response","trial_index":140,"time_elapsed":276091,"internal_node_id":"0.0-6.0-0.4","subject_id":"60d1224bb86fedf1819ef67b","study_id":"6197b3f67c2b5cd3b6d9596a","session_id":"619be78945ca1948e7ad8bf9","condition":"full-information","relevant_dimensions":["antennae","legs"],"bee_group":{"antennae":"A","wings":"X","pattern":"X","legs":"M"},"bonus":0.04},{"rt":156.80000001192093,"stimulus":"bees-with-color/bee-B1DM.svg","response":0,"trial_type":"image-button-response","trial_index":141,"time_elapsed":276251,"internal_node_id":"0.0-6.0-0.5","subject_id":"60d1224bb86fedf1819ef67b","study_id":"6197b3f67c2b5cd3b6d9596a","session_id":"619be78945ca1948e7ad8bf9","condition":"full-information","relevant_dimensions":["antennae","legs"],"bee_group":{"antennae":"A","wings":"X","pattern":"X","legs":"M"},"bonus":0.04},{"rt":176.69999998807907,"stimulus":"bees-with-color/bee-B1SM.svg","response":0,"trial_type":"image-button-response","trial_index":142,"time_elapsed":276432,"internal_node_id":"0.0-6.0-0.6","subject_id":"60d1224bb86fedf1819ef67b","study_id":"6197b3f67c2b5cd3b6d9596a","session_id":"619be78945ca1948e7ad8bf9","condition":"full-information","relevant_dimensions":["antennae","legs"],"bee_group":{"antennae":"A","wings":"X","pattern":"X","legs":"M"},"bonus":0.04},{"rt":181.89999997615814,"stimulus":"bees-with-color/bee-B2DF.svg","response":0,"trial_type":"image-button-response","trial_index":143,"time_elapsed":276618,"internal_node_id":"0.0-6.0-0.7","subject_id":"60d1224bb86fedf1819ef67b","study_id":"6197b3f67c2b5cd3b6d9596a","session_id":"619be78945ca1948e7ad8bf9","condition":"full-information","relevant_dimensions":["antennae","legs"],"bee_group":{"antennae":"A","wings":"X","pattern":"X","legs":"M"},"bonus":0.04},{"rt":208.9000000357628,"stimulus":"bees-with-color/bee-B2SF.svg","response":0,"trial_type":"image-button-response","trial_index":144,"time_elapsed":276831,"internal_node_id":"0.0-6.0-0.8","subject_id":"60d1224bb86fedf1819ef67b","study_id":"6197b3f67c2b5cd3b6d9596a","session_id":"619be78945ca1948e7ad8bf9","condition":"full-information","relevant_dimensions":["antennae","legs"],"bee_group":{"antennae":"A","wings":"X","pattern":"X","legs":"M"},"bonus":0.04},{"rt":481.30000001192093,"stimulus":"bees-with-color/bee-A2DM.svg","response":0,"trial_type":"image-button-response","trial_index":145,"time_elapsed":277315,"internal_node_id":"0.0-6.0-0.9","subject_id":"60d1224bb86fedf1819ef67b","study_id":"6197b3f67c2b5cd3b6d9596a","session_id":"619be78945ca1948e7ad8bf9","condition":"full-information","relevant_dimensions":["antennae","legs"],"bee_group":{"antennae":"A","wings":"X","pattern":"X","legs":"M"},"bonus":0.04},{"rt":190.79999995231628,"stimulus":"bees-with-color/bee-A1SM.svg","response":0,"trial_type":"image-button-response","trial_index":146,"time_elapsed":277509,"internal_node_id":"0.0-6.0-0.10","subject_id":"60d1224bb86fedf1819ef67b","study_id":"6197b3f67c2b5cd3b6d9596a","session_id":"619be78945ca1948e7ad8bf9","condition":"full-information","relevant_dimensions":["antennae","legs"],"bee_group":{"antennae":"A","wings":"X","pattern":"X","legs":"M"},"bonus":0.04},{"rt":141.89999997615814,"stimulus":"bees-with-color/bee-A2SF.svg","response":0,"trial_type":"image-button-response","trial_index":147,"time_elapsed":277654,"internal_node_id":"0.0-6.0-0.11","subject_id":"60d1224bb86fedf1819ef67b","study_id":"6197b3f67c2b5cd3b6d9596a","session_id":"619be78945ca1948e7ad8bf9","condition":"full-information","relevant_dimensions":["antennae","legs"],"bee_group":{"antennae":"A","wings":"X","pattern":"X","legs":"M"},"bonus":0.04},{"rt":158.70000004768372,"stimulus":"bees-with-color/bee-B1DF.svg","response":0,"trial_type":"image-button-response","trial_index":148,"time_elapsed":277814,"internal_node_id":"0.0-6.0-0.12","subject_id":"60d1224bb86fedf1819ef67b","study_id":"6197b3f67c2b5cd3b6d9596a","session_id":"619be78945ca1948e7ad8bf9","condition":"full-information","relevant_dimensions":["antennae","legs"],"bee_group":{"antennae":"A","wings":"X","pattern":"X","legs":"M"},"bonus":0.04},{"rt":149.4000000357628,"stimulus":"bees-with-color/bee-A1DF.svg","response":0,"trial_type":"image-button-response","trial_index":149,"time_elapsed":277966,"internal_node_id":"0.0-6.0-0.13","subject_id":"60d1224bb86fedf1819ef67b","study_id":"6197b3f67c2b5cd3b6d9596a","session_id":"619be78945ca1948e7ad8bf9","condition":"full-information","relevant_dimensions":["antennae","legs"],"bee_group":{"antennae":"A","wings":"X","pattern":"X","legs":"M"},"bonus":0.04},{"rt":176.89999997615814,"stimulus":"bees-with-color/bee-A2DF.svg","response":0,"trial_type":"image-button-response","trial_index":150,"time_elapsed":278145,"internal_node_id":"0.0-6.0-0.14","subject_id":"60d1224bb86fedf1819ef67b","study_id":"6197b3f67c2b5cd3b6d9596a","session_id":"619be78945ca1948e7ad8bf9","condition":"full-information","relevant_dimensions":["antennae","legs"],"bee_group":{"antennae":"A","wings":"X","pattern":"X","legs":"M"},"bonus":0.04},{"rt":142.9000000357628,"stimulus":"bees-with-color/bee-B1SF.svg","response":0,"trial_type":"image-button-response","trial_index":151,"time_elapsed":278292,"internal_node_id":"0.0-6.0-0.15","subject_id":"60d1224bb86fedf1819ef67b","study_id":"6197b3f67c2b5cd3b6d9596a","session_id":"619be78945ca1948e7ad8bf9","condition":"full-information","relevant_dimensions":["antennae","legs"],"bee_group":{"antennae":"A","wings":"X","pattern":"X","legs":"M"},"bonus":0.04},{"rt":151.10000002384186,"stimulus":"bees-with-color/bee-B1SF.svg","response":0,"trial_type":"image-button-response","trial_index":152,"time_elapsed":278445,"internal_node_id":"0.0-6.0-0.16","subject_id":"60d1224bb86fedf1819ef67b","study_id":"6197b3f67c2b5cd3b6d9596a","session_id":"619be78945ca1948e7ad8bf9","condition":"full-information","relevant_dimensions":["antennae","legs"],"bee_group":{"antennae":"A","wings":"X","pattern":"X","legs":"M"},"bonus":0.04},{"rt":163.30000001192093,"stimulus":"bees-with-color/bee-A2SF.svg","response":0,"trial_type":"image-button-response","trial_index":153,"time_elapsed":278611,"internal_node_id":"0.0-6.0-0.17","subject_id":"60d1224bb86fedf1819ef67b","study_id":"6197b3f67c2b5cd3b6d9596a","session_id":"619be78945ca1948e7ad8bf9","condition":"full-information","relevant_dimensions":["antennae","legs"],"bee_group":{"antennae":"A","wings":"X","pattern":"X","legs":"M"},"bonus":0.04},{"rt":144.0999999642372,"stimulus":"bees-with-color/bee-A2DF.svg","response":0,"trial_type":"image-button-response","trial_index":154,"time_elapsed":278758,"internal_node_id":"0.0-6.0-0.18","subject_id":"60d1224bb86fedf1819ef67b","study_id":"6197b3f67c2b5cd3b6d9596a","session_id":"619be78945ca1948e7ad8bf9","condition":"full-information","relevant_dimensions":["antennae","legs"],"bee_group":{"antennae":"A","wings":"X","pattern":"X","legs":"M"},"bonus":0.04},{"rt":155.5,"stimulus":"bees-with-color/bee-A2SM.svg","response":0,"trial_type":"image-button-response","trial_index":155,"time_elapsed":278916,"internal_node_id":"0.0-6.0-0.19","subject_id":"60d1224bb86fedf1819ef67b","study_id":"6197b3f67c2b5cd3b6d9596a","session_id":"619be78945ca1948e7ad8bf9","condition":"full-information","relevant_dimensions":["antennae","legs"],"bee_group":{"antennae":"A","wings":"X","pattern":"X","legs":"M"},"bonus":0.04},{"rt":182.19999998807907,"stimulus":"bees-with-color/bee-A1DF.svg","response":0,"trial_type":"image-button-response","trial_index":156,"time_elapsed":279101,"internal_node_id":"0.0-6.0-0.20","subject_id":"60d1224bb86fedf1819ef67b","study_id":"6197b3f67c2b5cd3b6d9596a","session_id":"619be78945ca1948e7ad8bf9","condition":"full-information","relevant_dimensions":["antennae","legs"],"bee_group":{"antennae":"A","wings":"X","pattern":"X","legs":"M"},"bonus":0.04},{"rt":153.80000001192093,"stimulus":"bees-with-color/bee-A2DM.svg","response":0,"trial_type":"image-button-response","trial_index":157,"time_elapsed":279257,"internal_node_id":"0.0-6.0-0.21","subject_id":"60d1224bb86fedf1819ef67b","study_id":"6197b3f67c2b5cd3b6d9596a","session_id":"619be78945ca1948e7ad8bf9","condition":"full-information","relevant_dimensions":["antennae","legs"],"bee_group":{"antennae":"A","wings":"X","pattern":"X","legs":"M"},"bonus":0.04},{"rt":160.60000002384186,"stimulus":"bees-with-color/bee-B1DF.svg","response":0,"trial_type":"image-button-response","trial_index":158,"time_elapsed":279420,"internal_node_id":"0.0-6.0-0.22","subject_id":"60d1224bb86fedf1819ef67b","study_id":"6197b3f67c2b5cd3b6d9596a","session_id":"619be78945ca1948e7ad8bf9","condition":"full-information","relevant_dimensions":["antennae","legs"],"bee_group":{"antennae":"A","wings":"X","pattern":"X","legs":"M"},"bonus":0.04},{"rt":160.89999997615814,"stimulus":"bees-with-color/bee-B2SM.svg","response":0,"trial_type":"image-button-response","trial_index":159,"time_elapsed":279583,"internal_node_id":"0.0-6.0-0.23","subject_id":"60d1224bb86fedf1819ef67b","study_id":"6197b3f67c2b5cd3b6d9596a","session_id":"619be78945ca1948e7ad8bf9","condition":"full-information","relevant_dimensions":["antennae","legs"],"bee_group":{"antennae":"A","wings":"X","pattern":"X","legs":"M"},"bonus":0.04},{"rt":173.5999999642372,"stimulus":"bees-with-color/bee-B1SM.svg","response":0,"trial_type":"image-button-response","trial_index":160,"time_elapsed":279759,"internal_node_id":"0.0-6.0-0.24","subject_id":"60d1224bb86fedf1819ef67b","study_id":"6197b3f67c2b5cd3b6d9596a","session_id":"619be78945ca1948e7ad8bf9","condition":"full-information","relevant_dimensions":["antennae","legs"],"bee_group":{"antennae":"A","wings":"X","pattern":"X","legs":"M"},"bonus":0.04},{"rt":310.69999998807907,"stimulus":"bees-with-color/bee-A1DM.svg","response":0,"trial_type":"image-button-response","trial_index":161,"time_elapsed":280073,"internal_node_id":"0.0-6.0-0.25","subject_id":"60d1224bb86fedf1819ef67b","study_id":"6197b3f67c2b5cd3b6d9596a","session_id":"619be78945ca1948e7ad8bf9","condition":"full-information","relevant_dimensions":["antennae","leg