[{"success":true,"trial_type":"fullscreen","trial_index":0,"time_elapsed":4777,"internal_node_id":"0.0-0.0","subject_id":"60bd013b6f4b59f3280a0ff8","study_id":"6197b3f67c2b5cd3b6d9596a","session_id":"619be326b7a8d637df94b5ea","condition":"contingent","relevant_dimensions":["wings","legs"],"bee_group":{"antennae":"X","wings":"1","pattern":"X","legs":"M"},"bonus":0.06},{"success":true,"timeout":false,"failed_images":[],"failed_audio":[],"failed_video":[],"trial_type":"preload","trial_index":1,"time_elapsed":4830,"internal_node_id":"0.0-1.0","subject_id":"60bd013b6f4b59f3280a0ff8","study_id":"6197b3f67c2b5cd3b6d9596a","session_id":"619be326b7a8d637df94b5ea","condition":"contingent","relevant_dimensions":["wings","legs"],"bee_group":{"antennae":"X","wings":"1","pattern":"X","legs":"M"},"bonus":0.06},{"rt":1307.5,"stimulus":"Welcome! Press any key to begin.","response":"arrowup","trial_type":"html-keyboard-response","trial_index":2,"time_elapsed":6138,"internal_node_id":"0.0-2.0","subject_id":"60bd013b6f4b59f3280a0ff8","study_id":"6197b3f67c2b5cd3b6d9596a","session_id":"619be326b7a8d637df94b5ea","condition":"contingent","relevant_dimensions":["wings","legs"],"bee_group":{"antennae":"X","wings":"1","pattern":"X","legs":"M"},"bonus":0.06},{"view_history":[{"page_index":0,"viewing_time":2823.7999999998137},{"page_index":1,"viewing_time":22042.200000000186},{"page_index":2,"viewing_time":1391.8999999999069},{"page_index":1,"viewing_time":3266.100000000093},{"page_index":2,"viewing_time":16113.899999999907},{"page_index":3,"viewing_time":12100},{"page_index":4,"viewing_time":13513.899999999907},{"page_index":5,"viewing_time":15910},{"page_index":6,"viewing_time":18834},{"page_index":7,"viewing_time":6717.899999999907},{"page_index":8,"viewing_time":4056.600000000093},{"page_index":9,"viewing_time":3687.600000000093},{"page_index":10,"viewing_time":3534},{"page_index":11,"viewing_time":12426.100000000093},{"page_index":12,"viewing_time":4647.899999999907},{"page_index":13,"viewing_time":819.7999999998137},{"page_index":14,"viewing_time":1082.2000000001863},{"page_index":13,"viewing_time":446.10000000009313},{"page_index":12,"viewing_time":3045.899999999907},{"page_index":13,"viewing_time":812.8999999999069},{"page_index":14,"viewing_time":2265.100000000093}],"rt":149538.3999999999,"trial_type":"instructions","trial_index":3,"time_elapsed":155678,"internal_node_id":"0.0-3.0-0.0","subject_id":"60bd013b6f4b59f3280a0ff8","study_id":"6197b3f67c2b5cd3b6d9596a","session_id":"619be326b7a8d637df94b5ea","condition":"contingent","relevant_dimensions":["wings","legs"],"bee_group":{"antennae":"X","wings":"1","pattern":"X","legs":"M"},"bonus":0.06},{"rt":70397.5,"response":{"Q0":["Two or six legs","Stripes or spots on body","Single or double wings","Antennae or no antennae"]},"question_order":[0],"trial_type":"survey-multi-select","trial_index":4,"time_elapsed":226079,"internal_node_id":"0.0-3.0-1.0","subject_id":"60bd013b6f4b59f3280a0ff8","study_id":"6197b3f67c2b5cd3b6d9596a","session_id":"619be326b7a8d637df94b5ea","condition":"contingent","relevant_dimensions":["wings","legs"],"bee_group":{"antennae":"X","wings":"1","pattern":"X","legs":"M"},"correct":true,"bonus":0.06},{"rt":51308.09999999963,"response":{"Q1":"No.","Q2":"Based on the four features of the bee.","Q3":"You do not learn if it was friendly or dangerous, and do not alter your bonus."},"question_order":[0,1,2],"trial_type":"survey-multi-choice","trial_index":5,"time_elapsed":277390,"internal_node_id":"0.0-3.0-2.0","subject_id":"60bd013b6f4b59f3280a0ff8","study_id":"6197b3f67c2b5cd3b6d9596a","session_id":"619be326b7a8d637df94b5ea","condition":"contingent","relevant_dimensions":["wings","legs"],"bee_group":{"antennae":"X","wings":"1","pattern":"X","legs":"M"},"correct":true,"bonus":0.06},{"rt":3395.0999999996275,"stimulus":"<p>Congrats, you got everything right<br>When you're ready, click the button below to continue to the experiment.</p>","response":0,"trial_type":"html-button-response","trial_index":6,"time_elapsed":280788,"internal_node_id":"0.0-3.0-3.0","subject_id":"60bd013b6f4b59f3280a0ff8","study_id":"6197b3f67c2b5cd3b6d9596a","session_id":"619be326b7a8d637df94b5ea","condition":"contingent","relevant_dimensions":["wings","legs"],"bee_group":{"antennae":"X","wings":"1","pattern":"X","legs":"M"},"bonus":0.06},{"rt":25182,"stimulus":"bees-with-color/bee-A1DM.svg","response":0,"trial_type":"image-button-response","trial_index":7,"time_elapsed":305972,"internal_node_id":"0.0-4.0-0.0","subject_id":"60bd013b6f4b59f3280a0ff8","study_id":"6197b3f67c2b5cd3b6d9596a","session_id":"619be326b7a8d637df94b5ea","condition":"contingent","relevant_dimensions":["wings","legs"],"bee_group":{"antennae":"X","wings":"1","pattern":"X","legs":"M"},"action":"harvest","summary":"bad-harvest","bonus":0.06},{"rt":16222.099999999627,"stimulus":"\n                    <p><b>Action: <em>harvest</em></b></p>\n                    <p>This is the bee that you just saw.</p>\n                    <img src=\"bees-with-color/bee-A1DM.svg\" width=\"200\">\n                    <p><span class=\"redText\">Bad choice, the bee was angry.</span><br><b>You have been stung!</b><br>Your pay has been decreased by $0.10. Your bonus pay is now $0.44.</p>\n            ","response":0,"trial_type":"html-button-response","trial_index":8,"time_elapsed":322196,"internal_node_id":"0.0-4.0-1.0","subject_id":"60bd013b6f4b59f3280a0ff8","study_id":"6197b3f67c2b5cd3b6d9596a","session_id":"619be326b7a8d637df94b5ea","condition":"contingent","relevant_dimensions":["wings","legs"],"bee_group":{"antennae":"X","wings":"1","pattern":"X","legs":"M"},"bonus":0.06},{"rt":4730.5999999996275,"stimulus":"bees-with-color/bee-B1SF.svg","response":0,"trial_type":"image-button-response","trial_index":9,"time_elapsed":326928,"internal_node_id":"0.0-4.0-0.1","subject_id":"60bd013b6f4b59f3280a0ff8","study_id":"6197b3f67c2b5cd3b6d9596a","session_id":"619be326b7a8d637df94b5ea","condition":"contingent","relevant_dimensions":["wings","legs"],"bee_group":{"antennae":"X","wings":"1","pattern":"X","legs":"M"},"action":"harvest","summary":"good-harvest","bonus":0.06},{"rt":18145.600000000093,"stimulus":"\n                    <p><b>Action: <em>harvest</em></b></p>\n                    <p>This is the bee that you just saw.</p>\n                    <img src=\"bees-with-color/bee-B1SF.svg\" width=\"200\">\n                    <p><span class=\"greenText\"><b>Successful harvest!</b></span><br>Your pay has increased by $0.02. Your bonus pay is now $0.46.</p>\n            ","response":0,"trial_type":"html-button-response","trial_index":10,"time_elapsed":345075,"internal_node_id":"0.0-4.0-1.1","subject_id":"60bd013b6f4b59f3280a0ff8","study_id":"6197b3f67c2b5cd3b6d9596a","session_id":"619be326b7a8d637df94b5ea","condition":"contingent","relevant_dimensions":["wings","legs"],"bee_group":{"antennae":"X","wings":"1","pattern":"X","legs":"M"},"bonus":0.06},{"rt":3129.899999999907,"stimulus":"bees-with-color/bee-B2DF.svg","response":1,"trial_type":"image-button-response","trial_index":11,"time_elapsed":348206,"internal_node_id":"0.0-4.0-0.2","subject_id":"60bd013b6f4b59f3280a0ff8","study_id":"6197b3f67c2b5cd3b6d9596a","session_id":"619be326b7a8d637df94b5ea","condition":"contingent","relevant_dimensions":["wings","legs"],"bee_group":{"antennae":"X","wings":"1","pattern":"X","legs":"M"},"action":"avoid","summary":"bad-avoid","bonus":0.06},{"rt":7156.700000000186,"stimulus":"\n                    <p><b>Action: <em>avoid</em></b></p>\n                    <p>This is the bee that you just saw.</p>\n                    <img src=\"bees-with-color/bee-B2DF.svg\" width=\"200\">\n                    <p><br>Your bonus pay is unchanged, and remains at $0.46.</p>\n            ","response":0,"trial_type":"html-button-response","trial_index":12,"time_elapsed":355364,"internal_node_id":"0.0-4.0-1.2","subject_id":"60bd013b6f4b59f3280a0ff8","study_id":"6197b3f67c2b5cd3b6d9596a","session_id":"619be326b7a8d637df94b5ea","condition":"contingent","relevant_dimensions":["wings","legs"],"bee_group":{"antennae":"X","wings":"1","pattern":"X","legs":"M"},"bonus":0.06},{"rt":7932.9000000003725,"stimulus":"bees-with-color/bee-B2DM.svg","response":0,"trial_type":"image-button-response","trial_index":13,"time_elapsed":363298,"internal_node_id":"0.0-4.0-0.3","subject_id":"60bd013b6f4b59f3280a0ff8","study_id":"6197b3f67c2b5cd3b6d9596a","session_id":"619be326b7a8d637df94b5ea","condition":"contingent","relevant_dimensions":["wings","legs"],"bee_group":{"antennae":"X","wings":"1","pattern":"X","legs":"M"},"action":"harvest","summary":"good-harvest","bonus":0.06},{"rt":8682.600000000093,"stimulus":"\n                    <p><b>Action: <em>harvest</em></b></p>\n                    <p>This is the bee that you just saw.</p>\n                    <img src=\"bees-with-color/bee-B2DM.svg\" width=\"200\">\n                    <p><span class=\"greenText\"><b>Successful harvest!</b></span><br>Your pay has increased by $0.02. Your bonus pay is now $0.48.</p>\n            ","response":0,"trial_type":"html-button-response","trial_index":14,"time_elapsed":371982,"internal_node_id":"0.0-4.0-1.3","subject_id":"60bd013b6f4b59f3280a0ff8","study_id":"6197b3f67c2b5cd3b6d9596a","session_id":"619be326b7a8d637df94b5ea","condition":"contingent","relevant_dimensions":["wings","legs"],"bee_group":{"antennae":"X","wings":"1","pattern":"X","legs":"M"},"bonus":0.06},{"rt":1164.8999999999069,"stimulus":"bees-with-color/bee-B2SF.svg","response":0,"trial_type":"image-button-response","trial_index":15,"time_elapsed":373148,"internal_node_id":"0.0-4.0-0.4","subject_id":"60bd013b6f4b59f3280a0ff8","study_id":"6197b3f67c2b5cd3b6d9596a","session_id":"619be326b7a8d637df94b5ea","condition":"contingent","relevant_dimensions":["wings","legs"],"bee_group":{"antennae":"X","wings":"1","pattern":"X","legs":"M"},"action":"harvest","summary":"good-harvest","bonus":0.06},{"rt":3820.2000000001863,"stimulus":"\n                    <p><b>Action: <em>harvest</em></b></p>\n                    <p>This is the bee that you just saw.</p>\n                    <img src=\"bees-with-color/bee-B2SF.svg\" width=\"200\">\n                    <p><span class=\"greenText\"><b>Successful harvest!</b></span><br>Your pay has increased by $0.02. Your bonus pay is now $0.50.</p>\n            ","response":0,"trial_type":"html-button-response","trial_index":16,"time_elapsed":376970,"internal_node_id":"0.0-4.0-1.4","subject_id":"60bd013b6f4b59f3280a0ff8","study_id":"6197b3f67c2b5cd3b6d9596a","session_id":"619be326b7a8d637df94b5ea","condition":"contingent","relevant_dimensions":["wings","legs"],"bee_group":{"antennae":"X","wings":"1","pattern":"X","legs":"M"},"bonus":0.06},{"rt":10013.200000000186,"stimulus":"bees-with-color/bee-B1SM.svg","response":0,"trial_type":"image-button-response","trial_index":17,"time_elapsed":386984,"internal_node_id":"0.0-4.0-0.5","subject_id":"60bd013b6f4b59f3280a0ff8","study_id":"6197b3f67c2b5cd3b6d9596a","session_id":"619be326b7a8d637df94b5ea","condition":"contingent","relevant_dimensions":["wings","legs"],"bee_group":{"antennae":"X","wings":"1","pattern":"X","legs":"M"},"action":"harvest","summary":"bad-harvest","bonus":0.06},{"rt":26310.80000000028,"stimulus":"\n                    <p><b>Action: <em>harvest</em></b></p>\n                    <p>This is the bee that you just saw.</p>\n                    <img src=\"bees-with-color/bee-B1SM.svg\" width=\"200\">\n                    <p><span class=\"redText\">Bad choice, the bee was angry.</span><br><b>You have been stung!</b><br>Your pay has been decreased by $0.10. Your bonus pay is now $0.40.</p>\n            ","response":0,"trial_type":"html-button-response","trial_index":18,"time_elapsed":413296,"internal_node_id":"0.0-4.0-1.5","subject_id":"60bd013b6f4b59f3280a0ff8","study_id":"6197b3f67c2b5cd3b6d9596a","session_id":"619be326b7a8d637df94b5ea","condition":"contingent","relevant_dimensions":["wings","legs"],"bee_group":{"antennae":"X","wings":"1","pattern":"X","legs":"M"},"bonus":0.06},{"rt":9702.5,"stimulus":"bees-with-color/bee-A2DM.svg","response":0,"trial_type":"image-button-response","trial_index":19,"time_elapsed":423000,"internal_node_id":"0.0-4.0-0.6","subject_id":"60bd013b6f4b59f3280a0ff8","study_id":"6197b3f67c2b5cd3b6d9596a","session_id":"619be326b7a8d637df94b5ea","condition":"contingent","relevant_dimensions":["wings","legs"],"bee_group":{"antennae":"X","wings":"1","pattern":"X","legs":"M"},"action":"harvest","summary":"good-harvest","bonus":0.06},{"rt":7390.899999999907,"stimulus":"\n                    <p><b>Action: <em>harvest</em></b></p>\n                    <p>This is the bee that you just saw.</p>\n                    <img src=\"bees-with-color/bee-A2DM.svg\" width=\"200\">\n                    <p><span class=\"greenText\"><b>Successful harvest!</b></span><br>Your pay has increased by $0.02. Your bonus pay is now $0.42.</p>\n            ","response":0,"trial_type":"html-button-response","trial_index":20,"time_elapsed":430392,"internal_node_id":"0.0-4.0-1.6","subject_id":"60bd013b6f4b59f3280a0ff8","study_id":"6197b3f67c2b5cd3b6d9596a","session_id":"619be326b7a8d637df94b5ea","condition":"contingent","relevant_dimensions":["wings","legs"],"bee_group":{"antennae":"X","wings":"1","pattern":"X","legs":"M"},"bonus":0.06},{"rt":8810.80000000028,"stimulus":"bees-with-color/bee-B2SM.svg","response":1,"trial_type":"image-button-response","trial_index":21,"time_elapsed":439204,"internal_node_id":"0.0-4.0-0.7","subject_id":"60bd013b6f4b59f3280a0ff8","study_id":"6197b3f67c2b5cd3b6d9596a","session_id":"619be326b7a8d637df94b5ea","condition":"contingent","relevant_dimensions":["wings","legs"],"bee_group":{"antennae":"X","wings":"1","pattern":"X","legs":"M"},"action":"avoid","summary":"bad-avoid","bonus":0.06},{"rt":1849,"stimulus":"\n                    <p><b>Action: <em>avoid</em></b></p>\n                    <p>This is the bee that you just saw.</p>\n                    <img src=\"bees-with-color/bee-B2SM.svg\" width=\"200\">\n                    <p><br>Your bonus pay is unchanged, and remains at $0.42.</p>\n            ","response":0,"trial_type":"html-button-response","trial_index":22,"time_elapsed":441054,"internal_node_id":"0.0-4.0-1.7","subject_id":"60bd013b6f4b59f3280a0ff8","study_id":"6197b3f67c2b5cd3b6d9596a","session_id":"619be326b7a8d637df94b5ea","condition":"contingent","relevant_dimensions":["wings","legs"],"bee_group":{"antennae":"X","wings":"1","pattern":"X","legs":"M"},"bonus":0.06},{"rt":9770.899999999907,"stimulus":"bees-with-color/bee-A1SF.svg","response":1,"trial_type":"image-button-response","trial_index":23,"time_elapsed":450826,"internal_node_id":"0.0-4.0-0.8","subject_id":"60bd013b6f4b59f3280a0ff8","study_id":"6197b3f67c2b5cd3b6d9596a","session_id":"619be326b7a8d637df94b5ea","condition":"contingent","relevant_dimensions":["wings","legs"],"bee_group":{"antennae":"X","wings":"1","pattern":"X","legs":"M"},"action":"avoid","summary":"bad-avoid","bonus":0.06},{"rt":1565.2000000001863,"stimulus":"\n                    <p><b>Action: <em>avoid</em></b></p>\n                    <p>This is the bee that you just saw.</p>\n                    <img src=\"bees-with-color/bee-A1SF.svg\" width=\"200\">\n                    <p><br>Your bonus pay is unchanged, and remains at $0.42.</p>\n            ","response":0,"trial_type":"html-button-response","trial_index":24,"time_elapsed":452393,"internal_node_id":"0.0-4.0-1.8","subject_id":"60bd013b6f4b59f3280a0ff8","study_id":"6197b3f67c2b5cd3b6d9596a","session_id":"619be326b7a8d637df94b5ea","condition":"contingent","relevant_dimensions":["wings","legs"],"bee_group":{"antennae":"X","wings":"1","pattern":"X","legs":"M"},"bonus":0.06},{"rt":14281.900000000373,"stimulus":"bees-with-color/bee-A1SM.svg","response":0,"trial_type":"image-button-response","trial_index":25,"time_elapsed":466676,"internal_node_id":"0.0-4.0-0.9","subject_id":"60bd013b6f4b59f3280a0ff8","study_id":"6197b3f67c2b5cd3b6d9596a","session_id":"619be326b7a8d637df94b5ea","condition":"contingent","relevant_dimensions":["wings","legs"],"bee_group":{"antennae":"X","wings":"1","pattern":"X","legs":"M"},"action":"harvest","summary":"bad-harvest","bonus":0.06},{"rt":2636.600000000093,"stimulus":"\n                    <p><b>Action: <em>harvest</em></b></p>\n                    <p>This is the bee that you just saw.</p>\n                    <img src=\"bees-with-color/bee-A1SM.svg\" width=\"200\">\n                    <p><span class=\"redText\">Bad choice, the bee was angry.</span><br><b>You have been stung!</b><br>Your pay has been decreased by $0.10. Your bonus pay is now $0.32.</p>\n            ","response":0,"trial_type":"html-button-response","trial_index":26,"time_elapsed":469314,"internal_node_id":"0.0-4.0-1.9","subject_id":"60bd013b6f4b59f3280a0ff8","study_id":"6197b3f67c2b5cd3b6d9596a","session_id":"619be326b7a8d637df94b5ea","condition":"contingent","relevant_dimensions":["wings","legs"],"bee_group":{"antennae":"X","wings":"1","pattern":"X","legs":"M"},"bonus":0.06},{"rt":3776.8000000002794,"stimulus":"bees-with-color/bee-A2DF.svg","response":0,"trial_type":"image-button-response","trial_index":27,"time_elapsed":473092,"internal_node_id":"0.0-4.0-0.10","subject_id":"60bd013b6f4b59f3280a0ff8","study_id":"6197b3f67c2b5cd3b6d9596a","session_id":"619be326b7a8d637df94b5ea","condition":"contingent","relevant_dimensions":["wings","legs"],"bee_group":{"antennae":"X","wings":"1","pattern":"X","legs":"M"},"action":"harvest","summary":"good-harvest","bonus":0.06},{"rt":1955,"stimulus":"\n                    <p><b>Action: <em>harvest</em></b></p>\n                    <p>This is the bee that you just saw.</p>\n                    <img src=\"bees-with-color/bee-A2DF.svg\" width=\"200\">\n                    <p><span class=\"greenText\"><b>Successful harvest!</b></span><br>Your pay has increased by $0.02. Your bonus pay is now $0.34.</p>\n            ","response":0,"trial_type":"html-button-response","trial_index":28,"time_elapsed":475048,"internal_node_id":"0.0-4.0-1.10","subject_id":"60bd013b6f4b59f3280a0ff8","study_id":"6197b3f67c2b5cd3b6d9596a","session_id":"619be326b7a8d637df94b5ea","condition":"contingent","relevant_dimensions":["wings","legs"],"bee_group":{"antennae":"X","wings":"1","pattern":"X","legs":"M"},"bonus":0.06},{"rt":3709,"stimulus":"bees-with-color/bee-B1DM.svg","response":0,"trial_type":"image-button-response","trial_index":29,"time_elapsed":478758,"internal_node_id":"0.0-4.0-0.11","subject_id":"60bd013b6f4b59f3280a0ff8","study_id":"6197b3f67c2b5cd3b6d9596a","session_id":"619be326b7a8d637df94b5ea","condition":"contingent","relevant_dimensions":["wings","legs"],"bee_group":{"antennae":"X","wings":"1","pattern":"X","legs":"M"},"action":"harvest","summary":"bad-harvest","bonus":0.06},{"rt":875.2000000001863,"stimulus":"\n                    <p><b>Action: <em>harvest</em></b></p>\n                    <p>This is the bee that you just saw.</p>\n                    <img src=\"bees-with-color/bee-B1DM.svg\" width=\"200\">\n                    <p><span class=\"redText\">Bad choice, the bee was angry.</span><br><b>You have been stung!</b><br>Your pay has been decreased by $0.10. Your bonus pay is now $0.24.</p>\n            ","response":0,"trial_type":"html-button-response","trial_index":30,"time_elapsed":479634,"internal_node_id":"0.0-4.0-1.11","subject_id":"60bd013b6f4b59f3280a0ff8","study_id":"6197b3f67c2b5cd3b6d9596a","session_id":"619be326b7a8d637df94b5ea","condition":"contingent","relevant_dimensions":["wings","legs"],"bee_group":{"antennae":"X","wings":"1","pattern":"X","legs":"M"},"bonus":0.06},{"rt":28385,"stimulus":"bees-with-color/bee-B1DF.svg","response":0,"trial_type":"image-button-response","trial_index":31,"time_elapsed":508020,"internal_node_id":"0.0-4.0-0.12","subject_id":"60bd013b6f4b59f3280a0ff8","study_id":"6197b3f67c2b5cd3b6d9596a","session_id":"619be326b7a8d637df94b5ea","condition":"contingent","relevant_dimensions":["wings","legs"],"bee_group":{"antennae":"X","wings":"1","pattern":"X","legs":"M"},"action":"harvest","summary":"good-harvest","bonus":0.06},{"rt":465.10000000009313,"stimulus":"\n                    <p><b>Action: <em>harvest</em></b></p>\n                    <p>This is the bee that you just saw.</p>\n                    <img src=\"bees-with-color/bee-B1DF.svg\" width=\"200\">\n                    <p><span class=\"greenText\"><b>Successful harvest!</b></span><br>Your pay has increased by $0.02. Your bonus pay is now $0.26.</p>\n            ","response":0,"trial_type":"html-button-response","trial_index":32,"time_elapsed":508486,"internal_node_id":"0.0-4.0-1.12","subject_id":"60bd013b6f4b59f3280a0ff8","study_id":"6197b3f67c2b5cd3b6d9596a","session_id":"619be326b7a8d637df94b5ea","condition":"contingent","relevant_dimensions":["wings","legs"],"bee_group":{"antennae":"X","wings":"1","pattern":"X","legs":"M"},"bonus":0.06},{"rt":404.60000000009313,"stimulus":"bees-with-color/bee-A1DF.svg","response":0,"trial_type":"image-button-response","trial_index":33,"time_elapsed":508891,"internal_node_id":"0.0-4.0-0.13","subject_id":"60bd013b6f4b59f3280a0ff8","study_id":"6197b3f67c2b5cd3b6d9596a","session_id":"619be326b7a8d637df94b5ea","condition":"contingent","relevant_dimensions":["wings","legs"],"bee_group":{"antennae":"X","wings":"1","pattern":"X","legs":"M"},"action":"harvest","summary":"good-harvest","bonus":0.06},{"rt":366.6999999997206,"stimulus":"\n                    <p><b>Action: <em>harvest</em></b></p>\n                    <p>This is the bee that you just saw.</p>\n                    <img src=\"bees-with-color/bee-A1DF.svg\" width=\"200\">\n                    <p><span class=\"greenText\"><b>Successful harvest!</b></span><br>Your pay has increased by $0.02. Your bonus pay is now $0.28.</p>\n            ","response":0,"trial_type":"html-button-response","trial_index":34,"time_elapsed":509259,"internal_node_id":"0.0-4.0-1.13","subject_id":"60bd013b6f4b59f3280a0ff8","study_id":"6197b3f67c2b5cd3b6d9596a","session_id":"619be326b7a8d637df94b5ea","condition":"contingent","relevant_dimensions":["wings","legs"],"bee_group":{"antennae":"X","wings":"1","pattern":"X","legs":"M"},"bonus":0.06},{"rt":305.89999999990687,"stimulus":"bees-with-color/bee-A2SM.svg","response":0,"trial_type":"image-button-response","trial_index":35,"time_elapsed":509566,"internal_node_id":"0.0-4.0-0.14","subject_id":"60bd013b6f4b59f3280a0ff8","study_id":"6197b3f67c2b5cd3b6d9596a","session_id":"619be326b7a8d637df94b5ea","condition":"contingent","relevant_dimensions":["wings","legs"],"bee_group":{"antennae":"X","wings":"1","pattern":"X","legs":"M"},"action":"harvest","summary":"good-harvest","bonus":0.06},{"rt":333.10000000009313,"stimulus":"\n                    <p><b>Action: <em>harvest</em></b></p>\n                    <p>This is the bee that you just saw.</p>\n                    <img src=\"bees-with-color/bee-A2SM.svg\" width=\"200\">\n                    <p><span class=\"greenText\"><b>Successful harvest!</b></span><br>Your pay has increased by $0.02. Your bonus pay is now $0.30.</p>\n            ","response":0,"trial_type":"html-button-response","trial_index":36,"time_elapsed":509900,"internal_node_id":"0.0-4.0-1.14","subject_id":"60bd013b6f4b59f3280a0ff8","study_id":"6197b3f67c2b5cd3b6d9596a","session_id":"619be326b7a8d637df94b5ea","condition":"contingent","relevant_dimensions":["wings","legs"],"bee_group":{"antennae":"X","wings":"1","pattern":"X","legs":"M"},"bonus":0.06},{"rt":287.10000000009313,"stimulus":"bees-with-color/bee-A2SF.svg","response":0,"trial_type":"image-button-response","trial_index":37,"time_elapsed":510187,"internal_node_id":"0.0-4.0-0.15","subject_id":"60bd013b6f4b59f3280a0ff8","study_id":"6197b3f67c2b5cd3b6d9596a","session_id":"619be326b7a8d637df94b5ea","condition":"contingent","relevant_dimensions":["wings","legs"],"bee_group":{"antennae":"X","wings":"1","pattern":"X","legs":"M"},"action":"harvest","summary":"good-harvest","bonus":0.06},{"rt":311.60000000009313,"stimulus":"\n                    <p><b>Action: <em>harvest</em></b></p>\n                    <p>This is the bee that you just saw.</p>\n                    <img src=\"bees-with-color/bee-A2SF.svg\" width=\"200\">\n                    <p><span class=\"greenText\"><b>Successful harvest!</b></span><br>Your pay has increased by $0.02. Your bonus pay is now $0.32.</p>\n            ","response":0,"trial_type":"html-button-response","trial_index":38,"time_elapsed":510500,"internal_node_id":"0.0-4.0-1.15","subject_id":"60bd013b6f4b59f3280a0ff8","study_id":"6197b3f67c2b5cd3b6d9596a","session_id":"619be326b7a8d637df94b5ea","condition":"contingent","relevant_dimensions":["wings","legs"],"bee_group":{"antennae":"X","wings":"1","pattern":"X","legs":"M"},"bonus":0.06},{"rt":301.3000000002794,"stimulus":"bees-with-color/bee-A1SM.svg","response":0,"trial_type":"image-button-response","trial_index":39,"time_elapsed":510802,"internal_node_id":"0.0-4.0-0.16","subject_id":"60bd013b6f4b59f3280a0ff8","study_id":"6197b3f67c2b5cd3b6d9596a","session_id":"619be326b7a8d637df94b5ea","condition":"contingent","relevant_dimensions":["wings","legs"],"bee_group":{"antennae":"X","wings":"1","pattern":"X","legs":"M"},"action":"harvest","summary":"bad-harvest","bonus":0.06},{"rt":607.5,"stimulus":"\n                    <p><b>Action: <em>harvest</em></b></p>\n                    <p>This is the bee that you just saw.</p>\n                    <img src=\"bees-with-color/bee-A1SM.svg\" width=\"200\">\n                    <p><span class=\"redText\">Bad choice, the bee was angry.</span><br><b>You have been stung!</b><br>Your pay has been decreased by $0.10. Your bonus pay is now $0.22.</p>\n            ","response":0,"trial_type":"html-button-response","trial_index":40,"time_elapsed":511410,"internal_node_id":"0.0-4.0-1.16","subject_id":"60bd013b6f4b59f3280a0ff8","study_id":"6197b3f67c2b5cd3b6d9596a","session_id":"619be326b7a8d637df94b5ea","condition":"contingent","relevant_dimensions":["wings","legs"],"bee_group":{"antennae":"X","wings":"1","pattern":"X","legs":"M"},"bonus":0.06},{"rt":400.8000000002794,"stimulus":"bees-with-color/bee-B2SF.svg","response":0,"trial_type":"image-button-response","trial_index":41,"time_elapsed":511812,"internal_node_id":"0.0-4.0-0.17","subject_id":"60bd013b6f4b59f3280a0ff8","study_id":"6197b3f67c2b5cd3b6d9596a","session_id":"619be326b7a8d637df94b5ea","condition":"contingent","relevant_dimensions":["wings","legs"],"bee_group":{"antennae":"X","wings":"1","pattern":"X","legs":"M"},"action":"harvest","summary":"good-harvest","bonus":0.06},{"rt":341,"stimulus":"\n                    <p><b>Action: <em>harvest</em></b></p>\n                    <p>This is the bee that you just saw.</p>\n                    <img src=\"bees-with-color/bee-B2SF.svg\" width=\"200\">\n                    <p><span class=\"greenText\"><b>Successful harvest!</b></span><br>Your pay has increased by $0.02. Your bonus pay is now $0.24.</p>\n            ","response":0,"trial_type":"html-button-response","trial_index":42,"time_elapsed":512154,"internal_node_id":"0.0-4.0-1.17","subject_id":"60bd013b6f4b59f3280a0ff8","study_id":"6197b3f67c2b5cd3b6d9596a","session_id":"619be326b7a8d637df94b5ea","condition":"contingent","relevant_dimensions":["wings","legs"],"bee_group":{"antennae":"X","wings":"1","pattern":"X","legs":"M"},"bonus":0.06},{"rt":297.20000000018626,"stimulus":"bees-with-color/bee-B2DF.svg","response":0,"trial_type":"image-button-response","trial_index":43,"time_elapsed":512452,"internal_node_id":"0.0-4.0-0.18","subject_id":"60bd013b6f4b59f3280a0ff8","study_id":"6197b3f67c2b5cd3b6d9596a","session_id":"619be326b7a8d637df94b5ea","condition":"contingent","relevant_dimensions":["wings","legs"],"bee_group":{"antennae":"X","wings":"1","pattern":"X","legs":"M"},"action":"harvest","summary":"good-harvest","bonus":0.06},{"rt":237.29999999981374,"stimulus":"\n                    <p><b>Action: <em>harvest</em></b></p>\n                    <p>This is the bee that you just saw.</p>\n                    <img src=\"bees-with-color/bee-B2DF.svg\" width=\"200\">\n                    <p><span class=\"greenText\"><b>Successful harvest!</b></span><br>Your pay has increased by $0.02. Your bonus pay is now $0.26.</p>\n            ","response":0,"trial_type":"html-button-response","trial_index":44,"time_elapsed":512690,"internal_node_id":"0.0-4.0-1.18","subject_id":"60bd013b6f4b59f3280a0ff8","study_id":"6197b3f67c2b5cd3b6d9596a","session_id":"619be326b7a8d637df94b5ea","condition":"contingent","relevant_dimensions":["wings","legs"],"bee_group":{"antennae":"X","wings":"1","pattern":"X","legs":"M"},"bonus":0.06},{"rt":333.1999999997206,"stimulus":"bees-with-color/bee-A2SM.svg","response":0,"trial_type":"image-button-response","trial_index":45,"time_elapsed":513024,"internal_node_id":"0.0-4.0-0.19","subject_id":"60bd013b6f4b59f3280a0ff8","study_id":"6197b3f67c2b5cd3b6d9596a","session_id":"619be326b7a8d637df94b5ea","condition":"contingent","relevant_dimensions":["wings","legs"],"bee_group":{"antennae":"X","wings":"1","pattern":"X","legs":"M"},"action":"harvest","summary":"good-harvest","bonus":0.06},{"rt":276.79999999981374,"stimulus":"\n                    <p><b>Action: <em>harvest</em></b></p>\n                    <p>This is the bee that you just saw.</p>\n                    <img src=\"bees-with-color/bee-A2SM.svg\" width=\"200\">\n                    <p><span class=\"greenText\"><b>Successful harvest!</b></span><br>Your pay has increased by $0.02. Your bonus pay is now $0.28.</p>\n            ","response":0,"trial_type":"html-button-response","trial_index":46,"time_elapsed":513302,"internal_node_id":"0.0-4.0-1.19","subject_id":"60bd013b6f4b59f3280a0ff8","study_id":"6197b3f67c2b5cd3b6d9596a","session_id":"619be326b7a8d637df94b5ea","condition":"contingent","relevant_dimensions":["wings","legs"],"bee_group":{"antennae":"X","wings":"1","pattern":"X","legs":"M"},"bonus":0.06},{"rt":327.20000000018626,"stimulus":"bees-with-color/bee-B1SF.svg","response":0,"trial_type":"image-button-response","trial_index":47,"time_elapsed":513630,"internal_node_id":"0.0-4.0-0.20","subject_id":"60bd013b6f4b59f3280a0ff8","study_id":"6197b3f67c2b5cd3b6d9596a","session_id":"619be326b7a8d637df94b5ea","condition":"contingent","relevant_dimensions":["wings","legs"],"bee_group":{"antennae":"X","wings":"1","pattern":"X","legs":"M"},"action":"harvest","summary":"good-harvest","bonus":0.06},{"rt":239.5,"stimulus":"\n                    <p><b>Action: <em>harvest</em></b></p>\n                    <p>This is the bee that you just saw.</p>\n                    <img src=\"bees-with-color/bee-B1SF.svg\" width=\"200\">\n                    <p><span class=\"greenText\"><b>Successful harvest!</b></span><br>Your pay has increased by $0.02. Your bonus pay is now $0.30.</p>\n            ","response":0,"trial_type":"html-button-response","trial_index":48,"time_elapsed":513870,"internal_node_id":"0.0-4.0-1.20","subject_id":"60bd013b6f4b59f3280a0ff8","study_id":"6197b3f67c2b5cd3b6d9596a","session_id":"619be326b7a8d637df94b5ea","condition":"contingent","relevant_dimensions":["wings","legs"],"bee_group":{"antennae":"X","wings":"1","pattern":"X","legs":"M"},"bonus":0.06},{"rt":270.70000000018626,"stimulus":"bees-with-color/bee-A2DM.svg","response":1,"trial_type":"image-button-response","trial_index":49,"time_elapsed":514142,"internal_node_id":"0.0-4.0-0.21","subject_id":"60bd013b6f4b59f3280a0ff8","study_id":"6197b3f67c2b5cd3b6d9596a","session_id":"619be326b7a8d637df94b5ea","condition":"contingent","relevant_dimensions":["wings","legs"],"bee_group":{"antennae":"X","wings":"1","pattern":"X","legs":"M"},"action":"avoid","summary":"bad-avoid","bonus":0.06},{"rt":239.10000000009313,"stimulus":"\n                    <p><b>Action: <em>avoid</em></b></p>\n                    <p>This is the bee that you just saw.</p>\n                    <img src=\"bees-with-color/bee-A2DM.svg\" width=\"200\">\n                    <p><br>Your bonus pay is unchanged, and remains at $0.30.</p>\n            ","response":0,"trial_type":"html-button-response","trial_index":50,"time_elapsed":514382,"internal_node_id":"0.0-4.0-1.21","subject_id":"60bd013b6f4b59f3280a0ff8","study_id":"6197b3f67c2b5cd3b6d9596a","session_id":"619be326b7a8d637df94b5ea","condition":"contingent","relevant_dimensions":["wings","legs"],"bee_group":{"antennae":"X","wings":"1","pattern":"X","legs":"M"},"bonus":0.06},{"rt":273.10000000009313,"stimulus":"bees-with-color/bee-B1SM.svg","response":1,"trial_type":"image-button-response","trial_index":51,"time_elapsed":514656,"internal_node_id":"0.0-4.0-0.22","subject_id":"60bd013b6f4b59f3280a0ff8","study_id":"6197b3f67c2b5cd3b6d9596a","session_id":"619be326b7a8d637df94b5ea","condition":"contingent","relevant_dimensions":["wings","legs"],"bee_group":{"antennae":"X","wings":"1","pattern":"X","legs":"M"},"action":"avoid","summary":"good-avoid","bonus":0.06},{"rt":215,"stimulus":"\n                    <p><b>Action: <em>avoid</em></b></p>\n                    <p>This is the bee that you just saw.</p>\n                    <img src=\"bees-with-color/bee-B1SM.svg\" width=\"200\">\n                    <p><br>Your bonus pay is unchanged, and remains at $0.30.</p>\n            ","response":0,"trial_type":"html-button-response","trial_index":52,"time_elapsed":514872,"internal_node_id":"0.0-4.0-1.22","subject_id":"60bd013b6f4b59f3280a0ff8","study_id":"6197b3f67c2b5cd3b6d9596a","session_id":"619be326b7a8d637df94b5ea","condition":"contingent","relevant_dimensions":["wings","legs"],"bee_group":{"antennae":"X","wings":"1","pattern":"X","legs":"M"},"bonus":0.06},{"rt":723.1000000000931,"stimulus":"bees-with-color/bee-B1DF.svg","response":0,"trial_type":"image-button-response","trial_index":53,"time_elapsed":515595,"internal_node_id":"0.0-4.0-0.23","subject_id":"60bd013b6f4b59f3280a0ff8","study_id":"6197b3f67c2b5cd3b6d9596a","session_id":"619be326b7a8d637df94b5ea","condition":"contingent","relevant_dimensions":["wings","legs"],"bee_group":{"antennae":"X","wings":"1","pattern":"X","legs":"M"},"action":"harvest","summary":"good-harvest","bonus":0.06},{"rt":211.39999999990687,"stimulus":"\n                    <p><b>Action: <em>harvest</em></b></p>\n                    <p>This is the bee that you just saw.</p>\n                    <img src=\"bees-with-color/bee-B1DF.svg\" width=\"200\">\n                    <p><span class=\"greenText\"><b>Successful harvest!</b></span><br>Your pay has increased by $0.02. Your bonus pay is now $0.32.</p>\n            ","response":0,"trial_type":"html-button-response","trial_index":54,"time_elapsed":515808,"internal_node_id":"0.0-4.0-1.23","subject_id":"60bd013b6f4b59f3280a0ff8","study_id":"6197b3f67c2b5cd3b6d9596a","session_id":"619be326b7a8d637df94b5ea","condition":"contingent","relevant_dimensions":["wings","legs"],"bee_group":{"antennae":"X","wings":"1","pattern":"X","legs":"M"},"bonus":0.06},{"rt":321.3000000002794,"stimulus":"bees-with-color/bee-A1SF.svg","response":1,"trial_type":"image-button-response","trial_index":55,"time_elapsed":516130,"internal_node_id":"0.0-4.0-0.24","subject_id":"60bd013b6f4b59f3280a0ff8","study_id":"6197b3f67c2b5cd3b6d9596a","session_id":"619be326b7a8d637df94b5ea","condition":"contingent","relevant_dimensions":["wings","legs"],"bee_group":{"antennae":"X","wings":"1","pattern":"X","legs":"M"},"action":"avoid","summary":"bad-avoid","bonus":0.06},{"rt":437.10000000009313,"stimulus":"\n                    <p><b>Action: <em>avoid</em></b></p>\n                    <p>This is the bee that you just saw.</p>\n                    <img src=\"bees-with-color/bee-A1SF.svg\" width=\"200\">\n                    <p><br>Your bonus pay is unchanged, and remains at $0.32.</p>\n            ","response":0,"trial_type":"html-button-response","trial_index":56,"time_elapsed":516568,"internal_node_id":"0.0-4.0-1.24","subject_id":"60bd013b6f4b59f3280a0ff8","study_id":"6197b3f67c2b5cd3b6d9596a","session_id":"619be326b7a8d637df94b5ea","condition":"contingent","relevant_dimensions":["wings","legs"],"bee_group":{"antennae":"X","wings":"1","pattern":"X","legs":"M"},"bonus":0.06},{"rt":700.8999999999069,"stimulus":"bees-with-color/bee-B1DM.svg","response":0,"trial_type":"image-button-response","trial_index":57,"time_elapsed":517269,"internal_node_id":"0.0-4.0-0.25","subject_id":"60bd013b6f4b59f3280a0ff8","study_id":"6197b3f67c2b5cd3b6d9596a","session_id":"619be326b7a8d637df94b5ea","condition":"contingent","relevant_dimensions":["wings","legs"],"bee_group":{"antennae":"X","wings":"1","pattern":"X","legs":"M"},"action":"harvest","summary":"bad-harvest","bonus":0.06},{"rt":617.3999999999069,"stimulus":"\n                    <p><b>Action: <em>harvest</em></b></p>\n                    <p>This is the bee that you just saw.</p>\n                    <img src=\"bees-with-color/bee-B1DM.svg\" width=\"200\">\n                    <p><span class=\"redText\">Bad choice, the bee was angry.</span><br><b>You have been stung!</b><br>Your pay has been decreased by $0.10. Your bonus pay is now $0.22.</p>\n            ","response":0,"trial_type":"html-button-response","trial_index":58,"time_elapsed":517888,"internal_node_id":"0.0-4.0-1.25","subject_id":"60bd013b6f4b59f3280a0ff8","study_id":"6197b3f67c2b5cd3b6d9596a","session_id":"619be326b7a8d637df94b5ea","condition":"contingent","relevant_dimensions":["wings","legs"],"bee_group":{"antennae":"X","wings":"1","pattern":"X","legs":"M"},"bonus":0.06},{"rt":431.10000000009313,"stimulus":"bees-with-color/bee-A1DF.svg","response":1,"trial_type":"image-button-response","trial_index":59,"time_elapsed":518320,"internal_node_id":"0.0-4.0-0.26","subject_id":"60bd013b6f4b59f3280a0ff8","study_id":"6197b3f67c2b5cd3b6d9596a","session_id":"619be326b7a8d637df94b5ea","condition":"contingent","relevant_dimensions":["wings","legs"],"bee_group":{"antennae":"X","wings":"1","pattern":"X","legs":"M"},"action":"avoid","summary":"bad-avoid","bonus":0.06},{"rt":389.60000000009313,"stimulus":"\n                    <p><b>Action: <em>avoid</em></b></p>\n                    <p>This is the bee that you just saw.</p>\n                    <img src=\"bees-with-color/bee-A1DF.svg\" width=\"200\">\n                    <p><br>Your bonus pay is unchanged, and remains at $0.22.</p>\n            ","response":0,"trial_type":"html-button-response","trial_index":60,"time_elapsed":518710,"internal_node_id":"0.0-4.0-1.26","subject_id":"60bd013b6f4b59f3280a0ff8","study_id":"6197b3f67c2b5cd3b6d9596a","session_id":"619be326b7a8d637df94b5ea","condition":"contingent","relevant_dimensions":["wings","legs"],"bee_group":{"antennae":"X","wings":"1","pattern":"X","legs":"M"},"bonus":0.06},{"rt":358.89999999990687,"stimulus":"bees-with-color/bee-A2SF.svg","response":1,"trial_type":"image-button-response","trial_index":61,"time_elapsed":519070,"internal_node_id":"0.0-4.0-0.27","subject_id":"60bd013b6f4b59f3280a0ff8","study_id":"6197b3f67c2b5cd3b6d9596a","session_id":"619be326b7a8d637df94b5ea","condition":"contingent","relevant_dimensions":["wings","legs"],"bee_group":{"antennae":"X","wings":"1","pattern":"X","legs":"M"},"action":"avoid","summary":"bad-avoid","bonus":0.06},{"rt":259.20000000018626,"stimulus":"\n                    <p><b>Action: <em>avoid</em></b></p>\n                    <p>This is the bee that you just saw.</p>\n                    <img src=\"bees-with-color/bee-A2SF.svg\" width=\"200\">\n                    <p><br>Your bonus pay is unchanged, and remains at $0.22.</p>\n            ","response":0,"trial_type":"html-button-response","trial_index":62,"time_elapsed":519330,"internal_node_id":"0.0-4.0-1.27","subject_id":"60bd013b6f4b59f3280a0ff8","study_id":"6197b3f67c2b5cd3b6d9596a","session_id":"619be326b7a8d637df94b5ea","condition":"contingent","relevant_dimensions":["wings","legs"],"bee_group":{"antennae":"X","wings":"1","pattern":"X","legs":"M"},"bonus":0.06},{"rt":309.70000000018626,"stimulus":"bees-with-color/bee-A2DF.svg","response":0,"trial_type":"image-button-response","trial_index":63,"time_elapsed":519640,"internal_node_id":"0.0-4.0-0.28","subject_id":"60bd013b6f4b59f3280a0ff8","study_id":"6197b3f67c2b5cd3b6d9596a","session_id":"619be326b7a8d637df94b5ea","condition":"contingent","relevant_dimensions":["wings","legs"],"bee_group":{"antennae":"X","wings":"1","pattern":"X","legs":"M"},"action":"harvest","summary":"good-harvest","bonus":0.06},{"rt":250.89999999990687,"stimulus":"\n                    <p><b>Action: <em>harvest</em></b></p>\n                    <p>This is the bee that you just saw.</p>\n                    <img src=\"bees-with-color/bee-A2DF.svg\" width=\"200\">\n                    <p><span class=\"greenText\"><b>Successful harvest!</b></span><br>Your pay has increased by $0.02. Your bonus pay is now $0.24.</p>\n            ","response":0,"trial_type":"html-button-response","trial_index":64,"time_elapsed":519892,"internal_node_id":"0.0-4.0-1.28","subject_id":"60bd013b6f4b59f3280a0ff8","study_id":"6197b3f67c2b5cd3b6d9596a","session_id":"619be326b7a8d637df94b5ea","condition":"contingent","relevant_dimensions":["wings","legs"],"bee_group":{"antennae":"X","wings":"1","pattern":"X","legs":"M"},"bonus":0.06},{"rt":610.8999999999069,"stimulus":"bees-with-color/bee-B2DM.svg","response":0,"trial_type":"image-button-response","trial_index":65,"time_elapsed":520504,"internal_node_id":"0.0-4.0-0.29","subject_id":"60bd013b6f4b59f3280a0ff8","study_id":"6197b3f67c2b5cd3b6d9596a","session_id":"619be326b7a8d637df94b5ea","condition":"contingent","relevant_dimensions":["wings","legs"],"bee_group":{"antennae":"X","wings":"1","pattern":"X","legs":"M"},"action":"harvest","summary":"good-harvest","bonus":0.06},{"rt":225.60000000009313,"stimulus":"\n                    <p><b>Action: <em>harvest</em></b></p>\n                    <p>This is the bee that you just saw.</p>\n                    <img src=\"bees-with-color/bee-B2DM.svg\" width=\"200\">\n                    <p><span class=\"greenText\"><b>Successful harvest!</b></span><br>Your pay has increased by $0.02. Your bonus pay is now $0.26.</p>\n            ","response":0,"trial_type":"html-button-response","trial_index":66,"time_elapsed":520730,"internal_node_id":"0.0-4.0-1.29","subject_id":"60bd013b6f4b59f3280a0ff8","study_id":"6197b3f67c2b5cd3b6d9596a","session_id":"619be326b7a8d637df94b5ea","condition":"contingent","relevant_dimensions":["wings","legs"],"bee_group":{"antennae":"X","wings":"1","pattern":"X","legs":"M"},"bonus":0.06},{"rt":5534.700000000186,"stimulus":"bees-with-color/bee-A1DM.svg","response":1,"trial_type":"image-button-response","trial_index":67,"time_elapsed":526266,"internal_node_id":"0.0-4.0-0.30","subject_id":"60bd013b6f4b59f3280a0ff8","study_id":"6197b3f67c2b5cd3b6d9596a","session_id":"619be326b7a8d637df94b5ea","condition":"contingent","relevant_dimensions":["wings","legs"],"bee_group":{"antennae":"X","wings":"1","pattern":"X","legs":"M"},"action":"avoid","summary":"good-avoid","bonus":0.06},{"rt":569.1000000000931,"stimulus":"\n                    <p><b>Action: <em>avoid</em></b></p>\n                    <p>This is the bee that you just saw.</p>\n                    <img src=\"bees-with-color/bee-A1DM.svg\" width=\"200\">\n                    <p><br>Your bonus pay is unchanged, and remains at $0.26.</p>\n            ","response":0,"trial_type":"html-button-response","trial_index":68,"time_elapsed":526836,"internal_node_id":"0.0-4.0-1.30","subject_id":"60bd013b6f4b59f3280a0ff8","study_id":"6197b3f67c2b5cd3b6d9596a","session_id":"619be326b7a8d637df94b5ea","condition":"contingent","relevant_dimensions":["wings","legs"],"bee_group":{"antennae":"X","wings":"1","pattern":"X","legs":"M"},"bonus":0.06},{"rt":11124.899999999907,"stimulus":"bees-with-color/bee-B2SM.svg","response":0,"trial_type":"image-button-response","trial_index":69,"time_elapsed":537962,"internal_node_id":"0.0-4.0-0.31","subject_id":"60bd013b6f4b59f3280a0ff8","study_id":"6197b3f67c2b5cd3b6d9596a","session_id":"619be326b7a8d637df94b5ea","condition":"contingent","relevant_dimensions":["wings","legs"],"bee_group":{"antennae":"X","wings":"1","pattern":"X","legs":"M"},"action":"harvest","summary":"good-harvest","bonus":0.06},{"rt":578.7999999998137,"stimulus":"\n                    <p><b>Action: <em>harvest</em></b></p>\n                    <p>This is the bee that you just saw.</p>\n                    <img src=\"bees-with-color/bee-B2SM.svg\" width=\"200\">\n                    <p><span class=\"greenText\"><b>Successful harvest!</b></span><br>Your pay has increased by $0.02. Your bonus pay is now $0.28.</p>\n            ","response":0,"trial_type":"html-button-response","trial_index":70,"time_elapsed":538542,"internal_node_id":"0.0-4.0-1.31","subject_id":"60bd013b6f4b59f3280a0ff8","study_id":"6197b3f67c2b5cd3b6d9596a","session_id":"619be326b7a8d637df94b5ea","condition":"contingent","relevant_dimensions":["wings","legs"],"bee_group":{"antennae":"X","wings":"1","pattern":"X","legs":"M"},"bonus":0.06},{"rt":568.8999999999069,"stimulus":"bees-with-color/bee-B2SM.svg","response":0,"trial_type":"image-button-response","trial_index":71,"time_elapsed":539112,"internal_node_id":"0.0-4.0-0.32","subject_id":"60bd013b6f4b59f3280a0ff8","study_id":"6197b3f67c2b5cd3b6d9596a","session_id":"619be326b7a8d637df94b5ea","condition":"contingent","relevant_dimensions":["wings","legs"],"bee_group":{"antennae":"X","wings":"1","pattern":"X","legs":"M"},"action":"harvest","summary":"good-harvest","bonus":0.06},{"rt":1107.1000000000931,"stimulus":"\n                    <p><b>Action: <em>harvest</em></b></p>\n                    <p>This is the bee that you just saw.</p>\n                    <img src=\"bees-with-color/bee-B2SM.svg\" width=\"200\">\n                    <p><span class=\"greenText\"><b>Successful harvest!</b></span><br>Your pay has increased by $0.02. Your bonus pay is now $0.30.</p>\n            ","response":0,"trial_type":"html-button-response","trial_index":72,"time_elapsed":540220,"internal_node_id":"0.0-4.0-1.32","subject_id":"60bd013b6f4b59f3280a0ff8","study_id":"6197b3f67c2b5cd3b6d9596a","session_id":"619be326b7a8d637df94b5ea","condition":"contingent","relevant_dimensions":["wings","legs"],"bee_group":{"antennae":"X","wings":"1","pattern":"X","legs":"M"},"bonus":0.06},{"rt":298.89999999990687,"stimulus":"bees-with-color/bee-A1DM.svg","response":1,"trial_type":"image-button-response","trial_index":73,"time_elapsed":540519,"internal_node_id":"0.0-4.0-0.33","subject_id":"60bd013b6f4b59f3280a0ff8","study_id":"6197b3f67c2b5cd3b6d9596a","session_id":"619be326b7a8d637df94b5ea","condition":"contingent","relevant_dimensions":["wings","legs"],"bee_group":{"antennae":"X","wings":"1","pattern":"X","legs":"M"},"action":"avoid","summary":"good-avoid","bonus":0.06},{"rt":297.5,"stimulus":"\n                    <p><b>Action: <em>avoid</em></b></p>\n                    <p>This is the bee that you just saw.</p>\n                    <img src=\"bees-with-color/bee-A1DM.svg\" width=\"200\">\n                    <p><br>Your bonus pay is unchanged, and remains at $0.30.</p>\n            ","response":0,"trial_type":"html-button-response","trial_index":74,"time_elapsed":540818,"internal_node_id":"0.0-4.0-1.33","subject_id":"60bd013b6f4b59f3280a0ff8","study_id":"6197b3f67c2b5cd3b6d9596a","session_id":"619be326b7a8d637df94b5ea","condition":"contingent","relevant_dimensions":["wings","legs"],"bee_group":{"antennae":"X","wings":"1","pattern":"X","legs":"M"},"bonus":0.06},{"rt":319.20000000018626,"stimulus":"bees-with-color/bee-A1DF.svg","response":0,"trial_type":"image-button-response","trial_index":75,"time_elapsed":541138,"internal_node_id":"0.0-4.0-0.34","subject_id":"60bd013b6f4b59f3280a0ff8","study_id":"6197b3f67c2b5cd3b6d9596a","session_id":"619be326b7a8d637df94b5ea","condition":"contingent","relevant_dimensions":["wings","legs"],"bee_group":{"antennae":"X","wings":"1","pattern":"X","legs":"M"},"action":"harvest","summary":"good-harvest","bonus":0.06},{"rt":503,"stimulus":"\n                    <p><b>Action: <em>harvest</em></b></p>\n                    <p>This is the bee that you just saw.</p>\n                    <img src=\"bees-with-color/bee-A1DF.svg\" width=\"200\">\n                    <p><span class=\"greenText\"><b>Successful harvest!</b></span><br>Your pay has increased by $0.02. Your bonus pay is now $0.32.</p>\n            ","response":0,"trial_type":"html-button-response","trial_index":76,"time_elapsed":541642,"internal_node_id":"0.0-4.0-1.34","subject_id":"60bd013b6f4b59f3280a0ff8","study_id":"6197b3f67c2b5cd3b6d9596a","session_id":"619be326b7a8d637df94b5ea","condition":"contingent","relevant_dimensions":["wings","legs"],"bee_group":{"antennae":"X","wings":"1","pattern":"X","legs":"M"},"bonus":0.06},{"rt":415.20000000018626,"stimulus":"bees-with-color/bee-B2SF.svg","response":0,"trial_type":"image-button-response","trial_index":77,"time_elapsed":542058,"internal_node_id":"0.0-4.0-0.35","subject_id":"60bd013b6f4b59f3280a0ff8","study_id":"6197b3f67c2b5cd3b6d9596a","session_id":"619be326b7a8d637df94b5ea","condition":"contingent","relevant_dimensions":["wings","legs"],"bee_group":{"antennae":"X","wings":"1","pattern":"X","legs":"M"},"action":"harvest","summary":"good-harvest","bonus":0.06},{"rt":459.3000000002794,"stimulus":"\n                    <p><b>Action: <em>harvest</em></b></p>\n                    <p>This is the bee that you just saw.</p>\n                    <img src=\"bees-with-color/bee-B2SF.svg\" width=\"200\">\n                    <p><span class=\"greenText\"><b>Successful harvest!</b></span><br>Your pay has increased by $0.02. Your bonus pay is now $0.34.</p>\n            ","response":0,"trial_type":"html-button-response","trial_index":78,"time_elapsed":542518,"internal_node_id":"0.0-4.0-1.35","subject_id":"60bd013b6f4b59f3280a0ff8","study_id":"6197b3f67c2b5cd3b6d9596a","session_id":"619be326b7a8d637df94b5ea","condition":"contingent","relevant_dimensions":["wings","legs"],"bee_group":{"antennae":"X","wings":"1","pattern":"X","legs":"M"},"bonus":0.06},{"rt":4755.399999999907,"stimulus":"bees-with-color/bee-A2SM.svg","response":0,"trial_type":"image-button-response","trial_index":79,"time_elapsed":547274,"internal_node_id":"0.0-4.0-0.36","subject_id":"60bd013b6f4b59f3280a0ff8","study_id":"6197b3f67c2b5cd3b6d9596a","session_id":"619be326b7a8d637df94b5ea","condition":"contingent","relevant_dimensions":["wings","legs"],"bee_group":{"antennae":"X","wings":"1","pattern":"X","legs":"M"},"action":"harvest","summary":"good-harvest","bonus":0.06},{"rt":674.7000000001863,"stimulus":"\n                    <p><b>Action: <em>harvest</em></b></p>\n                    <p>This is the bee that you just saw.</p>\n                    <img src=\"bees-with-color/bee-A2SM.svg\" width=\"200\">\n                    <p><span class=\"greenText\"><b>Successful harvest!</b></span><br>Your pay has increased by $0.02. Your bonus pay is now $0.36.</p>\n            ","response":0,"trial_type":"html-button-response","trial_index":80,"time_elapsed":547950,"internal_node_id":"0.0-4.0-1.36","subject_id":"60bd013b6f4b59f3280a0ff8","study_id":"6197b3f67c2b5cd3b6d9596a","session_id":"619be326b7a8d637df94b5ea","condition":"contingent","relevant_dimensions":["wings","legs"],"bee_group":{"antennae":"X","wings":"1","pattern":"X","legs":"M"},"bonus":0.06},{"rt":1749,"stimulus":"bees-with-color/bee-B1DF.svg","response":1,"trial_type":"image-button-response","trial_index":81,"time_elapsed":549700,"internal_node_id":"0.0-4.0-0.37","subject_id":"60bd013b6f4b59f3280a0ff8","study_id":"6197b3f67c2b5cd3b6d9596a","session_id":"619be326b7a8d637df94b5ea","condition":"contingent","relevant_dimensions":["wings","legs"],"bee_group":{"antennae":"X","wings":"1","pattern":"X","legs":"M"},"action":"avoid","summary":"bad-avoid","bonus":0.06},{"rt":633.2999999998137,"stimulus":"\n                    <p><b>Action: <em>avoid</em></b></p>\n                    <p>This is the bee that you just saw.</p>\n                    <img src=\"bees-with-color/bee-B1DF.svg\" width=\"200\">\n                    <p><br>Your bonus pay is unchanged, and remains at $0.36.</p>\n            ","response":0,"trial_type":"html-button-response","trial_index":82,"time_elapsed":550334,"internal_node_id":"0.0-4.0-1.37","subject_id":"60bd013b6f4b59f3280a0ff8","study_id":"6197b3f67c2b5cd3b6d9596a","session_id":"619be326b7a8d637df94b5ea","condition":"contingent","relevant_dimensions":["wings","legs"],"bee_group":{"antennae":"X","wings":"1","pattern":"X","legs":"M"},"bonus":0.06},{"rt":1251.6000000000931,"stimulus":"bees-with-color/bee-B1SF.svg","response":0,"trial_type":"image-button-response","trial_index":83,"time_elapsed":551586,"internal_node_id":"0.0-4.0-0.38","subject_id":"60bd013b6f4b59f3280a0ff8","study_id":"6197b3f67c2b5cd3b6d9596a","session_id":"619be326b7a8d637df94b5ea","condition":"contingent","relevant_dimensions":["wings","legs"],"bee_group":{"antennae":"X","wings":"1","pattern":"X","legs":"M"},"action":"harvest","summary":"good-harvest","bonus":0.06},{"rt":1200.5,"stimulus":"\n                    <p><b>Action: <em>harvest</em></b></p>\n                    <p>This is the bee that you just saw.</p>\n                    <img src=\"bees-with-color/bee-B1SF.svg\" width=\"200\">\n                    <p><span class=\"greenText\"><b>Successful harvest!</b></span><br>Your pay has increased by $0.02. Your bonus pay is now $0.38.</p>\n            ","response":0,"trial_type":"html-button-response","trial_index":84,"time_elapsed":552788,"internal_node_id":"0.0-4.0-1.38","subject_id":"60bd013b6f4b59f3280a0ff8","study_id":"6197b3f67c2b5cd3b6d9596a","session_id":"619be326b7a8d637df94b5ea","condition":"contingent","relevant_dimensions":["wings","legs"],"bee_group":{"antennae":"X","wings":"1","pattern":"X","legs":"M"},"bonus":0.06},{"rt":2173.2999999998137,"stimulus":"bees-with-color/bee-A1SM.svg","response":0,"trial_type":"image-button-response","trial_index":85,"time_elapsed":554962,"internal_node_id":"0.0-4.0-0.39","subject_id":"60bd013b6f4b59f3280a0ff8","study_id":"6197b3f67c2b5cd3b6d9596a","session_id":"619be326b7a8d637df94b5ea","condition":"contingent","relevant_dimensions":["wings","legs"],"bee_group":{"antennae":"X","wings":"1","pattern":"X","legs":"M"},"action":"harvest","summary":"bad-harvest","bonus":0.06},{"rt":635.0999999996275,"stimulus":"\n                    <p><b>Action: <em>harvest</em></b></p>\n                    <p>This is the bee that you just saw.</p>\n                    <img src=\"bees-with-color/bee-A1SM.svg\" width=\"200\">\n                    <p><span class=\"redText\">Bad choice, the bee was angry.</span><br><b>You have been stung!</b><br>Your pay has been decreased by $0.10. Your bonus pay is now $0.28.</p>\n            ","response":0,"trial_type":"html-button-response","trial_index":86,"time_elapsed":555598,"internal_node_id":"0.0-4.0-1.39","subject_id":"60bd013b6f4b59f3280a0ff8","study_id":"6197b3f67c2b5cd3b6d9596a","session_id":"619be326b7a8d637df94b5ea","condition":"contingent","relevant_dimensions":["wings","legs"],"bee_group":{"antennae":"X","wings":"1","pattern":"X","legs":"M"},"bonus":0.06},{"rt":1226.8999999999069,"stimulus":"bees-with-color/bee-B1DM.svg","response":0,"trial_type":"image-button-response","trial_index":87,"time_elapsed":556826,"internal_node_id":"0.0-4.0-0.40","subject_id":"60bd013b6f4b59f3280a0ff8","study_id":"6197b3f67c2b5cd3b6d9596a","session_id":"619be326b7a8d637df94b5ea","condition":"contingent","relevant_dimensions":["wings","legs"],"bee_group":{"antennae":"X","wings":"1","pattern":"X","legs":"M"},"action":"harvest","summary":"bad-harvest","bonus":0.06},{"rt":535.3999999999069,"stimulus":"\n                    <p><b>Action: <em>harvest</em></b></p>\n                    <p>This is the bee that you just saw.</p>\n                    <img src=\"bees-with-color/bee-B1DM.svg\" width=\"200\">\n                    <p><span class=\"redText\">Bad choice, the bee was angry.</span><br><b>You have been stung!</b><br>Your pay has been decreased by $0.10. Your bonus pay is now $0.18.</p>\n            ","response":0,"trial_type":"html-button-response","trial_index":88,"time_elapsed":557362,"internal_node_id":"0.0-4.0-1.40","subject_id":"60bd013b6f4b59f3280a0ff8","study_id":"6197b3f67c2b5cd3b6d9596a","session_id":"619be326b7a8d637df94b5ea","condition":"contingent","relevant_dimensions":["wings","legs"],"bee_group":{"antennae":"X","wings":"1","pattern":"X","legs":"M"},"bonus":0.06},{"rt":392.8000000002794,"stimulus":"bees-with-color/bee-B1SM.svg","response":0,"trial_type":"image-button-response","trial_index":89,"time_elapsed":557756,"internal_node_id":"0.0-4.0-0.41","subject_id":"60bd013b6f4b59f3280a0ff8","study_id":"6197b3f67c2b5cd3b6d9596a","session_id":"619be326b7a8d637df94b5ea","condition":"contingent","relevant_dimensions":["wings","legs"],"bee_group":{"antennae":"X","wings":"1","pattern":"X","legs":"M"},"action":"harvest","summary":"bad-harvest","bonus":0.06},{"rt":511.10000000009313,"stimulus":"\n                    <p><b>Action: <em>harvest</em></b></p>\n                    <p>This is the bee that you just saw.</p>\n                    <img src=\"bees-with-color/bee-B1SM.svg\" width=\"200\">\n                    <p><span class=\"redText\">Bad choice, the bee was angry.</span><br><b>You have been stung!</b><br>Your pay has been decreased by $0.10. Your bonus pay is now $0.08.</p>\n            ","response":0,"trial_type":"html-button-response","trial_index":90,"time_elapsed":558268,"internal_node_id":"0.0-4.0-1.41","subject_id":"60bd013b6f4b59f3280a0ff8","study_id":"6197b3f67c2b5cd3b6d9596a","session_id":"619be326b7a8d637df94b5ea","condition":"contingent","relevant_dimensions":["wings","legs"],"bee_group":{"antennae":"X","wings":"1","pattern":"X","legs":"M"},"bonus":0.06},{"rt":605.6000000000931,"stimulus":"bees-with-color/bee-B2DF.svg","response":0,"trial_type":"image-button-response","trial_index":91,"time_elapsed":558874,"internal_node_id":"0.0-4.0-0.42","subject_id":"60bd013b6f4b59f3280a0ff8","study_id":"6197b3f67c2b5cd3b6d9596a","session_id":"619be326b7a8d637df94b5ea","condition":"contingent","relevant_dimensions":["wings","legs"],"bee_group":{"antennae":"X","wings":"1","pattern":"X","legs":"M"},"action":"harvest","summary":"good-harvest","bonus":0.06},{"rt":398.60000000009313,"stimulus":"\n                    <p><b>Action: <em>harvest</em></b></p>\n                    <p>This is the bee that you just saw.</p>\n                    <img src=\"bees-with-color/bee-B2DF.svg\" width=\"200\">\n                    <p><span class=\"greenText\"><b>Successful harvest!</b></span><br>Your pay has increased by $0.02. Your bonus pay is now $0.10.</p>\n            ","response":0,"trial_type":"html-button-response","trial_index":92,"time_elapsed":559274,"internal_node_id":"0.0-4.0-1.42","subject_id":"60bd013b6f4b59f3280a0ff8","study_id":"6197b3f67c2b5cd3b6d9596a","session_id":"619be326b7a8d637df94b5ea","condition":"contingent","relevant_dimensions":["wings","legs"],"bee_group":{"antennae":"X","wings":"1","pattern":"X","legs":"M"},"bonus":0.06},{"rt":1365.1000000000931,"stimulus":"bees-with-color/bee-A1SF.svg","response":0,"trial_type":"image-button-response","trial_index":93,"time_elapsed":560640,"internal_node_id":"0.0-4.0-0.43","subject_id":"60bd013b6f4b59f3280a0ff8","study_id":"6197b3f67c2b5cd3b6d9596a","session_id":"619be326b7a8d637df94b5ea","condition":"contingent","relevant_dimensions":["wings","legs"],"bee_group":{"antennae":"X","wings":"1","pattern":"X","legs":"M"},"action":"harvest","summary":"good-harvest","bonus":0.06},{"rt":485,"stimulus":"\n                    <p><b>Action: <em>harvest</em></b></p>\n                    <p>This is the bee that you just saw.</p>\n                    <img src=\"bees-with-color/bee-A1SF.svg\" width=\"200\">\n                    <p><span class=\"greenText\"><b>Successful harvest!</b></span><br>Your pay has increased by $0.02. Your bonus pay is now $0.12.</p>\n            ","response":0,"trial_type":"html-button-response","trial_index":94,"time_elapsed":561126,"internal_node_id":"0.0-4.0-1.43","subject_id":"60bd013b6f4b59f3280a0ff8","study_id":"6197b3f67c2b5cd3b6d9596a","session_id":"619be326b7a8d637df94b5ea","condition":"contingent","relevant_dimensions":["wings","legs"],"bee_group":{"antennae":"X","wings":"1","pattern":"X","legs":"M"},"bonus":0.06},{"rt":389.1999999997206,"stimulus":"bees-with-color/bee-A2DF.svg","response":1,"trial_type":"image-button-response","trial_index":95,"time_elapsed":561516,"internal_node_id":"0.0-4.0-0.44","subject_id":"60bd013b6f4b59f3280a0ff8","study_id":"6197b3f67c2b5cd3b6d9596a","session_id":"619be326b7a8d637df94b5ea","condition":"contingent","relevant_dimensions":["wings","legs"],"bee_group":{"antennae":"X","wings":"1","pattern":"X","legs":"M"},"action":"avoid","summary":"bad-avoid","bonus":0.06},{"rt":396.8000000002794,"stimulus":"\n                    <p><b>Action: <em>avoid</em></b></p>\n                    <p>This is the bee that you just saw.</p>\n                    <img src=\"bees-with-color/bee-A2DF.svg\" width=\"200\">\n                    <p><br>Your bonus pay is unchanged, and remains at $0.12.</p>\n            ","response":0,"trial_type":"html-button-response","trial_index":96,"time_elapsed":561914,"internal_node_id":"0.0-4.0-1.44","subject_id":"60bd013b6f4b59f3280a0ff8","study_id":"6197b3f67c2b5cd3b6d9596a","session_id":"619be326b7a8d637df94b5ea","condition":"contingent","relevant_dimensions":["wings","legs"],"bee_group":{"antennae":"X","wings":"1","pattern":"X","legs":"M"},"bonus":0.06},{"rt":411.60000000009313,"stimulus":"bees-with-color/bee-A2DM.svg","response":0,"trial_type":"image-button-response","trial_index":97,"time_elapsed":562326,"internal_node_id":"0.0-4.0-0.45","subject_id":"60bd013b6f4b59f3280a0ff8","study_id":"6197b3f67c2b5cd3b6d9596a","session_id":"619be326b7a8d637df94b5ea","condition":"contingent","relevant_dimensions":["wings","legs"],"bee_group":{"antennae":"X","wings":"1","pattern":"X","legs":"M"},"action":"harvest","summary":"good-harvest","bonus":0.06},{"rt":436.70000000018626,"stimulus":"\n                    <p><b>Action: <em>harvest</em></b></p>\n                    <p>This is the bee that you just saw.</p>\n                    <img src=\"bees-with-color/bee-A2DM.svg\" width=\"200\">\n                    <p><span class=\"greenText\"><b>Successful harvest!</b></span><br>Your pay has increased by $0.02. Your bonus pay is now $0.14.</p>\n            ","response":0,"trial_type":"html-button-response","trial_index":98,"time_elapsed":562764,"internal_node_id":"0.0-4.0-1.45","subject_id":"60bd013b6f4b59f3280a0ff8","study_id":"6197b3f67c2b5cd3b6d9596a","session_id":"619be326b7a8d637df94b5ea","condition":"contingent","relevant_dimensions":["wings","legs"],"bee_group":{"antennae":"X","wings":"1","pattern":"X","legs":"M"},"bonus":0.06},{"rt":841.2999999998137,"stimulus":"bees-with-color/bee-B2DM.svg","response":0,"trial_type":"image-button-response","trial_index":99,"time_elapsed":563606,"internal_node_id":"0.0-4.0-0.46","subject_id":"60bd013b6f4b59f3280a0ff8","study_id":"6197b3f67c2b5cd3b6d9596a","session_id":"619be326b7a8d637df94b5ea","condition":"contingent","relevant_dimensions":["wings","legs"],"bee_group":{"antennae":"X","wings":"1","pattern":"X","legs":"M"},"action":"harvest","summary":"good-harvest","bonus":0.06},{"rt":412.89999999990687,"stimulus":"\n                    <p><b>Action: <em>harvest</em></b></p>\n                    <p>This is the bee that you just saw.</p>\n                    <img src=\"bees-with-color/bee-B2DM.svg\" width=\"200\">\n                    <p><span class=\"greenText\"><b>Successful harvest!</b></span><br>Your pay has increased by $0.02. Your bonus pay is now $0.16.</p>\n            ","response":0,"trial_type":"html-button-response","trial_index":100,"time_elapsed":564020,"internal_node_id":"0.0-4.0-1.46","subject_id":"60bd013b6f4b59f3280a0ff8","study_id":"6197b3f67c2b5cd3b6d9596a","session_id":"619be326b7a8d637df94b5ea","condition":"contingent","relevant_dimensions":["wings","legs"],"bee_group":{"antennae":"X","wings":"1","pattern":"X","legs":"M"},"bonus":0.06},{"rt":593.1000000000931,"stimulus":"bees-with-color/bee-A2SF.svg","response":0,"trial_type":"image-button-response","trial_index":101,"time_elapsed":564614,"internal_node_id":"0.0-4.0-0.47","subject_id":"60bd013b6f4b59f3280a0ff8","study_id":"6197b3f67c2b5cd3b6d9596a","session_id":"619be326b7a8d637df94b5ea","condition":"contingent","relevant_dimensions":["wings","legs"],"bee_group":{"antennae":"X","wings":"1","pattern":"X","legs":"M"},"action":"harvest","summary":"good-harvest","bonus":0.06},{"rt":435.20000000018626,"stimulus":"\n                    <p><b>Action: <em>harvest</em></b></p>\n                    <p>This is the bee that you just saw.</p>\n                    <img src=\"bees-with-color/bee-A2SF.svg\" width=\"200\">\n                    <p><span class=\"greenText\"><b>Successful harvest!</b></span><br>Your pay has increased by $0.02. Your bonus pay is now $0.18.</p>\n            ","response":0,"trial_type":"html-button-response","trial_index":102,"time_elapsed":565050,"internal_node_id":"0.0-4.0-1.47","subject_id":"60bd013b6f4b59f3280a0ff8","study_id":"6197b3f67c2b5cd3b6d9596a","session_id":"619be326b7a8d637df94b5ea","condition":"contingent","relevant_dimensions":["wings","legs"],"bee_group":{"antennae":"X","wings":"1","pattern":"X","legs":"M"},"bonus":0.06},{"rt":9937.299999999814,"stimulus":"bees-with-color/bee-A1SM.svg","response":0,"trial_type":"image-button-response","trial_index":103,"time_elapsed":574988,"internal_node_id":"0.0-4.0-0.48","subject_id":"60bd013b6f4b59f3280a0ff8","study_id":"6197b3f67c2b5cd3b6d9596a","session_id":"619be326b7a8d637df94b5ea","condition":"contingent","relevant_dimensions":["wings","legs"],"bee_group":{"antennae":"X","wings":"1","pattern":"X","legs":"M"},"action":"harvest","summary":"bad-harvest","bonus":0.06},{"rt":7559.299999999814,"stimulus":"\n                    <p><b>Action: <em>harvest</em></b></p>\n                    <p>This is the bee that you just saw.</p>\n                    <img src=\"bees-with-color/bee-A1SM.svg\" width=\"200\">\n                    <p><span class=\"redText\">Bad choice, the bee was angry.</span><br><b>You have been stung!</b><br>Your pay has been decreased by $0.10. Your bonus pay is now $0.08.</p>\n            ","response":0,"trial_type":"html-button-response","trial_index":104,"time_elapsed":582548,"internal_node_id":"0.0-4.0-1.48","subject_id":"60bd013b6f4b59f3280a0ff8","study_id":"6197b3f67c2b5cd3b6d9596a","session_id":"619be326b7a8d637df94b5ea","condition":"contingent","relevant_dimensions":["wings","legs"],"bee_group":{"antennae":"X","wings":"1","pattern":"X","legs":"M"},"bonus":0.06},{"rt":752.5,"stimulus":"bees-with-color/bee-B2DF.svg","response":0,"trial_type":"image-button-response","trial_index":105,"time_elapsed":583302,"internal_node_id":"0.0-4.0-0.49","subject_id":"60bd013b6f4b59f3280a0ff8","study_id":"6197b3f67c2b5cd3b6d9596a","session_id":"619be326b7a8d637df94b5ea","condition":"contingent","relevant_dimensions":["wings","legs"],"bee_group":{"antennae":"X","wings":"1","pattern":"X","legs":"M"},"action":"harvest","summary":"good-harvest","bonus":0.06},{"rt":533.1000000000931,"stimulus":"\n                    <p><b>Action: <em>harvest</em></b></p>\n                    <p>This is the bee that you just saw.</p>\n                    <img src=\"bees-with-color/bee-B2DF.svg\" width=\"200\">\n                    <p><span class=\"greenText\"><b>Successful harvest!</b></span><br>Your pay has increased by $0.02. Your bonus pay is now $0.10.</p>\n            ","response":0,"trial_type":"html-button-response","trial_index":106,"time_elapsed":583836,"internal_node_id":"0.0-4.0-1.49","subject_id":"60bd013b6f4b59f3280a0ff8","study_id":"6197b3f67c2b5cd3b6d9596a","session_id":"619be326b7a8d637df94b5ea","condition":"contingent","relevant_dimensions":["wings","legs"],"bee_group":{"antennae":"X","wings":"1","pattern":"X","legs":"M"},"bonus":0.06},{"rt":683.5,"stimulus":"bees-with-color/bee-B2SF.svg","response":0,"trial_type":"image-button-response","trial_index":107,"time_elapsed":584520,"internal_node_id":"0.0-4.0-0.50","subject_id":"60bd013b6f4b59f3280a0ff8","study_id":"6197b3f67c2b5cd3b6d9596a","session_id":"619be326b7a8d637df94b5ea","condition":"contingent","relevant_dimensions":["wings","legs"],"bee_group":{"antennae":"X","wings":"1","pattern":"X","legs":"M"},"action":"harvest","summary":"good-harvest","bonus":0.06},{"rt":458.89999999990687,"stimulus":"\n                    <p><b>Action: <em>harvest</em></b></p>\n                    <p>This is the bee that you just saw.</p>\n                    <img src=\"bees-with-color/bee-B2SF.svg\" width=\"200\">\n                    <p><span class=\"greenText\"><b>Successful harvest!</b></span><br>Your pay has increased by $0.02. Your bonus pay is now $0.12.</p>\n            ","response":0,"trial_type":"html-button-response","trial_index":108,"time_elapsed":584980,"internal_node_id":"0.0-4.0-1.50","subject_id":"60bd013b6f4b59f3280a0ff8","study_id":"6197b3f67c2b5cd3b6d9596a","session_id":"619be326b7a8d637df94b5ea","condition":"contingent","relevant_dimensions":["wings","legs"],"bee_group":{"antennae":"X","wings":"1","pattern":"X","legs":"M"},"bonus":0.06},{"rt":669.2000000001863,"stimulus":"bees-with-color/bee-A2SF.svg","response":0,"trial_type":"image-button-response","trial_index":109,"time_elapsed":585650,"internal_node_id":"0.0-4.0-0.51","subject_id":"60bd013b6f4b59f3280a0ff8","study_id":"6197b3f67c2b5cd3b6d9596a","session_id":"619be326b7a8d637df94b5ea","condition":"contingent","relevant_dimensions":["wings","legs"],"bee_group":{"antennae":"X","wings":"1","pattern":"X","legs":"M"},"action":"harvest","summary":"good-harvest","bonus":0.06},{"rt":424.89999999990687,"stimulus":"\n                    <p><b>Action: <em>harvest</em></b></p>\n                    <p>This is the bee that you just saw.</p>\n                    <img src=\"bees-with-color/bee-A2SF.svg\" width=\"200\">\n                    <p><span class=\"greenText\"><b>Successful harvest!</b></span><br>Your pay has increased by $0.02. Your bonus pay is now $0.14.</p>\n            ","response":0,"trial_type":"html-button-response","trial_index":110,"time_elapsed":586076,"internal_node_id":"0.0-4.0-1.51","subject_id":"60bd013b6f4b59f3280a0ff8","study_id":"6197b3f67c2b5cd3b6d9596a","session_id":"619be326b7a8d637df94b5ea","condition":"contingent","relevant_dimensions":["wings","legs"],"bee_group":{"antennae":"X","wings":"1","pattern":"X","legs":"M"},"bonus":0.06},{"rt":1291.2000000001863,"stimulus":"bees-with-color/bee-A1DM.svg","response":0,"trial_type":"image-button-response","trial_index":111,"time_elapsed":587368,"internal_node_id":"0.0-4.0-0.52","subject_id":"60bd013b6f4b59f3280a0ff8","study_id":"6197b3f67c2b5cd3b6d9596a","session_id":"619be326b7a8d637df94b5ea","condition":"contingent","relevant_dimensions":["wings","legs"],"bee_group":{"antennae":"X","wings":"1","pattern":"X","legs":"M"},"action":"harvest","summary":"bad-harvest","bonus":0.06},{"rt":539,"stimulus":"\n                    <p><b>Action: <em>harvest</em></b></p>\n                    <p>This is the bee that you just saw.</p>\n                    <img src=\"bees-with-color/bee-A1DM.svg\" width=\"200\">\n                    <p><span class=\"redText\">Bad choice, the bee was angry.</span><br><b>You have been stung!</b><br>Your pay has been decreased by $0.10. Your bonus pay is now $0.04.</p>\n            ","response":0,"trial_type":"html-button-response","trial_index":112,"time_elapsed":587908,"internal_node_id":"0.0-4.0-1.52","subject_id":"60bd013b6f4b59f3280a0ff8","study_id":"6197b3f67c2b5cd3b6d9596a","session_id":"619be326b7a8d637df94b5ea","condition":"contingent","relevant_dimensions":["wings","legs"],"bee_group":{"antennae":"X","wings":"1","pattern":"X","legs":"M"},"bonus":0.06},{"rt":329.39999999990687,"stimulus":"bees-with-color/bee-A2DM.svg","response":0,"trial_type":"image-button-response","trial_index":113,"time_elapsed":588238,"internal_node_id":"0.0-4.0-0.53","subject_id":"60bd013b6f4b59f3280a0ff8","study_id":"6197b3f67c2b5cd3b6d9596a","session_id":"619be326b7a8d637df94b5ea","condition":"contingent","relevant_dimensions":["wings","legs"],"bee_group":{"antennae":"X","wings":"1","pattern":"X","legs":"M"},"action":"harvest","summary":"good-harvest","bonus":0.06},{"rt":327,"stimulus":"\n                    <p><b>Action: <em>harvest</em></b></p>\n                    <p>This is the bee that you just saw.</p>\n                    <img src=\"bees-with-color/bee-A2DM.svg\" width=\"200\">\n                    <p><span class=\"greenText\"><b>Successful harvest!</b></span><br>Your pay has increased by $0.02. Your bonus pay is now $0.06.</p>\n            ","response":0,"trial_type":"html-button-response","trial_index":114,"time_elapsed":588566,"internal_node_id":"0.0-4.0-1.53","subject_id":"60bd013b6f4b59f3280a0ff8","study_id":"6197b3f67c2b5cd3b6d9596a","session_id":"619be326b7a8d637df94b5ea","condition":"contingent","relevant_dimensions":["wings","legs"],"bee_group":{"antennae":"X","wings":"1","pattern":"X","legs":"M"},"bonus":0.06},{"rt":335.10000000009313,"stimulus":"bees-with-color/bee-A2DF.svg","response":0,"trial_type":"image-button-response","trial_index":115,"time_elapsed":588902,"internal_node_id":"0.0-4.0-0.54","subject_id":"60bd013b6f4b59f3280a0ff8","study_id":"6197b3f67c2b5cd3b6d9596a","session_id":"619be326b7a8d637df94b5ea","condition":"contingent","relevant_dimensions":["wings","legs"],"bee_group":{"antennae":"X","wings":"1","pattern":"X","legs":"M"},"action":"harvest","summary":"good-harvest","bonus":0.06},{"rt":277,"stimulus":"\n                    <p><b>Action: <em>harvest</em></b></p>\n                    <p>This is the bee that you just saw.</p>\n                    <img src=\"bees-with-color/bee-A2DF.svg\" width=\"200\">\n                    <p><span class=\"greenText\"><b>Successful harvest!</b></span><br>Your pay has increased by $0.02. Your bonus pay is now $0.08.</p>\n            ","response":0,"trial_type":"html-button-response","trial_index":116,"time_elapsed":589180,"internal_node_id":"0.0-4.0-1.54","subject_id":"60bd013b6f4b59f3280a0ff8","study_id":"6197b3f67c2b5cd3b6d9596a","session_id":"619be326b7a8d637df94b5ea","condition":"contingent","relevant_dimensions":["wings","legs"],"bee_group":{"antennae":"X","wings":"1","pattern":"X","legs":"M"},"bonus":0.06},{"rt":283.10000000009313,"stimulus":"bees-with-color/bee-A1DF.svg","response":0,"trial_type":"image-button-response","trial_index":117,"time_elapsed":589464,"internal_node_id":"0.0-4.0-0.55","subject_id":"60bd013b6f4b59f3280a0ff8","study_id":"6197b3f67c2b5cd3b6d9596a","session_id":"619be326b7a8d637df94b5ea","condition":"contingent","relevant_dimensions":["wings","legs"],"bee_group":{"antennae":"X","wings":"1","pattern":"X","legs":"M"},"action":"harvest","summary":"good-harvest","bonus":0.06},{"rt":753,"stimulus":"\n                    <p><b>Action: <em>harvest</em></b></p>\n                    <p>This is the bee that you just saw.</p>\n                    <img src=\"bees-with-color/bee-A1DF.svg\" width=\"200\">\n                    <p><span class=\"greenText\"><b>Successful harvest!</b></span><br>Your pay has increased by $0.02. Your bonus pay is now $0.10.</p>\n            ","response":0,"trial_type":"html-button-response","trial_index":118,"time_elapsed":590218,"internal_node_id":"0.0-4.0-1.55","subject_id":"60bd013b6f4b59f3280a0ff8","study_id":"6197b3f67c2b5cd3b6d9596a","session_id":"619be326b7a8d637df94b5ea","condition":"contingent","relevant_dimensions":["wings","legs"],"bee_group":{"antennae":"X","wings":"1","pattern":"X","legs":"M"},"bonus":0.06},{"rt":651,"stimulus":"bees-with-color/bee-B1SF.svg","response":0,"trial_type":"image-button-response","trial_index":119,"time_elapsed":590870,"internal_node_id":"0.0-4.0-0.56","subject_id":"60bd013b6f4b59f3280a0ff8","study_id":"6197b3f67c2b5cd3b6d9596a","session_id":"619be326b7a8d637df94b5ea","condition":"contingent","relevant_dimensions":["wings","legs"],"bee_group":{"antennae":"X","wings":"1","pattern":"X","legs":"M"},"action":"harvest","summary":"good-harvest","bonus":0.06},{"rt":325,"stimulus":"\n                    <p><b>Action: <em>harvest</em></b></p>\n                    <p>This is the bee that you just saw.</p>\n                    <img src=\"bees-with-color/bee-B1SF.svg\" width=\"200\">\n                    <p><span class=\"greenText\"><b>Successful harvest!</b></span><br>Your pay has increased by $0.02. Your bonus pay is now $0.12.</p>\n            ","response":0,"trial_type":"html-button-response","trial_index":120,"time_elapsed":591196,"internal_node_id":"0.0-4.0-1.56","subject_id":"60bd013b6f4b59f3280a0ff8","study_id":"6197b3f67c2b5cd3b6d9596a","session_id":"619be326b7a8d637df94b5ea","condition":"contingent","relevant_dimensions":["wings","legs"],"bee_group":{"antennae":"X","wings":"1","pattern":"X","legs":"M"},"bonus":0.06},{"rt":331.10000000009313,"stimulus":"bees-with-color/bee-B1DF.svg","response":0,"trial_type":"image-button-response","trial_index":121,"time_elapsed":591528,"internal_node_id":"0.0-4.0-0.57","subject_id":"60bd013b6f4b59f3280a0ff8","study_id":"6197b3f67c2b5cd3b6d9596a","session_id":"619be326b7a8d637df94b5ea","condition":"contingent","relevant_dimensions":["wings","legs"],"bee_group":{"antennae":"X","wings":"1","pattern":"X","legs":"M"},"action":"harvest","summary":"good-harvest","bonus":0.06},{"rt":319,"stimulus":"\n                    <p><b>Action: <em>harvest</em></b></p>\n                    <p>This is the bee that you just saw.</p>\n                    <img src=\"bees-with-color/bee-B1DF.svg\" width=\"200\">\n                    <p><span class=\"greenText\"><b>Successful harvest!</b></span><br>Your pay has increased by $0.02. Your bonus pay is now $0.14.</p>\n            ","response":0,"trial_type":"html-button-response","trial_index":122,"time_elapsed":591848,"internal_node_id":"0.0-4.0-1.57","subject_id":"60bd013b6f4b59f3280a0ff8","study_id":"6197b3f67c2b5cd3b6d9596a","session_id":"619be326b7a8d637df94b5ea","condition":"contingent","relevant_dimensions":["wings","legs"],"bee_group":{"antennae":"X","wings":"1","pattern":"X","legs":"M"},"bonus":0.06},{"rt":873,"stimulus":"bees-with-color/bee-B2SM.svg","response":0,"trial_type":"image-button-response","trial_index":123,"time_elapsed":592722,"internal_node_id":"0.0-4.0-0.58","subject_id":"60bd013b6f4b59f3280a0ff8","study_id":"6197b3f67c2b5cd3b6d9596a","session_id":"619be326b7a8d637df94b5ea","condition":"contingent","relevant_dimensions":["wings","legs"],"bee_group":{"antennae":"X","wings":"1","pattern":"X","legs":"M"},"action":"harvest","summary":"good-harvest","bonus":0.06},{"rt":387.3000000002794,"stimulus":"\n                    <p><b>Action: <em>harvest</em></b></p>\n                    <p>This is the bee that you just saw.</p>\n                    <img src=\"bees-with-color/bee-B2SM.svg\" width=\"200\">\n                    <p><span class=\"greenText\"><b>Successful harvest!</b></span><br>Your pay has increased by $0.02. Your bonus pay is now $0.16.</p>\n            ","response":0,"trial_type":"html-button-response","trial_index":124,"time_elapsed":593110,"internal_node_id":"0.0-4.0-1.58","subject_id":"60bd013b6f4b59f3280a0ff8","study_id":"6197b3f67c2b5cd3b6d9596a","session_id":"619be326b7a8d637df94b5ea","condition":"contingent","relevant_dimensions":["wings","legs"],"bee_group":{"antennae":"X","wings":"1","pattern":"X","legs":"M"},"bonus":0.06},{"rt":687.7000000001863,"stimulus":"bees-with-color/bee-A1SF.svg","response":0,"trial_type":"image-button-response","trial_index":125,"time_elapsed":593798,"internal_node_id":"0.0-4.0-0.59","subject_id":"60bd013b6f4b59f3280a0ff8","study_id":"6197b3f67c2b5cd3b6d9596a","session_id":"619be326b7a8d637df94b5ea","condition":"contingent","relevant_dimensions":["wings","legs"],"bee_group":{"antennae":"X","wings":"1","pattern":"X","legs":"M"},"action":"harvest","summary":"good-harvest","bonus":0.06},{"rt":450.89999999990687,"stimulus":"\n                    <p><b>Action: <em>harvest</em></b></p>\n                    <p>This is the bee that you just saw.</p>\n                    <img src=\"bees-with-color/bee-A1SF.svg\" width=\"200\">\n                    <p><span class=\"greenText\"><b>Successful harvest!</b></span><br>Your pay has increased by $0.02. Your bonus pay is now $0.18.</p>\n            ","response":0,"trial_type":"html-button-response","trial_index":126,"time_elapsed":594250,"internal_node_id":"0.0-4.0-1.59","subject_id":"60bd013b6f4b59f3280a0ff8","study_id":"6197b3f67c2b5cd3b6d9596a","session_id":"619be326b7a8d637df94b5ea","condition":"contingent","relevant_dimensions":["wings","legs"],"bee_group":{"antennae":"X","wings":"1","pattern":"X","legs":"M"},"bonus":0.06},{"rt":357.29999999981374,"stimulus":"bees-with-color/bee-B1SM.svg","response":0,"trial_type":"image-button-response","trial_index":127,"time_elapsed":594608,"internal_node_id":"0.0-4.0-0.60","subject_id":"60bd013b6f4b59f3280a0ff8","study_id":"6197b3f67c2b5cd3b6d9596a","session_id":"619be326b7a8d637df94b5ea","condition":"contingent","relevant_dimensions":["wings","legs"],"bee_group":{"antennae":"X","wings":"1","pattern":"X","legs":"M"},"action":"harvest","summary":"bad-harvest","bonus":0.06},{"rt":615,"stimulus":"\n                    <p><b>Action: <em>harvest</em></b></p>\n                    <p>This is the bee that you just saw.</p>\n                    <img src=\"bees-with-color/bee-B1SM.svg\" width=\"200\">\n                    <p><span class=\"redText\">Bad choice, the bee was angry.</span><br><b>You have been stung!</b><br>Your pay has been decreased by $0.10. Your bonus pay is now $0.08.</p>\n            ","response":0,"trial_type":"html-button-response","trial_index":128,"time_elapsed":595224,"internal_node_id":"0.0-4.0-1.60","subject_id":"60bd013b6f4b59f3280a0ff8","study_id":"6197b3f67c2b5cd3b6d9596a","session_id":"619be326b7a8d637df94b5ea","condition":"contingent","relevant_dimensions":["wings","legs"],"bee_group":{"antennae":"X","wings":"1","pattern":"X","legs":"M"},"bonus":0.06},{"rt":375.29999999981374,"stimulus":"bees-with-color/bee-B2DM.svg","response":0,"trial_type":"image-button-response","trial_index":129,"time_elapsed":595600,"internal_node_id":"0.0-4.0-0.61","subject_id":"60bd013b6f4b59f3280a0ff8","study_id":"6197b3f67c2b5cd3b6d9596a","session_id":"619be326b7a8d637df94b5ea","condition":"contingent","relevant_dimensions":["wings","legs"],"bee_group":{"antennae":"X","wings":"1","pattern":"X","legs":"M"},"action":"harvest","summary":"good-harvest","bonus":0.06},{"rt":380.89999999990687,"stimulus":"\n                    <p><b>Action: <em>harvest</em></b></p>\n                    <p>This is the bee that you just saw.</p>\n                    <img src=\"bees-with-color/bee-B2DM.svg\" width=\"200\">\n                    <p><span class=\"greenText\"><b>Successful harvest!</b></span><br>Your pay has increased by $0.02. Your bonus pay is now $0.10.</p>\n            ","response":0,"trial_type":"html-button-response","trial_index":130,"time_elapsed":595982,"internal_node_id":"0.0-4.0-1.61","subject_id":"60bd013b6f4b59f3280a0ff8","study_id":"6197b3f67c2b5cd3b6d9596a","session_id":"619be326b7a8d637df94b5ea","condition":"contingent","relevant_dimensions":["wings","legs"],"bee_group":{"antennae":"X","wings":"1","pattern":"X","legs":"M"},"bonus":0.06},{"rt":1157.3999999999069,"stimulus":"bees-with-color/bee-B1DM.svg","response":0,"trial_type":"image-button-response","trial_index":131,"time_elapsed":597140,"internal_node_id":"0.0-4.0-0.62","subject_id":"60bd013b6f4b59f3280a0ff8","study_id":"6197b3f67c2b5cd3b6d9596a","session_id":"619be326b7a8d637df94b5ea","condition":"contingent","relevant_dimensions":["wings","legs"],"bee_group":{"antennae":"X","wings":"1","pattern":"X","legs":"M"},"action":"harvest","summary":"bad-harvest","bonus":0.06},{"rt":399,"stimulus":"\n                    <p><b>Action: <em>harvest</em></b></p>\n                    <p>This is the bee that you just saw.</p>\n                    <img src=\"bees-with-color/bee-B1DM.svg\" width=\"200\">\n                    <p><span class=\"redText\">Bad choice, the bee was angry.</span><br><b>You have been stung!</b><br>Your pay has been decreased by $0.10. Your bonus pay is now $0.00.</p>\n            ","response":0,"trial_type":"html-button-response","trial_index":132,"time_elapsed":597540,"internal_node_id":"0.0-4.0-1.62","subject_id":"60bd013b6f4b59f3280a0ff8","study_id":"6197b3f67c2b5cd3b6d9596a","session_id":"619be326b7a8d637df94b5ea","condition":"contingent","relevant_dimensions":["wings","legs"],"bee_group":{"antennae":"X","wings":"1","pattern":"X","legs":"M"},"bonus":0.06},{"rt":951.2000000001863,"stimulus":"bees-with-color/bee-A2SM.svg","response":0,"trial_type":"image-button-response","trial_index":133,"time_elapsed":598492,"internal_node_id":"0.0-4.0-0.63","subject_id":"60bd013b6f4b59f3280a0ff8","study_id":"6197b3f67c2b5cd3b6d9596a","session_id":"619be326b7a8d637df94b5ea","condition":"contingent","relevant_dimensions":["wings","legs"],"bee_group":{"antennae":"X","wings":"1","pattern":"X","legs":"M"},"action":"harvest","summary":"good-harvest","bonus":0.06},{"rt":338.89999999990687,"stimulus":"\n                    <p><b>Action: <em>harvest</em></b></p>\n                    <p>This is the bee that you just saw.</p>\n                    <img src=\"bees-with-color/bee-A2SM.svg\" width=\"200\">\n                    <p><span class=\"greenText\"><b>Successful harvest!</b></span><br>Your pay has increased by $0.02. Your bonus pay is now $0.02.</p>\n            ","response":0,"trial_type":"html-button-response","trial_index":134,"time_elapsed":598832,"internal_node_id":"0.0-4.0-1.63","subject_id":"60bd013b6f4b59f3280a0ff8","study_id":"6197b3f67c2b5cd3b6d9596a","session_id":"619be326b7a8d637df94b5ea","condition":"contingent","relevant_dimensions":["wings","legs"],"bee_group":{"antennae":"X","wings":"1","pattern":"X","legs":"M"},"bonus":0.06},{"rt":5722.5999999996275,"stimulus":"You have completed the first part of this experiment.<br><br>You will now begin a shorter second part, in which you will receive no feedback.<br>The same rules regarding bonus pay apply.<br><br>Press any key to begin.","response":"arrowup","trial_type":"html-keyboard-response","trial_index":135,"time_elapsed":604556,"internal_node_id":"0.0-5.0","subject_id":"60bd013b6f4b59f3280a0ff8","study_id":"6197b3f67c2b5cd3b6d9596a","session_id":"619be326b7a8d637df94b5ea","condition":"contingent","relevant_dimensions":["wings","legs"],"bee_group":{"antennae":"X","wings":"1","pattern":"X","legs":"M"},"bonus":0.06},{"rt":6066.299999999814,"stimulus":"bees-with-color/bee-B2DM.svg","response":1,"trial_type":"image-button-response","trial_index":136,"time_elapsed":610646,"internal_node_id":"0.0-6.0-0.0","subject_id":"60bd013b6f4b59f3280a0ff8","study_id":"6197b3f67c2b5cd3b6d9596a","session_id":"619be326b7a8d637df94b5ea","condition":"contingent","relevant_dimensions":["wings","legs"],"bee_group":{"antennae":"X","wings":"1","pattern":"X","legs":"M"},"bonus":0.06},{"rt":1575.6000000005588,"stimulus":"bees-with-color/bee-B1DF.svg","response":0,"trial_type":"image-button-response","trial_index":137,"time_elapsed":612224,"internal_node_id":"0.0-6.0-0.1","subject_id":"60bd013b6f4b59f3280a0ff8","study_id":"6197b3f67c2b5cd3b6d9596a","session_id":"619be326b7a8d637df94b5ea","condition":"contingent","relevant_dimensions":["wings","legs"],"bee_group":{"antennae":"X","wings":"1","pattern":"X","legs":"M"},"bonus":0.06},{"rt":554.7999999998137,"stimulus":"bees-with-color/bee-A2DM.svg","response":1,"trial_type":"image-button-response","trial_index":138,"time_elapsed":612780,"internal_node_id":"0.0-6.0-0.2","subject_id":"60bd013b6f4b59f3280a0ff8","study_id":"6197b3f67c2b5cd3b6d9596a","session_id":"619be326b7a8d637df94b5ea","condition":"contingent","relevant_dimensions":["wings","legs"],"bee_group":{"antennae":"X","wings":"1","pattern":"X","legs":"M"},"bonus":0.06},{"rt":673.0999999996275,"stimulus":"bees-with-color/bee-A2DF.svg","response":0,"trial_type":"image-button-response","trial_index":139,"time_elapsed":613454,"internal_node_id":"0.0-6.0-0.3","subject_id":"60bd013b6f4b59f3280a0ff8","study_id":"6197b3f67c2b5cd3b6d9596a","session_id":"619be326b7a8d637df94b5ea","condition":"contingent","relevant_dimensions":["wings","legs"],"bee_group":{"antennae":"X","wings":"1","pattern":"X","legs":"M"},"bonus":0.06},{"rt":386.59999999962747,"stimulus":"bees-with-color/bee-B2DF.svg","response":0,"trial_type":"image-button-response","trial_index":140,"time_elapsed":613842,"internal_node_id":"0.0-6.0-0.4","subject_id":"60bd013b6f4b59f3280a0ff8","study_id":"6197b3f67c2b5cd3b6d9596a","session_id":"619be326b7a8d637df94b5ea","condition":"contingent","relevant_dimensions":["wings","legs"],"bee_group":{"antennae":"X","wings":"1","pattern":"X","legs":"M"},"bonus":0.06},{"rt":307,"stimulus":"bees-with-color/bee-A1DM.svg","response":0,"trial_type":"image-button-response","trial_index":141,"time_elapsed":614150,"internal_node_id":"0.0-6.0-0.5","subject_id":"60bd013b6f4b59f3280a0ff8","study_id":"6197b3f67c2b5cd3b6d9596a","session_id":"619be326b7a8d637df94b5ea","condition":"contingent","relevant_dimensions":["wings","legs"],"bee_group":{"antennae":"X","wings":"1","pattern":"X","legs":"M"},"bonus":0.06},{"rt":366.5,"stimulus":"bees-with-color/bee-A2SF.svg","response":1,"trial_type":"image-button-response","trial_index":142,"time_elapsed":614518,"internal_node_id":"0.0-6.0-0.6","subject_id":"60bd013b6f4b59f3280a0ff8","study_id":"6197b3f67c2b5cd3b6d9596a","session_id":"619be326b7a8d637df94b5ea","condition":"contingent","relevant_dimensions":["wings","legs"],"bee_group":{"antennae":"X","wings":"1","pattern":"X","legs":"M"},"bonus":0.06},{"rt":390.69999999925494,"stimulus":"bees-with-color/bee-B1SM.svg","response":0,"trial_type":"image-button-response","trial_index":143,"time_elapsed":614910,"internal_node_id":"0.0-6.0-0.7","subject_id":"60bd013b6f4b59f3280a0ff8","study_id":"6197b3f67c2b5cd3b6d9596a","session_id":"619be326b7a8d637df94b5ea","condition":"contingent","relevant_dimensions":["wings","legs"],"bee_group":{"antennae":"X","wings":"1","pattern":"X","legs":"M"},"bonus":0.06},{"rt":284.8999999994412,"stimulus":"bees-with-color/bee-A2SM.svg","response":0,"trial_type":"image-button-response","trial_index":144,"time_elapsed":615196,"internal_node_id":"0.0-6.0-0.8","subject_id":"60bd013b6f4b59f3280a0ff8","study_id":"6197b3f67c2b5cd3b6d9596a","session_id":"619be326b7a8d637df94b5ea","condition":"contingent","relevant_dimensions":["wings","legs"],"bee_group":{"antennae":"X","wings":"1","pattern":"X","legs":"M"},"bonus":0.06},{"rt":156.5,"stimulus":"bees-with-color/bee-B2SF.svg","response":0,"trial_type":"image-button-response","trial_index":145,"time_elapsed":615354,"internal_node_id":"0.0-6.0-0.9","subject_id":"60bd013b6f4b59f3280a0ff8","study_id":"6197b3f67c2b5cd3b6d9596a","session_id":"619be326b7a8d637df94b5ea","condition":"contingent","relevant_dimensions":["wings","legs"],"bee_group":{"antennae":"X","wings":"1","pattern":"X","legs":"M"},"bonus":0.06},{"rt":526.7999999998137,"stimulus":"bees-with-color/bee-B1DM.svg","response":1,"trial_type":"image-button-response","trial_index":146,"time_elapsed":615882,"internal_node_id":"0.0-6.0-0.10","subject_id":"60bd013b6f4b59f3280a0ff8","study_id":"6197b3f67c2b5cd3b6d9596a","session_id":"619be326b7a8d637df94b5ea","condition":"contingent","relevant_dimensions":["wings","legs"],"bee_group":{"antennae":"X","wings":"1","pattern":"X","legs":"M"},"bonus":0.06},{"rt":230.59999999962747,"stimulus":"bees-with-color/bee-A1SM.svg","response":1,"trial_type":"image-button-response","trial_index":147,"time_elapsed":616114,"internal_node_id":"0.0-6.0-0.11","subject_id":"60bd013b6f4b59f3280a0ff8","study_id":"6197b3f67c2b5cd3b6d9596a","session_id":"619be326b7a8d637df94b5ea","condition":"contingent","relevant_dimensions":["wings","legs"],"bee_group":{"antennae":"X","wings":"1","pattern":"X","legs":"M"},"bonus":0.06},{"rt":284.79999999981374,"stimulus":"bees-with-color/bee-B2SM.svg","response":1,"trial_type":"image-button-response","trial_index":148,"time_elapsed":616400,"internal_node_id":"0.0-6.0-0.12","subject_id":"60bd013b6f4b59f3280a0ff8","study_id":"6197b3f67c2b5cd3b6d9596a","session_id":"619be326b7a8d637df94b5ea","condition":"contingent","relevant_dimensions":["wings","legs"],"bee_group":{"antennae":"X","wings":"1","pattern":"X","legs":"M"},"bonus":0.06},{"rt":365.79999999981374,"stimulus":"bees-with-color/bee-A1DF.svg","response":0,"trial_type":"image-button-response","trial_index":149,"time_elapsed":616767,"internal_node_id":"0.0-6.0-0.13","subject_id":"60bd013b6f4b59f3280a0ff8","study_id":"6197b3f67c2b5cd3b6d9596a","session_id":"619be326b7a8d637df94b5ea","condition":"contingent","relevant_dimensions":["wings","legs"],"bee_group":{"antennae":"X","wings":"1","pattern":"X","legs":"M"},"bonus":0.06},{"rt":271.79999999981374,"stimulus":"bees-with-color/bee-A1SF.svg","response":0,"trial_type":"image-button-response","trial_index":150,"time_elapsed":617040,"internal_node_id":"0.0-6.0-0.14","subject_id":"60bd013b6f4b59f3280a0ff8","study_id":"6197b3f67c2b5cd3b6d9596a","session_id":"619be326b7a8d637df94b5ea","condition":"contingent","relevant_dimensions":["wings","legs"],"bee_group":{"antennae":"X","wings":"1","pattern":"X","legs":"M"},"bonus":0.06},{"rt":238.79999999981374,"stimulus":"bees-with-color/bee-B1SF.svg","response":0,"trial_type":"image-button-response","trial_index":151,"time_elapsed":617280,"internal_node_id":"0.0-6.0-0.15","subject_id":"60bd013b6f4b59f3280a0ff8","study_id":"6197b3f67c2b5cd3b6d9596a","session_id":"619be326b7a8d637df94b5ea","condition":"contingent","relevant_dimensions":["wings","legs"],"bee_group":{"antennae":"X","wings":"1","pattern":"X","legs":"M"},"bonus":0.06},{"rt":317,"stimulus":"bees-with-color/bee-A1SM.svg","response":0,"trial_type":"image-button-response","trial_index":152,"time_elapsed":617598,"internal_node_id":"0.0-6.0-0.16","subject_id":"60bd013b6f4b59f3280a0ff8","study_id":"6197b3f67c2b5cd3b6d9596a","session_id":"619be326b7a8d637df94b5ea","condition":"contingent","relevant_dimensions":["wings","legs"],"bee_group":{"antennae":"X","wings":"1","pattern":"X","legs":"M"},"bonus":0.06},{"rt":260.59999999962747,"stimulus":"bees-with-color/bee-B2DF.svg","response":0,"trial_type":"image-button-response","trial_index":153,"time_elapsed":617860,"internal_node_id":"0.0-6.0-0.17","subject_id":"60bd013b6f4b59f3280a0ff8","study_id":"6197b3f67c2b5cd3b6d9596a","session_id":"619be326b7a8d637df94b5ea","condition":"contingent","relevant_dimensions":["wings","legs"],"bee_group":{"antennae":"X","wings":"1","pattern":"X","legs":"M"},"bonus":0.06},{"rt":432.90000000037253,"stimulus":"bees-with-color/bee-B1SM.svg","response":1,"trial_type":"image-button-response","trial_index":154,"time_elapsed":618294,"internal_node_id":"0.0-6.0-0.18","subject_id":"60bd013b6f4b59f3280a0ff8","study_id":"6197b3f67c2b5cd3b6d9596a","session_id":"619be326b7a8d637df94b5ea","condition":"contingent","relevant_dimensions":["wings","legs"],"bee_group":{"antennae":"X","wings":"1","pattern":"X","legs":"M"},"bonus":0.06},{"rt":316.90000000037253,"stimulus":"bees-with-color/bee-B1DF.svg","response":1,"trial_type":"image-button-response","trial_index":155,"time_elapsed":618612,"internal_node_id":"0.0-6.0-0.19","subject_id":"60bd013b6f4b59f3280a0ff8","study_id":"6197b3f67c2b5cd3b6d9596a","session_id":"619be326b7a8d637df94b5ea","condition":"contingent","relevant_dimensions":["wings","legs"],"bee_group":{"antennae":"X","wings":"1","pattern":"X","legs":"M"},"bonus":0.06},{"rt":270.90000000037253,"stimulus":"bees-with-color/bee-A2SM.svg","response":1,"trial_type":"image-button-response","trial_index":156,"time_elapsed":618884,"internal_node_id":"0.0-6.0-0.20","subject_id":"60bd013b6f4b59f3280a0ff8","study_id":"6197b3f67c2b5cd3b6d9596a","session_id":"619be326b7a8d637df94b5ea","condition":"contingent","relevant_dimensions":["wings","legs"],"bee_group":{"antennae":"X","wings":"1","pattern":"X","legs":"M"},"bonus":0.06},{"rt":142.79999999981374,"stimulus":"bees-with-color/bee-A2SF.svg","response":1,"trial_type":"image-button-response","trial_index":157,"time_elapsed":619028,"internal_node_id":"0.0-6.0-0.21","subject_id":"60bd013b6f4b59f3280a0ff8","study_id":"6197b3f67c2b5cd3b6d9596a","session_id":"619be326b7a8d637df94b5ea","condition":"contingent","relevant_dimensions":["wings","legs"],"bee_group":{"antennae":"X","wings":"1","pattern":"X","legs":"M"},"bonus":0.06},{"rt":375.1000000005588,"stimulus":"bees-with-color/bee-A1DF.svg","response":0,"trial_type":"image-button-response","trial_index":158,"time_elapsed":619404,"internal_node_id":"0.0-6.0-0.22","subject_id":"60bd013b6f4b59f3280a0ff8","study_id":"6197b3f67c2b5cd3b6d9596a","session_id":"619be326b7a8d637df94b5ea","condition":"contingent","relevant_dimensions":["wings","legs"],"bee_group":{"antennae":"X","wings":"1","pattern":"X","legs":"M"},"bonus":0.06},{"rt":278.8999999994412,"stimulus":"bees-with-color/bee-B2DM.svg","response":0,"trial_type":"image-button-response","trial_index":159,"time_elapsed":619684,"internal_node_id":"0.0-6.0-0.23","subject_id":"60bd013b6f4b59f3280a0ff8","study_id":"6197b3f67c2b5cd3b6d9596a","session_id":"619be326b7a8d637df94b5ea","condition":"contingent","relevant_dimensions":["wings","legs"],"bee_group":{"antennae":"X","wings":"1","pattern":"X","legs":"M"},"bonus":0.06},{"rt":252.79999999981374,"stimulus":"bees-with-color/bee-B1DM.svg","response":0,"trial_type":"image-button-response","trial_index":160,"time_elapsed":619938,"internal_node_id":"0.0-6.0-0.24","subject_id":"60bd013b6f4b59f3280a0ff8","study_id":"6197b3f67c2b5cd3b6d9596a","session_id":"619be326b7a8d637df94b5ea","condition":"contingent","relevant_dimensions":["wings","legs"],"bee_group":{"antennae":"X","wings":"1","pattern":"X","legs":"M"},"bonus":0.06},{"rt":236.79999999981374,"stimulus":"bees-with-color/bee-A1DM.svg","response":0,"trial_type":"image-button-response","trial_index":161,"time_elapsed":620176,"internal_node_id":"0.0-6.0-0.25","subject_id":"60bd013b6f4b59f3280a0ff8","study_id":"6197b3f67c2b5cd3b6d9596a","session_id":"619be326b7a8d637df94b5ea","condition":"contingent","relevant_dimensions":["wings","legs"],"bee_group":{"antennae":"X","wings":"1","pattern":"X","legs":"M"},"bonus":0.06},{"rt":253.09999999962747,"stimulus":"bees-with-color/bee-B2SM.svg","response":0,"trial_type":"image-button-response","trial_index":162,"time_elapsed":620430,"internal_node_id":"0.0-6.0-0.26","subject_id":"60bd013b6f4b59f3280a0ff8","study_id":"6197b3f67c2b5cd3b6d9596a","session_id":"619be326b7a8d637df94b5ea","condition":"contingent","relevant_dimensions":["wings","legs"],"bee_group":{"antennae":"X","wings":"1","pattern":"X","legs":"M"},"bonus":0.06},{"rt":248.59999999962747,"stimulus":"bees-with-color/bee-B1SF.svg","response":0,"trial_type":"image-button-response","trial_index":163,"time_elapsed":620680,"internal_node_id":"0.0-6.0-0.27","subject_id":"60bd013b6f4b59f3280a0ff8","study_id":"6197b3f67c2b5cd3b6d9596a","session_id":"619be326b7a8d637df94b5ea","condition":"contingent","relevant_dimensions":["wings","legs"],"bee_group":{"antennae":"X","wings":"1","pattern":"X","legs":"M"},"bonus":0.06},{"rt":285.5,"stimulus":"bees-with-color/bee-A2DM.svg","response":1,"trial_type":"image-button-response","trial_index":164,"time_elapsed":620966,"internal_node_id":"0.0-6.0-0.28","subject_id":"60bd013b6f4b59f3280a0ff8","study_id":"6197b3f67c2b5cd3b6d9596a","session_id":"619be326b7a8d637df94b5ea","condition":"contingent","relevant_dimensions":["wings","legs"],"bee_group":{"antennae":"X","wings":"1","pattern":"X","legs":"M"},"bonus":0.06},{"rt":275,"stimulus":"bees-with-color/bee-A1SF.svg","response":1,"trial_type":"image-button-response","trial_index":165,"time_elapsed":621242,"internal_node_id":"0.0-6.0-0.29","subject_id":"60bd013b6f4b59f3280a0ff8","study_id":"6197b3f67c2b5cd3b6d9596a","session_id":"619be326b7a8d637df94b5ea","condition":"contingent","relevant_dimensions":["wings","legs"],"bee_group":{"antennae":"X","wings":"1","pattern":"X","legs":"M"},"bonus":0.06},{"rt":265,"stimu